"acc","accuracy","average_response_time","avg_rt","background","block","canvas_backend","clock_backend","color_backend","compensation","coordinates","correct","correct_instruction1","correct_keyboard_response","correct_response","count_ISI","count_correctFeedback","count_expSequence","count_experiment","count_experimentLoop","count_fixation","count_incorrectFeedback","count_instruction1","count_instruction2","count_keyboard_response","count_logger","count_memorySet","count_practiceLoop","count_probe","count_thankYou","datetime","description","disable_garbage_collection","experiment_file","experiment_path","font_bold","font_family","font_italic","font_size","font_underline","foreground","form_clicks","fullscreen","height","keyboard_backend","live_row","live_row_practiceLoop","logfile","mouse_backend","numberSet","opensesame_codename","opensesame_version","posInSet","present","repeat_cycle","response","response_instruction1","response_instruction2","response_keyboard_response","response_thankYou","response_time","response_time_instruction1","response_time_instruction2","response_time_keyboard_response","response_time_thankYou","round_decimals","sampler_backend","setSize","sound_buf_size","sound_channels","sound_freq","sound_sample_size","start","subject_nr","subject_parity","target","time_ISI","time_correctFeedback","time_expSequence","time_experiment","time_experimentLoop","time_fixation","time_incorrectFeedback","time_instruction1","time_instruction2","time_keyboard_response","time_logger","time_memorySet","time_practiceLoop","time_probe","time_thankYou","title","total_correct","total_response_time","total_responses","uniform_coordinates","width"
"0","0","2000","2000","black","practice","legacy","legacy","legacy","0","uniform","0","undefined","0","right","0","0","0","0","0","0","0","0","0","0","0","0","0","0","0","10/07/18 19:19:19","The main experiment item","yes","Sternbergtask.osexp","C:/Users/I. Edwards/Desktop","no","mono","no","18","no","white","no","yes","768","legacy","0","0","C:/Users/I. Edwards/Desktop/kg-subject-3.csv","legacy","4 1 5","Kafkaesque Koffka","3.2.5","0","n","0","None","right","NA","None","NA","2000","56253","NA","2000","NA","2","legacy","3","1024","2","48000","-16","experiment","3","odd","2","63161","NA","60938","2931","NA","60943","NA","2938","NA","65174","67174","61950","59193","65173","NA","Sternberg task","0","2000","1","yes","1024"
"50","50","1476.5","1476.5","black","practice","legacy","legacy","legacy","0","uniform","1","undefined","1","left","1","1","1","0","0","1","1","0","0","1","1","1","0","1","0","10/07/18 19:19:19","The main experiment item","yes","Sternbergtask.osexp","C:/Users/I. Edwards/Desktop","no","mono","no","18","no","white","no","yes","768","legacy","1","1","C:/Users/I. Edwards/Desktop/kg-subject-3.csv","legacy","6","Kafkaesque Koffka","3.2.5","1","y","0","left","right","NA","left","NA","953","56253","NA","953","NA","2","legacy","1","1024","2","48000","-16","experiment","3","odd","6","70857","NA","68628","2931","NA","68632","67366","2938","NA","72871","73825","69645","59193","72870","NA","Sternberg task","1","2953","2","yes","1024"
"66.6666666667","66.6666666667","1315.66666667","1315.66666667","black","practice","legacy","legacy","legacy","0","uniform","1","undefined","1","right","2","2","2","0","0","2","2","0","0","2","2","2","0","2","0","10/07/18 19:19:19","The main experiment item","yes","Sternbergtask.osexp","C:/Users/I. Edwards/Desktop","no","mono","no","18","no","white","no","yes","768","legacy","2","2","C:/Users/I. Edwards/Desktop/kg-subject-3.csv","legacy","3 1 9 4","Kafkaesque Koffka","3.2.5","0","n","0","right","right","NA","right","NA","994","56253","NA","994","NA","2","legacy","4","1024","2","48000","-16","experiment","3","odd","6","77322","73837","75093","2931","NA","75098","67366","2938","NA","79334","80329","76110","59193","79333","NA","Sternberg task","2","3947","3","yes","1024"
"75","75","1247.5","1247.5","black","practice","legacy","legacy","legacy","0","uniform","1","undefined","1","left","3","3","3","0","0","3","3","0","0","3","3","3","0","3","0","10/07/18 19:19:19","The main experiment item","yes","Sternbergtask.osexp","C:/Users/I. Edwards/Desktop","no","mono","no","18","no","white","no","yes","768","legacy","3","3","C:/Users/I. Edwards/Desktop/kg-subject-3.csv","legacy","4 8","Kafkaesque Koffka","3.2.5","1","y","0","left","right","NA","left","NA","1043","56253","NA","1043","NA","2","legacy","2","1024","2","48000","-16","experiment","3","odd","4","83827","80339","81598","2931","NA","81603","67366","2938","NA","85839","86883","82615","59193","85839","NA","Sternberg task","3","4990","4","yes","1024"
"80","80","1157.6","1157.6","black","practice","legacy","legacy","legacy","0","uniform","1","undefined","1","right","4","4","4","0","0","4","4","0","0","4","4","4","0","4","0","10/07/18 19:19:19","The main experiment item","yes","Sternbergtask.osexp","C:/Users/I. Edwards/Desktop","no","mono","no","18","no","white","no","yes","768","legacy","4","4","C:/Users/I. Edwards/Desktop/kg-subject-3.csv","legacy","5","Kafkaesque Koffka","3.2.5","0","n","0","right","right","NA","right","NA","798","56253","NA","798","NA","2","legacy","1","1024","2","48000","-16","experiment","3","odd","3","90383","86897","88153","2931","NA","88159","67366","2938","NA","92397","93196","89171","59193","92395","NA","Sternberg task","4","5788","5","yes","1024"
"83.3333333333","83.3333333333","1108","1108","black","practice","legacy","legacy","legacy","0","uniform","1","undefined","1","left","5","5","5","0","0","5","5","0","0","5","5","5","0","5","0","10/07/18 19:19:19","The main experiment item","yes","Sternbergtask.osexp","C:/Users/I. Edwards/Desktop","no","mono","no","18","no","white","no","yes","768","legacy","5","5","C:/Users/I. Edwards/Desktop/kg-subject-3.csv","legacy","1 7 9 8 5","Kafkaesque Koffka","3.2.5","4","y","0","left","right","NA","left","NA","860","56253","NA","860","NA","2","legacy","5","1024","2","48000","-16","experiment","3","odd","8","96696","93207","94467","2931","NA","94471","67366","2938","NA","98709","99571","95484","59193","98709","NA","Sternberg task","5","6648","6","yes","1024"
"85.7142857143","85.7142857143","1037.57142857","1037.57142857","black","practice","legacy","legacy","legacy","0","uniform","1","undefined","1","right","6","6","6","0","0","6","6","0","0","6","6","6","0","6","0","10/07/18 19:19:19","The main experiment item","yes","Sternbergtask.osexp","C:/Users/I. Edwards/Desktop","no","mono","no","18","no","white","no","yes","768","legacy","6","6","C:/Users/I. Edwards/Desktop/kg-subject-3.csv","legacy","9 6 7 4 5","Kafkaesque Koffka","3.2.5","0","n","0","right","right","NA","right","NA","615","56253","NA","615","NA","2","legacy","5","1024","2","48000","-16","experiment","3","odd","3","103063","99581","100833","2931","NA","100839","67366","2938","NA","105075","105691","101850","59193","105074","NA","Sternberg task","6","7263","7","yes","1024"
"87.5","87.5","985.5","985.5","black","practice","legacy","legacy","legacy","0","uniform","1","undefined","1","right","7","7","7","0","0","7","7","0","0","7","7","7","0","7","0","10/07/18 19:19:19","The main experiment item","yes","Sternbergtask.osexp","C:/Users/I. Edwards/Desktop","no","mono","no","18","no","white","no","yes","768","legacy","7","7","C:/Users/I. Edwards/Desktop/kg-subject-3.csv","legacy","2 1","Kafkaesque Koffka","3.2.5","0","n","0","right","right","NA","right","NA","621","56253","NA","621","NA","2","legacy","2","1024","2","48000","-16","experiment","3","odd","5","109189","105702","106961","2931","NA","106965","67366","2938","NA","111201","111823","107977","59193","111201","NA","Sternberg task","7","7884","8","yes","1024"
"88.8888888889","88.8888888889","958.555555556","958.555555556","black","practice","legacy","legacy","legacy","0","uniform","1","undefined","1","left","8","8","8","0","0","8","8","0","0","8","8","8","0","8","0","10/07/18 19:19:19","The main experiment item","yes","Sternbergtask.osexp","C:/Users/I. Edwards/Desktop","no","mono","no","18","no","white","no","yes","768","legacy","8","8","C:/Users/I. Edwards/Desktop/kg-subject-3.csv","legacy","4 3 1 7 9 8","Kafkaesque Koffka","3.2.5","1","y","0","left","right","NA","left","NA","743","56253","NA","743","NA","2","legacy","6","1024","2","48000","-16","experiment","3","odd","4","115311","111834","113083","2931","NA","113087","67366","2938","NA","117325","118070","114098","59193","117323","NA","Sternberg task","8","8627","9","yes","1024"
"90","90","1000.6","1000.6","black","practice","legacy","legacy","legacy","0","uniform","1","undefined","1","left","9","9","9","0","0","9","9","0","0","9","9","9","0","9","0","10/07/18 19:19:19","The main experiment item","yes","Sternbergtask.osexp","C:/Users/I. Edwards/Desktop","no","mono","no","18","no","white","no","yes","768","legacy","9","9","C:/Users/I. Edwards/Desktop/kg-subject-3.csv","legacy","2 9 4","Kafkaesque Koffka","3.2.5","3","y","0","left","right","NA","left","NA","1379","56253","NA","1379","NA","2","legacy","3","1024","2","48000","-16","experiment","3","odd","4","121564","118081","119335","2931","NA","119339","67366","2938","NA","123577","124958","120352","59193","123577","NA","Sternberg task","9","10006","10","yes","1024"
"90.9090909091","90.9090909091","977.090909091","977.090909091","black","practice","legacy","legacy","legacy","0","uniform","1","undefined","1","right","10","10","10","0","0","10","10","0","0","10","10","10","0","10","0","10/07/18 19:19:19","The main experiment item","yes","Sternbergtask.osexp","C:/Users/I. Edwards/Desktop","no","mono","no","18","no","white","no","yes","768","legacy","10","10","C:/Users/I. Edwards/Desktop/kg-subject-3.csv","legacy","5 7 8 4 1 2","Kafkaesque Koffka","3.2.5","0","n","0","right","right","NA","right","NA","742","56253","NA","742","NA","2","legacy","6","1024","2","48000","-16","experiment","3","odd","6","128458","124969","126228","2931","NA","126234","67366","2938","NA","130471","131214","127246","59193","130470","NA","Sternberg task","10","10748","11","yes","1024"
"91.6666666667","91.6666666667","979.666666667","979.666666667","black","practice","legacy","legacy","legacy","0","uniform","1","undefined","1","left","11","11","11","0","0","11","11","0","0","11","11","11","0","11","0","10/07/18 19:19:19","The main experiment item","yes","Sternbergtask.osexp","C:/Users/I. Edwards/Desktop","no","mono","no","18","no","white","no","yes","768","legacy","11","11","C:/Users/I. Edwards/Desktop/kg-subject-3.csv","legacy","1 5 2 9","Kafkaesque Koffka","3.2.5","2","y","0","left","right","NA","left","NA","1008","56253","NA","1008","NA","2","legacy","4","1024","2","48000","-16","experiment","3","odd","5","134708","131225","132479","2931","NA","132484","67366","2938","NA","136712","137721","133496","59193","136711","NA","Sternberg task","11","11756","12","yes","1024"
"92.3076923077","92.3076923077","949.769230769","949.769230769","black","experiment","legacy","legacy","legacy","0","uniform","1","undefined","1","left","12","12","12","0","0","12","12","0","0","12","12","12","0","12","0","10/07/18 19:19:19","The main experiment item","yes","Sternbergtask.osexp","C:/Users/I. Edwards/Desktop","no","mono","no","18","no","white","no","yes","768","legacy","0","11","C:/Users/I. Edwards/Desktop/kg-subject-3.csv","legacy","4 6 5 8","Kafkaesque Koffka","3.2.5","1","y","0","left","right","right","left","NA","591","56253","20506","591","NA","2","legacy","4","1024","2","48000","-16","experiment","3","odd","4","161868","137732","159639","2931","159307","159644","67366","2938","138800","163880","164472","160656","59193","163880","NA","Sternberg task","12","12347","13","yes","1024"
"92.8571428571","92.8571428571","928.071428571","928.071428571","black","experiment","legacy","legacy","legacy","0","uniform","1","undefined","1","right","13","13","13","0","0","13","13","0","0","13","13","13","0","13","0","10/07/18 19:19:19","The main experiment item","yes","Sternbergtask.osexp","C:/Users/I. Edwards/Desktop","no","mono","no","18","no","white","no","yes","768","legacy","1","11","C:/Users/I. Edwards/Desktop/kg-subject-3.csv","legacy","8 9","Kafkaesque Koffka","3.2.5","0","n","0","right","right","right","right","NA","646","56253","20506","646","NA","2","legacy","2","1024","2","48000","-16","experiment","3","odd","5","167990","164483","165754","2931","159307","165758","67366","2938","138800","170024","170672","166761","59193","170022","NA","Sternberg task","13","12993","14","yes","1024"
"93.3333333333","93.3333333333","915","915","black","experiment","legacy","legacy","legacy","0","uniform","1","undefined","1","right","14","14","14","0","0","14","14","0","0","14","14","14","0","14","0","10/07/18 19:19:19","The main experiment item","yes","Sternbergtask.osexp","C:/Users/I. Edwards/Desktop","no","mono","no","18","no","white","no","yes","768","legacy","2","11","C:/Users/I. Edwards/Desktop/kg-subject-3.csv","legacy","2 6 4 3 9","Kafkaesque Koffka","3.2.5","0","n","0","right","right","right","right","NA","732","56253","20506","732","NA","2","legacy","5","1024","2","48000","-16","experiment","3","odd","1","174162","170688","171933","2931","159307","171937","67366","2938","138800","176174","176908","172949","59193","176173","NA","Sternberg task","14","13725","15","yes","1024"
"93.75","93.75","898.3125","898.3125","black","experiment","legacy","legacy","legacy","0","uniform","1","undefined","1","left","15","15","15","0","0","15","15","0","0","15","15","15","0","15","0","10/07/18 19:19:19","The main experiment item","yes","Sternbergtask.osexp","C:/Users/I. Edwards/Desktop","no","mono","no","18","no","white","no","yes","768","legacy","3","11","C:/Users/I. Edwards/Desktop/kg-subject-3.csv","legacy","8 7 3","Kafkaesque Koffka","3.2.5","1","y","0","left","right","right","left","NA","648","56253","20506","648","NA","2","legacy","3","1024","2","48000","-16","experiment","3","odd","8","180405","176923","178177","2931","159307","178181","67366","2938","138800","182417","183067","179192","59193","182416","NA","Sternberg task","15","14373","16","yes","1024"
"94.1176470588","94.1176470588","888.470588235","888.470588235","black","experiment","legacy","legacy","legacy","0","uniform","1","undefined","1","left","16","16","16","0","0","16","16","0","0","16","16","16","0","16","0","10/07/18 19:19:19","The main experiment item","yes","Sternbergtask.osexp","C:/Users/I. Edwards/Desktop","no","mono","no","18","no","white","no","yes","768","legacy","4","11","C:/Users/I. Edwards/Desktop/kg-subject-3.csv","legacy","9 6 2 4 1","Kafkaesque Koffka","3.2.5","4","y","0","left","right","right","left","NA","731","56253","20506","731","NA","2","legacy","5","1024","2","48000","-16","experiment","3","odd","4","186568","183077","184338","2931","159307","184344","67366","2938","138800","188584","189317","185356","59193","188579","NA","Sternberg task","16","15104","17","yes","1024"
"94.4444444444","94.4444444444","877.222222222","877.222222222","black","experiment","legacy","legacy","legacy","0","uniform","1","undefined","1","left","17","17","17","0","0","17","17","0","0","17","17","17","0","17","0","10/07/18 19:19:19","The main experiment item","yes","Sternbergtask.osexp","C:/Users/I. Edwards/Desktop","no","mono","no","18","no","white","no","yes","768","legacy","5","11","C:/Users/I. Edwards/Desktop/kg-subject-3.csv","legacy","4 1 5","Kafkaesque Koffka","3.2.5","2","y","0","left","right","right","left","NA","686","56253","20506","686","NA","2","legacy","3","1024","2","48000","-16","experiment","3","odd","1","192824","189327","190595","2931","159307","190600","67366","2938","138800","194836","195524","191611","59193","194836","NA","Sternberg task","17","15790","18","yes","1024"
"94.7368421053","94.7368421053","867.105263158","867.105263158","black","experiment","legacy","legacy","legacy","0","uniform","1","undefined","1","right","18","18","18","0","0","18","18","0","0","18","18","18","0","18","0","10/07/18 19:19:19","The main experiment item","yes","Sternbergtask.osexp","C:/Users/I. Edwards/Desktop","no","mono","no","18","no","white","no","yes","768","legacy","6","11","C:/Users/I. Edwards/Desktop/kg-subject-3.csv","legacy","8 5 4 2 9 6","Kafkaesque Koffka","3.2.5","0","n","0","right","right","right","right","NA","685","56253","20506","685","NA","2","legacy","6","1024","2","48000","-16","experiment","3","odd","3","199024","195534","196804","2931","159307","196808","67366","2938","138800","201036","201722","197811","59193","201035","NA","Sternberg task","18","16475","19","yes","1024"
"95","95","845.55","845.55","black","experiment","legacy","legacy","legacy","0","uniform","1","undefined","1","left","19","19","19","0","0","19","19","0","0","19","19","19","0","19","0","10/07/18 19:19:19","The main experiment item","yes","Sternbergtask.osexp","C:/Users/I. Edwards/Desktop","no","mono","no","18","no","white","no","yes","768","legacy","7","11","C:/Users/I. Edwards/Desktop/kg-subject-3.csv","legacy","7","Kafkaesque Koffka","3.2.5","1","y","0","left","right","right","left","NA","436","56253","20506","436","NA","2","legacy","1","1024","2","48000","-16","experiment","3","odd","7","205224","201733","202996","2931","159307","203000","67366","2938","138800","207237","207675","204012","59193","207236","NA","Sternberg task","19","16911","20","yes","1024"
"95.2380952381","95.2380952381","840.80952381","840.80952381","black","experiment","legacy","legacy","legacy","0","uniform","1","undefined","1","left","20","20","20","0","0","20","20","0","0","20","20","20","0","20","0","10/07/18 19:19:19","The main experiment item","yes","Sternbergtask.osexp","C:/Users/I. Edwards/Desktop","no","mono","no","18","no","white","no","yes","768","legacy","8","11","C:/Users/I. Edwards/Desktop/kg-subject-3.csv","legacy","8 9 6 1","Kafkaesque Koffka","3.2.5","2","y","0","left","right","right","left","NA","746","56253","20506","746","NA","2","legacy","4","1024","2","48000","-16","experiment","3","odd","9","211185","207685","208956","2931","159307","208960","67366","2938","138800","213197","213945","209972","59193","213196","NA","Sternberg task","20","17657","21","yes","1024"
"95.4545454545","95.4545454545","829.227272727","829.227272727","black","experiment","legacy","legacy","legacy","0","uniform","1","undefined","1","left","21","21","21","0","0","21","21","0","0","21","21","21","0","21","0","10/07/18 19:19:19","The main experiment item","yes","Sternbergtask.osexp","C:/Users/I. Edwards/Desktop","no","mono","no","18","no","white","no","yes","768","legacy","9","11","C:/Users/I. Edwards/Desktop/kg-subject-3.csv","legacy","9 4 2","Kafkaesque Koffka","3.2.5","1","y","0","left","right","right","left","NA","586","56253","20506","586","NA","2","legacy","3","1024","2","48000","-16","experiment","3","odd","9","217448","213955","215219","2931","159307","215223","67366","2938","138800","219460","220048","216235","59193","219460","NA","Sternberg task","21","18243","22","yes","1024"
"95.652173913","95.652173913","824.52173913","824.52173913","black","experiment","legacy","legacy","legacy","0","uniform","1","undefined","1","left","22","22","22","0","0","22","22","0","0","22","22","22","0","22","0","10/07/18 19:19:19","The main experiment item","yes","Sternbergtask.osexp","C:/Users/I. Edwards/Desktop","no","mono","no","18","no","white","no","yes","768","legacy","10","11","C:/Users/I. Edwards/Desktop/kg-subject-3.csv","legacy","4 3 2 5 8","Kafkaesque Koffka","3.2.5","2","y","0","left","right","right","left","NA","721","56253","20506","721","NA","2","legacy","5","1024","2","48000","-16","experiment","3","odd","3","223531","220058","221303","2931","159307","221307","67366","2938","138800","225543","226266","222319","59193","225542","NA","Sternberg task","22","18964","23","yes","1024"
"95.8333333333","95.8333333333","816.291666667","816.291666667","black","experiment","legacy","legacy","legacy","0","uniform","1","undefined","1","left","23","23","23","0","0","23","23","0","0","23","23","23","0","23","0","10/07/18 19:19:19","The main experiment item","yes","Sternbergtask.osexp","C:/Users/I. Edwards/Desktop","no","mono","no","18","no","white","no","yes","768","legacy","11","11","C:/Users/I. Edwards/Desktop/kg-subject-3.csv","legacy","8 5 1 3 9","Kafkaesque Koffka","3.2.5","4","y","0","left","right","right","left","NA","627","56253","20506","627","NA","2","legacy","5","1024","2","48000","-16","experiment","3","odd","3","229768","226277","227539","2931","159307","227544","67366","2938","138800","231780","232409","228556","59193","231780","NA","Sternberg task","23","19591","24","yes","1024"
"96","96","806.52","806.52","black","experiment","legacy","legacy","legacy","0","uniform","1","undefined","1","right","24","24","24","0","0","24","24","0","0","24","24","24","0","24","0","10/07/18 19:19:19","The main experiment item","yes","Sternbergtask.osexp","C:/Users/I. Edwards/Desktop","no","mono","no","18","no","white","no","yes","768","legacy","12","11","C:/Users/I. Edwards/Desktop/kg-subject-3.csv","legacy","6 9 4 5 2","Kafkaesque Koffka","3.2.5","0","n","0","right","right","right","right","NA","572","56253","20506","572","NA","2","legacy","5","1024","2","48000","-16","experiment","3","odd","1","235911","232419","233682","2931","159307","233687","67366","2938","138800","237924","238498","234699","59193","237923","NA","Sternberg task","24","20163","25","yes","1024"
"96.1538461538","96.1538461538","797.5","797.5","black","experiment","legacy","legacy","legacy","0","uniform","1","undefined","1","right","25","25","25","0","0","25","25","0","0","25","25","25","0","25","0","10/07/18 19:19:19","The main experiment item","yes","Sternbergtask.osexp","C:/Users/I. Edwards/Desktop","no","mono","no","18","no","white","no","yes","768","legacy","13","11","C:/Users/I. Edwards/Desktop/kg-subject-3.csv","legacy","3 9 1","Kafkaesque Koffka","3.2.5","0","n","0","right","right","right","right","NA","572","56253","20506","572","NA","2","legacy","3","1024","2","48000","-16","experiment","3","odd","7","241989","238509","239761","2931","159307","239765","67366","2938","138800","244002","244575","240776","59193","244001","NA","Sternberg task","25","20735","26","yes","1024"
"96.2962962963","96.2962962963","797.111111111","797.111111111","black","experiment","legacy","legacy","legacy","0","uniform","1","undefined","1","left","26","26","26","0","0","26","26","0","0","26","26","26","0","26","0","10/07/18 19:19:19","The main experiment item","yes","Sternbergtask.osexp","C:/Users/I. Edwards/Desktop","no","mono","no","18","no","white","no","yes","768","legacy","14","11","C:/Users/I. Edwards/Desktop/kg-subject-3.csv","legacy","7 8 4 6 9 5","Kafkaesque Koffka","3.2.5","4","y","0","left","right","right","left","NA","787","56253","20506","787","NA","2","legacy","6","1024","2","48000","-16","experiment","3","odd","6","248065","244586","245836","2931","159307","245841","67366","2938","138800","250077","250866","246853","59193","250077","NA","Sternberg task","26","21522","27","yes","1024"
"96.4285714286","96.4285714286","795.964285714","795.964285714","black","experiment","legacy","legacy","legacy","0","uniform","1","undefined","1","right","27","27","27","0","0","27","27","0","0","27","27","27","0","27","0","10/07/18 19:19:19","The main experiment item","yes","Sternbergtask.osexp","C:/Users/I. Edwards/Desktop","no","mono","no","18","no","white","no","yes","768","legacy","15","11","C:/Users/I. Edwards/Desktop/kg-subject-3.csv","legacy","6 8 4","Kafkaesque Koffka","3.2.5","0","n","0","right","right","right","right","NA","765","56253","20506","765","NA","2","legacy","3","1024","2","48000","-16","experiment","3","odd","1","254363","250876","252135","2931","159307","252139","67366","2938","138800","256376","257143","253150","59193","256375","NA","Sternberg task","27","22287","28","yes","1024"
"93.1034482759","93.1034482759","788.75862069","788.75862069","black","experiment","legacy","legacy","legacy","0","uniform","0","undefined","0","left","28","28","28","0","0","28","28","0","0","28","28","28","0","28","0","10/07/18 19:19:19","The main experiment item","yes","Sternbergtask.osexp","C:/Users/I. Edwards/Desktop","no","mono","no","18","no","white","no","yes","768","legacy","16","11","C:/Users/I. Edwards/Desktop/kg-subject-3.csv","legacy","2 8 5 1","Kafkaesque Koffka","3.2.5","4","y","0","right","right","right","right","NA","587","56253","20506","587","NA","2","legacy","4","1024","2","48000","-16","experiment","3","odd","1","260642","257153","258413","2931","159307","258417","67366","2938","138800","262654","263243","259430","59193","262653","NA","Sternberg task","27","22874","29","yes","1024"
"93.3333333333","93.3333333333","788.5","788.5","black","experiment","legacy","legacy","legacy","0","uniform","1","undefined","1","left","29","29","29","0","0","29","29","0","0","29","29","29","0","29","0","10/07/18 19:19:19","The main experiment item","yes","Sternbergtask.osexp","C:/Users/I. Edwards/Desktop","no","mono","no","18","no","white","no","yes","768","legacy","17","11","C:/Users/I. Edwards/Desktop/kg-subject-3.csv","legacy","2 3","Kafkaesque Koffka","3.2.5","1","y","0","left","right","right","left","NA","781","56253","20506","781","NA","2","legacy","2","1024","2","48000","-16","experiment","3","odd","2","266747","257153","264518","2931","159307","264522","263253","2938","138800","268760","269543","265535","59193","268760","NA","Sternberg task","28","23655","30","yes","1024"
"93.5483870968","93.5483870968","782.580645161","782.580645161","black","experiment","legacy","legacy","legacy","0","uniform","1","undefined","1","right","30","30","30","0","0","30","30","0","0","30","30","30","0","30","0","10/07/18 19:19:19","The main experiment item","yes","Sternbergtask.osexp","C:/Users/I. Edwards/Desktop","no","mono","no","18","no","white","no","yes","768","legacy","18","11","C:/Users/I. Edwards/Desktop/kg-subject-3.csv","legacy","7 3 2 8","Kafkaesque Koffka","3.2.5","0","n","0","right","right","right","right","NA","605","56253","20506","605","NA","2","legacy","4","1024","2","48000","-16","experiment","3","odd","4","273036","269554","270808","2931","159307","270812","263253","2938","138800","275049","275656","271824","59193","275048","NA","Sternberg task","29","24260","31","yes","1024"
"93.75","93.75","777.78125","777.78125","black","experiment","legacy","legacy","legacy","0","uniform","1","undefined","1","left","31","31","31","0","0","31","31","0","0","31","31","31","0","31","0","10/07/18 19:19:19","The main experiment item","yes","Sternbergtask.osexp","C:/Users/I. Edwards/Desktop","no","mono","no","18","no","white","no","yes","768","legacy","19","11","C:/Users/I. Edwards/Desktop/kg-subject-3.csv","legacy","8 9 5 7 1 6","Kafkaesque Koffka","3.2.5","4","y","0","left","right","right","left","NA","629","56253","20506","629","NA","2","legacy","6","1024","2","48000","-16","experiment","3","odd","7","279150","275666","276920","2931","159307","276926","263253","2938","138800","281162","281793","277937","59193","281161","NA","Sternberg task","30","24889","32","yes","1024"
"93.9393939394","93.9393939394","773.03030303","773.03030303","black","experiment","legacy","legacy","legacy","0","uniform","1","undefined","1","right","32","32","32","0","0","32","32","0","0","32","32","32","0","32","0","10/07/18 19:19:19","The main experiment item","yes","Sternbergtask.osexp","C:/Users/I. Edwards/Desktop","no","mono","no","18","no","white","no","yes","768","legacy","20","11","C:/Users/I. Edwards/Desktop/kg-subject-3.csv","legacy","1 4 9 3","Kafkaesque Koffka","3.2.5","0","n","0","right","right","right","right","NA","621","56253","20506","621","NA","2","legacy","4","1024","2","48000","-16","experiment","3","odd","5","285279","281804","283051","2931","159307","283055","263253","2938","138800","287292","287915","284067","59193","287292","NA","Sternberg task","31","25510","33","yes","1024"
"94.1176470588","94.1176470588","773.558823529","773.558823529","black","experiment","legacy","legacy","legacy","0","uniform","1","undefined","1","left","33","33","33","0","0","33","33","0","0","33","33","33","0","33","0","10/07/18 19:19:19","The main experiment item","yes","Sternbergtask.osexp","C:/Users/I. Edwards/Desktop","no","mono","no","18","no","white","no","yes","768","legacy","21","11","C:/Users/I. Edwards/Desktop/kg-subject-3.csv","legacy","8 5 4 7 3 1","Kafkaesque Koffka","3.2.5","2","y","0","left","right","right","left","NA","791","56253","20506","791","NA","2","legacy","6","1024","2","48000","-16","experiment","3","odd","5","291410","287926","289181","2931","159307","289186","263253","2938","138800","293422","294215","290198","59193","293422","NA","Sternberg task","32","26301","34","yes","1024"
"94.2857142857","94.2857142857","772.2","772.2","black","experiment","legacy","legacy","legacy","0","uniform","1","undefined","1","left","34","34","34","0","0","34","34","0","0","34","34","34","0","34","0","10/07/18 19:19:19","The main experiment item","yes","Sternbergtask.osexp","C:/Users/I. Edwards/Desktop","no","mono","no","18","no","white","no","yes","768","legacy","22","11","C:/Users/I. Edwards/Desktop/kg-subject-3.csv","legacy","5 7 3 6 2","Kafkaesque Koffka","3.2.5","5","y","0","left","right","right","left","NA","726","56253","20506","726","NA","2","legacy","5","1024","2","48000","-16","experiment","3","odd","2","297710","294226","295482","2931","159307","295486","263253","2938","138800","299722","300450","296498","59193","299722","NA","Sternberg task","33","27027","35","yes","1024"
"94.4444444444","94.4444444444","769.055555556","769.055555556","black","experiment","legacy","legacy","legacy","0","uniform","1","undefined","1","right","35","35","35","0","0","35","35","0","0","35","35","35","0","35","0","10/07/18 19:19:19","The main experiment item","yes","Sternbergtask.osexp","C:/Users/I. Edwards/Desktop","no","mono","no","18","no","white","no","yes","768","legacy","23","11","C:/Users/I. Edwards/Desktop/kg-subject-3.csv","legacy","1 6 4 3 9 7","Kafkaesque Koffka","3.2.5","0","n","0","right","right","right","right","NA","659","56253","20506","659","NA","2","legacy","6","1024","2","48000","-16","experiment","3","odd","8","303936","300460","301707","2931","159307","301711","263253","2938","138800","305949","306611","302724","59193","305949","NA","Sternberg task","34","27686","36","yes","1024"
"94.5945945946","94.5945945946","762.621621622","762.621621622","black","experiment","legacy","legacy","legacy","0","uniform","1","undefined","1","right","36","36","36","0","0","36","36","0","0","36","36","36","0","36","0","10/07/18 19:19:19","The main experiment item","yes","Sternbergtask.osexp","C:/Users/I. Edwards/Desktop","no","mono","no","18","no","white","no","yes","768","legacy","24","11","C:/Users/I. Edwards/Desktop/kg-subject-3.csv","legacy","5 7 3","Kafkaesque Koffka","3.2.5","0","n","0","right","right","right","right","NA","531","56253","20506","531","NA","2","legacy","3","1024","2","48000","-16","experiment","3","odd","9","310111","306621","307882","2931","159307","307887","263253","2938","138800","312123","312657","308899","59193","312123","NA","Sternberg task","35","28217","37","yes","1024"
"94.7368421053","94.7368421053","762","762","black","experiment","legacy","legacy","legacy","0","uniform","1","undefined","1","right","37","37","37","0","0","37","37","0","0","37","37","37","0","37","0","10/07/18 19:19:19","The main experiment item","yes","Sternbergtask.osexp","C:/Users/I. Edwards/Desktop","no","mono","no","18","no","white","no","yes","768","legacy","25","11","C:/Users/I. Edwards/Desktop/kg-subject-3.csv","legacy","2 5 1 4","Kafkaesque Koffka","3.2.5","0","n","0","right","right","right","right","NA","739","56253","20506","739","NA","2","legacy","4","1024","2","48000","-16","experiment","3","odd","6","316150","312667","313921","2931","159307","313925","263253","2938","138800","318162","318903","314938","59193","318162","NA","Sternberg task","36","28956","38","yes","1024"
"92.3076923077","92.3076923077","765.948717949","765.948717949","black","experiment","legacy","legacy","legacy","0","uniform","0","undefined","0","right","38","38","38","0","0","38","38","0","0","38","38","38","0","38","0","10/07/18 19:19:19","The main experiment item","yes","Sternbergtask.osexp","C:/Users/I. Edwards/Desktop","no","mono","no","18","no","white","no","yes","768","legacy","26","11","C:/Users/I. Edwards/Desktop/kg-subject-3.csv","legacy","2 8 9 4 1","Kafkaesque Koffka","3.2.5","0","n","0","left","right","right","left","NA","916","56253","20506","916","NA","2","legacy","5","1024","2","48000","-16","experiment","3","odd","5","322395","318914","320166","2931","159307","320170","263253","2938","138800","324408","325326","321183","59193","324408","NA","Sternberg task","36","29872","39","yes","1024"
"90","90","765.175","765.175","black","experiment","legacy","legacy","legacy","0","uniform","0","undefined","0","left","39","39","39","0","0","39","39","0","0","39","39","39","0","39","0","10/07/18 19:19:19","The main experiment item","yes","Sternbergtask.osexp","C:/Users/I. Edwards/Desktop","no","mono","no","18","no","white","no","yes","768","legacy","27","11","C:/Users/I. Edwards/Desktop/kg-subject-3.csv","legacy","9 3 1 2 5","Kafkaesque Koffka","3.2.5","4","y","0","right","right","right","right","NA","735","56253","20506","735","NA","2","legacy","5","1024","2","48000","-16","experiment","3","odd","2","328822","318914","326593","2931","159307","326598","325337","2938","138800","330835","331572","327610","59193","330834","NA","Sternberg task","36","30607","40","yes","1024"
"90.243902439","90.243902439","763.951219512","763.951219512","black","experiment","legacy","legacy","legacy","0","uniform","1","undefined","1","right","40","40","40","0","0","40","40","0","0","40","40","40","0","40","0","10/07/18 19:19:19","The main experiment item","yes","Sternbergtask.osexp","C:/Users/I. Edwards/Desktop","no","mono","no","18","no","white","no","yes","768","legacy","28","11","C:/Users/I. Edwards/Desktop/kg-subject-3.csv","legacy","5","Kafkaesque Koffka","3.2.5","0","n","0","right","right","right","right","NA","715","56253","20506","715","NA","2","legacy","1","1024","2","48000","-16","experiment","3","odd","8","335065","318914","332836","2931","159307","332840","331583","2938","138800","337076","337793","333853","59193","337076","NA","Sternberg task","37","31322","41","yes","1024"
"90.4761904762","90.4761904762","769.214285714","769.214285714","black","experiment","legacy","legacy","legacy","0","uniform","1","undefined","1","left","41","41","41","0","0","41","41","0","0","41","41","41","0","41","0","10/07/18 19:19:19","The main experiment item","yes","Sternbergtask.osexp","C:/Users/I. Edwards/Desktop","no","mono","no","18","no","white","no","yes","768","legacy","29","11","C:/Users/I. Edwards/Desktop/kg-subject-3.csv","legacy","7 8 6 3 1","Kafkaesque Koffka","3.2.5","5","y","0","left","right","right","left","NA","985","56253","20506","985","NA","2","legacy","5","1024","2","48000","-16","experiment","3","odd","1","341289","337803","339061","2931","159307","339065","331583","2938","138800","343302","344289","340077","59193","343301","NA","Sternberg task","38","32307","42","yes","1024"
"90.6976744186","90.6976744186","768.441860465","768.441860465","black","experiment","legacy","legacy","legacy","0","uniform","1","undefined","1","right","42","42","42","0","0","42","42","0","0","42","42","42","0","42","0","10/07/18 19:19:19","The main experiment item","yes","Sternbergtask.osexp","C:/Users/I. Edwards/Desktop","no","mono","no","18","no","white","no","yes","768","legacy","30","11","C:/Users/I. Edwards/Desktop/kg-subject-3.csv","legacy","7 9","Kafkaesque Koffka","3.2.5","0","n","0","right","right","right","right","NA","736","56253","20506","736","NA","2","legacy","2","1024","2","48000","-16","experiment","3","odd","1","347784","344300","345555","2931","159307","345560","331583","2938","138800","349796","350534","346571","59193","349795","NA","Sternberg task","39","33043","43","yes","1024"
"90.9090909091","90.9090909091","768.386363636","768.386363636","black","experiment","legacy","legacy","legacy","0","uniform","1","undefined","1","right","43","43","43","0","0","43","43","0","0","43","43","43","0","43","0","10/07/18 19:19:19","The main experiment item","yes","Sternbergtask.osexp","C:/Users/I. Edwards/Desktop","no","mono","no","18","no","white","no","yes","768","legacy","31","11","C:/Users/I. Edwards/Desktop/kg-subject-3.csv","legacy","5 9 2 3","Kafkaesque Koffka","3.2.5","0","n","0","right","right","right","right","NA","766","56253","20506","766","NA","2","legacy","4","1024","2","48000","-16","experiment","3","odd","8","354036","350545","351807","2931","159307","351811","331583","2938","138800","356048","356816","352824","59193","356047","NA","Sternberg task","40","33809","44","yes","1024"
"91.1111111111","91.1111111111","767.844444444","767.844444444","black","experiment","legacy","legacy","legacy","0","uniform","1","undefined","1","left","44","44","44","0","0","44","44","0","0","44","44","44","0","44","0","10/07/18 19:19:19","The main experiment item","yes","Sternbergtask.osexp","C:/Users/I. Edwards/Desktop","no","mono","no","18","no","white","no","yes","768","legacy","32","11","C:/Users/I. Edwards/Desktop/kg-subject-3.csv","legacy","4 9 7 8 5 3","Kafkaesque Koffka","3.2.5","4","y","0","left","right","right","left","NA","744","56253","20506","744","NA","2","legacy","6","1024","2","48000","-16","experiment","3","odd","8","360315","356827","358088","2931","159307","358093","331583","2938","138800","362327","363074","359104","59193","362327","NA","Sternberg task","41","34553","45","yes","1024"
"91.3043478261","91.3043478261","764.52173913","764.52173913","black","experiment","legacy","legacy","legacy","0","uniform","1","undefined","1","left","45","45","45","0","0","45","45","0","0","45","45","45","0","45","0","10/07/18 19:19:19","The main experiment item","yes","Sternbergtask.osexp","C:/Users/I. Edwards/Desktop","no","mono","no","18","no","white","no","yes","768","legacy","33","11","C:/Users/I. Edwards/Desktop/kg-subject-3.csv","legacy","3 5 4 7","Kafkaesque Koffka","3.2.5","1","y","0","left","right","right","left","NA","615","56253","20506","615","NA","2","legacy","4","1024","2","48000","-16","experiment","3","odd","3","366563","363085","364334","2931","159307","364338","331583","2938","138800","368575","369193","365350","59193","368575","NA","Sternberg task","42","35168","46","yes","1024"
"91.4893617021","91.4893617021","760.957446809","760.957446809","black","experiment","legacy","legacy","legacy","0","uniform","1","undefined","1","right","46","46","46","0","0","46","46","0","0","46","46","46","0","46","0","10/07/18 19:19:19","The main experiment item","yes","Sternbergtask.osexp","C:/Users/I. Edwards/Desktop","no","mono","no","18","no","white","no","yes","768","legacy","34","11","C:/Users/I. Edwards/Desktop/kg-subject-3.csv","legacy","2 8 6 3 1","Kafkaesque Koffka","3.2.5","0","n","0","right","right","right","right","NA","597","56253","20506","597","NA","2","legacy","5","1024","2","48000","-16","experiment","3","odd","7","372686","369203","370457","2931","159307","370461","331583","2938","138800","374699","375298","371474","59193","374699","NA","Sternberg task","43","35765","47","yes","1024"
"91.6666666667","91.6666666667","758.666666667","758.666666667","black","experiment","legacy","legacy","legacy","0","uniform","1","undefined","1","right","47","47","47","0","0","47","47","0","0","47","47","47","0","47","0","10/07/18 19:19:19","The main experiment item","yes","Sternbergtask.osexp","C:/Users/I. Edwards/Desktop","no","mono","no","18","no","white","no","yes","768","legacy","35","11","C:/Users/I. Edwards/Desktop/kg-subject-3.csv","legacy","1 7 5 2","Kafkaesque Koffka","3.2.5","0","n","0","right","right","right","right","NA","651","56253","20506","651","NA","2","legacy","4","1024","2","48000","-16","experiment","3","odd","3","378787","375309","376558","2931","159307","376563","331583","2938","138800","380799","381453","377574","59193","380798","NA","Sternberg task","44","36416","48","yes","1024"
"91.8367346939","91.8367346939","765.755102041","765.755102041","black","experiment","legacy","legacy","legacy","0","uniform","1","undefined","1","left","48","48","48","0","0","48","48","0","0","48","48","48","0","48","0","10/07/18 19:19:19","The main experiment item","yes","Sternbergtask.osexp","C:/Users/I. Edwards/Desktop","no","mono","no","18","no","white","no","yes","768","legacy","36","11","C:/Users/I. Edwards/Desktop/kg-subject-3.csv","legacy","8 1 6","Kafkaesque Koffka","3.2.5","3","y","0","left","right","right","left","NA","1106","56253","20506","1106","NA","2","legacy","3","1024","2","48000","-16","experiment","3","odd","6","384940","381463","382712","2931","159307","382716","331583","2938","138800","386952","388060","383728","59193","386951","NA","Sternberg task","45","37522","49","yes","1024"
"92","92","765.14","765.14","black","experiment","legacy","legacy","legacy","0","uniform","1","undefined","1","left","49","49","49","0","0","49","49","0","0","49","49","49","0","49","0","10/07/18 19:19:19","The main experiment item","yes","Sternbergtask.osexp","C:/Users/I. Edwards/Desktop","no","mono","no","18","no","white","no","yes","768","legacy","37","11","C:/Users/I. Edwards/Desktop/kg-subject-3.csv","legacy","9 5 8 1","Kafkaesque Koffka","3.2.5","2","y","0","left","right","right","left","NA","735","56253","20506","735","NA","2","legacy","4","1024","2","48000","-16","experiment","3","odd","5","391552","388071","389323","2931","159307","389328","331583","2938","138800","393564","394302","390339","59193","393563","NA","Sternberg task","46","38257","50","yes","1024"
"92.1568627451","92.1568627451","760.862745098","760.862745098","black","experiment","legacy","legacy","legacy","0","uniform","1","undefined","1","right","50","50","50","0","0","50","50","0","0","50","50","50","0","50","0","10/07/18 19:19:19","The main experiment item","yes","Sternbergtask.osexp","C:/Users/I. Edwards/Desktop","no","mono","no","18","no","white","no","yes","768","legacy","38","11","C:/Users/I. Edwards/Desktop/kg-subject-3.csv","legacy","4 1","Kafkaesque Koffka","3.2.5","0","n","0","right","right","right","right","NA","547","56253","20506","547","NA","2","legacy","2","1024","2","48000","-16","experiment","3","odd","6","397804","394312","395575","2931","159307","395579","331583","2938","138800","399816","400366","396592","59193","399815","NA","Sternberg task","47","38804","51","yes","1024"
"90.3846153846","90.3846153846","759.326923077","759.326923077","black","experiment","legacy","legacy","legacy","0","uniform","0","undefined","0","left","51","51","51","0","0","51","51","0","0","51","51","51","0","51","0","10/07/18 19:19:19","The main experiment item","yes","Sternbergtask.osexp","C:/Users/I. Edwards/Desktop","no","mono","no","18","no","white","no","yes","768","legacy","39","11","C:/Users/I. Edwards/Desktop/kg-subject-3.csv","legacy","9 1 6 7 8","Kafkaesque Koffka","3.2.5","1","y","0","right","right","right","right","NA","681","56253","20506","681","NA","2","legacy","5","1024","2","48000","-16","experiment","3","odd","9","403871","400377","401643","2931","159307","401647","331583","2938","138800","405890","406574","402659","59193","405882","NA","Sternberg task","47","39485","52","yes","1024"
"90.5660377358","90.5660377358","761.358490566","761.358490566","black","experiment","legacy","legacy","legacy","0","uniform","1","undefined","1","right","52","52","52","0","0","52","52","0","0","52","52","52","0","52","0","10/07/18 19:19:19","The main experiment item","yes","Sternbergtask.osexp","C:/Users/I. Edwards/Desktop","no","mono","no","18","no","white","no","yes","768","legacy","40","11","C:/Users/I. Edwards/Desktop/kg-subject-3.csv","legacy","8 2 1 4 5 9","Kafkaesque Koffka","3.2.5","0","n","0","right","right","right","right","NA","867","56253","20506","867","NA","2","legacy","6","1024","2","48000","-16","experiment","3","odd","7","410070","400377","407840","2931","159307","407844","406584","2938","138800","412082","412952","408857","59193","412081","NA","Sternberg task","48","40352","53","yes","1024"
"90.7407407407","90.7407407407","758.314814815","758.314814815","black","experiment","legacy","legacy","legacy","0","uniform","1","undefined","1","left","53","53","53","0","0","53","53","0","0","53","53","53","0","53","0","10/07/18 19:19:19","The main experiment item","yes","Sternbergtask.osexp","C:/Users/I. Edwards/Desktop","no","mono","no","18","no","white","no","yes","768","legacy","41","11","C:/Users/I. Edwards/Desktop/kg-subject-3.csv","legacy","6 7 9 3 1 2","Kafkaesque Koffka","3.2.5","1","y","0","left","right","right","left","NA","597","56253","20506","597","NA","2","legacy","6","1024","2","48000","-16","experiment","3","odd","6","416440","412961","414211","2931","159307","414215","406584","2938","138800","418452","419052","415228","59193","418451","NA","Sternberg task","49","40949","54","yes","1024"
"90.9090909091","90.9090909091","759.272727273","759.272727273","black","experiment","legacy","legacy","legacy","0","uniform","1","undefined","1","right","54","54","54","0","0","54","54","0","0","54","54","54","0","54","0","10/07/18 19:19:19","The main experiment item","yes","Sternbergtask.osexp","C:/Users/I. Edwards/Desktop","no","mono","no","18","no","white","no","yes","768","legacy","42","11","C:/Users/I. Edwards/Desktop/kg-subject-3.csv","legacy","1 5 3 2 8","Kafkaesque Koffka","3.2.5","0","n","0","right","right","right","right","NA","811","56253","20506","811","NA","2","legacy","5","1024","2","48000","-16","experiment","3","odd","4","422554","419063","420325","2931","159307","420330","406584","2938","138800","424566","425380","421341","59193","424565","NA","Sternberg task","50","41760","55","yes","1024"
"91.0714285714","91.0714285714","757.053571429","757.053571429","black","experiment","legacy","legacy","legacy","0","uniform","1","undefined","1","left","55","55","55","0","0","55","55","0","0","55","55","55","0","55","0","10/07/18 19:19:19","The main experiment item","yes","Sternbergtask.osexp","C:/Users/I. Edwards/Desktop","no","mono","no","18","no","white","no","yes","768","legacy","43","11","C:/Users/I. Edwards/Desktop/kg-subject-3.csv","legacy","7 6","Kafkaesque Koffka","3.2.5","2","y","0","left","right","right","left","NA","635","56253","20506","635","NA","2","legacy","2","1024","2","48000","-16","experiment","3","odd","6","428879","425390","426651","2931","159307","426655","406584","2938","138800","430891","431529","427667","59193","430891","NA","Sternberg task","51","42395","56","yes","1024"
"91.2280701754","91.2280701754","763.350877193","763.350877193","black","experiment","legacy","legacy","legacy","0","uniform","1","undefined","1","left","56","56","56","0","0","56","56","0","0","56","56","56","0","56","0","10/07/18 19:19:19","The main experiment item","yes","Sternbergtask.osexp","C:/Users/I. Edwards/Desktop","no","mono","no","18","no","white","no","yes","768","legacy","44","11","C:/Users/I. Edwards/Desktop/kg-subject-3.csv","legacy","6 8 9 3 4 9","Kafkaesque Koffka","3.2.5","5","y","0","left","right","right","left","NA","1116","56253","20506","1116","NA","2","legacy","6","1024","2","48000","-16","experiment","3","odd","4","435024","431540","432796","2931","159307","432800","406584","2938","138800","437036","438155","433812","59193","437036","NA","Sternberg task","52","43511","57","yes","1024"
"91.3793103448","91.3793103448","760.74137931","760.74137931","black","experiment","legacy","legacy","legacy","0","uniform","1","undefined","1","left","57","57","57","0","0","57","57","0","0","57","57","57","0","57","0","10/07/18 19:19:19","The main experiment item","yes","Sternbergtask.osexp","C:/Users/I. Edwards/Desktop","no","mono","no","18","no","white","no","yes","768","legacy","45","11","C:/Users/I. Edwards/Desktop/kg-subject-3.csv","legacy","2 3 7 4","Kafkaesque Koffka","3.2.5","1","y","0","left","right","right","left","NA","612","56253","20506","612","NA","2","legacy","4","1024","2","48000","-16","experiment","3","odd","2","441642","438166","439413","2931","159307","439417","406584","2938","138800","443654","444269","440430","59193","443654","NA","Sternberg task","53","44123","58","yes","1024"
"91.5254237288","91.5254237288","761.966101695","761.966101695","black","experiment","legacy","legacy","legacy","0","uniform","1","undefined","1","right","58","58","58","0","0","58","58","0","0","58","58","58","0","58","0","10/07/18 19:19:19","The main experiment item","yes","Sternbergtask.osexp","C:/Users/I. Edwards/Desktop","no","mono","no","18","no","white","no","yes","768","legacy","46","11","C:/Users/I. Edwards/Desktop/kg-subject-3.csv","legacy","7 1 5 6 3","Kafkaesque Koffka","3.2.5","0","n","0","right","right","right","right","NA","833","56253","20506","833","NA","2","legacy","5","1024","2","48000","-16","experiment","3","odd","8","447745","444279","445517","2931","159307","445521","406584","2938","138800","449757","450593","446533","59193","449757","NA","Sternberg task","54","44956","59","yes","1024"
"91.6666666667","91.6666666667","759.166666667","759.166666667","black","experiment","legacy","legacy","legacy","0","uniform","1","undefined","1","right","59","59","59","0","0","59","59","0","0","59","59","59","0","59","0","10/07/18 19:19:19","The main experiment item","yes","Sternbergtask.osexp","C:/Users/I. Edwards/Desktop","no","mono","no","18","no","white","no","yes","768","legacy","47","11","C:/Users/I. Edwards/Desktop/kg-subject-3.csv","legacy","1","Kafkaesque Koffka","3.2.5","0","n","0","right","right","right","right","NA","594","56253","20506","594","NA","2","legacy","1","1024","2","48000","-16","experiment","3","odd","7","454094","450604","451866","2931","159307","451870","406584","2938","138800","456107","456704","452882","59193","456107","NA","Sternberg task","55","45550","60","yes","1024"
"91.8032786885","91.8032786885","763.508196721","763.508196721","black","experiment","legacy","legacy","legacy","0","uniform","1","undefined","1","left","60","60","60","0","0","60","60","0","0","60","60","60","0","60","0","10/07/18 19:19:19","The main experiment item","yes","Sternbergtask.osexp","C:/Users/I. Edwards/Desktop","no","mono","no","18","no","white","no","yes","768","legacy","48","11","C:/Users/I. Edwards/Desktop/kg-subject-3.csv","legacy","7 1 8 5 6 2","Kafkaesque Koffka","3.2.5","2","y","0","left","right","right","left","NA","1024","56253","20506","1024","NA","2","legacy","6","1024","2","48000","-16","experiment","3","odd","1","460202","456714","457974","2931","159307","457978","406584","2938","138800","462214","463241","458990","59193","462213","NA","Sternberg task","56","46574","61","yes","1024"
"91.935483871","91.935483871","766.032258065","766.032258065","black","experiment","legacy","legacy","legacy","0","uniform","1","undefined","1","right","61","61","61","0","0","61","61","0","0","61","61","61","0","61","0","10/07/18 19:19:19","The main experiment item","yes","Sternbergtask.osexp","C:/Users/I. Edwards/Desktop","no","mono","no","18","no","white","no","yes","768","legacy","49","11","C:/Users/I. Edwards/Desktop/kg-subject-3.csv","legacy","9 5 3 2 8 6","Kafkaesque Koffka","3.2.5","0","n","0","right","right","right","right","NA","920","56253","20506","920","NA","2","legacy","6","1024","2","48000","-16","experiment","3","odd","7","466743","463251","464514","2931","159307","464518","406584","2938","138800","468755","469678","465530","59193","468754","NA","Sternberg task","57","47494","62","yes","1024"
"92.0634920635","92.0634920635","764.650793651","764.650793651","black","experiment","legacy","legacy","legacy","0","uniform","1","undefined","1","right","62","62","62","0","0","62","62","0","0","62","62","62","0","62","0","10/07/18 19:19:19","The main experiment item","yes","Sternbergtask.osexp","C:/Users/I. Edwards/Desktop","no","mono","no","18","no","white","no","yes","768","legacy","50","11","C:/Users/I. Edwards/Desktop/kg-subject-3.csv","legacy","8 6 3 4 7","Kafkaesque Koffka","3.2.5","0","n","0","right","right","right","right","NA","679","56253","20506","679","NA","2","legacy","5","1024","2","48000","-16","experiment","3","odd","1","473168","469688","470940","2931","159307","470944","406584","2938","138800","475180","475862","471955","59193","475179","NA","Sternberg task","58","48173","63","yes","1024"
"92.1875","92.1875","766.59375","766.59375","black","experiment","legacy","legacy","legacy","0","uniform","1","undefined","1","right","63","63","63","0","0","63","63","0","0","63","63","63","0","63","0","10/07/18 19:19:19","The main experiment item","yes","Sternbergtask.osexp","C:/Users/I. Edwards/Desktop","no","mono","no","18","no","white","no","yes","768","legacy","51","11","C:/Users/I. Edwards/Desktop/kg-subject-3.csv","legacy","8 5 7 3 6","Kafkaesque Koffka","3.2.5","0","n","0","right","right","right","right","NA","889","56253","20506","889","NA","2","legacy","5","1024","2","48000","-16","experiment","3","odd","9","479360","475873","477131","2931","159307","477135","406584","2938","138800","481368","482260","478148","59193","481368","NA","Sternberg task","59","49062","64","yes","1024"
"90.7692307692","90.7692307692","771.153846154","771.153846154","black","experiment","legacy","legacy","legacy","0","uniform","0","undefined","0","left","64","64","64","0","0","64","64","0","0","64","64","64","0","64","0","10/07/18 19:19:19","The main experiment item","yes","Sternbergtask.osexp","C:/Users/I. Edwards/Desktop","no","mono","no","18","no","white","no","yes","768","legacy","52","11","C:/Users/I. Edwards/Desktop/kg-subject-3.csv","legacy","5 2 9 6 1 7","Kafkaesque Koffka","3.2.5","3","y","0","right","right","right","right","NA","1063","56253","20506","1063","NA","2","legacy","6","1024","2","48000","-16","experiment","3","odd","9","485753","482270","483524","2931","159307","483528","406584","2938","138800","487757","488823","484541","59193","487756","NA","Sternberg task","59","50125","65","yes","1024"
"90.9090909091","90.9090909091","772.878787879","772.878787879","black","experiment","legacy","legacy","legacy","0","uniform","1","undefined","1","left","65","65","65","0","0","65","65","0","0","65","65","65","0","65","0","10/07/18 19:19:19","The main experiment item","yes","Sternbergtask.osexp","C:/Users/I. Edwards/Desktop","no","mono","no","18","no","white","no","yes","768","legacy","53","11","C:/Users/I. Edwards/Desktop/kg-subject-3.csv","legacy","9 1 7 2","Kafkaesque Koffka","3.2.5","2","y","0","left","right","right","left","NA","885","56253","20506","885","NA","2","legacy","4","1024","2","48000","-16","experiment","3","odd","1","492321","482270","490093","2931","159307","490097","488835","2938","138800","494334","495222","491109","59193","494333","NA","Sternberg task","60","51010","66","yes","1024"
"91.0447761194","91.0447761194","771.865671642","771.865671642","black","experiment","legacy","legacy","legacy","0","uniform","1","undefined","1","right","66","66","66","0","0","66","66","0","0","66","66","66","0","66","0","10/07/18 19:19:19","The main experiment item","yes","Sternbergtask.osexp","C:/Users/I. Edwards/Desktop","no","mono","no","18","no","white","no","yes","768","legacy","54","11","C:/Users/I. Edwards/Desktop/kg-subject-3.csv","legacy","1 8 7","Kafkaesque Koffka","3.2.5","0","n","0","right","right","right","right","NA","705","56253","20506","705","NA","2","legacy","3","1024","2","48000","-16","experiment","3","odd","4","498723","495232","496495","2931","159307","496499","488835","2938","138800","500735","501443","497511","59193","500735","NA","Sternberg task","61","51715","67","yes","1024"
"91.1764705882","91.1764705882","772.323529412","772.323529412","black","experiment","legacy","legacy","legacy","0","uniform","1","undefined","1","left","67","67","67","0","0","67","67","0","0","67","67","67","0","67","0","10/07/18 19:19:19","The main experiment item","yes","Sternbergtask.osexp","C:/Users/I. Edwards/Desktop","no","mono","no","18","no","white","no","yes","768","legacy","55","11","C:/Users/I. Edwards/Desktop/kg-subject-3.csv","legacy","4 6 2 5 1","Kafkaesque Koffka","3.2.5","5","y","0","left","right","right","left","NA","803","56253","20506","803","NA","2","legacy","5","1024","2","48000","-16","experiment","3","odd","1","504934","501453","502706","2931","159307","502710","488835","2938","138800","506946","507752","503722","59193","506945","NA","Sternberg task","62","52518","68","yes","1024"
"91.3043478261","91.3043478261","772","772","black","experiment","legacy","legacy","legacy","0","uniform","1","undefined","1","right","68","68","68","0","0","68","68","0","0","68","68","68","0","68","0","10/07/18 19:19:19","The main experiment item","yes","Sternbergtask.osexp","C:/Users/I. Edwards/Desktop","no","mono","no","18","no","white","no","yes","768","legacy","56","11","C:/Users/I. Edwards/Desktop/kg-subject-3.csv","legacy","1 7 5 2 9","Kafkaesque Koffka","3.2.5","0","n","0","right","right","right","right","NA","750","56253","20506","750","NA","2","legacy","5","1024","2","48000","-16","experiment","3","odd","3","511254","507763","509025","2931","159307","509030","488835","2938","138800","513267","514021","510041","59193","513265","NA","Sternberg task","63","53268","69","yes","1024"
"91.4285714286","91.4285714286","770.685714286","770.685714286","black","experiment","legacy","legacy","legacy","0","uniform","1","undefined","1","right","69","69","69","0","0","69","69","0","0","69","69","69","0","69","0","10/07/18 19:19:19","The main experiment item","yes","Sternbergtask.osexp","C:/Users/I. Edwards/Desktop","no","mono","no","18","no","white","no","yes","768","legacy","57","11","C:/Users/I. Edwards/Desktop/kg-subject-3.csv","legacy","1 4 9 2 5","Kafkaesque Koffka","3.2.5","0","n","0","right","right","right","right","NA","680","56253","20506","680","NA","2","legacy","5","1024","2","48000","-16","experiment","3","odd","7","517510","514031","515282","2931","159307","515286","488835","2938","138800","519522","520205","516297","59193","519521","NA","Sternberg task","64","53948","70","yes","1024"
"91.5492957746","91.5492957746","767.098591549","767.098591549","black","experiment","legacy","legacy","legacy","0","uniform","1","undefined","1","right","70","70","70","0","0","70","70","0","0","70","70","70","0","70","0","10/07/18 19:19:19","The main experiment item","yes","Sternbergtask.osexp","C:/Users/I. Edwards/Desktop","no","mono","no","18","no","white","no","yes","768","legacy","58","11","C:/Users/I. Edwards/Desktop/kg-subject-3.csv","legacy","1 6 4","Kafkaesque Koffka","3.2.5","0","n","0","right","right","right","right","NA","516","56253","20506","516","NA","2","legacy","3","1024","2","48000","-16","experiment","3","odd","7","523706","520222","521477","2931","159307","521482","488835","2938","138800","525718","526238","522494","59193","525718","NA","Sternberg task","65","54464","71","yes","1024"
"91.6666666667","91.6666666667","770.333333333","770.333333333","black","experiment","legacy","legacy","legacy","0","uniform","1","undefined","1","right","71","71","71","0","0","71","71","0","0","71","71","71","0","71","0","10/07/18 19:19:19","The main experiment item","yes","Sternbergtask.osexp","C:/Users/I. Edwards/Desktop","no","mono","no","18","no","white","no","yes","768","legacy","59","11","C:/Users/I. Edwards/Desktop/kg-subject-3.csv","legacy","6 9 5","Kafkaesque Koffka","3.2.5","0","n","0","right","right","right","right","NA","1000","56253","20506","1000","NA","2","legacy","3","1024","2","48000","-16","experiment","3","odd","8","529745","526251","527516","2931","159307","527521","488835","2938","138800","531757","532760","528533","59193","531756","NA","Sternberg task","66","55464","72","yes","1024"
"91.7808219178","91.7808219178","770.931506849","770.931506849","black","experiment","legacy","legacy","legacy","0","uniform","1","undefined","1","left","72","72","72","0","0","72","72","0","0","72","72","72","0","72","0","10/07/18 19:19:19","The main experiment item","yes","Sternbergtask.osexp","C:/Users/I. Edwards/Desktop","no","mono","no","18","no","white","no","yes","768","legacy","60","11","C:/Users/I. Edwards/Desktop/kg-subject-3.csv","legacy","6 5","Kafkaesque Koffka","3.2.5","2","y","0","left","right","right","left","NA","814","56253","20506","814","NA","2","legacy","2","1024","2","48000","-16","experiment","3","odd","5","536263","532771","534034","2931","159307","534038","488835","2938","138800","538275","539093","535051","59193","538274","NA","Sternberg task","67","56278","73","yes","1024"
"91.8918918919","91.8918918919","769.608108108","769.608108108","black","experiment","legacy","legacy","legacy","0","uniform","1","undefined","1","right","73","73","73","0","0","73","73","0","0","73","73","73","0","73","0","10/07/18 19:19:19","The main experiment item","yes","Sternbergtask.osexp","C:/Users/I. Edwards/Desktop","no","mono","no","18","no","white","no","yes","768","legacy","61","11","C:/Users/I. Edwards/Desktop/kg-subject-3.csv","legacy","6 7 5 9","Kafkaesque Koffka","3.2.5","0","n","0","right","right","right","right","NA","673","56253","20506","673","NA","2","legacy","4","1024","2","48000","-16","experiment","3","odd","2","542586","539104","540358","2931","159307","540362","488835","2938","138800","544598","545274","541373","59193","544597","NA","Sternberg task","68","56951","74","yes","1024"
"92","92","768.44","768.44","black","experiment","legacy","legacy","legacy","0","uniform","1","undefined","1","right","74","74","74","0","0","74","74","0","0","74","74","74","0","74","0","10/07/18 19:19:19","The main experiment item","yes","Sternbergtask.osexp","C:/Users/I. Edwards/Desktop","no","mono","no","18","no","white","no","yes","768","legacy","62","11","C:/Users/I. Edwards/Desktop/kg-subject-3.csv","legacy","1 3 2 6 9","Kafkaesque Koffka","3.2.5","0","n","0","right","right","right","right","NA","682","56253","20506","682","NA","2","legacy","5","1024","2","48000","-16","experiment","3","odd","5","548770","545285","546542","2931","159307","546546","488835","2938","138800","550782","551467","547557","59193","550781","NA","Sternberg task","69","57633","75","yes","1024"
"92.1052631579","92.1052631579","769.605263158","769.605263158","black","experiment","legacy","legacy","legacy","0","uniform","1","undefined","1","left","75","75","75","0","0","75","75","0","0","75","75","75","0","75","0","10/07/18 19:19:19","The main experiment item","yes","Sternbergtask.osexp","C:/Users/I. Edwards/Desktop","no","mono","no","18","no","white","no","yes","768","legacy","63","11","C:/Users/I. Edwards/Desktop/kg-subject-3.csv","legacy","6 9 3 1","Kafkaesque Koffka","3.2.5","4","y","0","left","right","right","left","NA","857","56253","20506","857","NA","2","legacy","4","1024","2","48000","-16","experiment","3","odd","1","554962","551478","552733","2931","159307","552738","488835","2938","138800","556975","557836","553749","59193","556974","NA","Sternberg task","70","58490","76","yes","1024"
"90.9090909091","90.9090909091","770.779220779","770.779220779","black","experiment","legacy","legacy","legacy","0","uniform","0","undefined","0","left","76","76","76","0","0","76","76","0","0","76","76","76","0","76","0","10/07/18 19:19:19","The main experiment item","yes","Sternbergtask.osexp","C:/Users/I. Edwards/Desktop","no","mono","no","18","no","white","no","yes","768","legacy","64","11","C:/Users/I. Edwards/Desktop/kg-subject-3.csv","legacy","3 4","Kafkaesque Koffka","3.2.5","1","y","0","right","right","right","right","NA","860","56253","20506","860","NA","2","legacy","2","1024","2","48000","-16","experiment","3","odd","3","561343","557847","559115","2931","159307","559119","488835","2938","138800","563355","564218","560131","59193","563355","NA","Sternberg task","70","59350","77","yes","1024"
"91.0256410256","91.0256410256","772.038461538","772.038461538","black","experiment","legacy","legacy","legacy","0","uniform","1","undefined","1","left","77","77","77","0","0","77","77","0","0","77","77","77","0","77","0","10/07/18 19:19:19","The main experiment item","yes","Sternbergtask.osexp","C:/Users/I. Edwards/Desktop","no","mono","no","18","no","white","no","yes","768","legacy","65","11","C:/Users/I. Edwards/Desktop/kg-subject-3.csv","legacy","8 3","Kafkaesque Koffka","3.2.5","2","y","0","left","right","right","left","NA","869","56253","20506","869","NA","2","legacy","2","1024","2","48000","-16","experiment","3","odd","3","567703","557847","565475","2931","159307","565479","564229","2938","138800","569715","570587","566490","59193","569715","NA","Sternberg task","71","60219","78","yes","1024"
"91.1392405063","91.1392405063","771.936708861","771.936708861","black","experiment","legacy","legacy","legacy","0","uniform","1","undefined","1","right","78","78","78","0","0","78","78","0","0","78","78","78","0","78","0","10/07/18 19:19:19","The main experiment item","yes","Sternbergtask.osexp","C:/Users/I. Edwards/Desktop","no","mono","no","18","no","white","no","yes","768","legacy","66","11","C:/Users/I. Edwards/Desktop/kg-subject-3.csv","legacy","6 9 7 3 8 2","Kafkaesque Koffka","3.2.5","0","n","0","right","right","right","right","NA","764","56253","20506","764","NA","2","legacy","6","1024","2","48000","-16","experiment","3","odd","5","574089","570598","571860","2931","159307","571864","564229","2938","138800","576101","576868","572876","59193","576100","NA","Sternberg task","72","60983","79","yes","1024"
"91.25","91.25","770.925","770.925","black","experiment","legacy","legacy","legacy","0","uniform","1","undefined","1","left","79","79","79","0","0","79","79","0","0","79","79","79","0","79","0","10/07/18 19:19:19","The main experiment item","yes","Sternbergtask.osexp","C:/Users/I. Edwards/Desktop","no","mono","no","18","no","white","no","yes","768","legacy","67","11","C:/Users/I. Edwards/Desktop/kg-subject-3.csv","legacy","9 3 8 2 1 4","Kafkaesque Koffka","3.2.5","3","y","0","left","right","right","left","NA","691","56253","20506","691","NA","2","legacy","6","1024","2","48000","-16","experiment","3","odd","8","580379","576881","578150","2931","159307","578155","564229","2938","138800","582391","583085","579166","59193","582391","NA","Sternberg task","73","61674","80","yes","1024"
"91.3580246914","91.3580246914","769.518518519","769.518518519","black","experiment","legacy","legacy","legacy","0","uniform","1","undefined","1","left","80","80","80","0","0","80","80","0","0","80","80","80","0","80","0","10/07/18 19:19:19","The main experiment item","yes","Sternbergtask.osexp","C:/Users/I. Edwards/Desktop","no","mono","no","18","no","white","no","yes","768","legacy","68","11","C:/Users/I. Edwards/Desktop/kg-subject-3.csv","legacy","3 2 1 4 7","Kafkaesque Koffka","3.2.5","2","y","0","left","right","right","left","NA","657","56253","20506","657","NA","2","legacy","5","1024","2","48000","-16","experiment","3","odd","2","586579","583096","584351","2931","159307","584355","564229","2938","138800","588591","589252","585367","59193","588591","NA","Sternberg task","74","62331","81","yes","1024"
"91.4634146341","91.4634146341","769.317073171","769.317073171","black","experiment","legacy","legacy","legacy","0","uniform","1","undefined","1","right","81","81","81","0","0","81","81","0","0","81","81","81","0","81","0","10/07/18 19:19:19","The main experiment item","yes","Sternbergtask.osexp","C:/Users/I. Edwards/Desktop","no","mono","no","18","no","white","no","yes","768","legacy","69","11","C:/Users/I. Edwards/Desktop/kg-subject-3.csv","legacy","5 3 8 7 2 4","Kafkaesque Koffka","3.2.5","0","n","0","right","right","right","right","NA","753","56253","20506","753","NA","2","legacy","6","1024","2","48000","-16","experiment","3","odd","9","592738","589262","590510","2931","159307","590514","564229","2938","138800","594750","595506","591526","59193","594750","NA","Sternberg task","75","63084","82","yes","1024"
"91.5662650602","91.5662650602","770.951807229","770.951807229","black","experiment","legacy","legacy","legacy","0","uniform","1","undefined","1","left","82","82","82","0","0","82","82","0","0","82","82","82","0","82","0","10/07/18 19:19:19","The main experiment item","yes","Sternbergtask.osexp","C:/Users/I. Edwards/Desktop","no","mono","no","18","no","white","no","yes","768","legacy","70","11","C:/Users/I. Edwards/Desktop/kg-subject-3.csv","legacy","4 1 8 7 5","Kafkaesque Koffka","3.2.5","3","y","0","left","right","right","left","NA","905","56253","20506","905","NA","2","legacy","5","1024","2","48000","-16","experiment","3","odd","8","599002","595517","596773","2931","159307","596777","564229","2938","138800","601015","601924","597790","59193","601015","NA","Sternberg task","76","63989","83","yes","1024"
"91.6666666667","91.6666666667","766.714285714","766.714285714","black","experiment","legacy","legacy","legacy","0","uniform","1","undefined","1","right","83","83","83","0","0","83","83","0","0","83","83","83","0","83","0","10/07/18 19:19:19","The main experiment item","yes","Sternbergtask.osexp","C:/Users/I. Edwards/Desktop","no","mono","no","18","no","white","no","yes","768","legacy","71","11","C:/Users/I. Edwards/Desktop/kg-subject-3.csv","legacy","4 8 1 2","Kafkaesque Koffka","3.2.5","0","n","0","right","right","right","right","NA","415","56253","20506","415","NA","2","legacy","4","1024","2","48000","-16","experiment","3","odd","7","605420","601934","603191","2931","159307","603196","564229","2938","138800","607433","607852","604208","59193","607433","NA","Sternberg task","77","64404","84","yes","1024"
"91.7647058824","91.7647058824","765.258823529","765.258823529","black","experiment","legacy","legacy","legacy","0","uniform","1","undefined","1","right","84","84","84","0","0","84","84","0","0","84","84","84","0","84","0","10/07/18 19:19:19","The main experiment item","yes","Sternbergtask.osexp","C:/Users/I. Edwards/Desktop","no","mono","no","18","no","white","no","yes","768","legacy","72","11","C:/Users/I. Edwards/Desktop/kg-subject-3.csv","legacy","8 4 3 5","Kafkaesque Koffka","3.2.5","0","n","0","right","right","right","right","NA","643","56253","20506","643","NA","2","legacy","4","1024","2","48000","-16","experiment","3","odd","6","611345","607862","609117","2931","159307","609122","564229","2938","138800","613358","614005","610134","59193","613358","NA","Sternberg task","78","65047","85","yes","1024"
"91.8604651163","91.8604651163","763.255813953","763.255813953","black","experiment","legacy","legacy","legacy","0","uniform","1","undefined","1","right","85","85","85","0","0","85","85","0","0","85","85","85","0","85","0","10/07/18 19:19:19","The main experiment item","yes","Sternbergtask.osexp","C:/Users/I. Edwards/Desktop","no","mono","no","18","no","white","no","yes","768","legacy","73","11","C:/Users/I. Edwards/Desktop/kg-subject-3.csv","legacy","2 8 9","Kafkaesque Koffka","3.2.5","0","n","0","right","right","right","right","NA","593","56253","20506","593","NA","2","legacy","3","1024","2","48000","-16","experiment","3","odd","6","617496","614016","615268","2931","159307","615273","564229","2938","138800","619509","620106","616285","59193","619509","NA","Sternberg task","79","65640","86","yes","1024"
"91.9540229885","91.9540229885","762.482758621","762.482758621","black","experiment","legacy","legacy","legacy","0","uniform","1","undefined","1","right","86","86","86","0","0","86","86","0","0","86","86","86","0","86","0","10/07/18 19:19:19","The main experiment item","yes","Sternbergtask.osexp","C:/Users/I. Edwards/Desktop","no","mono","no","18","no","white","no","yes","768","legacy","74","11","C:/Users/I. Edwards/Desktop/kg-subject-3.csv","legacy","1 7 8 3 9","Kafkaesque Koffka","3.2.5","0","n","0","right","right","right","right","NA","696","56253","20506","696","NA","2","legacy","5","1024","2","48000","-16","experiment","3","odd","2","623596","620117","621368","2931","159307","621372","564229","2938","138800","625609","626309","622384","59193","625609","NA","Sternberg task","80","66336","87","yes","1024"
"92.0454545455","92.0454545455","761.306818182","761.306818182","black","experiment","legacy","legacy","legacy","0","uniform","1","undefined","1","left","87","87","87","0","0","87","87","0","0","87","87","87","0","87","0","10/07/18 19:19:19","The main experiment item","yes","Sternbergtask.osexp","C:/Users/I. Edwards/Desktop","no","mono","no","18","no","white","no","yes","768","legacy","75","11","C:/Users/I. Edwards/Desktop/kg-subject-3.csv","legacy","3 4 9 6 2 9","Kafkaesque Koffka","3.2.5","5","y","0","left","right","right","left","NA","659","56253","20506","659","NA","2","legacy","6","1024","2","48000","-16","experiment","3","odd","2","629797","626319","627569","2931","159307","627574","564229","2938","138800","631809","632472","628586","59193","631809","NA","Sternberg task","81","66995","88","yes","1024"
"92.1348314607","92.1348314607","760.629213483","760.629213483","black","experiment","legacy","legacy","legacy","0","uniform","1","undefined","1","left","88","88","88","0","0","88","88","0","0","88","88","88","0","88","0","10/07/18 19:19:19","The main experiment item","yes","Sternbergtask.osexp","C:/Users/I. Edwards/Desktop","no","mono","no","18","no","white","no","yes","768","legacy","76","11","C:/Users/I. Edwards/Desktop/kg-subject-3.csv","legacy","8 5 3 7 4 6","Kafkaesque Koffka","3.2.5","6","y","0","left","right","right","left","NA","701","56253","20506","701","NA","2","legacy","6","1024","2","48000","-16","experiment","3","odd","6","635970","632483","633741","2931","159307","633746","564229","2938","138800","637982","638687","634758","59193","637982","NA","Sternberg task","82","67696","89","yes","1024"
"91.1111111111","91.1111111111","759.355555556","759.355555556","black","experiment","legacy","legacy","legacy","0","uniform","0","undefined","0","left","89","89","89","0","0","89","89","0","0","89","89","89","0","89","0","10/07/18 19:19:19","The main experiment item","yes","Sternbergtask.osexp","C:/Users/I. Edwards/Desktop","no","mono","no","18","no","white","no","yes","768","legacy","77","11","C:/Users/I. Edwards/Desktop/kg-subject-3.csv","legacy","2 4 8 5 1 3","Kafkaesque Koffka","3.2.5","1","y","0","right","right","right","right","NA","646","56253","20506","646","NA","2","legacy","6","1024","2","48000","-16","experiment","3","odd","2","642177","638697","639950","2931","159307","639954","564229","2938","138800","644189","644839","640964","59193","644188","NA","Sternberg task","82","68342","90","yes","1024"
"91.2087912088","91.2087912088","763","763","black","experiment","legacy","legacy","legacy","0","uniform","1","undefined","1","right","90","90","90","0","0","90","90","0","0","90","90","90","0","90","0","10/07/18 19:19:19","The main experiment item","yes","Sternbergtask.osexp","C:/Users/I. Edwards/Desktop","no","mono","no","18","no","white","no","yes","768","legacy","78","11","C:/Users/I. Edwards/Desktop/kg-subject-3.csv","legacy","9","Kafkaesque Koffka","3.2.5","0","n","0","right","right","right","right","NA","1091","56253","20506","1091","NA","2","legacy","1","1024","2","48000","-16","experiment","3","odd","6","648334","638697","646104","2931","159307","646109","644850","2938","138800","650347","651442","647122","59193","650346","NA","Sternberg task","83","69433","91","yes","1024"
"91.3043478261","91.3043478261","760.597826087","760.597826087","black","experiment","legacy","legacy","legacy","0","uniform","1","undefined","1","left","91","91","91","0","0","91","91","0","0","91","91","91","0","91","0","10/07/18 19:19:19","The main experiment item","yes","Sternbergtask.osexp","C:/Users/I. Edwards/Desktop","no","mono","no","18","no","white","no","yes","768","legacy","79","11","C:/Users/I. Edwards/Desktop/kg-subject-3.csv","legacy","1 4 9 3 2 5","Kafkaesque Koffka","3.2.5","3","y","0","left","right","right","left","NA","542","56253","20506","542","NA","2","legacy","6","1024","2","48000","-16","experiment","3","odd","9","654946","651452","652718","2931","159307","652723","644850","2938","138800","656959","657505","653735","59193","656959","NA","Sternberg task","84","69975","92","yes","1024"
"91.3978494624","91.3978494624","758.301075269","758.301075269","black","experiment","legacy","legacy","legacy","0","uniform","1","undefined","1","right","92","92","92","0","0","92","92","0","0","92","92","92","0","92","0","10/07/18 19:19:19","The main experiment item","yes","Sternbergtask.osexp","C:/Users/I. Edwards/Desktop","no","mono","no","18","no","white","no","yes","768","legacy","80","11","C:/Users/I. Edwards/Desktop/kg-subject-3.csv","legacy","6 3 1 7 9 8","Kafkaesque Koffka","3.2.5","0","n","0","right","right","right","right","NA","547","56253","20506","547","NA","2","legacy","6","1024","2","48000","-16","experiment","3","odd","4","660992","657515","658769","2931","159307","658773","644850","2938","138800","663004","663556","659785","59193","663004","NA","Sternberg task","85","70522","93","yes","1024"
"91.4893617021","91.4893617021","755.882978723","755.882978723","black","experiment","legacy","legacy","legacy","0","uniform","1","undefined","1","left","93","93","93","0","0","93","93","0","0","93","93","93","0","93","0","10/07/18 19:19:19","The main experiment item","yes","Sternbergtask.osexp","C:/Users/I. Edwards/Desktop","no","mono","no","18","no","white","no","yes","768","legacy","81","11","C:/Users/I. Edwards/Desktop/kg-subject-3.csv","legacy","8 9 5 6 7","Kafkaesque Koffka","3.2.5","1","y","0","left","right","right","left","NA","531","56253","20506","531","NA","2","legacy","5","1024","2","48000","-16","experiment","3","odd","8","667057","663567","664828","2931","159307","664833","644850","2938","138800","669070","669605","665845","59193","669069","NA","Sternberg task","86","71053","94","yes","1024"
"91.5789473684","91.5789473684","757.957894737","757.957894737","black","experiment","legacy","legacy","legacy","0","uniform","1","undefined","1","left","94","94","94","0","0","94","94","0","0","94","94","94","0","94","0","10/07/18 19:19:19","The main experiment item","yes","Sternbergtask.osexp","C:/Users/I. Edwards/Desktop","no","mono","no","18","no","white","no","yes","768","legacy","82","11","C:/Users/I. Edwards/Desktop/kg-subject-3.csv","legacy","4 7 6 8 2 3","Kafkaesque Koffka","3.2.5","6","y","0","left","right","right","left","NA","953","56253","20506","953","NA","2","legacy","6","1024","2","48000","-16","experiment","3","odd","3","673087","669616","670860","2931","159307","670864","644850","2938","138800","675101","676057","671876","59193","675100","NA","Sternberg task","87","72006","95","yes","1024"
"91.6666666667","91.6666666667","755.625","755.625","black","experiment","legacy","legacy","legacy","0","uniform","1","undefined","1","left","95","95","95","0","0","95","95","0","0","95","95","95","0","95","0","10/07/18 19:19:19","The main experiment item","yes","Sternbergtask.osexp","C:/Users/I. Edwards/Desktop","no","mono","no","18","no","white","no","yes","768","legacy","83","11","C:/Users/I. Edwards/Desktop/kg-subject-3.csv","legacy","7 1 3","Kafkaesque Koffka","3.2.5","2","y","0","left","right","right","left","NA","534","56253","20506","534","NA","2","legacy","3","1024","2","48000","-16","experiment","3","odd","1","679544","676068","677324","2931","159307","677328","644850","2938","138800","681556","682094","678331","59193","681556","NA","Sternberg task","88","72540","96","yes","1024"
"91.7525773196","91.7525773196","753.948453608","753.948453608","black","experiment","legacy","legacy","legacy","0","uniform","1","undefined","1","left","96","96","96","0","0","96","96","0","0","96","96","96","0","96","0","10/07/18 19:19:19","The main experiment item","yes","Sternbergtask.osexp","C:/Users/I. Edwards/Desktop","no","mono","no","18","no","white","no","yes","768","legacy","84","11","C:/Users/I. Edwards/Desktop/kg-subject-3.csv","legacy","6 7 8 5","Kafkaesque Koffka","3.2.5","3","y","0","left","right","right","left","NA","593","56253","20506","593","NA","2","legacy","4","1024","2","48000","-16","experiment","3","odd","8","685585","682105","683358","2931","159307","683362","644850","2938","138800","687598","688195","684374","59193","687598","NA","Sternberg task","89","73133","97","yes","1024"
"91.8367346939","91.8367346939","754.459183673","754.459183673","black","experiment","legacy","legacy","legacy","0","uniform","1","undefined","1","right","97","97","97","0","0","97","97","0","0","97","97","97","0","97","0","10/07/18 19:19:19","The main experiment item","yes","Sternbergtask.osexp","C:/Users/I. Edwards/Desktop","no","mono","no","18","no","white","no","yes","768","legacy","85","11","C:/Users/I. Edwards/Desktop/kg-subject-3.csv","legacy","7 8 6 1","Kafkaesque Koffka","3.2.5","0","n","0","right","right","right","right","NA","804","56253","20506","804","NA","2","legacy","4","1024","2","48000","-16","experiment","3","odd","3","691687","688205","689459","2931","159307","689464","644850","2938","138800","693700","694508","690476","59193","693700","NA","Sternberg task","90","73937","98","yes","1024"
"91.9191919192","91.9191919192","754.464646465","754.464646465","black","experiment","legacy","legacy","legacy","0","uniform","1","undefined","1","right","98","98","98","0","0","98","98","0","0","98","98","98","0","98","0","10/07/18 19:19:19","The main experiment item","yes","Sternbergtask.osexp","C:/Users/I. Edwards/Desktop","no","mono","no","18","no","white","no","yes","768","legacy","86","11","C:/Users/I. Edwards/Desktop/kg-subject-3.csv","legacy","7 6 4 8 1 2","Kafkaesque Koffka","3.2.5","0","n","0","right","right","right","right","NA","755","56253","20506","755","NA","2","legacy","6","1024","2","48000","-16","experiment","3","odd","9","698000","694518","695772","2931","159307","695776","644850","2938","138800","700012","700771","696788","59193","700012","NA","Sternberg task","91","74692","99","yes","1024"
"92","92","752.57","752.57","black","experiment","legacy","legacy","legacy","0","uniform","1","undefined","1","right","99","99","99","0","0","99","99","0","0","99","99","99","0","99","0","10/07/18 19:19:19","The main experiment item","yes","Sternbergtask.osexp","C:/Users/I. Edwards/Desktop","no","mono","no","18","no","white","no","yes","768","legacy","87","11","C:/Users/I. Edwards/Desktop/kg-subject-3.csv","legacy","4 2 6 9","Kafkaesque Koffka","3.2.5","0","n","0","right","right","right","right","NA","565","56253","20506","565","NA","2","legacy","4","1024","2","48000","-16","experiment","3","odd","7","704265","700782","702037","2931","159307","702041","644850","2938","138800","706277","706846","703053","59193","706277","NA","Sternberg task","92","75257","100","yes","1024"
"92.0792079208","92.0792079208","750.03960396","750.03960396","black","experiment","legacy","legacy","legacy","0","uniform","1","undefined","1","left","100","100","100","0","0","100","100","0","0","100","100","100","0","100","0","10/07/18 19:19:19","The main experiment item","yes","Sternbergtask.osexp","C:/Users/I. Edwards/Desktop","no","mono","no","18","no","white","no","yes","768","legacy","88","11","C:/Users/I. Edwards/Desktop/kg-subject-3.csv","legacy","8","Kafkaesque Koffka","3.2.5","1","y","0","left","right","right","left","NA","497","56253","20506","497","NA","2","legacy","1","1024","2","48000","-16","experiment","3","odd","8","710343","706857","708115","2931","159307","708119","644850","2938","138800","712356","712858","709132","59193","712356","NA","Sternberg task","93","75754","101","yes","1024"
"92.1568627451","92.1568627451","747.509803922","747.509803922","black","experiment","legacy","legacy","legacy","0","uniform","1","undefined","1","left","101","101","101","0","0","101","101","0","0","101","101","101","0","101","0","10/07/18 19:19:19","The main experiment item","yes","Sternbergtask.osexp","C:/Users/I. Edwards/Desktop","no","mono","no","18","no","white","no","yes","768","legacy","89","11","C:/Users/I. Edwards/Desktop/kg-subject-3.csv","legacy","4","Kafkaesque Koffka","3.2.5","1","y","0","left","right","right","left","NA","492","56253","20506","492","NA","2","legacy","1","1024","2","48000","-16","experiment","3","odd","4","716347","712868","714119","2931","159307","714124","644850","2938","138800","718361","718857","715136","59193","718360","NA","Sternberg task","94","76246","102","yes","1024"
"92.2330097087","92.2330097087","748.776699029","748.776699029","black","experiment","legacy","legacy","legacy","0","uniform","1","undefined","1","right","102","102","102","0","0","102","102","0","0","102","102","102","0","102","0","10/07/18 19:19:19","The main experiment item","yes","Sternbergtask.osexp","C:/Users/I. Edwards/Desktop","no","mono","no","18","no","white","no","yes","768","legacy","90","11","C:/Users/I. Edwards/Desktop/kg-subject-3.csv","legacy","5 3 2 6 9 8","Kafkaesque Koffka","3.2.5","0","n","0","right","right","right","right","NA","878","56253","20506","878","NA","2","legacy","6","1024","2","48000","-16","experiment","3","odd","4","722349","718868","720120","2931","159307","720125","644850","2938","138800","724362","725245","721138","59193","724362","NA","Sternberg task","95","77124","103","yes","1024"
"92.3076923077","92.3076923077","747.557692308","747.557692308","black","experiment","legacy","legacy","legacy","0","uniform","1","undefined","1","right","103","103","103","0","0","103","103","0","0","103","103","103","0","103","0","10/07/18 19:19:19","The main experiment item","yes","Sternbergtask.osexp","C:/Users/I. Edwards/Desktop","no","mono","no","18","no","white","no","yes","768","legacy","91","11","C:/Users/I. Edwards/Desktop/kg-subject-3.csv","legacy","3 4 2","Kafkaesque Koffka","3.2.5","0","n","0","right","right","right","right","NA","622","56253","20506","622","NA","2","legacy","3","1024","2","48000","-16","experiment","3","odd","5","728731","725255","726507","2931","159307","726511","644850","2938","138800","730743","731369","727519","59193","730743","NA","Sternberg task","96","77746","104","yes","1024"
"92.380952381","92.380952381","745.961904762","745.961904762","black","experiment","legacy","legacy","legacy","0","uniform","1","undefined","1","right","104","104","104","0","0","104","104","0","0","104","104","104","0","104","0","10/07/18 19:19:19","The main experiment item","yes","Sternbergtask.osexp","C:/Users/I. Edwards/Desktop","no","mono","no","18","no","white","no","yes","768","legacy","92","11","C:/Users/I. Edwards/Desktop/kg-subject-3.csv","legacy","6 2 9 3 8 4","Kafkaesque Koffka","3.2.5","0","n","0","right","right","right","right","NA","580","56253","20506","580","NA","2","legacy","6","1024","2","48000","-16","experiment","3","odd","1","734858","731380","732630","2931","159307","732634","644850","2938","138800","736896","737480","733647","59193","736871","NA","Sternberg task","97","78326","105","yes","1024"
"92.4528301887","92.4528301887","745.283018868","745.283018868","black","experiment","legacy","legacy","legacy","0","uniform","1","undefined","1","left","105","105","105","0","0","105","105","0","0","105","105","105","0","105","0","10/07/18 19:19:19","The main experiment item","yes","Sternbergtask.osexp","C:/Users/I. Edwards/Desktop","no","mono","no","18","no","white","no","yes","768","legacy","93","11","C:/Users/I. Edwards/Desktop/kg-subject-3.csv","legacy","2 5 4 8 7","Kafkaesque Koffka","3.2.5","3","y","0","left","right","right","left","NA","674","56253","20506","674","NA","2","legacy","5","1024","2","48000","-16","experiment","3","odd","4","740964","737491","738736","2931","159307","738740","644850","2938","138800","742976","743654","739752","59193","742976","NA","Sternberg task","98","79000","106","yes","1024"
"92.523364486","92.523364486","745.607476636","745.607476636","black","experiment","legacy","legacy","legacy","0","uniform","1","undefined","1","left","106","106","106","0","0","106","106","0","0","106","106","106","0","106","0","10/07/18 19:19:19","The main experiment item","yes","Sternbergtask.osexp","C:/Users/I. Edwards/Desktop","no","mono","no","18","no","white","no","yes","768","legacy","94","11","C:/Users/I. Edwards/Desktop/kg-subject-3.csv","legacy","3 5 7 1","Kafkaesque Koffka","3.2.5","3","y","0","left","right","right","left","NA","780","56253","20506","780","NA","2","legacy","4","1024","2","48000","-16","experiment","3","odd","7","747144","743665","744916","2931","159307","744921","644850","2938","138800","749157","749942","745933","59193","749157","NA","Sternberg task","99","79780","107","yes","1024"
"92.5925925926","92.5925925926","745.805555556","745.805555556","black","experiment","legacy","legacy","legacy","0","uniform","1","undefined","1","left","107","107","107","0","0","107","107","0","0","107","107","107","0","107","0","10/07/18 19:19:19","The main experiment item","yes","Sternbergtask.osexp","C:/Users/I. Edwards/Desktop","no","mono","no","18","no","white","no","yes","768","legacy","95","11","C:/Users/I. Edwards/Desktop/kg-subject-3.csv","legacy","2 6 1 7 4","Kafkaesque Koffka","3.2.5","2","y","0","left","right","right","left","NA","767","56253","20506","767","NA","2","legacy","5","1024","2","48000","-16","experiment","3","odd","6","753429","749952","751202","2931","159307","751206","644850","2938","138800","755442","756214","752218","59193","755442","NA","Sternberg task","100","80547","108","yes","1024"
"92.6605504587","92.6605504587","744.486238532","744.486238532","black","experiment","legacy","legacy","legacy","0","uniform","1","undefined","1","left","108","108","108","0","0","108","108","0","0","108","108","108","0","108","0","10/07/18 19:19:19","The main experiment item","yes","Sternbergtask.osexp","C:/Users/I. Edwards/Desktop","no","mono","no","18","no","white","no","yes","768","legacy","96","11","C:/Users/I. Edwards/Desktop/kg-subject-3.csv","legacy","6 9 7 4 5 1","Kafkaesque Koffka","3.2.5","2","y","0","left","right","right","left","NA","602","56253","20506","602","NA","2","legacy","6","1024","2","48000","-16","experiment","3","odd","9","759709","756224","757479","2931","159307","757484","644850","2938","138800","761721","762327","758496","59193","761721","NA","Sternberg task","101","81149","109","yes","1024"
"92.7272727273","92.7272727273","743.545454545","743.545454545","black","experiment","legacy","legacy","legacy","0","uniform","1","undefined","1","left","109","109","109","0","0","109","109","0","0","109","109","109","0","109","0","10/07/18 19:19:19","The main experiment item","yes","Sternbergtask.osexp","C:/Users/I. Edwards/Desktop","no","mono","no","18","no","white","no","yes","768","legacy","97","11","C:/Users/I. Edwards/Desktop/kg-subject-3.csv","legacy","9 8 4","Kafkaesque Koffka","3.2.5","1","y","0","left","right","right","left","NA","641","56253","20506","641","NA","2","legacy","3","1024","2","48000","-16","experiment","3","odd","9","765830","762338","763602","2931","159307","763606","644850","2938","138800","767842","768487","764617","59193","767842","NA","Sternberg task","102","81790","110","yes","1024"
"92.7927927928","92.7927927928","742.54954955","742.54954955","black","experiment","legacy","legacy","legacy","0","uniform","1","undefined","1","right","110","110","110","0","0","110","110","0","0","110","110","110","0","110","0","10/07/18 19:19:19","The main experiment item","yes","Sternbergtask.osexp","C:/Users/I. Edwards/Desktop","no","mono","no","18","no","white","no","yes","768","legacy","98","11","C:/Users/I. Edwards/Desktop/kg-subject-3.csv","legacy","7 4 2 8 1 9","Kafkaesque Koffka","3.2.5","0","n","0","right","right","right","right","NA","633","56253","20506","633","NA","2","legacy","6","1024","2","48000","-16","experiment","3","odd","5","771984","768498","769755","2931","159307","769760","644850","2938","138800","773996","774634","770771","59193","773995","NA","Sternberg task","103","82423","111","yes","1024"
"92.8571428571","92.8571428571","745.991071429","745.991071429","black","experiment","legacy","legacy","legacy","0","uniform","1","undefined","1","left","111","111","111","0","0","111","111","0","0","111","111","111","0","111","0","10/07/18 19:19:19","The main experiment item","yes","Sternbergtask.osexp","C:/Users/I. Edwards/Desktop","no","mono","no","18","no","white","no","yes","768","legacy","99","11","C:/Users/I. Edwards/Desktop/kg-subject-3.csv","legacy","6 2","Kafkaesque Koffka","3.2.5","1","y","0","left","right","right","left","NA","1128","56253","20506","1128","NA","2","legacy","2","1024","2","48000","-16","experiment","3","odd","6","778126","774644","775898","2931","159307","775902","644850","2938","138800","780138","781271","776914","59193","780138","NA","Sternberg task","104","83551","112","yes","1024"
"92.9203539823","92.9203539823","744.805309735","744.805309735","black","experiment","legacy","legacy","legacy","0","uniform","1","undefined","1","right","112","112","112","0","0","112","112","0","0","112","112","112","0","112","0","10/07/18 19:19:19","The main experiment item","yes","Sternbergtask.osexp","C:/Users/I. Edwards/Desktop","no","mono","no","18","no","white","no","yes","768","legacy","100","11","C:/Users/I. Edwards/Desktop/kg-subject-3.csv","legacy","3 4 9 6 7 8","Kafkaesque Koffka","3.2.5","0","n","0","right","right","right","right","NA","612","56253","20506","612","NA","2","legacy","6","1024","2","48000","-16","experiment","3","odd","2","784763","781282","782535","2931","159307","782539","644850","2938","138800","786776","787393","783550","59193","786775","NA","Sternberg task","105","84163","113","yes","1024"
"92.9824561404","92.9824561404","743.061403509","743.061403509","black","experiment","legacy","legacy","legacy","0","uniform","1","undefined","1","right","113","113","113","0","0","113","113","0","0","113","113","113","0","113","0","10/07/18 19:19:19","The main experiment item","yes","Sternbergtask.osexp","C:/Users/I. Edwards/Desktop","no","mono","no","18","no","white","no","yes","768","legacy","101","11","C:/Users/I. Edwards/Desktop/kg-subject-3.csv","legacy","9 8 2 7 4","Kafkaesque Koffka","3.2.5","0","n","0","right","right","right","right","NA","546","56253","20506","546","NA","2","legacy","5","1024","2","48000","-16","experiment","3","odd","5","790903","787404","788674","2931","159307","788678","644850","2938","138800","792914","793465","789690","59193","792914","NA","Sternberg task","106","84709","114","yes","1024"
"93.0434782609","93.0434782609","741.808695652","741.808695652","black","experiment","legacy","legacy","legacy","0","uniform","1","undefined","1","right","114","114","114","0","0","114","114","0","0","114","114","114","0","114","0","10/07/18 19:19:19","The main experiment item","yes","Sternbergtask.osexp","C:/Users/I. Edwards/Desktop","no","mono","no","18","no","white","no","yes","768","legacy","102","11","C:/Users/I. Edwards/Desktop/kg-subject-3.csv","legacy","2 8 7 9 5 3","Kafkaesque Koffka","3.2.5","0","n","0","right","right","right","right","NA","599","56253","20506","599","NA","2","legacy","6","1024","2","48000","-16","experiment","3","odd","6","796957","793475","794728","2931","159307","794733","644850","2938","138800","798969","799573","795744","59193","798968","NA","Sternberg task","107","85308","115","yes","1024"
"93.1034482759","93.1034482759","741.068965517","741.068965517","black","experiment","legacy","legacy","legacy","0","uniform","1","undefined","1","left","115","115","115","0","0","115","115","0","0","115","115","115","0","115","0","10/07/18 19:19:19","The main experiment item","yes","Sternbergtask.osexp","C:/Users/I. Edwards/Desktop","no","mono","no","18","no","white","no","yes","768","legacy","103","11","C:/Users/I. Edwards/Desktop/kg-subject-3.csv","legacy","2 4 6 9","Kafkaesque Koffka","3.2.5","3","y","0","left","right","right","left","NA","656","56253","20506","656","NA","2","legacy","4","1024","2","48000","-16","experiment","3","odd","6","803071","799584","800843","2931","159307","800847","644850","2938","138800","805085","805746","801859","59193","805084","NA","Sternberg task","108","85964","116","yes","1024"
"93.1623931624","93.1623931624","740.564102564","740.564102564","black","experiment","legacy","legacy","legacy","0","uniform","1","undefined","1","right","116","116","116","0","0","116","116","0","0","116","116","116","0","116","0","10/07/18 19:19:19","The main experiment item","yes","Sternbergtask.osexp","C:/Users/I. Edwards/Desktop","no","mono","no","18","no","white","no","yes","768","legacy","104","11","C:/Users/I. Edwards/Desktop/kg-subject-3.csv","legacy","2 3 8 5 6 7","Kafkaesque Koffka","3.2.5","0","n","0","right","right","right","right","NA","682","56253","20506","682","NA","2","legacy","6","1024","2","48000","-16","experiment","3","odd","1","809231","805756","807003","2931","159307","807007","644850","2938","138800","811244","811931","808018","59193","811243","NA","Sternberg task","109","86646","117","yes","1024"
"93.2203389831","93.2203389831","741.161016949","741.161016949","black","experiment","legacy","legacy","legacy","0","uniform","1","undefined","1","right","117","117","117","0","0","117","117","0","0","117","117","117","0","117","0","10/07/18 19:19:19","The main experiment item","yes","Sternbergtask.osexp","C:/Users/I. Edwards/Desktop","no","mono","no","18","no","white","no","yes","768","legacy","105","11","C:/Users/I. Edwards/Desktop/kg-subject-3.csv","legacy","9 7 4 5 8","Kafkaesque Koffka","3.2.5","0","n","0","right","right","right","right","NA","811","56253","20506","811","NA","2","legacy","5","1024","2","48000","-16","experiment","3","odd","6","815425","811942","813196","2931","159307","813201","644850","2938","138800","817437","818253","814212","59193","817437","NA","Sternberg task","110","87457","118","yes","1024"
"93.2773109244","93.2773109244","740.756302521","740.756302521","black","experiment","legacy","legacy","legacy","0","uniform","1","undefined","1","right","118","118","118","0","0","118","118","0","0","118","118","118","0","118","0","10/07/18 19:19:19","The main experiment item","yes","Sternbergtask.osexp","C:/Users/I. Edwards/Desktop","no","mono","no","18","no","white","no","yes","768","legacy","106","11","C:/Users/I. Edwards/Desktop/kg-subject-3.csv","legacy","3 9 8 1 6 4","Kafkaesque Koffka","3.2.5","0","n","0","right","right","right","right","NA","693","56253","20506","693","NA","2","legacy","6","1024","2","48000","-16","experiment","3","odd","7","821750","818264","819521","2931","159307","819526","644850","2938","138800","823763","824461","820537","59193","823763","NA","Sternberg task","111","88150","119","yes","1024"
"93.3333333333","93.3333333333","738.9","738.9","black","experiment","legacy","legacy","legacy","0","uniform","1","undefined","1","right","119","119","119","0","0","119","119","0","0","119","119","119","0","119","0","10/07/18 19:19:19","The main experiment item","yes","Sternbergtask.osexp","C:/Users/I. Edwards/Desktop","no","mono","no","18","no","white","no","yes","768","legacy","107","11","C:/Users/I. Edwards/Desktop/kg-subject-3.csv","legacy","7 1","Kafkaesque Koffka","3.2.5","0","n","0","right","right","right","right","NA","518","56253","20506","518","NA","2","legacy","2","1024","2","48000","-16","experiment","3","odd","8","827955","824470","825726","2931","159307","825731","644850","2938","138800","829970","830492","826743","59193","829967","NA","Sternberg task","112","88668","120","yes","1024"
"93.3884297521","93.3884297521","738.446280992","738.446280992","black","experiment","legacy","legacy","legacy","0","uniform","1","undefined","1","right","120","120","120","0","0","120","120","0","0","120","120","120","0","120","0","10/07/18 19:19:19","The main experiment item","yes","Sternbergtask.osexp","C:/Users/I. Edwards/Desktop","no","mono","no","18","no","white","no","yes","768","legacy","108","11","C:/Users/I. Edwards/Desktop/kg-subject-3.csv","legacy","7 9 1 6","Kafkaesque Koffka","3.2.5","0","n","0","right","right","right","right","NA","684","56253","20506","684","NA","2","legacy","4","1024","2","48000","-16","experiment","3","odd","4","833987","830503","831758","2931","159307","831762","644850","2938","138800","835999","836688","832775","59193","835999","NA","Sternberg task","113","89352","121","yes","1024"
