"acc","accuracy","average_response_time","avg_rt","background","bidi","block","canvas_backend","clock_backend","color_backend","compensation","coordinates","correct","correct_instruction1","correct_keyboard_response","correct_response","count_ISI","count_correctFeedback","count_expSequence","count_experiment","count_experimentLoop","count_fixation","count_incorrectFeedback","count_instruction1","count_instructions2","count_keyboard_response","count_logger","count_memorySet","count_practiceLoop","count_probe","count_thankYou","datetime","description","disable_garbage_collection","empty_column","experiment_file","experiment_path","font_bold","font_family","font_italic","font_size","font_underline","foreground","form_clicks","fullscreen","height","keyboard_backend","live_row","live_row_practiceLoop","logfile","mouse_backend","numberSet","opensesame_codename","opensesame_version","posInSet","present","repeat_cycle","response","response_instruction1","response_instructions2","response_keyboard_response","response_thankYou","response_time","response_time_instruction1","response_time_instructions2","response_time_keyboard_response","response_time_thankYou","round_decimals","sampler_backend","setSize","sound_buf_size","sound_channels","sound_freq","sound_sample_size","start","subject_nr","subject_parity","target","time_ISI","time_correctFeedback","time_expSequence","time_experiment","time_experimentLoop","time_fixation","time_incorrectFeedback","time_instruction1","time_instructions2","time_keyboard_response","time_logger","time_memorySet","time_practiceLoop","time_probe","time_thankYou","title","total_correct","total_response_time","total_responses","uniform_coordinates","width"
"0","0","2000","2000","black","no","practice","legacy","legacy","legacy","0","uniform","0","undefined","0","left","0","0","0","0","0","0","0","0","0","0","0","0","0","0","0","10/05/18 14:26:33","The main experiment item","yes","NA","Sternbergtask.osexp","C:\Users\Knitwitty\Desktop","no","mono","no","18","no","white","no","yes","768","legacy","0","0","C:/Users/Knitwitty/Documents/subject-1.csv","legacy","2 9 4","Jazzy James","3.1.9","3","y","0","None","right","NA","None","NA","2000","29653","NA","2000","NA","2","legacy","3","1024","2","48000","-16","experiment","1","odd","4","47494","NA","45284","5111","NA","45288","NA","5115","NA","49497","51498","46291","34770","49497","NA","Sternberg task","0","2000","1","yes","1024"
"50","50","1701","1701","black","no","practice","legacy","legacy","legacy","0","uniform","1","undefined","1","right","1","1","1","0","0","1","1","0","0","1","1","1","0","1","0","10/05/18 14:26:33","The main experiment item","yes","NA","Sternbergtask.osexp","C:\Users\Knitwitty\Desktop","no","mono","no","18","no","white","no","yes","768","legacy","1","1","C:/Users/Knitwitty/Documents/subject-1.csv","legacy","4 1 5","Jazzy James","3.1.9","0","n","0","right","right","NA","right","NA","1402","29653","NA","1402","NA","2","legacy","3","1024","2","48000","-16","experiment","1","odd","2","54905","NA","52695","5111","NA","52698","51538","5115","NA","56910","58313","53702","34770","56910","NA","Sternberg task","1","3402","2","yes","1024"
"66.6666666667","66.6666666667","1604.66666667","1604.66666667","black","no","practice","legacy","legacy","legacy","0","uniform","1","undefined","1","right","2","2","2","0","0","2","2","0","0","2","2","2","0","2","0","10/05/18 14:26:33","The main experiment item","yes","NA","Sternbergtask.osexp","C:\Users\Knitwitty\Desktop","no","mono","no","18","no","white","no","yes","768","legacy","2","2","C:/Users/Knitwitty/Documents/subject-1.csv","legacy","9 6 7 4 5","Jazzy James","3.1.9","0","n","0","right","right","NA","right","NA","1412","29653","NA","1412","NA","2","legacy","5","1024","2","48000","-16","experiment","1","odd","3","61704","58331","59495","5111","NA","59499","51538","5115","NA","63708","65122","60502","34770","63708","NA","Sternberg task","2","4814","3","yes","1024"
"75","75","1374.75","1374.75","black","no","practice","legacy","legacy","legacy","0","uniform","1","undefined","1","right","3","3","3","0","0","3","3","0","0","3","3","3","0","3","0","10/05/18 14:26:33","The main experiment item","yes","NA","Sternbergtask.osexp","C:\Users\Knitwitty\Desktop","no","mono","no","18","no","white","no","yes","768","legacy","3","3","C:/Users/Knitwitty/Documents/subject-1.csv","legacy","2 1","Jazzy James","3.1.9","0","n","0","right","right","NA","right","NA","685","29653","NA","685","NA","2","legacy","2","1024","2","48000","-16","experiment","1","odd","5","68599","65237","66389","5111","NA","66393","51538","5115","NA","70603","71290","67395","34770","70603","NA","Sternberg task","3","5499","4","yes","1024"
"80","80","1298","1298","black","no","practice","legacy","legacy","legacy","0","uniform","1","undefined","1","left","4","4","4","0","0","4","4","0","0","4","4","4","0","4","0","10/05/18 14:26:33","The main experiment item","yes","NA","Sternbergtask.osexp","C:\Users\Knitwitty\Desktop","no","mono","no","18","no","white","no","yes","768","legacy","4","4","C:/Users/Knitwitty/Documents/subject-1.csv","legacy","6","Jazzy James","3.1.9","1","y","0","left","right","NA","left","NA","991","29653","NA","991","NA","2","legacy","1","1024","2","48000","-16","experiment","1","odd","6","74676","71311","72466","5111","NA","72470","51538","5115","NA","76681","77673","73473","34770","76680","NA","Sternberg task","4","6490","5","yes","1024"
"83.3333333333","83.3333333333","1232.16666667","1232.16666667","black","no","practice","legacy","legacy","legacy","0","uniform","1","undefined","1","left","5","5","5","0","0","5","5","0","0","5","5","5","0","5","0","10/05/18 14:26:33","The main experiment item","yes","NA","Sternbergtask.osexp","C:\Users\Knitwitty\Desktop","no","mono","no","18","no","white","no","yes","768","legacy","5","5","C:/Users/Knitwitty/Documents/subject-1.csv","legacy","4 8","Jazzy James","3.1.9","1","y","0","left","right","NA","left","NA","903","29653","NA","903","NA","2","legacy","2","1024","2","48000","-16","experiment","1","odd","4","81059","77690","78849","5111","NA","78853","51538","5115","NA","83064","83969","79856","34770","83063","NA","Sternberg task","5","7393","6","yes","1024"
"85.7142857143","85.7142857143","1179.14285714","1179.14285714","black","no","practice","legacy","legacy","legacy","0","uniform","1","undefined","1","right","6","6","6","0","0","6","6","0","0","6","6","6","0","6","0","10/05/18 14:26:33","The main experiment item","yes","NA","Sternbergtask.osexp","C:\Users\Knitwitty\Desktop","no","mono","no","18","no","white","no","yes","768","legacy","6","6","C:/Users/Knitwitty/Documents/subject-1.csv","legacy","5","Jazzy James","3.1.9","0","n","0","right","right","NA","right","NA","861","29653","NA","861","NA","2","legacy","1","1024","2","48000","-16","experiment","1","odd","3","87350","83985","85138","5111","NA","85143","51538","5115","NA","89355","90218","86146","34770","89354","NA","Sternberg task","6","8254","7","yes","1024"
"87.5","87.5","1177.625","1177.625","black","no","practice","legacy","legacy","legacy","0","uniform","1","undefined","1","right","7","7","7","0","0","7","7","0","0","7","7","7","0","7","0","10/05/18 14:26:33","The main experiment item","yes","NA","Sternbergtask.osexp","C:\Users\Knitwitty\Desktop","no","mono","no","18","no","white","no","yes","768","legacy","7","7","C:/Users/Knitwitty/Documents/subject-1.csv","legacy","3 1 9 4","Jazzy James","3.1.9","0","n","0","right","right","NA","right","NA","1167","29653","NA","1167","NA","2","legacy","4","1024","2","48000","-16","experiment","1","odd","6","93605","90236","91393","5111","NA","91397","51538","5115","NA","95609","96777","92402","34770","95609","NA","Sternberg task","7","9421","8","yes","1024"
"88.8888888889","88.8888888889","1122.22222222","1122.22222222","black","no","practice","legacy","legacy","legacy","0","uniform","1","undefined","1","right","8","8","8","0","0","8","8","0","0","8","8","8","0","8","0","10/05/18 14:26:33","The main experiment item","yes","NA","Sternbergtask.osexp","C:\Users\Knitwitty\Desktop","no","mono","no","18","no","white","no","yes","768","legacy","8","8","C:/Users/Knitwitty/Documents/subject-1.csv","legacy","5 7 8 4 1 2","Jazzy James","3.1.9","0","n","0","right","right","NA","right","NA","679","29653","NA","679","NA","2","legacy","6","1024","2","48000","-16","experiment","1","odd","6","100165","96794","97953","5111","NA","97958","51538","5115","NA","102169","102849","98962","34770","102169","NA","Sternberg task","8","10100","9","yes","1024"
"90","90","1076.1","1076.1","black","no","practice","legacy","legacy","legacy","0","uniform","1","undefined","1","left","9","9","9","0","0","9","9","0","0","9","9","9","0","9","0","10/05/18 14:26:33","The main experiment item","yes","NA","Sternbergtask.osexp","C:\Users\Knitwitty\Desktop","no","mono","no","18","no","white","no","yes","768","legacy","9","9","C:/Users/Knitwitty/Documents/subject-1.csv","legacy","1 7 9 8 5","Jazzy James","3.1.9","4","y","0","left","right","NA","left","NA","661","29653","NA","661","NA","2","legacy","5","1024","2","48000","-16","experiment","1","odd","8","106239","102866","104028","5111","NA","104033","51538","5115","NA","108243","108906","105036","34770","108243","NA","Sternberg task","9","10761","10","yes","1024"
"90.9090909091","90.9090909091","1048.63636364","1048.63636364","black","no","practice","legacy","legacy","legacy","0","uniform","1","undefined","1","left","10","10","10","0","0","10","10","0","0","10","10","10","0","10","0","10/05/18 14:26:33","The main experiment item","yes","NA","Sternbergtask.osexp","C:\Users\Knitwitty\Desktop","no","mono","no","18","no","white","no","yes","768","legacy","10","10","C:/Users/Knitwitty/Documents/subject-1.csv","legacy","1 5 2 9","Jazzy James","3.1.9","2","y","0","left","right","NA","left","NA","774","29653","NA","774","NA","2","legacy","4","1024","2","48000","-16","experiment","1","odd","5","112398","109023","110185","5111","NA","110191","51538","5115","NA","114402","115177","111194","34770","114401","NA","Sternberg task","10","11535","11","yes","1024"
"91.6666666667","91.6666666667","1009.33333333","1009.33333333","black","no","practice","legacy","legacy","legacy","0","uniform","1","undefined","1","left","11","11","11","0","0","11","11","0","0","11","11","11","0","11","0","10/05/18 14:26:33","The main experiment item","yes","NA","Sternbergtask.osexp","C:\Users\Knitwitty\Desktop","no","mono","no","18","no","white","no","yes","768","legacy","11","11","C:/Users/Knitwitty/Documents/subject-1.csv","legacy","4 3 1 7 9 8","Jazzy James","3.1.9","1","y","0","left","right","NA","left","NA","577","29653","NA","577","NA","2","legacy","6","1024","2","48000","-16","experiment","1","odd","4","118570","115194","116357","5111","NA","116362","51538","5115","NA","120575","121154","117366","34770","120574","NA","Sternberg task","11","12112","12","yes","1024"
"92.3076923077","92.3076923077","972.230769231","972.230769231","black","no","experiment","legacy","legacy","legacy","0","uniform","1","undefined","1","right","12","12","12","0","0","12","12","0","0","12","12","12","0","12","0","10/05/18 14:26:33","The main experiment item","yes","NA","Sternbergtask.osexp","C:\Users\Knitwitty\Desktop","no","mono","no","18","no","white","no","yes","768","legacy","0","11","C:/Users/Knitwitty/Documents/subject-1.csv","legacy","6 9 4 5 2","Jazzy James","3.1.9","0","n","0","right","right","left","right","NA","527","29653","4502","527","NA","2","legacy","5","1024","2","48000","-16","experiment","1","odd","1","129276","121171","127065","5111","126714","127069","51538","5115","122210","131281","131810","128072","34770","131280","NA","Sternberg task","12","12639","13","yes","1024"
"92.8571428571","92.8571428571","1022.42857143","1022.42857143","black","no","experiment","legacy","legacy","legacy","0","uniform","1","undefined","1","left","13","13","13","0","0","13","13","0","0","13","13","13","0","13","0","10/05/18 14:26:33","The main experiment item","yes","NA","Sternbergtask.osexp","C:\Users\Knitwitty\Desktop","no","mono","no","18","no","white","no","yes","768","legacy","1","11","C:/Users/Knitwitty/Documents/subject-1.csv","legacy","9 3 8 2 1 4","Jazzy James","3.1.9","3","y","0","left","right","left","left","NA","1675","29653","4502","1675","NA","2","legacy","6","1024","2","48000","-16","experiment","1","odd","8","135208","131827","132996","5111","126714","133001","51538","5115","122210","137213","138890","134004","34770","137213","NA","Sternberg task","13","14314","14","yes","1024"
"93.3333333333","93.3333333333","1002.46666667","1002.46666667","black","no","experiment","legacy","legacy","legacy","0","uniform","1","undefined","1","right","14","14","14","0","0","14","14","0","0","14","14","14","0","14","0","10/05/18 14:26:33","The main experiment item","yes","NA","Sternbergtask.osexp","C:\Users\Knitwitty\Desktop","no","mono","no","18","no","white","no","yes","768","legacy","2","11","C:/Users/Knitwitty/Documents/subject-1.csv","legacy","2 8 7 9 5 3","Jazzy James","3.1.9","0","n","0","right","right","left","right","NA","723","29653","4502","723","NA","2","legacy","6","1024","2","48000","-16","experiment","1","odd","6","142282","138906","140070","5111","126714","140075","51538","5115","122210","144285","145010","141078","34770","144285","NA","Sternberg task","14","15037","15","yes","1024"
"93.75","93.75","982.5625","982.5625","black","no","experiment","legacy","legacy","legacy","0","uniform","1","undefined","1","right","15","15","15","0","0","15","15","0","0","15","15","15","0","15","0","10/05/18 14:26:33","The main experiment item","yes","NA","Sternbergtask.osexp","C:\Users\Knitwitty\Desktop","no","mono","no","18","no","white","no","yes","768","legacy","3","11","C:/Users/Knitwitty/Documents/subject-1.csv","legacy","7 9 1 6","Jazzy James","3.1.9","0","n","0","right","right","left","right","NA","684","29653","4502","684","NA","2","legacy","4","1024","2","48000","-16","experiment","1","odd","4","148401","145027","146188","5111","126714","146193","51538","5115","122210","150404","151090","147196","34770","150404","NA","Sternberg task","15","15721","16","yes","1024"
"94.1176470588","94.1176470588","971.941176471","971.941176471","black","no","experiment","legacy","legacy","legacy","0","uniform","1","undefined","1","left","16","16","16","0","0","16","16","0","0","16","16","16","0","16","0","10/05/18 14:26:33","The main experiment item","yes","NA","Sternbergtask.osexp","C:\Users\Knitwitty\Desktop","no","mono","no","18","no","white","no","yes","768","legacy","4","11","C:/Users/Knitwitty/Documents/subject-1.csv","legacy","4 3 2 5 8","Jazzy James","3.1.9","2","y","0","left","right","left","left","NA","802","29653","4502","802","NA","2","legacy","5","1024","2","48000","-16","experiment","1","odd","3","154482","151106","152270","5111","126714","152275","51538","5115","122210","156486","157290","153278","34770","156486","NA","Sternberg task","16","16523","17","yes","1024"
"94.4444444444","94.4444444444","958.222222222","958.222222222","black","no","experiment","legacy","legacy","legacy","0","uniform","1","undefined","1","left","17","17","17","0","0","17","17","0","0","17","17","17","0","17","0","10/05/18 14:26:33","The main experiment item","yes","NA","Sternbergtask.osexp","C:\Users\Knitwitty\Desktop","no","mono","no","18","no","white","no","yes","768","legacy","5","11","C:/Users/Knitwitty/Documents/subject-1.csv","legacy","1 4 9 3 2 5","Jazzy James","3.1.9","3","y","0","left","right","left","left","NA","725","29653","4502","725","NA","2","legacy","6","1024","2","48000","-16","experiment","1","odd","9","160686","157306","158473","5111","126714","158478","51538","5115","122210","162691","163418","159482","34770","162690","NA","Sternberg task","17","17248","18","yes","1024"
"89.4736842105","89.4736842105","934.526315789","934.526315789","black","no","experiment","legacy","legacy","legacy","0","uniform","0","undefined","0","left","18","18","18","0","0","18","18","0","0","18","18","18","0","18","0","10/05/18 14:26:33","The main experiment item","yes","NA","Sternbergtask.osexp","C:\Users\Knitwitty\Desktop","no","mono","no","18","no","white","no","yes","768","legacy","6","11","C:/Users/Knitwitty/Documents/subject-1.csv","legacy","5 7 3 6 2","Jazzy James","3.1.9","5","y","0","right","right","left","right","NA","508","29653","4502","508","NA","2","legacy","5","1024","2","48000","-16","experiment","1","odd","2","166808","163434","164596","5111","126714","164601","51538","5115","122210","168812","169322","165604","34770","168811","NA","Sternberg task","17","17756","19","yes","1024"
"90","90","927.8","927.8","black","no","experiment","legacy","legacy","legacy","0","uniform","1","undefined","1","left","19","19","19","0","0","19","19","0","0","19","19","19","0","19","0","10/05/18 14:26:33","The main experiment item","yes","NA","Sternbergtask.osexp","C:\Users\Knitwitty\Desktop","no","mono","no","18","no","white","no","yes","768","legacy","7","11","C:/Users/Knitwitty/Documents/subject-1.csv","legacy","2 6 1 7 4","Jazzy James","3.1.9","2","y","0","left","right","left","left","NA","800","29653","4502","800","NA","2","legacy","5","1024","2","48000","-16","experiment","1","odd","6","172723","163434","170510","5111","126714","170515","169348","5115","122210","174728","175530","171519","34770","174727","NA","Sternberg task","18","18556","20","yes","1024"
"90.4761904762","90.4761904762","913.19047619","913.19047619","black","no","experiment","legacy","legacy","legacy","0","uniform","1","undefined","1","right","20","20","20","0","0","20","20","0","0","20","20","20","0","20","0","10/05/18 14:26:33","The main experiment item","yes","NA","Sternbergtask.osexp","C:\Users\Knitwitty\Desktop","no","mono","no","18","no","white","no","yes","768","legacy","8","11","C:/Users/Knitwitty/Documents/subject-1.csv","legacy","7 1","Jazzy James","3.1.9","0","n","0","right","right","left","right","NA","621","29653","4502","621","NA","2","legacy","2","1024","2","48000","-16","experiment","1","odd","8","178918","175545","176706","5111","126714","176711","169348","5115","122210","180923","181546","177714","34770","180923","NA","Sternberg task","19","19177","21","yes","1024"
"90.9090909091","90.9090909091","904.090909091","904.090909091","black","no","experiment","legacy","legacy","legacy","0","uniform","1","undefined","1","right","21","21","21","0","0","21","21","0","0","21","21","21","0","21","0","10/05/18 14:26:33","The main experiment item","yes","NA","Sternbergtask.osexp","C:\Users\Knitwitty\Desktop","no","mono","no","18","no","white","no","yes","768","legacy","9","11","C:/Users/Knitwitty/Documents/subject-1.csv","legacy","1 4 9 3","Jazzy James","3.1.9","0","n","0","right","right","left","right","NA","713","29653","4502","713","NA","2","legacy","4","1024","2","48000","-16","experiment","1","odd","5","184938","181560","182725","5111","126714","182731","169348","5115","122210","186943","187659","183734","34770","186942","NA","Sternberg task","20","19890","22","yes","1024"
"91.3043478261","91.3043478261","895.565217391","895.565217391","black","no","experiment","legacy","legacy","legacy","0","uniform","1","undefined","1","left","22","22","22","0","0","22","22","0","0","22","22","22","0","22","0","10/05/18 14:26:33","The main experiment item","yes","NA","Sternbergtask.osexp","C:\Users\Knitwitty\Desktop","no","mono","no","18","no","white","no","yes","768","legacy","10","11","C:/Users/Knitwitty/Documents/subject-1.csv","legacy","8 5 3 7 4 6","Jazzy James","3.1.9","6","y","0","left","right","left","left","NA","708","29653","4502","708","NA","2","legacy","6","1024","2","48000","-16","experiment","1","odd","6","191048","187672","188835","5111","126714","188840","169348","5115","122210","193052","193762","189844","34770","193051","NA","Sternberg task","21","20598","23","yes","1024"
"91.6666666667","91.6666666667","879.25","879.25","black","no","experiment","legacy","legacy","legacy","0","uniform","1","undefined","1","right","23","23","23","0","0","23","23","0","0","23","23","23","0","23","0","10/05/18 14:26:33","The main experiment item","yes","NA","Sternbergtask.osexp","C:\Users\Knitwitty\Desktop","no","mono","no","18","no","white","no","yes","768","legacy","11","11","C:/Users/Knitwitty/Documents/subject-1.csv","legacy","1 8 7","Jazzy James","3.1.9","0","n","0","right","right","left","right","NA","504","29653","4502","504","NA","2","legacy","3","1024","2","48000","-16","experiment","1","odd","4","197149","193774","194936","5111","126714","194942","169348","5115","122210","199152","199658","195945","34770","199152","NA","Sternberg task","22","21102","24","yes","1024"
"92","92","872.48","872.48","black","no","experiment","legacy","legacy","legacy","0","uniform","1","undefined","1","right","24","24","24","0","0","24","24","0","0","24","24","24","0","24","0","10/05/18 14:26:33","The main experiment item","yes","NA","Sternbergtask.osexp","C:\Users\Knitwitty\Desktop","no","mono","no","18","no","white","no","yes","768","legacy","12","11","C:/Users/Knitwitty/Documents/subject-1.csv","legacy","3 4 9 6 7 8","Jazzy James","3.1.9","0","n","0","right","right","left","right","NA","710","29653","4502","710","NA","2","legacy","6","1024","2","48000","-16","experiment","1","odd","2","203039","199674","200828","5111","126714","200832","169348","5115","122210","205042","205755","201836","34770","205042","NA","Sternberg task","23","21812","25","yes","1024"
"92.3076923077","92.3076923077","864.153846154","864.153846154","black","no","experiment","legacy","legacy","legacy","0","uniform","1","undefined","1","right","25","25","25","0","0","25","25","0","0","25","25","25","0","25","0","10/05/18 14:26:33","The main experiment item","yes","NA","Sternbergtask.osexp","C:\Users\Knitwitty\Desktop","no","mono","no","18","no","white","no","yes","768","legacy","13","11","C:/Users/Knitwitty/Documents/subject-1.csv","legacy","2 5 1 4","Jazzy James","3.1.9","0","n","0","right","right","left","right","NA","656","29653","4502","656","NA","2","legacy","4","1024","2","48000","-16","experiment","1","odd","6","209141","205772","206930","5111","126714","206935","169348","5115","122210","211144","211803","207938","34770","211144","NA","Sternberg task","24","22468","26","yes","1024"
"92.5925925926","92.5925925926","861.518518519","861.518518519","black","no","experiment","legacy","legacy","legacy","0","uniform","1","undefined","1","left","26","26","26","0","0","26","26","0","0","26","26","26","0","26","0","10/05/18 14:26:33","The main experiment item","yes","NA","Sternbergtask.osexp","C:\Users\Knitwitty\Desktop","no","mono","no","18","no","white","no","yes","768","legacy","14","11","C:/Users/Knitwitty/Documents/subject-1.csv","legacy","9 1 7 2","Jazzy James","3.1.9","2","y","0","left","right","left","left","NA","793","29653","4502","793","NA","2","legacy","4","1024","2","48000","-16","experiment","1","odd","1","215195","211824","212985","5111","126714","212989","169348","5115","122210","217198","217994","213992","34770","217198","NA","Sternberg task","25","23261","27","yes","1024"
"92.8571428571","92.8571428571","849.928571429","849.928571429","black","no","experiment","legacy","legacy","legacy","0","uniform","1","undefined","1","right","27","27","27","0","0","27","27","0","0","27","27","27","0","27","0","10/05/18 14:26:33","The main experiment item","yes","NA","Sternbergtask.osexp","C:\Users\Knitwitty\Desktop","no","mono","no","18","no","white","no","yes","768","legacy","15","11","C:/Users/Knitwitty/Documents/subject-1.csv","legacy","8 4 3 9","Jazzy James","3.1.9","0","n","0","right","right","left","right","NA","537","29653","4502","537","NA","2","legacy","4","1024","2","48000","-16","experiment","1","odd","5","221420","218014","219207","5111","126714","219211","169348","5115","122210","223423","223962","220216","34770","223423","NA","Sternberg task","26","23798","28","yes","1024"
"93.1034482759","93.1034482759","843.793103448","843.793103448","black","no","experiment","legacy","legacy","legacy","0","uniform","1","undefined","1","right","28","28","28","0","0","28","28","0","0","28","28","28","0","28","0","10/05/18 14:26:33","The main experiment item","yes","NA","Sternbergtask.osexp","C:\Users\Knitwitty\Desktop","no","mono","no","18","no","white","no","yes","768","legacy","16","11","C:/Users/Knitwitty/Documents/subject-1.csv","legacy","6 7 5 9","Jazzy James","3.1.9","0","n","0","right","right","left","right","NA","672","29653","4502","672","NA","2","legacy","4","1024","2","48000","-16","experiment","1","odd","2","227348","223986","225139","5111","126714","225143","169348","5115","122210","229352","230026","226146","34770","229352","NA","Sternberg task","27","24470","29","yes","1024"
"93.3333333333","93.3333333333","857.733333333","857.733333333","black","no","experiment","legacy","legacy","legacy","0","uniform","1","undefined","1","left","29","29","29","0","0","29","29","0","0","29","29","29","0","29","0","10/05/18 14:26:33","The main experiment item","yes","NA","Sternbergtask.osexp","C:\Users\Knitwitty\Desktop","no","mono","no","18","no","white","no","yes","768","legacy","17","11","C:/Users/Knitwitty/Documents/subject-1.csv","legacy","8 5 4 7 3 1","Jazzy James","3.1.9","2","y","0","left","right","left","left","NA","1262","29653","4502","1262","NA","2","legacy","6","1024","2","48000","-16","experiment","1","odd","5","233407","230044","231197","5111","126714","231201","169348","5115","122210","235410","236674","232204","34770","235410","NA","Sternberg task","28","25732","30","yes","1024"
"93.5483870968","93.5483870968","846.838709677","846.838709677","black","no","experiment","legacy","legacy","legacy","0","uniform","1","undefined","1","right","30","30","30","0","0","30","30","0","0","30","30","30","0","30","0","10/05/18 14:26:33","The main experiment item","yes","NA","Sternbergtask.osexp","C:\Users\Knitwitty\Desktop","no","mono","no","18","no","white","no","yes","768","legacy","18","11","C:/Users/Knitwitty/Documents/subject-1.csv","legacy","8 4 3 5","Jazzy James","3.1.9","0","n","0","right","right","left","right","NA","520","29653","4502","520","NA","2","legacy","4","1024","2","48000","-16","experiment","1","odd","6","240261","236890","238049","5111","126714","238053","169348","5115","122210","242264","242786","239058","34770","242264","NA","Sternberg task","29","26252","31","yes","1024"
"93.75","93.75","840.84375","840.84375","black","no","experiment","legacy","legacy","legacy","0","uniform","1","undefined","1","right","31","31","31","0","0","31","31","0","0","31","31","31","0","31","0","10/05/18 14:26:33","The main experiment item","yes","NA","Sternbergtask.osexp","C:\Users\Knitwitty\Desktop","no","mono","no","18","no","white","no","yes","768","legacy","19","11","C:/Users/Knitwitty/Documents/subject-1.csv","legacy","7 4 2 8 1 9","Jazzy James","3.1.9","0","n","0","right","right","left","right","NA","655","29653","4502","655","NA","2","legacy","6","1024","2","48000","-16","experiment","1","odd","5","246267","242878","244053","5111","126714","244058","169348","5115","122210","248273","248931","245062","34770","248272","NA","Sternberg task","30","26907","32","yes","1024"
"93.9393939394","93.9393939394","834.96969697","834.96969697","black","no","experiment","legacy","legacy","legacy","0","uniform","1","undefined","1","right","32","32","32","0","0","32","32","0","0","32","32","32","0","32","0","10/05/18 14:26:33","The main experiment item","yes","NA","Sternbergtask.osexp","C:\Users\Knitwitty\Desktop","no","mono","no","18","no","white","no","yes","768","legacy","20","11","C:/Users/Knitwitty/Documents/subject-1.csv","legacy","2 7 5","Jazzy James","3.1.9","0","n","0","right","right","left","right","NA","647","29653","4502","647","NA","2","legacy","3","1024","2","48000","-16","experiment","1","odd","8","252314","248950","250104","5111","126714","250108","169348","5115","122210","254321","254970","251112","34770","254320","NA","Sternberg task","31","27554","33","yes","1024"
"94.1176470588","94.1176470588","826.058823529","826.058823529","black","no","experiment","legacy","legacy","legacy","0","uniform","1","undefined","1","right","33","33","33","0","0","33","33","0","0","33","33","33","0","33","0","10/05/18 14:26:33","The main experiment item","yes","NA","Sternbergtask.osexp","C:\Users\Knitwitty\Desktop","no","mono","no","18","no","white","no","yes","768","legacy","21","11","C:/Users/Knitwitty/Documents/subject-1.csv","legacy","6 8","Jazzy James","3.1.9","0","n","0","right","right","left","right","NA","532","29653","4502","532","NA","2","legacy","2","1024","2","48000","-16","experiment","1","odd","9","258481","255117","256271","5111","126714","256275","169348","5115","122210","260484","261019","257278","34770","260484","NA","Sternberg task","32","28086","34","yes","1024"
"94.2857142857","94.2857142857","818.657142857","818.657142857","black","no","experiment","legacy","legacy","legacy","0","uniform","1","undefined","1","right","34","34","34","0","0","34","34","0","0","34","34","34","0","34","0","10/05/18 14:26:33","The main experiment item","yes","NA","Sternbergtask.osexp","C:\Users\Knitwitty\Desktop","no","mono","no","18","no","white","no","yes","768","legacy","22","11","C:/Users/Knitwitty/Documents/subject-1.csv","legacy","7 6 4 8 1 2","Jazzy James","3.1.9","0","n","0","right","right","left","right","NA","567","29653","4502","567","NA","2","legacy","6","1024","2","48000","-16","experiment","1","odd","9","264645","261253","262432","5111","126714","262436","169348","5115","122210","266648","267218","263442","34770","266648","NA","Sternberg task","33","28653","35","yes","1024"
"94.4444444444","94.4444444444","814.166666667","814.166666667","black","no","experiment","legacy","legacy","legacy","0","uniform","1","undefined","1","left","35","35","35","0","0","35","35","0","0","35","35","35","0","35","0","10/05/18 14:26:33","The main experiment item","yes","NA","Sternbergtask.osexp","C:\Users\Knitwitty\Desktop","no","mono","no","18","no","white","no","yes","768","legacy","23","11","C:/Users/Knitwitty/Documents/subject-1.csv","legacy","3 9 7 6 4","Jazzy James","3.1.9","3","y","0","left","right","left","left","NA","657","29653","4502","657","NA","2","legacy","5","1024","2","48000","-16","experiment","1","odd","7","270617","267253","268405","5111","126714","268409","169348","5115","122210","272623","273283","269412","34770","272622","NA","Sternberg task","34","29310","36","yes","1024"
"94.5945945946","94.5945945946","809.081081081","809.081081081","black","no","experiment","legacy","legacy","legacy","0","uniform","1","undefined","1","left","36","36","36","0","0","36","36","0","0","36","36","36","0","36","0","10/05/18 14:26:33","The main experiment item","yes","NA","Sternbergtask.osexp","C:\Users\Knitwitty\Desktop","no","mono","no","18","no","white","no","yes","768","legacy","24","11","C:/Users/Knitwitty/Documents/subject-1.csv","legacy","2 8 5 1","Jazzy James","3.1.9","4","y","0","left","right","left","left","NA","626","29653","4502","626","NA","2","legacy","4","1024","2","48000","-16","experiment","1","odd","1","276913","273520","274702","5111","126714","274706","169348","5115","122210","278918","279547","275710","34770","278918","NA","Sternberg task","35","29936","37","yes","1024"
"94.7368421053","94.7368421053","800.263157895","800.263157895","black","no","experiment","legacy","legacy","legacy","0","uniform","1","undefined","1","right","37","37","37","0","0","37","37","0","0","37","37","37","0","37","0","10/05/18 14:26:33","The main experiment item","yes","NA","Sternbergtask.osexp","C:\Users\Knitwitty\Desktop","no","mono","no","18","no","white","no","yes","768","legacy","25","11","C:/Users/Knitwitty/Documents/subject-1.csv","legacy","4 2 6 9","Jazzy James","3.1.9","0","n","0","right","right","left","right","NA","474","29653","4502","474","NA","2","legacy","4","1024","2","48000","-16","experiment","1","odd","7","284033","280668","281822","5111","126714","281827","169348","5115","122210","286038","286515","282830","34770","286037","NA","Sternberg task","36","30410","38","yes","1024"
"94.8717948718","94.8717948718","793.230769231","793.230769231","black","no","experiment","legacy","legacy","legacy","0","uniform","1","undefined","1","right","38","38","38","0","0","38","38","0","0","38","38","38","0","38","0","10/05/18 14:26:33","The main experiment item","yes","NA","Sternbergtask.osexp","C:\Users\Knitwitty\Desktop","no","mono","no","18","no","white","no","yes","768","legacy","26","11","C:/Users/Knitwitty/Documents/subject-1.csv","legacy","8 9","Jazzy James","3.1.9","0","n","0","right","right","left","right","NA","526","29653","4502","526","NA","2","legacy","2","1024","2","48000","-16","experiment","1","odd","5","290535","287154","288325","5111","126714","288329","169348","5115","122210","292538","293067","289332","34770","292537","NA","Sternberg task","37","30936","39","yes","1024"
"95","95","785.6","785.6","black","no","experiment","legacy","legacy","legacy","0","uniform","1","undefined","1","right","39","39","39","0","0","39","39","0","0","39","39","39","0","39","0","10/05/18 14:26:33","The main experiment item","yes","NA","Sternbergtask.osexp","C:\Users\Knitwitty\Desktop","no","mono","no","18","no","white","no","yes","768","legacy","27","11","C:/Users/Knitwitty/Documents/subject-1.csv","legacy","7 8 6 1","Jazzy James","3.1.9","0","n","0","right","right","left","right","NA","488","29653","4502","488","NA","2","legacy","4","1024","2","48000","-16","experiment","1","odd","3","297401","294025","295185","5111","126714","295191","169348","5115","122210","299408","299899","296195","34770","299407","NA","Sternberg task","38","31424","40","yes","1024"
"95.1219512195","95.1219512195","781.365853659","781.365853659","black","no","experiment","legacy","legacy","legacy","0","uniform","1","undefined","1","left","40","40","40","0","0","40","40","0","0","40","40","40","0","40","0","10/05/18 14:26:33","The main experiment item","yes","NA","Sternbergtask.osexp","C:\Users\Knitwitty\Desktop","no","mono","no","18","no","white","no","yes","768","legacy","28","11","C:/Users/Knitwitty/Documents/subject-1.csv","legacy","7 8 4 6 9 5","Jazzy James","3.1.9","4","y","0","left","right","left","left","NA","612","29653","4502","612","NA","2","legacy","6","1024","2","48000","-16","experiment","1","odd","6","303407","300014","301194","5111","126714","301198","169348","5115","122210","305412","306027","302203","34770","305412","NA","Sternberg task","39","32036","41","yes","1024"
"95.2380952381","95.2380952381","776.214285714","776.214285714","black","no","experiment","legacy","legacy","legacy","0","uniform","1","undefined","1","left","41","41","41","0","0","41","41","0","0","41","41","41","0","41","0","10/05/18 14:26:33","The main experiment item","yes","NA","Sternbergtask.osexp","C:\Users\Knitwitty\Desktop","no","mono","no","18","no","white","no","yes","768","legacy","29","11","C:/Users/Knitwitty/Documents/subject-1.csv","legacy","2 4 6 9","Jazzy James","3.1.9","3","y","0","left","right","left","left","NA","565","29653","4502","565","NA","2","legacy","4","1024","2","48000","-16","experiment","1","odd","6","309488","306080","307277","5111","126714","307282","169348","5115","122210","311491","312060","308285","34770","311491","NA","Sternberg task","40","32601","42","yes","1024"
"95.3488372093","95.3488372093","772.930232558","772.930232558","black","no","experiment","legacy","legacy","legacy","0","uniform","1","undefined","1","left","42","42","42","0","0","42","42","0","0","42","42","42","0","42","0","10/05/18 14:26:33","The main experiment item","yes","NA","Sternbergtask.osexp","C:\Users\Knitwitty\Desktop","no","mono","no","18","no","white","no","yes","768","legacy","30","11","C:/Users/Knitwitty/Documents/subject-1.csv","legacy","5 2 9 6 1 7","Jazzy James","3.1.9","3","y","0","left","right","left","left","NA","635","29653","4502","635","NA","2","legacy","6","1024","2","48000","-16","experiment","1","odd","9","315449","312082","313238","5111","126714","313242","169348","5115","122210","317453","318091","314245","34770","317452","NA","Sternberg task","41","33236","43","yes","1024"
"95.4545454545","95.4545454545","767.636363636","767.636363636","black","no","experiment","legacy","legacy","legacy","0","uniform","1","undefined","1","right","43","43","43","0","0","43","43","0","0","43","43","43","0","43","0","10/05/18 14:26:33","The main experiment item","yes","NA","Sternbergtask.osexp","C:\Users\Knitwitty\Desktop","no","mono","no","18","no","white","no","yes","768","legacy","31","11","C:/Users/Knitwitty/Documents/subject-1.csv","legacy","1 7 5 2","Jazzy James","3.1.9","0","n","0","right","right","left","right","NA","540","29653","4502","540","NA","2","legacy","4","1024","2","48000","-16","experiment","1","odd","3","321585","318215","319375","5111","126714","319379","169348","5115","122210","323588","324131","320382","34770","323588","NA","Sternberg task","42","33776","44","yes","1024"
"95.5555555556","95.5555555556","763.488888889","763.488888889","black","no","experiment","legacy","legacy","legacy","0","uniform","1","undefined","1","right","44","44","44","0","0","44","44","0","0","44","44","44","0","44","0","10/05/18 14:26:33","The main experiment item","yes","NA","Sternbergtask.osexp","C:\Users\Knitwitty\Desktop","no","mono","no","18","no","white","no","yes","768","legacy","32","11","C:/Users/Knitwitty/Documents/subject-1.csv","legacy","5 9 2 3","Jazzy James","3.1.9","0","n","0","right","right","left","right","NA","581","29653","4502","581","NA","2","legacy","4","1024","2","48000","-16","experiment","1","odd","8","327512","324142","325302","5111","126714","325306","169348","5115","122210","329515","330099","326309","34770","329515","NA","Sternberg task","43","34357","45","yes","1024"
"95.652173913","95.652173913","759.391304348","759.391304348","black","no","experiment","legacy","legacy","legacy","0","uniform","1","undefined","1","left","45","45","45","0","0","45","45","0","0","45","45","45","0","45","0","10/05/18 14:26:33","The main experiment item","yes","NA","Sternbergtask.osexp","C:\Users\Knitwitty\Desktop","no","mono","no","18","no","white","no","yes","768","legacy","33","11","C:/Users/Knitwitty/Documents/subject-1.csv","legacy","4 6 2 5 1","Jazzy James","3.1.9","5","y","0","left","right","left","left","NA","575","29653","4502","575","NA","2","legacy","5","1024","2","48000","-16","experiment","1","odd","1","334013","330637","331799","5111","126714","331803","169348","5115","122210","336016","336595","332808","34770","336016","NA","Sternberg task","44","34932","46","yes","1024"
"95.7446808511","95.7446808511","757.914893617","757.914893617","black","no","experiment","legacy","legacy","legacy","0","uniform","1","undefined","1","right","46","46","46","0","0","46","46","0","0","46","46","46","0","46","0","10/05/18 14:26:33","The main experiment item","yes","NA","Sternbergtask.osexp","C:\Users\Knitwitty\Desktop","no","mono","no","18","no","white","no","yes","768","legacy","34","11","C:/Users/Knitwitty/Documents/subject-1.csv","legacy","7 1 8 4 9 3","Jazzy James","3.1.9","0","n","0","right","right","left","right","NA","690","29653","4502","690","NA","2","legacy","6","1024","2","48000","-16","experiment","1","odd","6","340002","336625","337788","5111","126714","337794","169348","5115","122210","342005","342699","338799","34770","342005","NA","Sternberg task","45","35622","47","yes","1024"
"95.8333333333","95.8333333333","761.708333333","761.708333333","black","no","experiment","legacy","legacy","legacy","0","uniform","1","undefined","1","left","47","47","47","0","0","47","47","0","0","47","47","47","0","47","0","10/05/18 14:26:33","The main experiment item","yes","NA","Sternbergtask.osexp","C:\Users\Knitwitty\Desktop","no","mono","no","18","no","white","no","yes","768","legacy","35","11","C:/Users/Knitwitty/Documents/subject-1.csv","legacy","2 3 7 4","Jazzy James","3.1.9","1","y","0","left","right","left","left","NA","940","29653","4502","940","NA","2","legacy","4","1024","2","48000","-16","experiment","1","odd","2","346089","342715","343878","5111","126714","343882","169348","5115","122210","348092","349035","344885","34770","348092","NA","Sternberg task","46","36562","48","yes","1024"
"95.9183673469","95.9183673469","757.224489796","757.224489796","black","no","experiment","legacy","legacy","legacy","0","uniform","1","undefined","1","left","48","48","48","0","0","48","48","0","0","48","48","48","0","48","0","10/05/18 14:26:33","The main experiment item","yes","NA","Sternbergtask.osexp","C:\Users\Knitwitty\Desktop","no","mono","no","18","no","white","no","yes","768","legacy","36","11","C:/Users/Knitwitty/Documents/subject-1.csv","legacy","2 4 8 5 1 3","Jazzy James","3.1.9","1","y","0","left","right","left","left","NA","542","29653","4502","542","NA","2","legacy","6","1024","2","48000","-16","experiment","1","odd","2","352446","349051","350235","5111","126714","350240","169348","5115","122210","354449","354995","351243","34770","354449","NA","Sternberg task","47","37104","49","yes","1024"
"96","96","752.7","752.7","black","no","experiment","legacy","legacy","legacy","0","uniform","1","undefined","1","right","49","49","49","0","0","49","49","0","0","49","49","49","0","49","0","10/05/18 14:26:33","The main experiment item","yes","NA","Sternbergtask.osexp","C:\Users\Knitwitty\Desktop","no","mono","no","18","no","white","no","yes","768","legacy","37","11","C:/Users/Knitwitty/Documents/subject-1.csv","legacy","3 4 2","Jazzy James","3.1.9","0","n","0","right","right","left","right","NA","531","29653","4502","531","NA","2","legacy","3","1024","2","48000","-16","experiment","1","odd","5","358378","355011","356167","5111","126714","356171","169348","5115","122210","360381","360915","357175","34770","360381","NA","Sternberg task","48","37635","50","yes","1024"
"96.0784313725","96.0784313725","753.568627451","753.568627451","black","no","experiment","legacy","legacy","legacy","0","uniform","1","undefined","1","left","50","50","50","0","0","50","50","0","0","50","50","50","0","50","0","10/05/18 14:26:33","The main experiment item","yes","NA","Sternbergtask.osexp","C:\Users\Knitwitty\Desktop","no","mono","no","18","no","white","no","yes","768","legacy","38","11","C:/Users/Knitwitty/Documents/subject-1.csv","legacy","4 9 7 8 5 3","Jazzy James","3.1.9","4","y","0","left","right","left","left","NA","797","29653","4502","797","NA","2","legacy","6","1024","2","48000","-16","experiment","1","odd","8","364296","360931","362085","5111","126714","362090","169348","5115","122210","366299","367099","363093","34770","366299","NA","Sternberg task","49","38432","51","yes","1024"
"96.1538461538","96.1538461538","747.538461538","747.538461538","black","no","experiment","legacy","legacy","legacy","0","uniform","1","undefined","1","left","51","51","51","0","0","51","51","0","0","51","51","51","0","51","0","10/05/18 14:26:33","The main experiment item","yes","NA","Sternbergtask.osexp","C:\Users\Knitwitty\Desktop","no","mono","no","18","no","white","no","yes","768","legacy","39","11","C:/Users/Knitwitty/Documents/subject-1.csv","legacy","6 7 9 3 1 2","Jazzy James","3.1.9","1","y","0","left","right","left","left","NA","440","29653","4502","440","NA","2","legacy","6","1024","2","48000","-16","experiment","1","odd","6","370485","367120","368274","5111","126714","368279","169348","5115","122210","372488","372931","369282","34770","372488","NA","Sternberg task","50","38872","52","yes","1024"
"96.2264150943","96.2264150943","751.679245283","751.679245283","black","no","experiment","legacy","legacy","legacy","0","uniform","1","undefined","1","right","52","52","52","0","0","52","52","0","0","52","52","52","0","52","0","10/05/18 14:26:33","The main experiment item","yes","NA","Sternbergtask.osexp","C:\Users\Knitwitty\Desktop","no","mono","no","18","no","white","no","yes","768","legacy","40","11","C:/Users/Knitwitty/Documents/subject-1.csv","legacy","1 7 5 2 9","Jazzy James","3.1.9","0","n","0","right","right","left","right","NA","967","29653","4502","967","NA","2","legacy","5","1024","2","48000","-16","experiment","1","odd","3","376318","372948","374107","5111","126714","374111","169348","5115","122210","378321","379291","375115","34770","378321","NA","Sternberg task","51","39839","53","yes","1024"
"96.2962962963","96.2962962963","749.407407407","749.407407407","black","no","experiment","legacy","legacy","legacy","0","uniform","1","undefined","1","left","53","53","53","0","0","53","53","0","0","53","53","53","0","53","0","10/05/18 14:26:33","The main experiment item","yes","NA","Sternbergtask.osexp","C:\Users\Knitwitty\Desktop","no","mono","no","18","no","white","no","yes","768","legacy","41","11","C:/Users/Knitwitty/Documents/subject-1.csv","legacy","2 5 4 8 7","Jazzy James","3.1.9","3","y","0","left","right","left","left","NA","629","29653","4502","629","NA","2","legacy","5","1024","2","48000","-16","experiment","1","odd","4","382672","379307","380461","5111","126714","380466","169348","5115","122210","384675","385307","381469","34770","384675","NA","Sternberg task","52","40468","54","yes","1024"
"96.3636363636","96.3636363636","749.127272727","749.127272727","black","no","experiment","legacy","legacy","legacy","0","uniform","1","undefined","1","right","54","54","54","0","0","54","54","0","0","54","54","54","0","54","0","10/05/18 14:26:33","The main experiment item","yes","NA","Sternbergtask.osexp","C:\Users\Knitwitty\Desktop","no","mono","no","18","no","white","no","yes","768","legacy","42","11","C:/Users/Knitwitty/Documents/subject-1.csv","legacy","6 9 5","Jazzy James","3.1.9","0","n","0","right","right","left","right","NA","734","29653","4502","734","NA","2","legacy","3","1024","2","48000","-16","experiment","1","odd","8","388687","385324","386476","5111","126714","386480","169348","5115","122210","390690","391428","387484","34770","390690","NA","Sternberg task","53","41202","55","yes","1024"
"96.4285714286","96.4285714286","746.178571429","746.178571429","black","no","experiment","legacy","legacy","legacy","0","uniform","1","undefined","1","right","55","55","55","0","0","55","55","0","0","55","55","55","0","55","0","10/05/18 14:26:33","The main experiment item","yes","NA","Sternbergtask.osexp","C:\Users\Knitwitty\Desktop","no","mono","no","18","no","white","no","yes","768","legacy","43","11","C:/Users/Knitwitty/Documents/subject-1.csv","legacy","4 2 7 6 1 3","Jazzy James","3.1.9","0","n","0","right","right","left","right","NA","584","29653","4502","584","NA","2","legacy","6","1024","2","48000","-16","experiment","1","odd","8","394812","391444","392601","5111","126714","392606","169348","5115","122210","396816","397404","393609","34770","396816","NA","Sternberg task","54","41786","56","yes","1024"
"96.4912280702","96.4912280702","744.666666667","744.666666667","black","no","experiment","legacy","legacy","legacy","0","uniform","1","undefined","1","right","56","56","56","0","0","56","56","0","0","56","56","56","0","56","0","10/05/18 14:26:33","The main experiment item","yes","NA","Sternbergtask.osexp","C:\Users\Knitwitty\Desktop","no","mono","no","18","no","white","no","yes","768","legacy","44","11","C:/Users/Knitwitty/Documents/subject-1.csv","legacy","1 5 3 2 8","Jazzy James","3.1.9","0","n","0","right","right","left","right","NA","660","29653","4502","660","NA","2","legacy","5","1024","2","48000","-16","experiment","1","odd","4","400793","397420","398582","5111","126714","398586","169348","5115","122210","402796","403459","399590","34770","402795","NA","Sternberg task","55","42446","57","yes","1024"
"94.8275862069","94.8275862069","740.465517241","740.465517241","black","no","experiment","legacy","legacy","legacy","0","uniform","0","undefined","0","left","57","57","57","0","0","57","57","0","0","57","57","57","0","57","0","10/05/18 14:26:33","The main experiment item","yes","NA","Sternbergtask.osexp","C:\Users\Knitwitty\Desktop","no","mono","no","18","no","white","no","yes","768","legacy","45","11","C:/Users/Knitwitty/Documents/subject-1.csv","legacy","8 3","Jazzy James","3.1.9","2","y","0","right","right","left","right","NA","501","29653","4502","501","NA","2","legacy","2","1024","2","48000","-16","experiment","1","odd","3","406840","403475","404630","5111","126714","404634","169348","5115","122210","408843","409348","405637","34770","408843","NA","Sternberg task","55","42947","58","yes","1024"
"94.9152542373","94.9152542373","738.542372881","738.542372881","black","no","experiment","legacy","legacy","legacy","0","uniform","1","undefined","1","left","58","58","58","0","0","58","58","0","0","58","58","58","0","58","0","10/05/18 14:26:33","The main experiment item","yes","NA","Sternbergtask.osexp","C:\Users\Knitwitty\Desktop","no","mono","no","18","no","white","no","yes","768","legacy","46","11","C:/Users/Knitwitty/Documents/subject-1.csv","legacy","2 3","Jazzy James","3.1.9","1","y","0","left","right","left","left","NA","627","29653","4502","627","NA","2","legacy","2","1024","2","48000","-16","experiment","1","odd","2","412730","403475","410519","5111","126714","410523","409364","5115","122210","414733","415364","411527","34770","414733","NA","Sternberg task","56","43574","59","yes","1024"
"95","95","739.033333333","739.033333333","black","no","experiment","legacy","legacy","legacy","0","uniform","1","undefined","1","right","59","59","59","0","0","59","59","0","0","59","59","59","0","59","0","10/05/18 14:26:33","The main experiment item","yes","NA","Sternbergtask.osexp","C:\Users\Knitwitty\Desktop","no","mono","no","18","no","white","no","yes","768","legacy","47","11","C:/Users/Knitwitty/Documents/subject-1.csv","legacy","5 2","Jazzy James","3.1.9","0","n","0","right","right","left","right","NA","768","29653","4502","768","NA","2","legacy","2","1024","2","48000","-16","experiment","1","odd","7","418741","415379","416530","5111","126714","416535","409364","5115","122210","420744","421516","417538","34770","420744","NA","Sternberg task","57","44342","60","yes","1024"
"95.0819672131","95.0819672131","740.131147541","740.131147541","black","no","experiment","legacy","legacy","legacy","0","uniform","1","undefined","1","left","60","60","60","0","0","60","60","0","0","60","60","60","0","60","0","10/05/18 14:26:33","The main experiment item","yes","NA","Sternbergtask.osexp","C:\Users\Knitwitty\Desktop","no","mono","no","18","no","white","no","yes","768","legacy","48","11","C:/Users/Knitwitty/Documents/subject-1.csv","legacy","7 1 3","Jazzy James","3.1.9","2","y","0","left","right","left","left","NA","806","29653","4502","806","NA","2","legacy","3","1024","2","48000","-16","experiment","1","odd","1","424895","421532","422685","5111","126714","422689","409364","5115","122210","426898","427708","423692","34770","426898","NA","Sternberg task","58","45148","61","yes","1024"
"95.1612903226","95.1612903226","736.161290323","736.161290323","black","no","experiment","legacy","legacy","legacy","0","uniform","1","undefined","1","right","61","61","61","0","0","61","61","0","0","61","61","61","0","61","0","10/05/18 14:26:33","The main experiment item","yes","NA","Sternbergtask.osexp","C:\Users\Knitwitty\Desktop","no","mono","no","18","no","white","no","yes","768","legacy","49","11","C:/Users/Knitwitty/Documents/subject-1.csv","legacy","5","Jazzy James","3.1.9","0","n","0","right","right","left","right","NA","494","29653","4502","494","NA","2","legacy","1","1024","2","48000","-16","experiment","1","odd","8","431086","427724","428875","5111","126714","428880","409364","5115","122210","433089","433587","429883","34770","433089","NA","Sternberg task","59","45642","62","yes","1024"
"95.2380952381","95.2380952381","735.222222222","735.222222222","black","no","experiment","legacy","legacy","legacy","0","uniform","1","undefined","1","right","62","62","62","0","0","62","62","0","0","62","62","62","0","62","0","10/05/18 14:26:33","The main experiment item","yes","NA","Sternbergtask.osexp","C:\Users\Knitwitty\Desktop","no","mono","no","18","no","white","no","yes","768","legacy","50","11","C:/Users/Knitwitty/Documents/subject-1.csv","legacy","1 7 8 3 9","Jazzy James","3.1.9","0","n","0","right","right","left","right","NA","677","29653","4502","677","NA","2","legacy","5","1024","2","48000","-16","experiment","1","odd","2","436968","433604","434757","5111","126714","434762","409364","5115","122210","438971","439652","435765","34770","438971","NA","Sternberg task","60","46319","63","yes","1024"
"95.3125","95.3125","736.40625","736.40625","black","no","experiment","legacy","legacy","legacy","0","uniform","1","undefined","1","left","63","63","63","0","0","63","63","0","0","63","63","63","0","63","0","10/05/18 14:26:33","The main experiment item","yes","NA","Sternbergtask.osexp","C:\Users\Knitwitty\Desktop","no","mono","no","18","no","white","no","yes","768","legacy","51","11","C:/Users/Knitwitty/Documents/subject-1.csv","legacy","7 8 6 3 1","Jazzy James","3.1.9","5","y","0","left","right","left","left","NA","811","29653","4502","811","NA","2","legacy","5","1024","2","48000","-16","experiment","1","odd","1","443034","439668","440823","5111","126714","440827","409364","5115","122210","445037","445852","441831","34770","445037","NA","Sternberg task","61","47130","64","yes","1024"
"95.3846153846","95.3846153846","734.738461538","734.738461538","black","no","experiment","legacy","legacy","legacy","0","uniform","1","undefined","1","left","64","64","64","0","0","64","64","0","0","64","64","64","0","64","0","10/05/18 14:26:33","The main experiment item","yes","NA","Sternbergtask.osexp","C:\Users\Knitwitty\Desktop","no","mono","no","18","no","white","no","yes","768","legacy","52","11","C:/Users/Knitwitty/Documents/subject-1.csv","legacy","8 9 6 1","Jazzy James","3.1.9","2","y","0","left","right","left","left","NA","628","29653","4502","628","NA","2","legacy","4","1024","2","48000","-16","experiment","1","odd","9","449233","445868","447023","5111","126714","447027","409364","5115","122210","451236","451868","448030","34770","451236","NA","Sternberg task","62","47758","65","yes","1024"
"95.4545454545","95.4545454545","735.681818182","735.681818182","black","no","experiment","legacy","legacy","legacy","0","uniform","1","undefined","1","right","65","65","65","0","0","65","65","0","0","65","65","65","0","65","0","10/05/18 14:26:33","The main experiment item","yes","NA","Sternbergtask.osexp","C:\Users\Knitwitty\Desktop","no","mono","no","18","no","white","no","yes","768","legacy","53","11","C:/Users/Knitwitty/Documents/subject-1.csv","legacy","8 5 7 3 6","Jazzy James","3.1.9","0","n","0","right","right","left","right","NA","797","29653","4502","797","NA","2","legacy","5","1024","2","48000","-16","experiment","1","odd","9","455264","451884","453053","5111","126714","453057","409364","5115","122210","457267","458068","454060","34770","457267","NA","Sternberg task","63","48555","66","yes","1024"
"95.5223880597","95.5223880597","735.47761194","735.47761194","black","no","experiment","legacy","legacy","legacy","0","uniform","1","undefined","1","right","66","66","66","0","0","66","66","0","0","66","66","66","0","66","0","10/05/18 14:26:33","The main experiment item","yes","NA","Sternbergtask.osexp","C:\Users\Knitwitty\Desktop","no","mono","no","18","no","white","no","yes","768","legacy","54","11","C:/Users/Knitwitty/Documents/subject-1.csv","legacy","8 5 4 2 9 6","Jazzy James","3.1.9","0","n","0","right","right","left","right","NA","722","29653","4502","722","NA","2","legacy","6","1024","2","48000","-16","experiment","1","odd","3","461451","458084","459241","5111","126714","459245","409364","5115","122210","463454","464180","460248","34770","463454","NA","Sternberg task","64","49277","67","yes","1024"
"95.5882352941","95.5882352941","733.955882353","733.955882353","black","no","experiment","legacy","legacy","legacy","0","uniform","1","undefined","1","left","67","67","67","0","0","67","67","0","0","67","67","67","0","67","0","10/05/18 14:26:33","The main experiment item","yes","NA","Sternbergtask.osexp","C:\Users\Knitwitty\Desktop","no","mono","no","18","no","white","no","yes","768","legacy","55","11","C:/Users/Knitwitty/Documents/subject-1.csv","legacy","3 5 7 1","Jazzy James","3.1.9","3","y","0","left","right","left","left","NA","632","29653","4502","632","NA","2","legacy","4","1024","2","48000","-16","experiment","1","odd","7","467564","464196","465353","5111","126714","465358","409364","5115","122210","469567","470204","466361","34770","469567","NA","Sternberg task","65","49909","68","yes","1024"
"95.652173913","95.652173913","733.565217391","733.565217391","black","no","experiment","legacy","legacy","legacy","0","uniform","1","undefined","1","left","68","68","68","0","0","68","68","0","0","68","68","68","0","68","0","10/05/18 14:26:33","The main experiment item","yes","NA","Sternbergtask.osexp","C:\Users\Knitwitty\Desktop","no","mono","no","18","no","white","no","yes","768","legacy","56","11","C:/Users/Knitwitty/Documents/subject-1.csv","legacy","9 5 3 8 4","Jazzy James","3.1.9","1","y","0","left","right","left","left","NA","707","29653","4502","707","NA","2","legacy","5","1024","2","48000","-16","experiment","1","odd","9","473601","470223","471390","5111","126714","471395","409364","5115","122210","475604","476315","472398","34770","475604","NA","Sternberg task","66","50616","69","yes","1024"
"95.7142857143","95.7142857143","733.528571429","733.528571429","black","no","experiment","legacy","legacy","legacy","0","uniform","1","undefined","1","left","69","69","69","0","0","69","69","0","0","69","69","69","0","69","0","10/05/18 14:26:33","The main experiment item","yes","NA","Sternbergtask.osexp","C:\Users\Knitwitty\Desktop","no","mono","no","18","no","white","no","yes","768","legacy","57","11","C:/Users/Knitwitty/Documents/subject-1.csv","legacy","9 3 1 2 5","Jazzy James","3.1.9","4","y","0","left","right","left","left","NA","731","29653","4502","731","NA","2","legacy","5","1024","2","48000","-16","experiment","1","odd","2","479697","476332","477487","5111","126714","477491","409364","5115","122210","481700","482436","478494","34770","481700","NA","Sternberg task","67","51347","70","yes","1024"
"95.7746478873","95.7746478873","735.394366197","735.394366197","black","no","experiment","legacy","legacy","legacy","0","uniform","1","undefined","1","left","70","70","70","0","0","70","70","0","0","70","70","70","0","70","0","10/05/18 14:26:33","The main experiment item","yes","NA","Sternbergtask.osexp","C:\Users\Knitwitty\Desktop","no","mono","no","18","no","white","no","yes","768","legacy","58","11","C:/Users/Knitwitty/Documents/subject-1.csv","legacy","6 8 9 3 4 9","Jazzy James","3.1.9","5","y","0","left","right","left","left","NA","866","29653","4502","866","NA","2","legacy","6","1024","2","48000","-16","experiment","1","odd","4","485819","482452","483608","5111","126714","483612","409364","5115","122210","487822","488693","484616","34770","487822","NA","Sternberg task","68","52213","71","yes","1024"
"95.8333333333","95.8333333333","734.569444444","734.569444444","black","no","experiment","legacy","legacy","legacy","0","uniform","1","undefined","1","right","71","71","71","0","0","71","71","0","0","71","71","71","0","71","0","10/05/18 14:26:33","The main experiment item","yes","NA","Sternbergtask.osexp","C:\Users\Knitwitty\Desktop","no","mono","no","18","no","white","no","yes","768","legacy","59","11","C:/Users/Knitwitty/Documents/subject-1.csv","legacy","4 1","Jazzy James","3.1.9","0","n","0","right","right","left","right","NA","676","29653","4502","676","NA","2","legacy","2","1024","2","48000","-16","experiment","1","odd","6","492081","488712","489871","5111","126714","489875","409364","5115","122210","494084","494764","490878","34770","494084","NA","Sternberg task","69","52889","72","yes","1024"
"95.8904109589","95.8904109589","733.739726027","733.739726027","black","no","experiment","legacy","legacy","legacy","0","uniform","1","undefined","1","right","72","72","72","0","0","72","72","0","0","72","72","72","0","72","0","10/05/18 14:26:33","The main experiment item","yes","NA","Sternbergtask.osexp","C:\Users\Knitwitty\Desktop","no","mono","no","18","no","white","no","yes","768","legacy","60","11","C:/Users/Knitwitty/Documents/subject-1.csv","legacy","2 8 9 4 1","Jazzy James","3.1.9","0","n","0","right","right","left","right","NA","674","29653","4502","674","NA","2","legacy","5","1024","2","48000","-16","experiment","1","odd","5","498154","494781","495942","5111","126714","495947","409364","5115","122210","500157","500836","496951","34770","500157","NA","Sternberg task","70","53563","73","yes","1024"
"95.9459459459","95.9459459459","731.851351351","731.851351351","black","no","experiment","legacy","legacy","legacy","0","uniform","1","undefined","1","right","73","73","73","0","0","73","73","0","0","73","73","73","0","73","0","10/05/18 14:26:33","The main experiment item","yes","NA","Sternbergtask.osexp","C:\Users\Knitwitty\Desktop","no","mono","no","18","no","white","no","yes","768","legacy","61","11","C:/Users/Knitwitty/Documents/subject-1.csv","legacy","1 6 4","Jazzy James","3.1.9","0","n","0","right","right","left","right","NA","594","29653","4502","594","NA","2","legacy","3","1024","2","48000","-16","experiment","1","odd","7","504216","500852","502005","5111","126714","502010","409364","5115","122210","506221","506820","503013","34770","506220","NA","Sternberg task","71","54157","74","yes","1024"
"96","96","731.493333333","731.493333333","black","no","experiment","legacy","legacy","legacy","0","uniform","1","undefined","1","left","74","74","74","0","0","74","74","0","0","74","74","74","0","74","0","10/05/18 14:26:33","The main experiment item","yes","NA","Sternbergtask.osexp","C:\Users\Knitwitty\Desktop","no","mono","no","18","no","white","no","yes","768","legacy","62","11","C:/Users/Knitwitty/Documents/subject-1.csv","legacy","8 9 5 6 7","Jazzy James","3.1.9","1","y","0","left","right","left","left","NA","705","29653","4502","705","NA","2","legacy","5","1024","2","48000","-16","experiment","1","odd","8","510211","506841","507999","5111","126714","508004","409364","5115","122210","512214","512924","509007","34770","512214","NA","Sternberg task","72","54862","75","yes","1024"
"94.7368421053","94.7368421053","733.407894737","733.407894737","black","no","experiment","legacy","legacy","legacy","0","uniform","0","undefined","0","left","75","75","75","0","0","75","75","0","0","75","75","75","0","75","0","10/05/18 14:26:33","The main experiment item","yes","NA","Sternbergtask.osexp","C:\Users\Knitwitty\Desktop","no","mono","no","18","no","white","no","yes","768","legacy","63","11","C:/Users/Knitwitty/Documents/subject-1.csv","legacy","6 9 7 4 5 1","Jazzy James","3.1.9","2","y","0","right","right","left","right","NA","877","29653","4502","877","NA","2","legacy","6","1024","2","48000","-16","experiment","1","odd","9","516306","512940","514096","5111","126714","514100","409364","5115","122210","518314","519196","515103","34770","518314","NA","Sternberg task","72","55739","76","yes","1024"
"94.8051948052","94.8051948052","741.012987013","741.012987013","black","no","experiment","legacy","legacy","legacy","0","uniform","1","undefined","1","left","76","76","76","0","0","76","76","0","0","76","76","76","0","76","0","10/05/18 14:26:33","The main experiment item","yes","NA","Sternbergtask.osexp","C:\Users\Knitwitty\Desktop","no","mono","no","18","no","white","no","yes","768","legacy","64","11","C:/Users/Knitwitty/Documents/subject-1.csv","legacy","7 4 2 6 3 5","Jazzy James","3.1.9","6","y","0","left","right","left","left","NA","1319","29653","4502","1319","NA","2","legacy","6","1024","2","48000","-16","experiment","1","odd","5","522581","512940","520369","5111","126714","520374","519213","5115","122210","524584","525908","521378","34770","524584","NA","Sternberg task","73","57058","77","yes","1024"
"94.8717948718","94.8717948718","749.858974359","749.858974359","black","no","experiment","legacy","legacy","legacy","0","uniform","1","undefined","1","right","77","77","77","0","0","77","77","0","0","77","77","77","0","77","0","10/05/18 14:26:33","The main experiment item","yes","NA","Sternbergtask.osexp","C:\Users\Knitwitty\Desktop","no","mono","no","18","no","white","no","yes","768","legacy","65","11","C:/Users/Knitwitty/Documents/subject-1.csv","legacy","3 9 8 1 6 4","Jazzy James","3.1.9","0","n","0","right","right","left","right","NA","1431","29653","4502","1431","NA","2","legacy","6","1024","2","48000","-16","experiment","1","odd","7","529292","525921","527079","5111","126714","527083","519213","5115","122210","531296","532732","528087","34770","531296","NA","Sternberg task","74","58489","78","yes","1024"
"94.9367088608","94.9367088608","756.860759494","756.860759494","black","no","experiment","legacy","legacy","legacy","0","uniform","1","undefined","1","left","78","78","78","0","0","78","78","0","0","78","78","78","0","78","0","10/05/18 14:26:33","The main experiment item","yes","NA","Sternbergtask.osexp","C:\Users\Knitwitty\Desktop","no","mono","no","18","no","white","no","yes","768","legacy","66","11","C:/Users/Knitwitty/Documents/subject-1.csv","legacy","8 1 6","Jazzy James","3.1.9","3","y","0","left","right","left","left","NA","1303","29653","4502","1303","NA","2","legacy","3","1024","2","48000","-16","experiment","1","odd","6","536117","532752","533907","5111","126714","533911","519213","5115","122210","538120","539428","534914","34770","538120","NA","Sternberg task","75","59792","79","yes","1024"
"95","95","754.9125","754.9125","black","no","experiment","legacy","legacy","legacy","0","uniform","1","undefined","1","right","79","79","79","0","0","79","79","0","0","79","79","79","0","79","0","10/05/18 14:26:33","The main experiment item","yes","NA","Sternbergtask.osexp","C:\Users\Knitwitty\Desktop","no","mono","no","18","no","white","no","yes","768","legacy","67","11","C:/Users/Knitwitty/Documents/subject-1.csv","legacy","4 8 1 2","Jazzy James","3.1.9","0","n","0","right","right","left","right","NA","601","29653","4502","601","NA","2","legacy","4","1024","2","48000","-16","experiment","1","odd","7","542891","539518","540679","5111","126714","540684","519213","5115","122210","544894","545500","541688","34770","544894","NA","Sternberg task","76","60393","80","yes","1024"
"95.0617283951","95.0617283951","753.061728395","753.061728395","black","no","experiment","legacy","legacy","legacy","0","uniform","1","undefined","1","right","80","80","80","0","0","80","80","0","0","80","80","80","0","80","0","10/05/18 14:26:33","The main experiment item","yes","NA","Sternbergtask.osexp","C:\Users\Knitwitty\Desktop","no","mono","no","18","no","white","no","yes","768","legacy","68","11","C:/Users/Knitwitty/Documents/subject-1.csv","legacy","9 5 3 2 8 6","Jazzy James","3.1.9","0","n","0","right","right","left","right","NA","605","29653","4502","605","NA","2","legacy","6","1024","2","48000","-16","experiment","1","odd","7","548888","545516","546677","5111","126714","546681","519213","5115","122210","550891","551501","547685","34770","550891","NA","Sternberg task","77","60998","81","yes","1024"
"95.1219512195","95.1219512195","751.536585366","751.536585366","black","no","experiment","legacy","legacy","legacy","0","uniform","1","undefined","1","right","81","81","81","0","0","81","81","0","0","81","81","81","0","81","0","10/05/18 14:26:33","The main experiment item","yes","NA","Sternbergtask.osexp","C:\Users\Knitwitty\Desktop","no","mono","no","18","no","white","no","yes","768","legacy","69","11","C:/Users/Knitwitty/Documents/subject-1.csv","legacy","6 2 9 3 8 4","Jazzy James","3.1.9","0","n","0","right","right","left","right","NA","628","29653","4502","628","NA","2","legacy","6","1024","2","48000","-16","experiment","1","odd","1","554921","551536","552709","5111","126714","552713","519213","5115","122210","556924","557556","553717","34770","556924","NA","Sternberg task","78","61626","82","yes","1024"
"95.1807228916","95.1807228916","750.397590361","750.397590361","black","no","experiment","legacy","legacy","legacy","0","uniform","1","undefined","1","right","82","82","82","0","0","82","82","0","0","82","82","82","0","82","0","10/05/18 14:26:33","The main experiment item","yes","NA","Sternbergtask.osexp","C:\Users\Knitwitty\Desktop","no","mono","no","18","no","white","no","yes","768","legacy","70","11","C:/Users/Knitwitty/Documents/subject-1.csv","legacy","2 8 6 3 1","Jazzy James","3.1.9","0","n","0","right","right","left","right","NA","657","29653","4502","657","NA","2","legacy","5","1024","2","48000","-16","experiment","1","odd","7","560955","557577","558744","5111","126714","558749","519213","5115","122210","562959","563621","559752","34770","562958","NA","Sternberg task","79","62283","83","yes","1024"
"95.2380952381","95.2380952381","748.630952381","748.630952381","black","no","experiment","legacy","legacy","legacy","0","uniform","1","undefined","1","right","83","83","83","0","0","83","83","0","0","83","83","83","0","83","0","10/05/18 14:26:33","The main experiment item","yes","NA","Sternbergtask.osexp","C:\Users\Knitwitty\Desktop","no","mono","no","18","no","white","no","yes","768","legacy","71","11","C:/Users/Knitwitty/Documents/subject-1.csv","legacy","9 7 4 5 8","Jazzy James","3.1.9","0","n","0","right","right","left","right","NA","602","29653","4502","602","NA","2","legacy","5","1024","2","48000","-16","experiment","1","odd","6","567040","563637","564825","5111","126714","564829","519213","5115","122210","569046","569652","565835","34770","569046","NA","Sternberg task","80","62885","84","yes","1024"
"95.2941176471","95.2941176471","752.705882353","752.705882353","black","no","experiment","legacy","legacy","legacy","0","uniform","1","undefined","1","left","84","84","84","0","0","84","84","0","0","84","84","84","0","84","0","10/05/18 14:26:33","The main experiment item","yes","NA","Sternbergtask.osexp","C:\Users\Knitwitty\Desktop","no","mono","no","18","no","white","no","yes","768","legacy","72","11","C:/Users/Knitwitty/Documents/subject-1.csv","legacy","4","Jazzy James","3.1.9","1","y","0","left","right","left","left","NA","1095","29653","4502","1095","NA","2","legacy","1","1024","2","48000","-16","experiment","1","odd","4","573069","569669","570853","5111","126714","570857","519213","5115","122210","575073","576173","571863","34770","575073","NA","Sternberg task","81","63980","85","yes","1024"
"95.3488372093","95.3488372093","755.604651163","755.604651163","black","no","experiment","legacy","legacy","legacy","0","uniform","1","undefined","1","left","85","85","85","0","0","85","85","0","0","85","85","85","0","85","0","10/05/18 14:26:33","The main experiment item","yes","NA","Sternbergtask.osexp","C:\Users\Knitwitty\Desktop","no","mono","no","18","no","white","no","yes","768","legacy","73","11","C:/Users/Knitwitty/Documents/subject-1.csv","legacy","4 7 6 8 2 3","Jazzy James","3.1.9","6","y","0","left","right","left","left","NA","1002","29653","4502","1002","NA","2","legacy","6","1024","2","48000","-16","experiment","1","odd","3","579553","576188","577343","5111","126714","577347","519213","5115","122210","581557","582564","578350","34770","581557","NA","Sternberg task","82","64982","86","yes","1024"
"95.4022988506","95.4022988506","753.804597701","753.804597701","black","no","experiment","legacy","legacy","legacy","0","uniform","1","undefined","1","right","86","86","86","0","0","86","86","0","0","86","86","86","0","86","0","10/05/18 14:26:33","The main experiment item","yes","NA","Sternbergtask.osexp","C:\Users\Knitwitty\Desktop","no","mono","no","18","no","white","no","yes","768","legacy","74","11","C:/Users/Knitwitty/Documents/subject-1.csv","legacy","3 9 1","Jazzy James","3.1.9","0","n","0","right","right","left","right","NA","599","29653","4502","599","NA","2","legacy","3","1024","2","48000","-16","experiment","1","odd","7","585946","582581","583733","5111","126714","583737","519213","5115","122210","587952","588556","584741","34770","587951","NA","Sternberg task","83","65581","87","yes","1024"
"95.4545454545","95.4545454545","752.75","752.75","black","no","experiment","legacy","legacy","legacy","0","uniform","1","undefined","1","right","87","87","87","0","0","87","87","0","0","87","87","87","0","87","0","10/05/18 14:26:33","The main experiment item","yes","NA","Sternbergtask.osexp","C:\Users\Knitwitty\Desktop","no","mono","no","18","no","white","no","yes","768","legacy","75","11","C:/Users/Knitwitty/Documents/subject-1.csv","legacy","6 9 7 3 8 2","Jazzy James","3.1.9","0","n","0","right","right","left","right","NA","661","29653","4502","661","NA","2","legacy","6","1024","2","48000","-16","experiment","1","odd","5","591987","588590","589770","5111","126714","589774","519213","5115","122210","593994","594660","590780","34770","593993","NA","Sternberg task","84","66242","88","yes","1024"
"95.5056179775","95.5056179775","755.202247191","755.202247191","black","no","experiment","legacy","legacy","legacy","0","uniform","1","undefined","1","left","88","88","88","0","0","88","88","0","0","88","88","88","0","88","0","10/05/18 14:26:33","The main experiment item","yes","NA","Sternbergtask.osexp","C:\Users\Knitwitty\Desktop","no","mono","no","18","no","white","no","yes","768","legacy","76","11","C:/Users/Knitwitty/Documents/subject-1.csv","legacy","6 1 2","Jazzy James","3.1.9","3","y","0","left","right","left","left","NA","971","29653","4502","971","NA","2","legacy","3","1024","2","48000","-16","experiment","1","odd","2","598062","594676","595846","5111","126714","595851","519213","5115","122210","600068","601044","596856","34770","600067","NA","Sternberg task","85","67213","89","yes","1024"
"95.5555555556","95.5555555556","753.022222222","753.022222222","black","no","experiment","legacy","legacy","legacy","0","uniform","1","undefined","1","left","89","89","89","0","0","89","89","0","0","89","89","89","0","89","0","10/05/18 14:26:33","The main experiment item","yes","NA","Sternbergtask.osexp","C:\Users\Knitwitty\Desktop","no","mono","no","18","no","white","no","yes","768","legacy","77","11","C:/Users/Knitwitty/Documents/subject-1.csv","legacy","8","Jazzy James","3.1.9","1","y","0","left","right","left","left","NA","559","29653","4502","559","NA","2","legacy","1","1024","2","48000","-16","experiment","1","odd","8","604451","601059","602236","5111","126714","602240","519213","5115","122210","606457","607021","603246","34770","606456","NA","Sternberg task","86","67772","90","yes","1024"
"95.6043956044","95.6043956044","753.78021978","753.78021978","black","no","experiment","legacy","legacy","legacy","0","uniform","1","undefined","1","left","90","90","90","0","0","90","90","0","0","90","90","90","0","90","0","10/05/18 14:26:33","The main experiment item","yes","NA","Sternbergtask.osexp","C:\Users\Knitwitty\Desktop","no","mono","no","18","no","white","no","yes","768","legacy","78","11","C:/Users/Knitwitty/Documents/subject-1.csv","legacy","3 5 9 6 2 4","Jazzy James","3.1.9","1","y","0","left","right","left","left","NA","822","29653","4502","822","NA","2","legacy","6","1024","2","48000","-16","experiment","1","odd","3","610428","607036","608213","5111","126714","608217","519213","5115","122210","612434","613261","609223","34770","612434","NA","Sternberg task","87","68594","91","yes","1024"
"95.652173913","95.652173913","759.75","759.75","black","no","experiment","legacy","legacy","legacy","0","uniform","1","undefined","1","left","91","91","91","0","0","91","91","0","0","91","91","91","0","91","0","10/05/18 14:26:33","The main experiment item","yes","NA","Sternbergtask.osexp","C:\Users\Knitwitty\Desktop","no","mono","no","18","no","white","no","yes","768","legacy","79","11","C:/Users/Knitwitty/Documents/subject-1.csv","legacy","8 5 1 3 9","Jazzy James","3.1.9","4","y","0","left","right","left","left","NA","1303","29653","4502","1303","NA","2","legacy","5","1024","2","48000","-16","experiment","1","odd","3","616673","613279","614458","5111","126714","614462","519213","5115","122210","618680","619988","615468","34770","618679","NA","Sternberg task","88","69897","92","yes","1024"
"95.6989247312","95.6989247312","757.279569892","757.279569892","black","no","experiment","legacy","legacy","legacy","0","uniform","1","undefined","1","right","92","92","92","0","0","92","92","0","0","92","92","92","0","92","0","10/05/18 14:26:33","The main experiment item","yes","NA","Sternbergtask.osexp","C:\Users\Knitwitty\Desktop","no","mono","no","18","no","white","no","yes","768","legacy","80","11","C:/Users/Knitwitty/Documents/subject-1.csv","legacy","2 8 9","Jazzy James","3.1.9","0","n","0","right","right","left","right","NA","530","29653","4502","530","NA","2","legacy","3","1024","2","48000","-16","experiment","1","odd","6","623392","620003","621177","5111","126714","621182","519213","5115","122210","625398","625933","622187","34770","625398","NA","Sternberg task","89","70427","93","yes","1024"
"95.7446808511","95.7446808511","755.287234043","755.287234043","black","no","experiment","legacy","legacy","legacy","0","uniform","1","undefined","1","left","93","93","93","0","0","93","93","0","0","93","93","93","0","93","0","10/05/18 14:26:33","The main experiment item","yes","NA","Sternbergtask.osexp","C:\Users\Knitwitty\Desktop","no","mono","no","18","no","white","no","yes","768","legacy","81","11","C:/Users/Knitwitty/Documents/subject-1.csv","legacy","6 2","Jazzy James","3.1.9","1","y","0","left","right","left","left","NA","570","29653","4502","570","NA","2","legacy","2","1024","2","48000","-16","experiment","1","odd","6","629344","625949","627130","5111","126714","627134","519213","5115","122210","631350","631925","628139","34770","631349","NA","Sternberg task","90","70997","94","yes","1024"
"95.7894736842","95.7894736842","752.968421053","752.968421053","black","no","experiment","legacy","legacy","legacy","0","uniform","1","undefined","1","right","94","94","94","0","0","94","94","0","0","94","94","94","0","94","0","10/05/18 14:26:33","The main experiment item","yes","NA","Sternbergtask.osexp","C:\Users\Knitwitty\Desktop","no","mono","no","18","no","white","no","yes","768","legacy","82","11","C:/Users/Knitwitty/Documents/subject-1.csv","legacy","8 6 3 4 7","Jazzy James","3.1.9","0","n","0","right","right","left","right","NA","535","29653","4502","535","NA","2","legacy","5","1024","2","48000","-16","experiment","1","odd","1","635346","631943","633130","5111","126714","633135","519213","5115","122210","637352","637892","634140","34770","637351","NA","Sternberg task","91","71532","95","yes","1024"
"95.8333333333","95.8333333333","750.864583333","750.864583333","black","no","experiment","legacy","legacy","legacy","0","uniform","1","undefined","1","right","95","95","95","0","0","95","95","0","0","95","95","95","0","95","0","10/05/18 14:26:33","The main experiment item","yes","NA","Sternbergtask.osexp","C:\Users\Knitwitty\Desktop","no","mono","no","18","no","white","no","yes","768","legacy","83","11","C:/Users/Knitwitty/Documents/subject-1.csv","legacy","1 3 2 6 9","Jazzy James","3.1.9","0","n","0","right","right","left","right","NA","551","29653","4502","551","NA","2","legacy","5","1024","2","48000","-16","experiment","1","odd","5","641300","637909","639085","5111","126714","639089","519213","5115","122210","643305","643861","640094","34770","643305","NA","Sternberg task","92","72083","96","yes","1024"
"95.8762886598","95.8762886598","749.463917526","749.463917526","black","no","experiment","legacy","legacy","legacy","0","uniform","1","undefined","1","left","96","96","96","0","0","96","96","0","0","96","96","96","0","96","0","10/05/18 14:26:33","The main experiment item","yes","NA","Sternbergtask.osexp","C:\Users\Knitwitty\Desktop","no","mono","no","18","no","white","no","yes","768","legacy","84","11","C:/Users/Knitwitty/Documents/subject-1.csv","legacy","3 4 9 6 2 9","Jazzy James","3.1.9","5","y","0","left","right","left","left","NA","615","29653","4502","615","NA","2","legacy","6","1024","2","48000","-16","experiment","1","odd","2","647266","643876","645050","5111","126714","645054","519213","5115","122210","649273","649893","646060","34770","649272","NA","Sternberg task","93","72698","97","yes","1024"
"95.9183673469","95.9183673469","748.346938776","748.346938776","black","no","experiment","legacy","legacy","legacy","0","uniform","1","undefined","1","left","97","97","97","0","0","97","97","0","0","97","97","97","0","97","0","10/05/18 14:26:33","The main experiment item","yes","NA","Sternbergtask.osexp","C:\Users\Knitwitty\Desktop","no","mono","no","18","no","white","no","yes","768","legacy","85","11","C:/Users/Knitwitty/Documents/subject-1.csv","legacy","6 9 3 1","Jazzy James","3.1.9","4","y","0","left","right","left","left","NA","640","29653","4502","640","NA","2","legacy","4","1024","2","48000","-16","experiment","1","odd","1","653298","649908","651083","5111","126714","651087","519213","5115","122210","655304","655949","652093","34770","655303","NA","Sternberg task","94","73338","98","yes","1024"
"95.9595959596","95.9595959596","748.626262626","748.626262626","black","no","experiment","legacy","legacy","legacy","0","uniform","1","undefined","1","left","98","98","98","0","0","98","98","0","0","98","98","98","0","98","0","10/05/18 14:26:33","The main experiment item","yes","NA","Sternbergtask.osexp","C:\Users\Knitwitty\Desktop","no","mono","no","18","no","white","no","yes","768","legacy","86","11","C:/Users/Knitwitty/Documents/subject-1.csv","legacy","6 5","Jazzy James","3.1.9","2","y","0","left","right","left","left","NA","776","29653","4502","776","NA","2","legacy","2","1024","2","48000","-16","experiment","1","odd","5","659354","655964","657139","5111","126714","657143","519213","5115","122210","661360","662141","658148","34770","661360","NA","Sternberg task","95","74114","99","yes","1024"
"96","96","746.77","746.77","black","no","experiment","legacy","legacy","legacy","0","uniform","1","undefined","1","left","99","99","99","0","0","99","99","0","0","99","99","99","0","99","0","10/05/18 14:26:33","The main experiment item","yes","NA","Sternbergtask.osexp","C:\Users\Knitwitty\Desktop","no","mono","no","18","no","white","no","yes","768","legacy","87","11","C:/Users/Knitwitty/Documents/subject-1.csv","legacy","8 7 3","Jazzy James","3.1.9","1","y","0","left","right","left","left","NA","563","29653","4502","563","NA","2","legacy","3","1024","2","48000","-16","experiment","1","odd","8","665551","662162","663336","5111","126714","663340","519213","5115","122210","667557","668125","664346","34770","667556","NA","Sternberg task","96","74677","100","yes","1024"
"96.0396039604","96.0396039604","746.148514851","746.148514851","black","no","experiment","legacy","legacy","legacy","0","uniform","1","undefined","1","left","100","100","100","0","0","100","100","0","0","100","100","100","0","100","0","10/05/18 14:26:33","The main experiment item","yes","NA","Sternbergtask.osexp","C:\Users\Knitwitty\Desktop","no","mono","no","18","no","white","no","yes","768","legacy","88","11","C:/Users/Knitwitty/Documents/subject-1.csv","legacy","4 1 5","Jazzy James","3.1.9","2","y","0","left","right","left","left","NA","684","29653","4502","684","NA","2","legacy","3","1024","2","48000","-16","experiment","1","odd","1","671542","668140","669328","5111","126714","669332","519213","5115","122210","673547","674237","670337","34770","673547","NA","Sternberg task","97","75361","101","yes","1024"
"96.0784313725","96.0784313725","745.029411765","745.029411765","black","no","experiment","legacy","legacy","legacy","0","uniform","1","undefined","1","right","101","101","101","0","0","101","101","0","0","101","101","101","0","101","0","10/05/18 14:26:33","The main experiment item","yes","NA","Sternbergtask.osexp","C:\Users\Knitwitty\Desktop","no","mono","no","18","no","white","no","yes","768","legacy","89","11","C:/Users/Knitwitty/Documents/subject-1.csv","legacy","7 3 2 8","Jazzy James","3.1.9","0","n","0","right","right","left","right","NA","632","29653","4502","632","NA","2","legacy","4","1024","2","48000","-16","experiment","1","odd","4","677649","674252","675434","5111","126714","675438","519213","5115","122210","679655","680293","676443","34770","679654","NA","Sternberg task","98","75993","102","yes","1024"
"96.1165048544","96.1165048544","746.747572816","746.747572816","black","no","experiment","legacy","legacy","legacy","0","uniform","1","undefined","1","right","102","102","102","0","0","102","102","0","0","102","102","102","0","102","0","10/05/18 14:26:33","The main experiment item","yes","NA","Sternbergtask.osexp","C:\Users\Knitwitty\Desktop","no","mono","no","18","no","white","no","yes","768","legacy","90","11","C:/Users/Knitwitty/Documents/subject-1.csv","legacy","1 6 4 3 9 7","Jazzy James","3.1.9","0","n","0","right","right","left","right","NA","922","29653","4502","922","NA","2","legacy","6","1024","2","48000","-16","experiment","1","odd","8","683705","680308","681490","5111","126714","681494","519213","5115","122210","685710","686637","682499","34770","685710","NA","Sternberg task","99","76915","103","yes","1024"
"96.1538461538","96.1538461538","745","745","black","no","experiment","legacy","legacy","legacy","0","uniform","1","undefined","1","right","103","103","103","0","0","103","103","0","0","103","103","103","0","103","0","10/05/18 14:26:33","The main experiment item","yes","NA","Sternbergtask.osexp","C:\Users\Knitwitty\Desktop","no","mono","no","18","no","white","no","yes","768","legacy","91","11","C:/Users/Knitwitty/Documents/subject-1.csv","legacy","1 4 9 2 5","Jazzy James","3.1.9","0","n","0","right","right","left","right","NA","565","29653","4502","565","NA","2","legacy","5","1024","2","48000","-16","experiment","1","odd","7","690045","686653","687831","5111","126714","687835","519213","5115","122210","692051","692621","688840","34770","692050","NA","Sternberg task","100","77480","104","yes","1024"
"96.1904761905","96.1904761905","743.504761905","743.504761905","black","no","experiment","legacy","legacy","legacy","0","uniform","1","undefined","1","right","104","104","104","0","0","104","104","0","0","104","104","104","0","104","0","10/05/18 14:26:33","The main experiment item","yes","NA","Sternbergtask.osexp","C:\Users\Knitwitty\Desktop","no","mono","no","18","no","white","no","yes","768","legacy","92","11","C:/Users/Knitwitty/Documents/subject-1.csv","legacy","8 2 1 4 5 9","Jazzy James","3.1.9","0","n","0","right","right","left","right","NA","588","29653","4502","588","NA","2","legacy","6","1024","2","48000","-16","experiment","1","odd","7","696030","692637","693818","5111","126714","693822","519213","5115","122210","698036","698629","694827","34770","698035","NA","Sternberg task","101","78068","105","yes","1024"
"96.2264150943","96.2264150943","743.132075472","743.132075472","black","no","experiment","legacy","legacy","legacy","0","uniform","1","undefined","1","left","105","105","105","0","0","105","105","0","0","105","105","105","0","105","0","10/05/18 14:26:33","The main experiment item","yes","NA","Sternbergtask.osexp","C:\Users\Knitwitty\Desktop","no","mono","no","18","no","white","no","yes","768","legacy","93","11","C:/Users/Knitwitty/Documents/subject-1.csv","legacy","6 7 8 5","Jazzy James","3.1.9","3","y","0","left","right","left","left","NA","704","29653","4502","704","NA","2","legacy","4","1024","2","48000","-16","experiment","1","odd","8","702042","698644","699826","5111","126714","699831","519213","5115","122210","704047","704757","700836","34770","704047","NA","Sternberg task","102","78772","106","yes","1024"
"96.261682243","96.261682243","742.822429907","742.822429907","black","no","experiment","legacy","legacy","legacy","0","uniform","1","undefined","1","left","106","106","106","0","0","106","106","0","0","106","106","106","0","106","0","10/05/18 14:26:33","The main experiment item","yes","NA","Sternbergtask.osexp","C:\Users\Knitwitty\Desktop","no","mono","no","18","no","white","no","yes","768","legacy","94","11","C:/Users/Knitwitty/Documents/subject-1.csv","legacy","3 2 1 4 7","Jazzy James","3.1.9","2","y","0","left","right","left","left","NA","710","29653","4502","710","NA","2","legacy","5","1024","2","48000","-16","experiment","1","odd","2","708165","704773","705951","5111","126714","705955","519213","5115","122210","710170","710885","706960","34770","710170","NA","Sternberg task","103","79482","107","yes","1024"
"96.2962962963","96.2962962963","741.148148148","741.148148148","black","no","experiment","legacy","legacy","legacy","0","uniform","1","undefined","1","right","107","107","107","0","0","107","107","0","0","107","107","107","0","107","0","10/05/18 14:26:33","The main experiment item","yes","NA","Sternbergtask.osexp","C:\Users\Knitwitty\Desktop","no","mono","no","18","no","white","no","yes","768","legacy","95","11","C:/Users/Knitwitty/Documents/subject-1.csv","legacy","2 3 8 5 6 7","Jazzy James","3.1.9","0","n","0","right","right","left","right","NA","562","29653","4502","562","NA","2","legacy","6","1024","2","48000","-16","experiment","1","odd","1","714296","710901","712081","5111","126714","712085","519213","5115","122210","716301","716869","713090","34770","716301","NA","Sternberg task","104","80044","108","yes","1024"
"96.3302752294","96.3302752294","741.440366972","741.440366972","black","no","experiment","legacy","legacy","legacy","0","uniform","1","undefined","1","right","108","108","108","0","0","108","108","0","0","108","108","108","0","108","0","10/05/18 14:26:33","The main experiment item","yes","NA","Sternbergtask.osexp","C:\Users\Knitwitty\Desktop","no","mono","no","18","no","white","no","yes","768","legacy","96","11","C:/Users/Knitwitty/Documents/subject-1.csv","legacy","7 9","Jazzy James","3.1.9","0","n","0","right","right","left","right","NA","773","29653","4502","773","NA","2","legacy","2","1024","2","48000","-16","experiment","1","odd","1","720277","716884","718063","5111","126714","718067","519213","5115","122210","722283","723061","719072","34770","722283","NA","Sternberg task","105","80817","109","yes","1024"
"96.3636363636","96.3636363636","741.936363636","741.936363636","black","no","experiment","legacy","legacy","legacy","0","uniform","1","undefined","1","left","109","109","109","0","0","109","109","0","0","109","109","109","0","109","0","10/05/18 14:26:33","The main experiment item","yes","NA","Sternbergtask.osexp","C:\Users\Knitwitty\Desktop","no","mono","no","18","no","white","no","yes","768","legacy","97","11","C:/Users/Knitwitty/Documents/subject-1.csv","legacy","5 2 6","Jazzy James","3.1.9","2","y","0","left","right","left","left","NA","796","29653","4502","796","NA","2","legacy","3","1024","2","48000","-16","experiment","1","odd","2","726472","723078","724257","5111","126714","724261","519213","5115","122210","728477","729279","725266","34770","728477","NA","Sternberg task","106","81613","110","yes","1024"
"96.3963963964","96.3963963964","739.72972973","739.72972973","black","no","experiment","legacy","legacy","legacy","0","uniform","1","undefined","1","right","110","110","110","0","0","110","110","0","0","110","110","110","0","110","0","10/05/18 14:26:33","The main experiment item","yes","NA","Sternbergtask.osexp","C:\Users\Knitwitty\Desktop","no","mono","no","18","no","white","no","yes","768","legacy","98","11","C:/Users/Knitwitty/Documents/subject-1.csv","legacy","1","Jazzy James","3.1.9","0","n","0","right","right","left","right","NA","497","29653","4502","497","NA","2","legacy","1","1024","2","48000","-16","experiment","1","odd","7","732696","729295","730482","5111","126714","730486","519213","5115","122210","734703","735206","731491","34770","734702","NA","Sternberg task","107","82110","111","yes","1024"
"96.4285714286","96.4285714286","740.4375","740.4375","black","no","experiment","legacy","legacy","legacy","0","uniform","1","undefined","1","right","111","111","111","0","0","111","111","0","0","111","111","111","0","111","0","10/05/18 14:26:33","The main experiment item","yes","NA","Sternbergtask.osexp","C:\Users\Knitwitty\Desktop","no","mono","no","18","no","white","no","yes","768","legacy","99","11","C:/Users/Knitwitty/Documents/subject-1.csv","legacy","1 4 3 6 5","Jazzy James","3.1.9","0","n","0","right","right","left","right","NA","819","29653","4502","819","NA","2","legacy","5","1024","2","48000","-16","experiment","1","odd","8","738614","735222","736399","5111","126714","736403","519213","5115","122210","740621","741445","737409","34770","740620","NA","Sternberg task","108","82929","112","yes","1024"
"96.4601769912","96.4601769912","742.247787611","742.247787611","black","no","experiment","legacy","legacy","legacy","0","uniform","1","undefined","1","left","112","112","112","0","0","112","112","0","0","112","112","112","0","112","0","10/05/18 14:26:33","The main experiment item","yes","NA","Sternbergtask.osexp","C:\Users\Knitwitty\Desktop","no","mono","no","18","no","white","no","yes","768","legacy","100","11","C:/Users/Knitwitty/Documents/subject-1.csv","legacy","3 9 6 2","Jazzy James","3.1.9","4","y","0","left","right","left","left","NA","945","29653","4502","945","NA","2","legacy","4","1024","2","48000","-16","experiment","1","odd","2","744850","741461","742635","5111","126714","742639","519213","5115","122210","746855","747806","743645","34770","746855","NA","Sternberg task","109","83874","113","yes","1024"
"96.4912280702","96.4912280702","743.307017544","743.307017544","black","no","experiment","legacy","legacy","legacy","0","uniform","1","undefined","1","left","113","113","113","0","0","113","113","0","0","113","113","113","0","113","0","10/05/18 14:26:33","The main experiment item","yes","NA","Sternbergtask.osexp","C:\Users\Knitwitty\Desktop","no","mono","no","18","no","white","no","yes","768","legacy","101","11","C:/Users/Knitwitty/Documents/subject-1.csv","legacy","9 1 6 7 8","Jazzy James","3.1.9","1","y","0","left","right","left","left","NA","863","29653","4502","863","NA","2","legacy","5","1024","2","48000","-16","experiment","1","odd","9","751213","747821","748999","5111","126714","749004","519213","5115","122210","753217","754086","750007","34770","753217","NA","Sternberg task","110","84737","114","yes","1024"
"96.5217391304","96.5217391304","742.434782609","742.434782609","black","no","experiment","legacy","legacy","legacy","0","uniform","1","undefined","1","left","114","114","114","0","0","114","114","0","0","114","114","114","0","114","0","10/05/18 14:26:33","The main experiment item","yes","NA","Sternbergtask.osexp","C:\Users\Knitwitty\Desktop","no","mono","no","18","no","white","no","yes","768","legacy","102","11","C:/Users/Knitwitty/Documents/subject-1.csv","legacy","4 1 8 7 5","Jazzy James","3.1.9","3","y","0","left","right","left","left","NA","643","29653","4502","643","NA","2","legacy","5","1024","2","48000","-16","experiment","1","odd","8","757519","754102","755304","5111","126714","755308","519213","5115","122210","759524","760173","756313","34770","759524","NA","Sternberg task","111","85380","115","yes","1024"
"96.5517241379","96.5517241379","741.551724138","741.551724138","black","no","experiment","legacy","legacy","legacy","0","uniform","1","undefined","1","left","115","115","115","0","0","115","115","0","0","115","115","115","0","115","0","10/05/18 14:26:33","The main experiment item","yes","NA","Sternbergtask.osexp","C:\Users\Knitwitty\Desktop","no","mono","no","18","no","white","no","yes","768","legacy","103","11","C:/Users/Knitwitty/Documents/subject-1.csv","legacy","9 8 4","Jazzy James","3.1.9","1","y","0","left","right","left","left","NA","640","29653","4502","640","NA","2","legacy","3","1024","2","48000","-16","experiment","1","odd","9","763602","760200","761386","5111","126714","761390","519213","5115","122210","765608","766254","762396","34770","765607","NA","Sternberg task","112","86020","116","yes","1024"
"96.5811965812","96.5811965812","744.094017094","744.094017094","black","no","experiment","legacy","legacy","legacy","0","uniform","1","undefined","1","left","116","116","116","0","0","116","116","0","0","116","116","116","0","116","0","10/05/18 14:26:33","The main experiment item","yes","NA","Sternbergtask.osexp","C:\Users\Knitwitty\Desktop","no","mono","no","18","no","white","no","yes","768","legacy","104","11","C:/Users/Knitwitty/Documents/subject-1.csv","legacy","9 6 2 4 1","Jazzy James","3.1.9","4","y","0","left","right","left","left","NA","1039","29653","4502","1039","NA","2","legacy","5","1024","2","48000","-16","experiment","1","odd","4","769667","766270","767452","5111","126714","767456","519213","5115","122210","771673","772718","768461","34770","771672","NA","Sternberg task","113","87059","117","yes","1024"
"96.6101694915","96.6101694915","751.43220339","751.43220339","black","no","experiment","legacy","legacy","legacy","0","uniform","1","undefined","1","left","117","117","117","0","0","117","117","0","0","117","117","117","0","117","0","10/05/18 14:26:33","The main experiment item","yes","NA","Sternbergtask.osexp","C:\Users\Knitwitty\Desktop","no","mono","no","18","no","white","no","yes","768","legacy","105","11","C:/Users/Knitwitty/Documents/subject-1.csv","legacy","9 5 8 1","Jazzy James","3.1.9","2","y","0","left","right","left","left","NA","1610","29653","4502","1610","NA","2","legacy","4","1024","2","48000","-16","experiment","1","odd","5","776136","772734","773921","5111","126714","773925","519213","5115","122210","778142","779758","774930","34770","778142","NA","Sternberg task","114","88669","118","yes","1024"
"96.6386554622","96.6386554622","751.487394958","751.487394958","black","no","experiment","legacy","legacy","legacy","0","uniform","1","undefined","1","right","118","118","118","0","0","118","118","0","0","118","118","118","0","118","0","10/05/18 14:26:33","The main experiment item","yes","NA","Sternbergtask.osexp","C:\Users\Knitwitty\Desktop","no","mono","no","18","no","white","no","yes","768","legacy","106","11","C:/Users/Knitwitty/Documents/subject-1.csv","legacy","5 3 2 6 9 8","Jazzy James","3.1.9","0","n","0","right","right","left","right","NA","758","29653","4502","758","NA","2","legacy","6","1024","2","48000","-16","experiment","1","odd","4","783166","779774","780951","5111","126714","780955","519213","5115","122210","785169","785934","781960","34770","785169","NA","Sternberg task","115","89427","119","yes","1024"
"96.6666666667","96.6666666667","749.575","749.575","black","no","experiment","legacy","legacy","legacy","0","uniform","1","undefined","1","right","119","119","119","0","0","119","119","0","0","119","119","119","0","119","0","10/05/18 14:26:33","The main experiment item","yes","NA","Sternbergtask.osexp","C:\Users\Knitwitty\Desktop","no","mono","no","18","no","white","no","yes","768","legacy","107","11","C:/Users/Knitwitty/Documents/subject-1.csv","legacy","9","Jazzy James","3.1.9","0","n","0","right","right","left","right","NA","522","29653","4502","522","NA","2","legacy","1","1024","2","48000","-16","experiment","1","odd","6","789344","785950","787129","5111","126714","787133","519213","5115","122210","791349","791878","788138","34770","791349","NA","Sternberg task","116","89949","120","yes","1024"
"96.694214876","96.694214876","749.347107438","749.347107438","black","no","experiment","legacy","legacy","legacy","0","uniform","1","undefined","1","right","120","120","120","0","0","120","120","0","0","120","120","120","0","120","0","10/05/18 14:26:33","The main experiment item","yes","NA","Sternbergtask.osexp","C:\Users\Knitwitty\Desktop","no","mono","no","18","no","white","no","yes","768","legacy","108","11","C:/Users/Knitwitty/Documents/subject-1.csv","legacy","9 8 2 7 4","Jazzy James","3.1.9","0","n","0","right","right","left","right","NA","722","29653","4502","722","NA","2","legacy","5","1024","2","48000","-16","experiment","1","odd","5","795288","791893","793072","5111","126714","793076","519213","5115","122210","797294","798022","794082","34770","797293","NA","Sternberg task","117","90671","121","yes","1024"
