"acc","accuracy","average_response_time","avg_rt","background","block","canvas_backend","clock_backend","color_backend","compensation","coordinates","correct","correct_ISI","correct_instruction1","correct_new_keyboard_response","correct_response","count_ISI","count_correctFeedback","count_expSequence","count_experiment","count_experimentLoop","count_fixation","count_incorrectFeedback","count_instruction1","count_instruction2","count_logger","count_memorySet","count_new_keyboard_response","count_practiceLoop","count_probe","count_thankYou","datetime","description","disable_garbage_collection","experiment_file","experiment_path","font_bold","font_family","font_italic","font_size","font_underline","foreground","form_clicks","fullscreen","height","keyboard_backend","live_row","live_row_practiceLoop","logfile","mouse_backend","numberSet","opensesame_codename","opensesame_version","posInSet","present","repeat_cycle","response","response_ISI","response_instruction1","response_instruction2","response_new_keyboard_response","response_thankYou","response_time","response_time_ISI","response_time_instruction1","response_time_instruction2","response_time_new_keyboard_response","response_time_thankYou","round_decimals","sampler_backend","setSize","sound_buf_size","sound_channels","sound_freq","sound_sample_size","start","subject_nr","subject_parity","target","time_ISI","time_correctFeedback","time_expSequence","time_experiment","time_experimentLoop","time_fixation","time_incorrectFeedback","time_instruction1","time_instruction2","time_logger","time_memorySet","time_new_keyboard_response","time_practiceLoop","time_probe","time_thankYou","title","total_correct","total_response_time","total_responses","uniform_coordinates","width"
"100","100","1667","1667","black","practice","legacy","legacy","legacy","0","uniform","1","1","undefined","1","right","0","0","0","0","0","0","0","0","0","0","0","0","0","0","0","Sun Oct  7 16:48:22 2018","The main experiment item","yes","SternbergTask.osexp","/Volumes/USB20FD","no","mono","no","18","no","white","no","yes","768","legacy","0","0","/Volumes/USB20FD/subject-1 actual.csv","legacy","5","Kafkaesque Koffka","3.2.5","0","n","0","right","right","right","NA","right","NA","1667","6096","129562","NA","1667","NA","2","legacy","1","1024","2","48000","-16","experiment","1","odd","3","134453","NA","132207","2351","NA","132218","NA","2368","NA","142228","133234","140560","131936","140560","NA","Sternberg Task","1","1667","1","yes","1024"
"100","100","2433.5","2433.5","black","practice","legacy","legacy","legacy","0","uniform","1","1","undefined","1","right","1","1","1","0","0","1","1","0","0","1","1","1","0","1","0","Sun Oct  7 16:48:22 2018","The main experiment item","yes","SternbergTask.osexp","/Volumes/USB20FD","no","mono","no","18","no","white","no","yes","768","legacy","1","1","/Volumes/USB20FD/subject-1 actual.csv","legacy","4 1 5","Kafkaesque Koffka","3.2.5","0","n","0","right","right","right","NA","right","NA","3200","2399","129562","NA","3200","NA","2","legacy","3","1024","2","48000","-16","experiment","1","odd","2","145654","142296","143411","2351","NA","143421","NA","2368","NA","151265","144437","148064","131936","148064","NA","Sternberg Task","2","4867","2","yes","1024"
"100","100","2262.33333333","2262.33333333","black","practice","legacy","legacy","legacy","0","uniform","1","1","undefined","1","left","2","2","2","0","0","2","2","0","0","2","2","2","0","2","0","Sun Oct  7 16:48:22 2018","The main experiment item","yes","SternbergTask.osexp","/Volumes/USB20FD","no","mono","no","18","no","white","no","yes","768","legacy","2","2","/Volumes/USB20FD/subject-1 actual.csv","legacy","4 3 1 7 9 8","Kafkaesque Koffka","3.2.5","1","y","0","left","left","right","NA","left","NA","1920","3776","129562","NA","1920","NA","2","legacy","6","1024","2","48000","-16","experiment","1","odd","4","154631","151279","152392","2351","NA","152402","NA","2368","NA","160339","153416","158418","131936","158418","NA","Sternberg Task","3","6787","3","yes","1024"
"75","75","2453.75","2453.75","black","practice","legacy","legacy","legacy","0","uniform","0","0","undefined","0","left","3","3","3","0","0","3","3","0","0","3","3","3","0","3","0","Sun Oct  7 16:48:22 2018","The main experiment item","yes","SternbergTask.osexp","/Volumes/USB20FD","no","mono","no","18","no","white","no","yes","768","legacy","3","3","/Volumes/USB20FD/subject-1 actual.csv","legacy","2 9 4","Kafkaesque Koffka","3.2.5","3","y","0","right","right","right","NA","right","NA","3028","2019","129562","NA","3028","NA","2","legacy","3","1024","2","48000","-16","experiment","1","odd","4","163701","160352","161460","2351","NA","161471","NA","2368","NA","168760","162484","165731","131936","165731","NA","Sternberg Task","3","9815","4","yes","1024"
"80","80","2142","2142","black","practice","legacy","legacy","legacy","0","uniform","1","1","undefined","1","left","4","4","4","0","0","4","4","0","0","4","4","4","0","4","0","Sun Oct  7 16:48:22 2018","The main experiment item","yes","SternbergTask.osexp","/Volumes/USB20FD","no","mono","no","18","no","white","no","yes","768","legacy","4","4","/Volumes/USB20FD/subject-1 actual.csv","legacy","4 8","Kafkaesque Koffka","3.2.5","1","y","0","left","left","right","NA","left","NA","895","2872","129562","NA","895","NA","2","legacy","2","1024","2","48000","-16","experiment","1","odd","4","172120","160352","169876","2351","NA","169886","168772","2368","NA","175899","170905","175003","131936","175003","NA","Sternberg Task","4","10710","5","yes","1024"
"83.3333333333","83.3333333333","1953","1953","black","practice","legacy","legacy","legacy","0","uniform","1","0","undefined","1","left","5","5","5","0","0","5","5","0","0","5","5","5","0","5","0","Sun Oct  7 16:48:22 2018","The main experiment item","yes","SternbergTask.osexp","/Volumes/USB20FD","no","mono","no","18","no","white","no","yes","768","legacy","5","5","/Volumes/USB20FD/subject-1 actual.csv","legacy","1 7 9 8 5","Kafkaesque Koffka","3.2.5","4","y","0","left","right","right","NA","left","NA","1008","1983","129562","NA","1008","NA","2","legacy","5","1024","2","48000","-16","experiment","1","odd","8","179264","175917","177019","2351","NA","177029","168772","2368","NA","182268","178046","181259","131936","181258","NA","Sternberg Task","5","11718","6","yes","1024"
"85.7142857143","85.7142857143","2093.28571429","2093.28571429","black","practice","legacy","legacy","legacy","0","uniform","1","0","undefined","1","left","6","6","6","0","0","6","6","0","0","6","6","6","0","6","0","Sun Oct  7 16:48:22 2018","The main experiment item","yes","SternbergTask.osexp","/Volumes/USB20FD","no","mono","no","18","no","white","no","yes","768","legacy","6","6","/Volumes/USB20FD/subject-1 actual.csv","legacy","6","Kafkaesque Koffka","3.2.5","1","y","0","left","right","right","NA","left","NA","2935","2960","129562","NA","2935","NA","2","legacy","1","1024","2","48000","-16","experiment","1","odd","6","185625","182282","183382","2351","NA","183393","168772","2368","NA","191532","184408","188596","131936","188596","NA","Sternberg Task","6","14653","7","yes","1024"
"87.5","87.5","1982.625","1982.625","black","practice","legacy","legacy","legacy","0","uniform","1","1","undefined","1","right","7","7","7","0","0","7","7","0","0","7","7","7","0","7","0","Sun Oct  7 16:48:22 2018","The main experiment item","yes","SternbergTask.osexp","/Volumes/USB20FD","no","mono","no","18","no","white","no","yes","768","legacy","7","7","/Volumes/USB20FD/subject-1 actual.csv","legacy","5 7 8 4 1 2","Kafkaesque Koffka","3.2.5","0","n","0","right","right","right","NA","right","NA","1208","2546","129562","NA","1208","NA","2","legacy","6","1024","2","48000","-16","experiment","1","odd","6","194885","191546","192650","2351","NA","192660","168772","2368","NA","198652","193670","197443","131936","197442","NA","Sternberg Task","7","15861","8","yes","1024"
"88.8888888889","88.8888888889","1859.88888889","1859.88888889","black","practice","legacy","legacy","legacy","0","uniform","1","0","undefined","1","left","8","8","8","0","0","8","8","0","0","8","8","8","0","8","0","Sun Oct  7 16:48:22 2018","The main experiment item","yes","SternbergTask.osexp","/Volumes/USB20FD","no","mono","no","18","no","white","no","yes","768","legacy","8","8","/Volumes/USB20FD/subject-1 actual.csv","legacy","1 5 2 9","Kafkaesque Koffka","3.2.5","2","y","0","left","right","right","NA","left","NA","878","2614","129562","NA","878","NA","2","legacy","4","1024","2","48000","-16","experiment","1","odd","5","202014","198665","199770","2351","NA","199781","168772","2368","NA","205518","200797","204639","131936","204639","NA","Sternberg Task","8","16739","9","yes","1024"
"90","90","1852.5","1852.5","black","practice","legacy","legacy","legacy","0","uniform","1","1","undefined","1","right","9","9","9","0","0","9","9","0","0","9","9","9","0","9","0","Sun Oct  7 16:48:22 2018","The main experiment item","yes","SternbergTask.osexp","/Volumes/USB20FD","no","mono","no","18","no","white","no","yes","768","legacy","9","9","/Volumes/USB20FD/subject-1 actual.csv","legacy","3 1 9 4","Kafkaesque Koffka","3.2.5","0","n","0","right","right","right","NA","right","NA","1786","2450","129562","NA","1786","NA","2","legacy","4","1024","2","48000","-16","experiment","1","odd","6","208883","205532","206645","2351","NA","206655","168772","2368","NA","213132","207669","211345","131936","211345","NA","Sternberg Task","9","18525","10","yes","1024"
"90.9090909091","90.9090909091","1858","1858","black","practice","legacy","legacy","legacy","0","uniform","1","1","undefined","1","right","10","10","10","0","0","10","10","0","0","10","10","10","0","10","0","Sun Oct  7 16:48:22 2018","The main experiment item","yes","SternbergTask.osexp","/Volumes/USB20FD","no","mono","no","18","no","white","no","yes","768","legacy","10","10","/Volumes/USB20FD/subject-1 actual.csv","legacy","9 6 7 4 5","Kafkaesque Koffka","3.2.5","0","n","0","right","right","right","NA","right","NA","1913","1616","129562","NA","1913","NA","2","legacy","5","1024","2","48000","-16","experiment","1","odd","3","216503","213146","214256","2351","NA","214267","168772","2368","NA","220046","215285","218131","131936","218131","NA","Sternberg Task","10","20438","11","yes","1024"
"91.6666666667","91.6666666667","1812","1812","black","practice","legacy","legacy","legacy","0","uniform","1","1","undefined","1","right","11","11","11","0","0","11","11","0","0","11","11","11","0","11","0","Sun Oct  7 16:48:22 2018","The main experiment item","yes","SternbergTask.osexp","/Volumes/USB20FD","no","mono","no","18","no","white","no","yes","768","legacy","11","11","/Volumes/USB20FD/subject-1 actual.csv","legacy","2 1","Kafkaesque Koffka","3.2.5","0","n","0","right","right","right","NA","right","NA","1306","1781","129562","NA","1306","NA","2","legacy","2","1024","2","48000","-16","experiment","1","odd","5","223404","220059","221164","2351","NA","221174","168772","2368","NA","226505","222188","225197","131936","225197","NA","Sternberg Task","11","21744","12","yes","1024"
"92.3076923077","92.3076923077","1787.76923077","1787.76923077","black","experiment","legacy","legacy","legacy","0","uniform","1","0","undefined","1","left","12","12","12","0","0","12","12","0","0","12","12","12","0","12","0","Sun Oct  7 16:48:22 2018","The main experiment item","yes","SternbergTask.osexp","/Volumes/USB20FD","no","mono","no","18","no","white","no","yes","768","legacy","0","11","/Volumes/USB20FD/subject-1 actual.csv","legacy","2 6 1 7 4","Kafkaesque Koffka","3.2.5","2","y","0","left","right","right","right","left","NA","1497","1466","129562","25935","1497","NA","2","legacy","5","1024","2","48000","-16","experiment","1","odd","6","255852","226519","253609","2351","253493","253619","168772","2368","227557","258829","254636","257330","131936","257330","NA","Sternberg Task","12","23241","13","yes","1024"
"92.8571428571","92.8571428571","1735.35714286","1735.35714286","black","experiment","legacy","legacy","legacy","0","uniform","1","0","undefined","1","left","13","13","13","0","0","13","13","0","0","13","13","13","0","13","0","Sun Oct  7 16:48:22 2018","The main experiment item","yes","SternbergTask.osexp","/Volumes/USB20FD","no","mono","no","18","no","white","no","yes","768","legacy","1","11","/Volumes/USB20FD/subject-1 actual.csv","legacy","4 6 2 5 1","Kafkaesque Koffka","3.2.5","5","y","0","left","right","right","right","left","NA","1054","1477","129562","25935","1054","NA","2","legacy","5","1024","2","48000","-16","experiment","1","odd","1","262192","258844","259950","2351","253493","259960","168772","2368","227557","264736","260975","263681","131936","263681","NA","Sternberg Task","13","24295","14","yes","1024"
"93.3333333333","93.3333333333","1667.2","1667.2","black","experiment","legacy","legacy","legacy","0","uniform","1","0","undefined","1","right","14","14","14","0","0","14","14","0","0","14","14","14","0","14","0","Sun Oct  7 16:48:22 2018","The main experiment item","yes","SternbergTask.osexp","/Volumes/USB20FD","no","mono","no","18","no","white","no","yes","768","legacy","2","11","/Volumes/USB20FD/subject-1 actual.csv","legacy","2 6 4 3 9","Kafkaesque Koffka","3.2.5","0","n","0","right","left","right","right","right","NA","713","1430","129562","25935","713","NA","2","legacy","5","1024","2","48000","-16","experiment","1","odd","1","268102","264754","265859","2351","253493","265869","168772","2368","227557","270257","266885","269543","131936","269543","NA","Sternberg Task","14","25008","15","yes","1024"
"93.75","93.75","1608.4375","1608.4375","black","experiment","legacy","legacy","legacy","0","uniform","1","1","undefined","1","left","15","15","15","0","0","15","15","0","0","15","15","15","0","15","0","Sun Oct  7 16:48:22 2018","The main experiment item","yes","SternbergTask.osexp","/Volumes/USB20FD","no","mono","no","18","no","white","no","yes","768","legacy","3","11","/Volumes/USB20FD/subject-1 actual.csv","legacy","3 5 7 1","Kafkaesque Koffka","3.2.5","3","y","0","left","left","right","right","left","NA","727","1268","129562","25935","727","NA","2","legacy","4","1024","2","48000","-16","experiment","1","odd","7","273617","270272","271376","2351","253493","271387","168772","2368","227557","275625","272397","274896","131936","274896","NA","Sternberg Task","15","25735","16","yes","1024"
"94.1176470588","94.1176470588","1590.70588235","1590.70588235","black","experiment","legacy","legacy","legacy","0","uniform","1","0","undefined","1","left","16","16","16","0","0","16","16","0","0","16","16","16","0","16","0","Sun Oct  7 16:48:22 2018","The main experiment item","yes","SternbergTask.osexp","/Volumes/USB20FD","no","mono","no","18","no","white","no","yes","768","legacy","4","11","/Volumes/USB20FD/subject-1 actual.csv","legacy","3 2 1 4 7","Kafkaesque Koffka","3.2.5","2","y","0","left","right","right","right","left","NA","1307","1193","129562","25935","1307","NA","2","legacy","5","1024","2","48000","-16","experiment","1","odd","2","278995","275637","276750","2351","253493","276759","168772","2368","227557","281508","277779","280199","131936","280199","NA","Sternberg Task","16","27042","17","yes","1024"
"94.4444444444","94.4444444444","1533.94444444","1533.94444444","black","experiment","legacy","legacy","legacy","0","uniform","1","0","undefined","1","right","17","17","17","0","0","17","17","0","0","17","17","17","0","17","0","Sun Oct  7 16:48:22 2018","The main experiment item","yes","SternbergTask.osexp","/Volumes/USB20FD","no","mono","no","18","no","white","no","yes","768","legacy","5","11","/Volumes/USB20FD/subject-1 actual.csv","legacy","1 4 9 2 5","Kafkaesque Koffka","3.2.5","0","n","0","right","left","right","right","right","NA","569","2082","129562","25935","569","NA","2","legacy","5","1024","2","48000","-16","experiment","1","odd","7","284870","281522","282632","2351","253493","282642","168772","2368","227557","287535","283656","286964","131936","286964","NA","Sternberg Task","17","27611","18","yes","1024"
"94.7368421053","94.7368421053","1487.94736842","1487.94736842","black","experiment","legacy","legacy","legacy","0","uniform","1","1","undefined","1","left","18","18","18","0","0","18","18","0","0","18","18","18","0","18","0","Sun Oct  7 16:48:22 2018","The main experiment item","yes","SternbergTask.osexp","/Volumes/USB20FD","no","mono","no","18","no","white","no","yes","768","legacy","6","11","/Volumes/USB20FD/subject-1 actual.csv","legacy","9 4 2","Kafkaesque Koffka","3.2.5","1","y","0","left","left","right","right","left","NA","660","965","129562","25935","660","NA","2","legacy","3","1024","2","48000","-16","experiment","1","odd","9","290894","287548","288652","2351","253493","288662","168772","2368","227557","292532","289677","291870","131936","291870","NA","Sternberg Task","18","28271","19","yes","1024"
"90","90","1446.95","1446.95","black","experiment","legacy","legacy","legacy","0","uniform","0","1","undefined","0","left","19","19","19","0","0","19","19","0","0","19","19","19","0","19","0","Sun Oct  7 16:48:22 2018","The main experiment item","yes","SternbergTask.osexp","/Volumes/USB20FD","no","mono","no","18","no","white","no","yes","768","legacy","7","11","/Volumes/USB20FD/subject-1 actual.csv","legacy","9 3 8 2 1 4","Kafkaesque Koffka","3.2.5","3","y","0","right","left","right","right","right","NA","668","2119","129562","25935","668","NA","2","legacy","6","1024","2","48000","-16","experiment","1","odd","8","295887","292544","293646","2351","253493","293656","168772","2368","227557","298686","294670","298017","131936","298017","NA","Sternberg Task","18","28939","20","yes","1024"
"90.4761904762","90.4761904762","1409.38095238","1409.38095238","black","experiment","legacy","legacy","legacy","0","uniform","1","1","undefined","1","left","20","20","20","0","0","20","20","0","0","20","20","20","0","20","0","Sun Oct  7 16:48:22 2018","The main experiment item","yes","SternbergTask.osexp","/Volumes/USB20FD","no","mono","no","18","no","white","no","yes","768","legacy","8","11","/Volumes/USB20FD/subject-1 actual.csv","legacy","2 8 5 1","Kafkaesque Koffka","3.2.5","4","y","0","left","left","right","right","left","NA","658","614","129562","25935","658","NA","2","legacy","4","1024","2","48000","-16","experiment","1","odd","1","302051","292544","299812","2351","253493","299821","298703","2368","227557","303336","300834","302677","131936","302677","NA","Sternberg Task","19","29597","21","yes","1024"
"90.9090909091","90.9090909091","1371.86363636","1371.86363636","black","experiment","legacy","legacy","legacy","0","uniform","1","0","undefined","1","right","21","21","21","0","0","21","21","0","0","21","21","21","0","21","0","Sun Oct  7 16:48:22 2018","The main experiment item","yes","SternbergTask.osexp","/Volumes/USB20FD","no","mono","no","18","no","white","no","yes","768","legacy","9","11","/Volumes/USB20FD/subject-1 actual.csv","legacy","3 9 1","Kafkaesque Koffka","3.2.5","0","n","0","right","left","right","right","right","NA","584","1110","129562","25935","584","NA","2","legacy","3","1024","2","48000","-16","experiment","1","odd","7","306696","303349","304453","2351","253493","304462","298703","2368","227557","308404","305478","307818","131936","307817","NA","Sternberg Task","20","30181","22","yes","1024"
"91.3043478261","91.3043478261","1354.43478261","1354.43478261","black","experiment","legacy","legacy","legacy","0","uniform","1","1","undefined","1","left","22","22","22","0","0","22","22","0","0","22","22","22","0","22","0","Sun Oct  7 16:48:22 2018","The main experiment item","yes","SternbergTask.osexp","/Volumes/USB20FD","no","mono","no","18","no","white","no","yes","768","legacy","10","11","/Volumes/USB20FD/subject-1 actual.csv","legacy","9 5 8 1","Kafkaesque Koffka","3.2.5","2","y","0","left","left","right","right","left","NA","971","816","129562","25935","971","NA","2","legacy","4","1024","2","48000","-16","experiment","1","odd","5","311759","308416","309519","2351","253493","309529","298703","2368","227557","313561","310542","312588","131936","312588","NA","Sternberg Task","21","31152","23","yes","1024"
"91.6666666667","91.6666666667","1332.375","1332.375","black","experiment","legacy","legacy","legacy","0","uniform","1","1","undefined","1","right","23","23","23","0","0","23","23","0","0","23","23","23","0","23","0","Sun Oct  7 16:48:22 2018","The main experiment item","yes","SternbergTask.osexp","/Volumes/USB20FD","no","mono","no","18","no","white","no","yes","768","legacy","11","11","/Volumes/USB20FD/subject-1 actual.csv","legacy","4 2 6 9","Kafkaesque Koffka","3.2.5","0","n","0","right","right","right","right","right","NA","825","2015","129562","25935","825","NA","2","legacy","4","1024","2","48000","-16","experiment","1","odd","7","316918","313575","314678","2351","253493","314688","298703","2368","227557","319771","315702","318945","131936","318944","NA","Sternberg Task","22","31977","24","yes","1024"
"88","88","1323.52","1323.52","black","experiment","legacy","legacy","legacy","0","uniform","0","1","undefined","0","right","24","24","24","0","0","24","24","0","0","24","24","24","0","24","0","Sun Oct  7 16:48:22 2018","The main experiment item","yes","SternbergTask.osexp","/Volumes/USB20FD","no","mono","no","18","no","white","no","yes","768","legacy","12","11","/Volumes/USB20FD/subject-1 actual.csv","legacy","6 2 9 3 8 4","Kafkaesque Koffka","3.2.5","0","n","0","left","right","right","right","left","NA","1111","1175","129562","25935","1111","NA","2","legacy","6","1024","2","48000","-16","experiment","1","odd","1","323134","319787","320892","2351","253493","320902","298703","2368","227557","325435","321915","324322","131936","324322","NA","Sternberg Task","22","33088","25","yes","1024"
"84.6153846154","84.6153846154","1292.96153846","1292.96153846","black","experiment","legacy","legacy","legacy","0","uniform","0","0","undefined","0","left","25","25","25","0","0","25","25","0","0","25","25","25","0","25","0","Sun Oct  7 16:48:22 2018","The main experiment item","yes","SternbergTask.osexp","/Volumes/USB20FD","no","mono","no","18","no","white","no","yes","768","legacy","13","11","/Volumes/USB20FD/subject-1 actual.csv","legacy","7 8 6 3 1","Kafkaesque Koffka","3.2.5","5","y","0","right","right","right","right","right","NA","529","1323","129562","25935","529","NA","2","legacy","5","1024","2","48000","-16","experiment","1","odd","1","328807","319787","326566","2351","253493","326577","325453","2368","227557","330672","327591","330142","131936","330141","NA","Sternberg Task","22","33617","26","yes","1024"
"85.1851851852","85.1851851852","1271.22222222","1271.22222222","black","experiment","legacy","legacy","legacy","0","uniform","1","1","undefined","1","left","26","26","26","0","0","26","26","0","0","26","26","26","0","26","0","Sun Oct  7 16:48:22 2018","The main experiment item","yes","SternbergTask.osexp","/Volumes/USB20FD","no","mono","no","18","no","white","no","yes","768","legacy","14","11","/Volumes/USB20FD/subject-1 actual.csv","legacy","8 9 5 7 1 6","Kafkaesque Koffka","3.2.5","4","y","0","left","left","right","right","left","NA","706","2619","129562","25935","706","NA","2","legacy","6","1024","2","48000","-16","experiment","1","odd","7","334029","319787","331790","2351","253493","331800","330685","2368","227557","337367","332813","336659","131936","336659","NA","Sternberg Task","23","34323","27","yes","1024"
"85.7142857143","85.7142857143","1249.78571429","1249.78571429","black","experiment","legacy","legacy","legacy","0","uniform","1","1","undefined","1","left","27","27","27","0","0","27","27","0","0","27","27","27","0","27","0","Sun Oct  7 16:48:22 2018","The main experiment item","yes","SternbergTask.osexp","/Volumes/USB20FD","no","mono","no","18","no","white","no","yes","768","legacy","15","11","/Volumes/USB20FD/subject-1 actual.csv","legacy","7 1 3","Kafkaesque Koffka","3.2.5","2","y","0","left","left","right","right","left","NA","671","911","129562","25935","671","NA","2","legacy","3","1024","2","48000","-16","experiment","1","odd","1","340713","337379","338482","2351","253493","338492","330685","2368","227557","342309","339502","341636","131936","341636","NA","Sternberg Task","24","34994","28","yes","1024"
"86.2068965517","86.2068965517","1230.10344828","1230.10344828","black","experiment","legacy","legacy","legacy","0","uniform","1","0","undefined","1","right","28","28","28","0","0","28","28","0","0","28","28","28","0","28","0","Sun Oct  7 16:48:22 2018","The main experiment item","yes","SternbergTask.osexp","/Volumes/USB20FD","no","mono","no","18","no","white","no","yes","768","legacy","16","11","/Volumes/USB20FD/subject-1 actual.csv","legacy","9","Kafkaesque Koffka","3.2.5","0","n","0","right","left","right","right","right","NA","679","2944","129562","25935","679","NA","2","legacy","1","1024","2","48000","-16","experiment","1","odd","6","345664","342322","343423","2351","253493","343433","330685","2368","227557","349299","344447","348619","131936","348619","NA","Sternberg Task","25","35673","29","yes","1024"
"86.6666666667","86.6666666667","1215.16666667","1215.16666667","black","experiment","legacy","legacy","legacy","0","uniform","1","1","undefined","1","left","29","29","29","0","0","29","29","0","0","29","29","29","0","29","0","Sun Oct  7 16:48:22 2018","The main experiment item","yes","SternbergTask.osexp","/Volumes/USB20FD","no","mono","no","18","no","white","no","yes","768","legacy","17","11","/Volumes/USB20FD/subject-1 actual.csv","legacy","6 1 2","Kafkaesque Koffka","3.2.5","3","y","0","left","left","right","right","left","NA","782","1172","129562","25935","782","NA","2","legacy","3","1024","2","48000","-16","experiment","1","odd","2","352662","349315","350421","2351","253493","350431","330685","2368","227557","354629","351443","353845","131936","353845","NA","Sternberg Task","26","36455","30","yes","1024"
"87.0967741935","87.0967741935","1194.93548387","1194.93548387","black","experiment","legacy","legacy","legacy","0","uniform","1","0","undefined","1","right","30","30","30","0","0","30","30","0","0","30","30","30","0","30","0","Sun Oct  7 16:48:22 2018","The main experiment item","yes","SternbergTask.osexp","/Volumes/USB20FD","no","mono","no","18","no","white","no","yes","768","legacy","18","11","/Volumes/USB20FD/subject-1 actual.csv","legacy","9 8 2 7 4","Kafkaesque Koffka","3.2.5","0","n","0","right","left","right","right","right","NA","588","911","129562","25935","588","NA","2","legacy","5","1024","2","48000","-16","experiment","1","odd","5","357992","354644","355747","2351","253493","355759","330685","2368","227557","359503","356775","358914","131936","358914","NA","Sternberg Task","27","37043","31","yes","1024"
"87.5","87.5","1178.96875","1178.96875","black","experiment","legacy","legacy","legacy","0","uniform","1","0","undefined","1","right","31","31","31","0","0","31","31","0","0","31","31","31","0","31","0","Sun Oct  7 16:48:22 2018","The main experiment item","yes","SternbergTask.osexp","/Volumes/USB20FD","no","mono","no","18","no","white","no","yes","768","legacy","19","11","/Volumes/USB20FD/subject-1 actual.csv","legacy","1 7 5 2","Kafkaesque Koffka","3.2.5","0","n","0","right","left","right","right","right","NA","684","652","129562","25935","684","NA","2","legacy","4","1024","2","48000","-16","experiment","1","odd","3","362861","359517","360619","2351","253493","360629","330685","2368","227557","364210","361642","363525","131936","363525","NA","Sternberg Task","28","37727","32","yes","1024"
"87.8787878788","87.8787878788","1163.96969697","1163.96969697","black","experiment","legacy","legacy","legacy","0","uniform","1","1","undefined","1","right","32","32","32","0","0","32","32","0","0","32","32","32","0","32","0","Sun Oct  7 16:48:22 2018","The main experiment item","yes","SternbergTask.osexp","/Volumes/USB20FD","no","mono","no","18","no","white","no","yes","768","legacy","20","11","/Volumes/USB20FD/subject-1 actual.csv","legacy","5 2","Kafkaesque Koffka","3.2.5","0","n","0","right","right","right","right","right","NA","684","2309","129562","25935","684","NA","2","legacy","2","1024","2","48000","-16","experiment","1","odd","7","367575","364222","365334","2351","253493","365344","330685","2368","227557","370580","366358","369895","131936","369895","NA","Sternberg Task","29","38411","33","yes","1024"
"88.2352941176","88.2352941176","1150","1150","black","experiment","legacy","legacy","legacy","0","uniform","1","1","undefined","1","left","33","33","33","0","0","33","33","0","0","33","33","33","0","33","0","Sun Oct  7 16:48:22 2018","The main experiment item","yes","SternbergTask.osexp","/Volumes/USB20FD","no","mono","no","18","no","white","no","yes","768","legacy","21","11","/Volumes/USB20FD/subject-1 actual.csv","legacy","6 9 7 4 5 1","Kafkaesque Koffka","3.2.5","2","y","0","left","left","right","right","left","NA","689","952","129562","25935","689","NA","2","legacy","6","1024","2","48000","-16","experiment","1","odd","9","373938","370593","371698","2351","253493","371708","330685","2368","227557","375592","372722","374901","131936","374901","NA","Sternberg Task","30","39100","34","yes","1024"
"85.7142857143","85.7142857143","1138.94285714","1138.94285714","black","experiment","legacy","legacy","legacy","0","uniform","0","0","undefined","0","right","34","34","34","0","0","34","34","0","0","34","34","34","0","34","0","Sun Oct  7 16:48:22 2018","The main experiment item","yes","SternbergTask.osexp","/Volumes/USB20FD","no","mono","no","18","no","white","no","yes","768","legacy","22","11","/Volumes/USB20FD/subject-1 actual.csv","legacy","7 1 8 4 9 3","Kafkaesque Koffka","3.2.5","0","n","0","left","left","right","right","left","NA","763","702","129562","25935","763","NA","2","legacy","6","1024","2","48000","-16","experiment","1","odd","6","378956","375610","376717","2351","253493","376727","330685","2368","227557","380433","377744","379669","131936","379669","NA","Sternberg Task","30","39863","35","yes","1024"
"86.1111111111","86.1111111111","1135.58333333","1135.58333333","black","experiment","legacy","legacy","legacy","0","uniform","1","0","undefined","1","left","35","35","35","0","0","35","35","0","0","35","35","35","0","35","0","Sun Oct  7 16:48:22 2018","The main experiment item","yes","SternbergTask.osexp","/Volumes/USB20FD","no","mono","no","18","no","white","no","yes","768","legacy","23","11","/Volumes/USB20FD/subject-1 actual.csv","legacy","6 8 9 3 4 9","Kafkaesque Koffka","3.2.5","5","y","0","left","right","right","right","left","NA","1018","50","129562","25935","1018","NA","2","legacy","6","1024","2","48000","-16","experiment","1","odd","4","383800","375610","381558","2351","253493","381568","380449","2368","227557","384880","382585","383861","131936","383861","NA","Sternberg Task","31","40881","36","yes","1024"
"86.4864864865","86.4864864865","1120.48648649","1120.48648649","black","experiment","legacy","legacy","legacy","0","uniform","1","1","undefined","1","left","36","36","36","0","0","36","36","0","0","36","36","36","0","36","0","Sun Oct  7 16:48:22 2018","The main experiment item","yes","SternbergTask.osexp","/Volumes/USB20FD","no","mono","no","18","no","white","no","yes","768","legacy","24","11","/Volumes/USB20FD/subject-1 actual.csv","legacy","4 6 5 8","Kafkaesque Koffka","3.2.5","1","y","0","left","left","right","right","left","NA","577","36","129562","25935","577","NA","2","legacy","4","1024","2","48000","-16","experiment","1","odd","4","388240","384893","386000","2351","253493","386012","380449","2368","227557","388866","387025","388287","131936","388287","NA","Sternberg Task","32","41458","37","yes","1024"
"86.8421052632","86.8421052632","1104.60526316","1104.60526316","black","experiment","legacy","legacy","legacy","0","uniform","1","1","undefined","1","left","37","37","37","0","0","37","37","0","0","37","37","37","0","37","0","Sun Oct  7 16:48:22 2018","The main experiment item","yes","SternbergTask.osexp","/Volumes/USB20FD","no","mono","no","18","no","white","no","yes","768","legacy","25","11","/Volumes/USB20FD/subject-1 actual.csv","legacy","9 5 3 8 4","Kafkaesque Koffka","3.2.5","1","y","0","left","left","right","right","left","NA","517","1267","129562","25935","517","NA","2","legacy","5","1024","2","48000","-16","experiment","1","odd","9","392229","388881","389989","2351","253493","389999","380449","2368","227557","394027","391014","393509","131936","393509","NA","Sternberg Task","33","41975","38","yes","1024"
"87.1794871795","87.1794871795","1093.30769231","1093.30769231","black","experiment","legacy","legacy","legacy","0","uniform","1","1","undefined","1","left","38","38","38","0","0","38","38","0","0","38","38","38","0","38","0","Sun Oct  7 16:48:22 2018","The main experiment item","yes","SternbergTask.osexp","/Volumes/USB20FD","no","mono","no","18","no","white","no","yes","768","legacy","26","11","/Volumes/USB20FD/subject-1 actual.csv","legacy","8 3","Kafkaesque Koffka","3.2.5","2","y","0","left","left","right","right","left","NA","664","1596","129562","25935","664","NA","2","legacy","2","1024","2","48000","-16","experiment","1","odd","3","397387","394040","395142","2351","253493","395152","380449","2368","227557","399660","396169","398995","131936","398995","NA","Sternberg Task","34","42639","39","yes","1024"
"87.5","87.5","1083.075","1083.075","black","experiment","legacy","legacy","legacy","0","uniform","1","1","undefined","1","left","39","39","39","0","0","39","39","0","0","39","39","39","0","39","0","Sun Oct  7 16:48:22 2018","The main experiment item","yes","SternbergTask.osexp","/Volumes/USB20FD","no","mono","no","18","no","white","no","yes","768","legacy","27","11","/Volumes/USB20FD/subject-1 actual.csv","legacy","7 6","Kafkaesque Koffka","3.2.5","2","y","0","left","left","right","right","left","NA","684","911","129562","25935","684","NA","2","legacy","2","1024","2","48000","-16","experiment","1","odd","6","403009","399673","400775","2351","253493","400785","380449","2368","227557","404616","401796","403931","131936","403931","NA","Sternberg Task","35","43323","40","yes","1024"
"87.8048780488","87.8048780488","1079.58536585","1079.58536585","black","experiment","legacy","legacy","legacy","0","uniform","1","1","undefined","1","left","40","40","40","0","0","40","40","0","0","40","40","40","0","40","0","Sun Oct  7 16:48:22 2018","The main experiment item","yes","SternbergTask.osexp","/Volumes/USB20FD","no","mono","no","18","no","white","no","yes","768","legacy","28","11","/Volumes/USB20FD/subject-1 actual.csv","legacy","8 5 4 7 3 1","Kafkaesque Koffka","3.2.5","2","y","0","left","left","right","right","left","NA","940","564","129562","25935","940","NA","2","legacy","6","1024","2","48000","-16","experiment","1","odd","5","407978","404631","405738","2351","253493","405748","380449","2368","227557","409495","406762","408553","131936","408553","NA","Sternberg Task","36","44263","41","yes","1024"
"88.0952380952","88.0952380952","1080.95238095","1080.95238095","black","experiment","legacy","legacy","legacy","0","uniform","1","0","undefined","1","right","41","41","41","0","0","41","41","0","0","41","41","41","0","41","0","Sun Oct  7 16:48:22 2018","The main experiment item","yes","SternbergTask.osexp","/Volumes/USB20FD","no","mono","no","18","no","white","no","yes","768","legacy","29","11","/Volumes/USB20FD/subject-1 actual.csv","legacy","1 4 9 3","Kafkaesque Koffka","3.2.5","0","n","0","right","left","right","right","right","NA","1137","2500","129562","25935","1137","NA","2","legacy","4","1024","2","48000","-16","experiment","1","odd","5","412855","409507","410615","2351","253493","410625","380449","2368","227557","416504","411638","415366","131936","415366","NA","Sternberg Task","37","45400","42","yes","1024"
"88.3720930233","88.3720930233","1072.02325581","1072.02325581","black","experiment","legacy","legacy","legacy","0","uniform","1","0","undefined","1","right","42","42","42","0","0","42","42","0","0","42","42","42","0","42","0","Sun Oct  7 16:48:22 2018","The main experiment item","yes","SternbergTask.osexp","/Volumes/USB20FD","no","mono","no","18","no","white","no","yes","768","legacy","30","11","/Volumes/USB20FD/subject-1 actual.csv","legacy","1 8 7","Kafkaesque Koffka","3.2.5","0","n","0","right","left","right","right","right","NA","697","153","129562","25935","697","NA","2","legacy","3","1024","2","48000","-16","experiment","1","odd","4","419866","416518","417619","2351","253493","417630","380449","2368","227557","420728","418647","420030","131936","420030","NA","Sternberg Task","38","46097","43","yes","1024"
"88.6363636364","88.6363636364","1065.04545455","1065.04545455","black","experiment","legacy","legacy","legacy","0","uniform","1","0","undefined","1","right","43","43","43","0","0","43","43","0","0","43","43","43","0","43","0","Sun Oct  7 16:48:22 2018","The main experiment item","yes","SternbergTask.osexp","/Volumes/USB20FD","no","mono","no","18","no","white","no","yes","768","legacy","31","11","/Volumes/USB20FD/subject-1 actual.csv","legacy","8 2 1 4 5 9","Kafkaesque Koffka","3.2.5","0","n","0","right","left","right","right","right","NA","765","139","129562","25935","765","NA","2","legacy","6","1024","2","48000","-16","experiment","1","odd","7","424092","420741","421848","2351","253493","421858","380449","2368","227557","425008","422876","424242","131936","424242","NA","Sternberg Task","39","46862","44","yes","1024"
"88.8888888889","88.8888888889","1056.28888889","1056.28888889","black","experiment","legacy","legacy","legacy","0","uniform","1","1","undefined","1","right","44","44","44","0","0","44","44","0","0","44","44","44","0","44","0","Sun Oct  7 16:48:22 2018","The main experiment item","yes","SternbergTask.osexp","/Volumes/USB20FD","no","mono","no","18","no","white","no","yes","768","legacy","32","11","/Volumes/USB20FD/subject-1 actual.csv","legacy","8 9","Kafkaesque Koffka","3.2.5","0","n","0","right","right","right","right","right","NA","671","1591","129562","25935","671","NA","2","legacy","2","1024","2","48000","-16","experiment","1","odd","5","428372","425025","426130","2351","253493","426140","380449","2368","227557","430646","427157","429974","131936","429974","NA","Sternberg Task","40","47533","45","yes","1024"
"89.1304347826","89.1304347826","1053.02173913","1053.02173913","black","experiment","legacy","legacy","legacy","0","uniform","1","1","undefined","1","left","45","45","45","0","0","45","45","0","0","45","45","45","0","45","0","Sun Oct  7 16:48:22 2018","The main experiment item","yes","SternbergTask.osexp","/Volumes/USB20FD","no","mono","no","18","no","white","no","yes","768","legacy","33","11","/Volumes/USB20FD/subject-1 actual.csv","legacy","5 7 8 2 3 8","Kafkaesque Koffka","3.2.5","5","y","0","left","left","right","right","left","NA","906","791","129562","25935","906","NA","2","legacy","6","1024","2","48000","-16","experiment","1","odd","3","434011","430661","431768","2351","253493","431778","380449","2368","227557","435721","432797","434813","131936","434813","NA","Sternberg Task","41","48439","46","yes","1024"
"89.3617021277","89.3617021277","1054.31914894","1054.31914894","black","experiment","legacy","legacy","legacy","0","uniform","1","0","undefined","1","left","46","46","46","0","0","46","46","0","0","46","46","46","0","46","0","Sun Oct  7 16:48:22 2018","The main experiment item","yes","SternbergTask.osexp","/Volumes/USB20FD","no","mono","no","18","no","white","no","yes","768","legacy","34","11","/Volumes/USB20FD/subject-1 actual.csv","legacy","2 3 7 4","Kafkaesque Koffka","3.2.5","1","y","0","left","right","right","right","left","NA","1114","2086","129562","25935","1114","NA","2","legacy","4","1024","2","48000","-16","experiment","1","odd","2","439080","435733","436837","2351","253493","436847","380449","2368","227557","442295","437863","441179","131936","441179","NA","Sternberg Task","42","49553","47","yes","1024"
"89.5833333333","89.5833333333","1050.375","1050.375","black","experiment","legacy","legacy","legacy","0","uniform","1","0","undefined","1","right","47","47","47","0","0","47","47","0","0","47","47","47","0","47","0","Sun Oct  7 16:48:22 2018","The main experiment item","yes","SternbergTask.osexp","/Volumes/USB20FD","no","mono","no","18","no","white","no","yes","768","legacy","35","11","/Volumes/USB20FD/subject-1 actual.csv","legacy","1 6 4 3 9 7","Kafkaesque Koffka","3.2.5","0","n","0","right","left","right","right","right","NA","865","164","129562","25935","865","NA","2","legacy","6","1024","2","48000","-16","experiment","1","odd","8","445658","442309","443419","2351","253493","443431","380449","2368","227557","446701","444446","445834","131936","445834","NA","Sternberg Task","43","50418","48","yes","1024"
"89.7959183673","89.7959183673","1044.89795918","1044.89795918","black","experiment","legacy","legacy","legacy","0","uniform","1","1","undefined","1","right","48","48","48","0","0","48","48","0","0","48","48","48","0","48","0","Sun Oct  7 16:48:22 2018","The main experiment item","yes","SternbergTask.osexp","/Volumes/USB20FD","no","mono","no","18","no","white","no","yes","768","legacy","36","11","/Volumes/USB20FD/subject-1 actual.csv","legacy","7 9 1 6","Kafkaesque Koffka","3.2.5","0","n","0","right","right","right","right","right","NA","782","149","129562","25935","782","NA","2","legacy","4","1024","2","48000","-16","experiment","1","odd","4","450066","446716","447820","2351","253493","447830","380449","2368","227557","451011","448850","450227","131936","450227","NA","Sternberg Task","44","51200","49","yes","1024"
"90","90","1081.86","1081.86","black","experiment","legacy","legacy","legacy","0","uniform","1","0","undefined","1","left","49","49","49","0","0","49","49","0","0","49","49","49","0","49","0","Sun Oct  7 16:48:22 2018","The main experiment item","yes","SternbergTask.osexp","/Volumes/USB20FD","no","mono","no","18","no","white","no","yes","768","legacy","37","11","/Volumes/USB20FD/subject-1 actual.csv","legacy","4 3 2 5 8","Kafkaesque Koffka","3.2.5","2","y","0","left","right","right","right","left","NA","2893","1509","129562","25935","2893","NA","2","legacy","5","1024","2","48000","-16","experiment","1","odd","3","454369","451023","452127","2351","253493","452137","380449","2368","227557","458785","453154","455890","131936","455890","NA","Sternberg Task","45","54093","50","yes","1024"
"90.1960784314","90.1960784314","1075.80392157","1075.80392157","black","experiment","legacy","legacy","legacy","0","uniform","1","1","undefined","1","right","50","50","50","0","0","50","50","0","0","50","50","50","0","50","0","Sun Oct  7 16:48:22 2018","The main experiment item","yes","SternbergTask.osexp","/Volumes/USB20FD","no","mono","no","18","no","white","no","yes","768","legacy","38","11","/Volumes/USB20FD/subject-1 actual.csv","legacy","6 9 7 3 8 2","Kafkaesque Koffka","3.2.5","0","n","0","right","right","right","right","right","NA","773","699","129562","25935","773","NA","2","legacy","6","1024","2","48000","-16","experiment","1","odd","5","462151","458802","459907","2351","253493","459917","380449","2368","227557","463637","460934","462862","131936","462862","NA","Sternberg Task","46","54866","51","yes","1024"
"90.3846153846","90.3846153846","1069.19230769","1069.19230769","black","experiment","legacy","legacy","legacy","0","uniform","1","0","undefined","1","right","51","51","51","0","0","51","51","0","0","51","51","51","0","51","0","Sun Oct  7 16:48:22 2018","The main experiment item","yes","SternbergTask.osexp","/Volumes/USB20FD","no","mono","no","18","no","white","no","yes","768","legacy","39","11","/Volumes/USB20FD/subject-1 actual.csv","legacy","2 8 9 4 1","Kafkaesque Koffka","3.2.5","0","n","0","right","left","right","right","right","NA","732","45","129562","25935","732","NA","2","legacy","5","1024","2","48000","-16","experiment","1","odd","5","466992","463649","464754","2351","253493","464764","380449","2368","227557","467783","465777","467049","131936","467049","NA","Sternberg Task","47","55598","52","yes","1024"
"90.5660377358","90.5660377358","1060.50943396","1060.50943396","black","experiment","legacy","legacy","legacy","0","uniform","1","1","undefined","1","left","52","52","52","0","0","52","52","0","0","52","52","52","0","52","0","Sun Oct  7 16:48:22 2018","The main experiment item","yes","SternbergTask.osexp","/Volumes/USB20FD","no","mono","no","18","no","white","no","yes","768","legacy","40","11","/Volumes/USB20FD/subject-1 actual.csv","legacy","9 8 4","Kafkaesque Koffka","3.2.5","1","y","0","left","left","right","right","left","NA","609","2172","129562","25935","609","NA","2","legacy","3","1024","2","48000","-16","experiment","1","odd","9","471140","467796","468898","2351","253493","468908","380449","2368","227557","473935","469923","473324","131936","473324","NA","Sternberg Task","48","56207","53","yes","1024"
"90.7407407407","90.7407407407","1053","1053","black","experiment","legacy","legacy","legacy","0","uniform","1","0","undefined","1","right","53","53","53","0","0","53","53","0","0","53","53","53","0","53","0","Sun Oct  7 16:48:22 2018","The main experiment item","yes","SternbergTask.osexp","/Volumes/USB20FD","no","mono","no","18","no","white","no","yes","768","legacy","41","11","/Volumes/USB20FD/subject-1 actual.csv","legacy","2 5 1 4","Kafkaesque Koffka","3.2.5","0","n","0","right","left","right","right","right","NA","655","76","129562","25935","655","NA","2","legacy","4","1024","2","48000","-16","experiment","1","odd","6","477291","473947","475049","2351","253493","475059","380449","2368","227557","478036","476074","477379","131936","477379","NA","Sternberg Task","49","56862","54","yes","1024"
"89.0909090909","89.0909090909","1050.36363636","1050.36363636","black","experiment","legacy","legacy","legacy","0","uniform","0","0","undefined","0","left","54","54","54","0","0","54","54","0","0","54","54","54","0","54","0","Sun Oct  7 16:48:22 2018","The main experiment item","yes","SternbergTask.osexp","/Volumes/USB20FD","no","mono","no","18","no","white","no","yes","768","legacy","42","11","/Volumes/USB20FD/subject-1 actual.csv","legacy","3 9 6 2","Kafkaesque Koffka","3.2.5","4","y","0","right","right","right","right","right","NA","908","1971","129562","25935","908","NA","2","legacy","4","1024","2","48000","-16","experiment","1","odd","2","481392","478050","479156","2351","253493","479166","380449","2368","227557","484285","480176","483375","131936","483375","NA","Sternberg Task","49","57770","55","yes","1024"
"89.2857142857","89.2857142857","1045.03571429","1045.03571429","black","experiment","legacy","legacy","legacy","0","uniform","1","1","undefined","1","left","55","55","55","0","0","55","55","0","0","55","55","55","0","55","0","Sun Oct  7 16:48:22 2018","The main experiment item","yes","SternbergTask.osexp","/Volumes/USB20FD","no","mono","no","18","no","white","no","yes","768","legacy","43","11","/Volumes/USB20FD/subject-1 actual.csv","legacy","8 5 1 3 9","Kafkaesque Koffka","3.2.5","4","y","0","left","left","right","right","left","NA","752","773","129562","25935","752","NA","2","legacy","5","1024","2","48000","-16","experiment","1","odd","3","487649","478050","485408","2351","253493","485419","484304","2368","227557","489188","486432","488434","131936","488434","NA","Sternberg Task","50","58522","56","yes","1024"
"87.7192982456","87.7192982456","1055.42105263","1055.42105263","black","experiment","legacy","legacy","legacy","0","uniform","0","0","undefined","0","right","56","56","56","0","0","56","56","0","0","56","56","56","0","56","0","Sun Oct  7 16:48:22 2018","The main experiment item","yes","SternbergTask.osexp","/Volumes/USB20FD","no","mono","no","18","no","white","no","yes","768","legacy","44","11","/Volumes/USB20FD/subject-1 actual.csv","legacy","8 5 7 3 6","Kafkaesque Koffka","3.2.5","0","n","0","left","left","right","right","left","NA","1637","798","129562","25935","1637","NA","2","legacy","5","1024","2","48000","-16","experiment","1","odd","9","492551","489200","490303","2351","253493","490313","484304","2368","227557","495000","491329","493361","131936","493360","NA","Sternberg Task","50","60159","57","yes","1024"
"87.9310344828","87.9310344828","1070.18965517","1070.18965517","black","experiment","legacy","legacy","legacy","0","uniform","1","1","undefined","1","right","57","57","57","0","0","57","57","0","0","57","57","57","0","57","0","Sun Oct  7 16:48:22 2018","The main experiment item","yes","SternbergTask.osexp","/Volumes/USB20FD","no","mono","no","18","no","white","no","yes","768","legacy","45","11","/Volumes/USB20FD/subject-1 actual.csv","legacy","1 7 5 2 9","Kafkaesque Koffka","3.2.5","0","n","0","right","right","right","right","right","NA","1912","1027","129562","25935","1912","NA","2","legacy","5","1024","2","48000","-16","experiment","1","odd","3","498353","489200","496116","2351","253493","496126","495011","2368","227557","501306","497137","499392","131936","499392","NA","Sternberg Task","51","62071","58","yes","1024"
"88.1355932203","88.1355932203","1066.28813559","1066.28813559","black","experiment","legacy","legacy","legacy","0","uniform","1","1","undefined","1","right","58","58","58","0","0","58","58","0","0","58","58","58","0","58","0","Sun Oct  7 16:48:22 2018","The main experiment item","yes","SternbergTask.osexp","/Volumes/USB20FD","no","mono","no","18","no","white","no","yes","768","legacy","46","11","/Volumes/USB20FD/subject-1 actual.csv","legacy","2 8 9","Kafkaesque Koffka","3.2.5","0","n","0","right","right","right","right","right","NA","840","1927","129562","25935","840","NA","2","legacy","3","1024","2","48000","-16","experiment","1","odd","6","504670","501318","502425","2351","253493","502434","495011","2368","227557","507451","503452","506609","131936","506609","NA","Sternberg Task","52","62911","59","yes","1024"
"88.3333333333","88.3333333333","1061.11666667","1061.11666667","black","experiment","legacy","legacy","legacy","0","uniform","1","0","undefined","1","right","59","59","59","0","0","59","59","0","0","59","59","59","0","59","0","Sun Oct  7 16:48:22 2018","The main experiment item","yes","SternbergTask.osexp","/Volumes/USB20FD","no","mono","no","18","no","white","no","yes","768","legacy","47","11","/Volumes/USB20FD/subject-1 actual.csv","legacy","4 8 1 2","Kafkaesque Koffka","3.2.5","0","n","0","right","left","right","right","right","NA","756","4337","129562","25935","756","NA","2","legacy","4","1024","2","48000","-16","experiment","1","odd","7","510812","507462","508573","2351","253493","508583","495011","2368","227557","515918","509596","515161","131936","515161","NA","Sternberg Task","53","63667","60","yes","1024"
"88.5245901639","88.5245901639","1081.55737705","1081.55737705","black","experiment","legacy","legacy","legacy","0","uniform","1","1","undefined","1","right","60","60","60","0","0","60","60","0","0","60","60","60","0","60","0","Sun Oct  7 16:48:22 2018","The main experiment item","yes","SternbergTask.osexp","/Volumes/USB20FD","no","mono","no","18","no","white","no","yes","768","legacy","48","11","/Volumes/USB20FD/subject-1 actual.csv","legacy","7 6 4 8 1 2","Kafkaesque Koffka","3.2.5","0","n","0","right","right","right","right","right","NA","2308","745","129562","25935","2308","NA","2","legacy","6","1024","2","48000","-16","experiment","1","odd","9","519285","515932","517037","2351","253493","517049","495011","2368","227557","522352","518066","520042","131936","520042","NA","Sternberg Task","54","65975","61","yes","1024"
"88.7096774194","88.7096774194","1077.56451613","1077.56451613","black","experiment","legacy","legacy","legacy","0","uniform","1","1","undefined","1","left","61","61","61","0","0","61","61","0","0","61","61","61","0","61","0","Sun Oct  7 16:48:22 2018","The main experiment item","yes","SternbergTask.osexp","/Volumes/USB20FD","no","mono","no","18","no","white","no","yes","768","legacy","49","11","/Volumes/USB20FD/subject-1 actual.csv","legacy","3 4","Kafkaesque Koffka","3.2.5","1","y","0","left","left","right","right","left","NA","834","552","129562","25935","834","NA","2","legacy","2","1024","2","48000","-16","experiment","1","odd","3","525718","522365","523469","2351","253493","523481","495011","2368","227557","527117","524497","526282","131936","526282","NA","Sternberg Task","55","66809","62","yes","1024"
"88.8888888889","88.8888888889","1070.26984127","1070.26984127","black","experiment","legacy","legacy","legacy","0","uniform","1","0","undefined","1","right","62","62","62","0","0","62","62","0","0","62","62","62","0","62","0","Sun Oct  7 16:48:22 2018","The main experiment item","yes","SternbergTask.osexp","/Volumes/USB20FD","no","mono","no","18","no","white","no","yes","768","legacy","50","11","/Volumes/USB20FD/subject-1 actual.csv","legacy","4 2 7 6 1 3","Kafkaesque Koffka","3.2.5","0","n","0","right","left","right","right","right","NA","618","519","129562","25935","618","NA","2","legacy","6","1024","2","48000","-16","experiment","1","odd","8","530473","527130","528238","2351","253493","528248","495011","2368","227557","531623","529258","531002","131936","531002","NA","Sternberg Task","56","67427","63","yes","1024"
"89.0625","89.0625","1068.265625","1068.265625","black","experiment","legacy","legacy","legacy","0","uniform","1","1","undefined","1","left","63","63","63","0","0","63","63","0","0","63","63","63","0","63","0","Sun Oct  7 16:48:22 2018","The main experiment item","yes","SternbergTask.osexp","/Volumes/USB20FD","no","mono","no","18","no","white","no","yes","768","legacy","51","11","/Volumes/USB20FD/subject-1 actual.csv","legacy","7 1 8 5 6 2","Kafkaesque Koffka","3.2.5","2","y","0","left","left","right","right","left","NA","942","4","129562","25935","942","NA","2","legacy","6","1024","2","48000","-16","experiment","1","odd","1","534988","531637","532744","2351","253493","532754","495011","2368","227557","535948","533768","535005","131936","535004","NA","Sternberg Task","57","68369","64","yes","1024"
"87.6923076923","87.6923076923","1076.63076923","1076.63076923","black","experiment","legacy","legacy","legacy","0","uniform","0","0","undefined","0","right","64","64","64","0","0","64","64","0","0","64","64","64","0","64","0","Sun Oct  7 16:48:22 2018","The main experiment item","yes","SternbergTask.osexp","/Volumes/USB20FD","no","mono","no","18","no","white","no","yes","768","legacy","52","11","/Volumes/USB20FD/subject-1 actual.csv","legacy","8 5 4 2 9 6","Kafkaesque Koffka","3.2.5","0","n","0","left","left","right","right","left","NA","1612","141","129562","25935","1612","NA","2","legacy","6","1024","2","48000","-16","experiment","1","odd","3","539313","535962","537071","2351","253493","537081","495011","2368","227557","541079","538097","539466","131936","539465","NA","Sternberg Task","57","69981","65","yes","1024"
"87.8787878788","87.8787878788","1072.34848485","1072.34848485","black","experiment","legacy","legacy","legacy","0","uniform","1","0","undefined","1","left","65","65","65","0","0","65","65","0","0","65","65","65","0","65","0","Sun Oct  7 16:48:22 2018","The main experiment item","yes","SternbergTask.osexp","/Volumes/USB20FD","no","mono","no","18","no","white","no","yes","768","legacy","53","11","/Volumes/USB20FD/subject-1 actual.csv","legacy","8 9 6 1","Kafkaesque Koffka","3.2.5","2","y","0","left","right","right","right","left","NA","794","579","129562","25935","794","NA","2","legacy","4","1024","2","48000","-16","experiment","1","odd","9","544432","535962","542196","2351","253493","542206","541094","2368","227557","545818","543220","545023","131936","545023","NA","Sternberg Task","58","70775","66","yes","1024"
"86.5671641791","86.5671641791","1073.52238806","1073.52238806","black","experiment","legacy","legacy","legacy","0","uniform","0","0","undefined","0","right","66","66","66","0","0","66","66","0","0","66","66","66","0","66","0","Sun Oct  7 16:48:22 2018","The main experiment item","yes","SternbergTask.osexp","/Volumes/USB20FD","no","mono","no","18","no","white","no","yes","768","legacy","54","11","/Volumes/USB20FD/subject-1 actual.csv","legacy","7 4 2 8 1 9","Kafkaesque Koffka","3.2.5","0","n","0","left","left","right","right","left","NA","1151","619","129562","25935","1151","NA","2","legacy","6","1024","2","48000","-16","experiment","1","odd","5","549170","545831","546937","2351","253493","546947","541094","2368","227557","550954","547959","549801","131936","549801","NA","Sternberg Task","58","71926","67","yes","1024"
"86.7647058824","86.7647058824","1072.27941176","1072.27941176","black","experiment","legacy","legacy","legacy","0","uniform","1","0","undefined","1","left","67","67","67","0","0","67","67","0","0","67","67","67","0","67","0","Sun Oct  7 16:48:22 2018","The main experiment item","yes","SternbergTask.osexp","/Volumes/USB20FD","no","mono","no","18","no","white","no","yes","768","legacy","55","11","/Volumes/USB20FD/subject-1 actual.csv","legacy","3 9 7 6 4","Kafkaesque Koffka","3.2.5","3","y","0","left","right","right","right","left","NA","989","2870","129562","25935","989","NA","2","legacy","5","1024","2","48000","-16","experiment","1","odd","7","554315","545831","552072","2351","253493","552084","550968","2368","227557","558187","553099","557197","131936","557197","NA","Sternberg Task","59","72915","68","yes","1024"
"85.5072463768","85.5072463768","1067.57971014","1067.57971014","black","experiment","legacy","legacy","legacy","0","uniform","0","1","undefined","0","left","68","68","68","0","0","68","68","0","0","68","68","68","0","68","0","Sun Oct  7 16:48:22 2018","The main experiment item","yes","SternbergTask.osexp","/Volumes/USB20FD","no","mono","no","18","no","white","no","yes","768","legacy","56","11","/Volumes/USB20FD/subject-1 actual.csv","legacy","4 7 6 8 2 3","Kafkaesque Koffka","3.2.5","6","y","0","right","left","right","right","right","NA","748","1257","129562","25935","748","NA","2","legacy","6","1024","2","48000","-16","experiment","1","odd","3","561552","558200","559312","2351","253493","559325","550968","2368","227557","563571","560335","562822","131936","562821","NA","Sternberg Task","59","73663","69","yes","1024"
"85.7142857143","85.7142857143","1062.05714286","1062.05714286","black","experiment","legacy","legacy","legacy","0","uniform","1","1","undefined","1","left","69","69","69","0","0","69","69","0","0","69","69","69","0","69","0","Sun Oct  7 16:48:22 2018","The main experiment item","yes","SternbergTask.osexp","/Volumes/USB20FD","no","mono","no","18","no","white","no","yes","768","legacy","57","11","/Volumes/USB20FD/subject-1 actual.csv","legacy","2 4 8 5 1 3","Kafkaesque Koffka","3.2.5","1","y","0","left","left","right","right","left","NA","681","249","129562","25935","681","NA","2","legacy","6","1024","2","48000","-16","experiment","1","odd","2","566927","558200","564687","2351","253493","564697","563584","2368","227557","567872","565711","567189","131936","567189","NA","Sternberg Task","60","74344","70","yes","1024"
"84.5070422535","84.5070422535","1061.26760563","1061.26760563","black","experiment","legacy","legacy","legacy","0","uniform","0","0","undefined","0","right","70","70","70","0","0","70","70","0","0","70","70","70","0","70","0","Sun Oct  7 16:48:22 2018","The main experiment item","yes","SternbergTask.osexp","/Volumes/USB20FD","no","mono","no","18","no","white","no","yes","768","legacy","58","11","/Volumes/USB20FD/subject-1 actual.csv","legacy","3 4 9 6 7 8","Kafkaesque Koffka","3.2.5","0","n","0","left","left","right","right","left","NA","1006","1272","129562","25935","1006","NA","2","legacy","6","1024","2","48000","-16","experiment","1","odd","2","571229","567890","568993","2351","253493","569003","563584","2368","227557","573522","570016","572514","131936","572514","NA","Sternberg Task","60","75350","71","yes","1024"
"84.7222222222","84.7222222222","1078.48611111","1078.48611111","black","experiment","legacy","legacy","legacy","0","uniform","1","1","undefined","1","left","71","71","71","0","0","71","71","0","0","71","71","71","0","71","0","Sun Oct  7 16:48:22 2018","The main experiment item","yes","SternbergTask.osexp","/Volumes/USB20FD","no","mono","no","18","no","white","no","yes","768","legacy","59","11","/Volumes/USB20FD/subject-1 actual.csv","legacy","6 5","Kafkaesque Koffka","3.2.5","2","y","0","left","left","right","right","left","NA","2301","1757","129562","25935","2301","NA","2","legacy","2","1024","2","48000","-16","experiment","1","odd","5","576887","567890","574641","2351","253493","574651","573535","2368","227557","580959","575668","578656","131936","578656","NA","Sternberg Task","61","77651","72","yes","1024"
"84.9315068493","84.9315068493","1074.12328767","1074.12328767","black","experiment","legacy","legacy","legacy","0","uniform","1","1","undefined","1","left","72","72","72","0","0","72","72","0","0","72","72","72","0","72","0","Sun Oct  7 16:48:22 2018","The main experiment item","yes","SternbergTask.osexp","/Volumes/USB20FD","no","mono","no","18","no","white","no","yes","768","legacy","60","11","/Volumes/USB20FD/subject-1 actual.csv","legacy","2 5 4 8 7","Kafkaesque Koffka","3.2.5","3","y","0","left","left","right","right","left","NA","760","816","129562","25935","760","NA","2","legacy","5","1024","2","48000","-16","experiment","1","odd","4","584311","580972","582075","2351","253493","582085","573535","2368","227557","585901","583100","585139","131936","585139","NA","Sternberg Task","62","78411","73","yes","1024"
"85.1351351351","85.1351351351","1068.10810811","1068.10810811","black","experiment","legacy","legacy","legacy","0","uniform","1","1","undefined","1","left","73","73","73","0","0","73","73","0","0","73","73","73","0","73","0","Sun Oct  7 16:48:22 2018","The main experiment item","yes","SternbergTask.osexp","/Volumes/USB20FD","no","mono","no","18","no","white","no","yes","768","legacy","61","11","/Volumes/USB20FD/subject-1 actual.csv","legacy","6 7 8 5","Kafkaesque Koffka","3.2.5","3","y","0","left","left","right","right","left","NA","629","866","129562","25935","629","NA","2","legacy","4","1024","2","48000","-16","experiment","1","odd","8","589265","585915","587019","2351","253493","587029","573535","2368","227557","590774","588046","590143","131936","590143","NA","Sternberg Task","63","79040","74","yes","1024"
"85.3333333333","85.3333333333","1069.89333333","1069.89333333","black","experiment","legacy","legacy","legacy","0","uniform","1","0","undefined","1","right","74","74","74","0","0","74","74","0","0","74","74","74","0","74","0","Sun Oct  7 16:48:22 2018","The main experiment item","yes","SternbergTask.osexp","/Volumes/USB20FD","no","mono","no","18","no","white","no","yes","768","legacy","62","11","/Volumes/USB20FD/subject-1 actual.csv","legacy","5 7 3","Kafkaesque Koffka","3.2.5","0","n","0","right","left","right","right","right","NA","1202","1958","129562","25935","1202","NA","2","legacy","3","1024","2","48000","-16","experiment","1","odd","9","594134","590790","591892","2351","253493","591902","573535","2368","227557","597309","592917","596105","131936","596104","NA","Sternberg Task","64","80242","75","yes","1024"
"85.5263157895","85.5263157895","1093.68421053","1093.68421053","black","experiment","legacy","legacy","legacy","0","uniform","1","0","undefined","1","right","75","75","75","0","0","75","75","0","0","75","75","75","0","75","0","Sun Oct  7 16:48:22 2018","The main experiment item","yes","SternbergTask.osexp","/Volumes/USB20FD","no","mono","no","18","no","white","no","yes","768","legacy","63","11","/Volumes/USB20FD/subject-1 actual.csv","legacy","9 7 4 5 8","Kafkaesque Koffka","3.2.5","0","n","0","right","left","right","right","right","NA","2878","1128","129562","25935","2878","NA","2","legacy","5","1024","2","48000","-16","experiment","1","odd","6","600677","597329","598434","2351","253493","598444","573535","2368","227557","604697","599459","601817","131936","601817","NA","Sternberg Task","65","83120","76","yes","1024"
"85.7142857143","85.7142857143","1096.62337662","1096.62337662","black","experiment","legacy","legacy","legacy","0","uniform","1","1","undefined","1","left","76","76","76","0","0","76","76","0","0","76","76","76","0","76","0","Sun Oct  7 16:48:22 2018","The main experiment item","yes","SternbergTask.osexp","/Volumes/USB20FD","no","mono","no","18","no","white","no","yes","768","legacy","64","11","/Volumes/USB20FD/subject-1 actual.csv","legacy","7 4 2 6 3 5","Kafkaesque Koffka","3.2.5","6","y","0","left","left","right","right","left","NA","1320","594","129562","25935","1320","NA","2","legacy","6","1024","2","48000","-16","experiment","1","odd","5","608052","604709","605814","2351","253493","605824","573535","2368","227557","609980","606837","608658","131936","608658","NA","Sternberg Task","66","84440","77","yes","1024"
"85.8974358974","85.8974358974","1095.75641026","1095.75641026","black","experiment","legacy","legacy","legacy","0","uniform","1","0","undefined","1","right","77","77","77","0","0","77","77","0","0","77","77","77","0","77","0","Sun Oct  7 16:48:22 2018","The main experiment item","yes","SternbergTask.osexp","/Volumes/USB20FD","no","mono","no","18","no","white","no","yes","768","legacy","65","11","/Volumes/USB20FD/subject-1 actual.csv","legacy","1 7 8 3 9","Kafkaesque Koffka","3.2.5","0","n","0","right","left","right","right","right","NA","1029","2128","129562","25935","1029","NA","2","legacy","5","1024","2","48000","-16","experiment","1","odd","2","613334","609993","611096","2351","253493","611106","573535","2368","227557","616505","612117","615474","131936","615474","NA","Sternberg Task","67","85469","78","yes","1024"
"86.0759493671","86.0759493671","1093.07594937","1093.07594937","black","experiment","legacy","legacy","legacy","0","uniform","1","1","undefined","1","left","78","78","78","0","0","78","78","0","0","78","78","78","0","78","0","Sun Oct  7 16:48:22 2018","The main experiment item","yes","SternbergTask.osexp","/Volumes/USB20FD","no","mono","no","18","no","white","no","yes","768","legacy","66","11","/Volumes/USB20FD/subject-1 actual.csv","legacy","8 7 3","Kafkaesque Koffka","3.2.5","1","y","0","left","left","right","right","left","NA","884","5699","129562","25935","884","NA","2","legacy","3","1024","2","48000","-16","experiment","1","odd","8","619862","616518","617623","2351","253493","617633","573535","2368","227557","626460","618646","625574","131936","625573","NA","Sternberg Task","68","86353","79","yes","1024"
"86.25","86.25","1093.0625","1093.0625","black","experiment","legacy","legacy","legacy","0","uniform","1","0","undefined","1","right","79","79","79","0","0","79","79","0","0","79","79","79","0","79","0","Sun Oct  7 16:48:22 2018","The main experiment item","yes","SternbergTask.osexp","/Volumes/USB20FD","no","mono","no","18","no","white","no","yes","768","legacy","67","11","/Volumes/USB20FD/subject-1 actual.csv","legacy","1","Kafkaesque Koffka","3.2.5","0","n","0","right","left","right","right","right","NA","1092","49","129562","25935","1092","NA","2","legacy","1","1024","2","48000","-16","experiment","1","odd","7","629820","626472","627577","2351","253493","627587","573535","2368","227557","630975","628603","629881","131936","629881","NA","Sternberg Task","69","87445","80","yes","1024"
"86.4197530864","86.4197530864","1090.60493827","1090.60493827","black","experiment","legacy","legacy","legacy","0","uniform","1","1","undefined","1","left","80","80","80","0","0","80","80","0","0","80","80","80","0","80","0","Sun Oct  7 16:48:22 2018","The main experiment item","yes","SternbergTask.osexp","/Volumes/USB20FD","no","mono","no","18","no","white","no","yes","768","legacy","68","11","/Volumes/USB20FD/subject-1 actual.csv","legacy","9 3 1 2 5","Kafkaesque Koffka","3.2.5","4","y","0","left","left","right","right","left","NA","894","1582","129562","25935","894","NA","2","legacy","5","1024","2","48000","-16","experiment","1","odd","2","634336","630990","632093","2351","253493","632103","573535","2368","227557","636826","633119","635930","131936","635930","NA","Sternberg Task","70","88339","81","yes","1024"
"86.5853658537","86.5853658537","1092.20731707","1092.20731707","black","experiment","legacy","legacy","legacy","0","uniform","1","1","undefined","1","left","81","81","81","0","0","81","81","0","0","81","81","81","0","81","0","Sun Oct  7 16:48:22 2018","The main experiment item","yes","SternbergTask.osexp","/Volumes/USB20FD","no","mono","no","18","no","white","no","yes","768","legacy","69","11","/Volumes/USB20FD/subject-1 actual.csv","legacy","2 4 6 9","Kafkaesque Koffka","3.2.5","3","y","0","left","left","right","right","left","NA","1222","2441","129562","25935","1222","NA","2","legacy","4","1024","2","48000","-16","experiment","1","odd","6","640197","636840","637950","2351","253493","637960","573535","2368","227557","643874","638978","642650","131936","642650","NA","Sternberg Task","71","89561","82","yes","1024"
"86.7469879518","86.7469879518","1111.19277108","1111.19277108","black","experiment","legacy","legacy","legacy","0","uniform","1","0","undefined","1","right","82","82","82","0","0","82","82","0","0","82","82","82","0","82","0","Sun Oct  7 16:48:22 2018","The main experiment item","yes","SternbergTask.osexp","/Volumes/USB20FD","no","mono","no","18","no","white","no","yes","768","legacy","70","11","/Volumes/USB20FD/subject-1 actual.csv","legacy","5 9 2 3","Kafkaesque Koffka","3.2.5","0","n","0","right","left","right","right","right","NA","2668","761","129562","25935","2668","NA","2","legacy","4","1024","2","48000","-16","experiment","1","odd","8","647235","643887","644996","2351","253493","645005","573535","2368","227557","650677","646019","648007","131936","648007","NA","Sternberg Task","72","92229","83","yes","1024"
"86.9047619048","86.9047619048","1110.69047619","1110.69047619","black","experiment","legacy","legacy","legacy","0","uniform","1","0","undefined","1","left","83","83","83","0","0","83","83","0","0","83","83","83","0","83","0","Sun Oct  7 16:48:22 2018","The main experiment item","yes","SternbergTask.osexp","/Volumes/USB20FD","no","mono","no","18","no","white","no","yes","768","legacy","71","11","/Volumes/USB20FD/subject-1 actual.csv","legacy","8 1 6","Kafkaesque Koffka","3.2.5","3","y","0","left","right","right","right","left","NA","1069","3616","129562","25935","1069","NA","2","legacy","3","1024","2","48000","-16","experiment","1","odd","6","654036","650690","651796","2351","253493","651806","573535","2368","227557","658735","652822","657664","131936","657664","NA","Sternberg Task","73","93298","84","yes","1024"
"87.0588235294","87.0588235294","1108.30588235","1108.30588235","black","experiment","legacy","legacy","legacy","0","uniform","1","0","undefined","1","right","84","84","84","0","0","84","84","0","0","84","84","84","0","84","0","Sun Oct  7 16:48:22 2018","The main experiment item","yes","SternbergTask.osexp","/Volumes/USB20FD","no","mono","no","18","no","white","no","yes","768","legacy","72","11","/Volumes/USB20FD/subject-1 actual.csv","legacy","1 3 2 6 9","Kafkaesque Koffka","3.2.5","0","n","0","right","left","right","right","right","NA","908","182","129562","25935","908","NA","2","legacy","5","1024","2","48000","-16","experiment","1","odd","5","662098","658751","659855","2351","253493","659865","573535","2368","227557","663202","660881","662292","131936","662292","NA","Sternberg Task","74","94206","85","yes","1024"
"87.2093023256","87.2093023256","1107.11627907","1107.11627907","black","experiment","legacy","legacy","legacy","0","uniform","1","0","undefined","1","right","85","85","85","0","0","85","85","0","0","85","85","85","0","85","0","Sun Oct  7 16:48:22 2018","The main experiment item","yes","SternbergTask.osexp","/Volumes/USB20FD","no","mono","no","18","no","white","no","yes","768","legacy","73","11","/Volumes/USB20FD/subject-1 actual.csv","legacy","7 1","Kafkaesque Koffka","3.2.5","0","n","0","right","left","right","right","right","NA","1006","2159","129562","25935","1006","NA","2","legacy","2","1024","2","48000","-16","experiment","1","odd","8","666570","663216","664329","2351","253493","664339","573535","2368","227557","669751","665352","668743","131936","668743","NA","Sternberg Task","75","95212","86","yes","1024"
"87.3563218391","87.3563218391","1101.1954023","1101.1954023","black","experiment","legacy","legacy","legacy","0","uniform","1","1","undefined","1","left","86","86","86","0","0","86","86","0","0","86","86","86","0","86","0","Sun Oct  7 16:48:22 2018","The main experiment item","yes","SternbergTask.osexp","/Volumes/USB20FD","no","mono","no","18","no","white","no","yes","768","legacy","74","11","/Volumes/USB20FD/subject-1 actual.csv","legacy","1 4 9 3 2 5","Kafkaesque Koffka","3.2.5","3","y","0","left","left","right","right","left","NA","592","2204","129562","25935","592","NA","2","legacy","6","1024","2","48000","-16","experiment","1","odd","9","673107","669764","670868","2351","253493","670878","573535","2368","227557","675918","671892","675323","131936","675323","NA","Sternberg Task","76","95804","87","yes","1024"
"87.5","87.5","1096.55681818","1096.55681818","black","experiment","legacy","legacy","legacy","0","uniform","1","0","undefined","1","right","87","87","87","0","0","87","87","0","0","87","87","87","0","87","0","Sun Oct  7 16:48:22 2018","The main experiment item","yes","SternbergTask.osexp","/Volumes/USB20FD","no","mono","no","18","no","white","no","yes","768","legacy","75","11","/Volumes/USB20FD/subject-1 actual.csv","legacy","6 8","Kafkaesque Koffka","3.2.5","0","n","0","right","left","right","right","right","NA","693","2893","129562","25935","693","NA","2","legacy","2","1024","2","48000","-16","experiment","1","odd","9","679273","675933","677036","2351","253493","677046","573535","2368","227557","682873","678057","682178","131936","682178","NA","Sternberg Task","77","96497","88","yes","1024"
"87.6404494382","87.6404494382","1091.97752809","1091.97752809","black","experiment","legacy","legacy","legacy","0","uniform","1","0","undefined","1","right","88","88","88","0","0","88","88","0","0","88","88","88","0","88","0","Sun Oct  7 16:48:22 2018","The main experiment item","yes","SternbergTask.osexp","/Volumes/USB20FD","no","mono","no","18","no","white","no","yes","768","legacy","76","11","/Volumes/USB20FD/subject-1 actual.csv","legacy","2 7 5","Kafkaesque Koffka","3.2.5","0","n","0","right","left","right","right","right","NA","689","513","129562","25935","689","NA","2","legacy","3","1024","2","48000","-16","experiment","1","odd","8","686228","682885","683991","2351","253493","684000","573535","2368","227557","687444","685013","686753","131936","686753","NA","Sternberg Task","78","97186","89","yes","1024"
"86.6666666667","86.6666666667","1090.9","1090.9","black","experiment","legacy","legacy","legacy","0","uniform","0","1","undefined","0","right","89","89","89","0","0","89","89","0","0","89","89","89","0","89","0","Sun Oct  7 16:48:22 2018","The main experiment item","yes","SternbergTask.osexp","/Volumes/USB20FD","no","mono","no","18","no","white","no","yes","768","legacy","77","11","/Volumes/USB20FD/subject-1 actual.csv","legacy","8 6 3 4 7","Kafkaesque Koffka","3.2.5","0","n","0","left","right","right","right","left","NA","995","490","129562","25935","995","NA","2","legacy","5","1024","2","48000","-16","experiment","1","odd","1","690797","687456","688561","2351","253493","688571","573535","2368","227557","692296","689584","691299","131936","691299","NA","Sternberg Task","78","98181","90","yes","1024"
"85.7142857143","85.7142857143","1090.03296703","1090.03296703","black","experiment","legacy","legacy","legacy","0","uniform","0","1","undefined","0","right","90","90","90","0","0","90","90","0","0","90","90","90","0","90","0","Sun Oct  7 16:48:22 2018","The main experiment item","yes","SternbergTask.osexp","/Volumes/USB20FD","no","mono","no","18","no","white","no","yes","768","legacy","78","11","/Volumes/USB20FD/subject-1 actual.csv","legacy","2 8 7 9 5 3","Kafkaesque Koffka","3.2.5","0","n","0","left","right","right","right","left","NA","1012","2697","129562","25935","1012","NA","2","legacy","6","1024","2","48000","-16","experiment","1","odd","6","695667","687456","693422","2351","253493","693432","692313","2368","227557","699393","694447","698379","131936","698379","NA","Sternberg Task","78","99193","91","yes","1024"
"85.8695652174","85.8695652174","1089.4673913","1089.4673913","black","experiment","legacy","legacy","legacy","0","uniform","1","0","undefined","1","left","91","91","91","0","0","91","91","0","0","91","91","91","0","91","0","Sun Oct  7 16:48:22 2018","The main experiment item","yes","SternbergTask.osexp","/Volumes/USB20FD","no","mono","no","18","no","white","no","yes","768","legacy","79","11","/Volumes/USB20FD/subject-1 actual.csv","legacy","8","Kafkaesque Koffka","3.2.5","1","y","0","left","right","right","right","left","NA","1038","922","129562","25935","1038","NA","2","legacy","1","1024","2","48000","-16","experiment","1","odd","8","702751","687456","700510","2351","253493","700522","699406","2368","227557","704725","701536","703685","131936","703685","NA","Sternberg Task","79","100231","92","yes","1024"
"86.0215053763","86.0215053763","1092.29032258","1092.29032258","black","experiment","legacy","legacy","legacy","0","uniform","1","0","undefined","1","right","92","92","92","0","0","92","92","0","0","92","92","92","0","92","0","Sun Oct  7 16:48:22 2018","The main experiment item","yes","SternbergTask.osexp","/Volumes/USB20FD","no","mono","no","18","no","white","no","yes","768","legacy","80","11","/Volumes/USB20FD/subject-1 actual.csv","legacy","7 1 5 6 3","Kafkaesque Koffka","3.2.5","0","n","0","right","left","right","right","right","NA","1352","1571","129562","25935","1352","NA","2","legacy","5","1024","2","48000","-16","experiment","1","odd","8","708088","704737","705845","2351","253493","705855","699406","2368","227557","711026","706871","709672","131936","709672","NA","Sternberg Task","80","101583","93","yes","1024"
"86.170212766","86.170212766","1090.37234043","1090.37234043","black","experiment","legacy","legacy","legacy","0","uniform","1","0","undefined","1","right","93","93","93","0","0","93","93","0","0","93","93","93","0","93","0","Sun Oct  7 16:48:22 2018","The main experiment item","yes","SternbergTask.osexp","/Volumes/USB20FD","no","mono","no","18","no","white","no","yes","768","legacy","81","11","/Volumes/USB20FD/subject-1 actual.csv","legacy","3 9 8 1 6 4","Kafkaesque Koffka","3.2.5","0","n","0","right","left","right","right","right","NA","912","934","129562","25935","912","NA","2","legacy","6","1024","2","48000","-16","experiment","1","odd","7","714378","711039","712141","2351","253493","712151","699406","2368","227557","716241","713164","715327","131936","715327","NA","Sternberg Task","81","102495","94","yes","1024"
"86.3157894737","86.3157894737","1088.96842105","1088.96842105","black","experiment","legacy","legacy","legacy","0","uniform","1","1","undefined","1","left","94","94","94","0","0","94","94","0","0","94","94","94","0","94","0","Sun Oct  7 16:48:22 2018","The main experiment item","yes","SternbergTask.osexp","/Volumes/USB20FD","no","mono","no","18","no","white","no","yes","768","legacy","82","11","/Volumes/USB20FD/subject-1 actual.csv","legacy","7 2 3","Kafkaesque Koffka","3.2.5","3","y","0","left","left","right","right","left","NA","957","1182","129562","25935","957","NA","2","legacy","3","1024","2","48000","-16","experiment","1","odd","3","719595","716256","717355","2351","253493","717365","699406","2368","227557","721748","718378","720789","131936","720789","NA","Sternberg Task","82","103452","95","yes","1024"
"86.4583333333","86.4583333333","1086.4375","1086.4375","black","experiment","legacy","legacy","legacy","0","uniform","1","0","undefined","1","right","95","95","95","0","0","95","95","0","0","95","95","95","0","95","0","Sun Oct  7 16:48:22 2018","The main experiment item","yes","SternbergTask.osexp","/Volumes/USB20FD","no","mono","no","18","no","white","no","yes","768","legacy","83","11","/Volumes/USB20FD/subject-1 actual.csv","legacy","8 4 3 5","Kafkaesque Koffka","3.2.5","0","n","0","right","left","right","right","right","NA","846","830","129562","25935","846","NA","2","legacy","4","1024","2","48000","-16","experiment","1","odd","6","725113","721766","722871","2351","253493","722883","699406","2368","227557","726804","723897","725956","131936","725956","NA","Sternberg Task","83","104298","96","yes","1024"
"86.5979381443","86.5979381443","1089.09278351","1089.09278351","black","experiment","legacy","legacy","legacy","0","uniform","1","1","undefined","1","left","96","96","96","0","0","96","96","0","0","96","96","96","0","96","0","Sun Oct  7 16:48:22 2018","The main experiment item","yes","SternbergTask.osexp","/Volumes/USB20FD","no","mono","no","18","no","white","no","yes","768","legacy","84","11","/Volumes/USB20FD/subject-1 actual.csv","legacy","5 7 3 6 2","Kafkaesque Koffka","3.2.5","5","y","0","left","left","right","right","left","NA","1344","740","129562","25935","1344","NA","2","legacy","5","1024","2","48000","-16","experiment","1","odd","2","730158","726817","727921","2351","253493","727931","699406","2368","227557","732256","728941","730910","131936","730910","NA","Sternberg Task","84","105642","97","yes","1024"
"86.7346938776","86.7346938776","1088.83673469","1088.83673469","black","experiment","legacy","legacy","legacy","0","uniform","1","0","undefined","1","right","97","97","97","0","0","97","97","0","0","97","97","97","0","97","0","Sun Oct  7 16:48:22 2018","The main experiment item","yes","SternbergTask.osexp","/Volumes/USB20FD","no","mono","no","18","no","white","no","yes","768","legacy","85","11","/Volumes/USB20FD/subject-1 actual.csv","legacy","4 1","Kafkaesque Koffka","3.2.5","0","n","0","right","left","right","right","right","NA","1064","2641","129562","25935","1064","NA","2","legacy","2","1024","2","48000","-16","experiment","1","odd","6","735617","732268","733371","2351","253493","733381","699406","2368","227557","739336","734397","738270","131936","738270","NA","Sternberg Task","85","106706","98","yes","1024"
"86.8686868687","86.8686868687","1083.33333333","1083.33333333","black","experiment","legacy","legacy","legacy","0","uniform","1","1","undefined","1","left","98","98","98","0","0","98","98","0","0","98","98","98","0","98","0","Sun Oct  7 16:48:22 2018","The main experiment item","yes","SternbergTask.osexp","/Volumes/USB20FD","no","mono","no","18","no","white","no","yes","768","legacy","86","11","/Volumes/USB20FD/subject-1 actual.csv","legacy","3 5 9 6 2 4","Kafkaesque Koffka","3.2.5","1","y","0","left","left","right","right","left","NA","544","1336","129562","25935","544","NA","2","legacy","6","1024","2","48000","-16","experiment","1","odd","3","742699","739349","740459","2351","253493","740469","699406","2368","227557","744596","741482","744049","131936","744049","NA","Sternberg Task","86","107250","99","yes","1024"
"87","87","1078.3","1078.3","black","experiment","legacy","legacy","legacy","0","uniform","1","1","undefined","1","left","99","99","99","0","0","99","99","0","0","99","99","99","0","99","0","Sun Oct  7 16:48:22 2018","The main experiment item","yes","SternbergTask.osexp","/Volumes/USB20FD","no","mono","no","18","no","white","no","yes","768","legacy","87","11","/Volumes/USB20FD/subject-1 actual.csv","legacy","3 5 4 7","Kafkaesque Koffka","3.2.5","1","y","0","left","left","right","right","left","NA","580","654","129562","25935","580","NA","2","legacy","4","1024","2","48000","-16","experiment","1","odd","3","747950","744608","745710","2351","253493","745720","699406","2368","227557","749198","746734","748616","131936","748616","NA","Sternberg Task","87","107830","100","yes","1024"
"87.1287128713","87.1287128713","1074.23762376","1074.23762376","black","experiment","legacy","legacy","legacy","0","uniform","1","0","undefined","1","left","100","100","100","0","0","100","100","0","0","100","100","100","0","100","0","Sun Oct  7 16:48:22 2018","The main experiment item","yes","SternbergTask.osexp","/Volumes/USB20FD","no","mono","no","18","no","white","no","yes","768","legacy","88","11","/Volumes/USB20FD/subject-1 actual.csv","legacy","6 2","Kafkaesque Koffka","3.2.5","1","y","0","left","right","right","right","left","NA","668","1523","129562","25935","668","NA","2","legacy","2","1024","2","48000","-16","experiment","1","odd","6","752556","749213","750315","2351","253493","750325","699406","2368","227557","754762","751339","754091","131936","754091","NA","Sternberg Task","88","108498","101","yes","1024"
"87.2549019608","87.2549019608","1071.96078431","1071.96078431","black","experiment","legacy","legacy","legacy","0","uniform","1","1","undefined","1","left","101","101","101","0","0","101","101","0","0","101","101","101","0","101","0","Sun Oct  7 16:48:22 2018","The main experiment item","yes","SternbergTask.osexp","/Volumes/USB20FD","no","mono","no","18","no","white","no","yes","768","legacy","89","11","/Volumes/USB20FD/subject-1 actual.csv","legacy","5 2 6","Kafkaesque Koffka","3.2.5","2","y","0","left","left","right","right","left","NA","842","540","129562","25935","842","NA","2","legacy","3","1024","2","48000","-16","experiment","1","odd","2","758123","754775","755884","2351","253493","755895","699406","2368","227557","759521","756907","758676","131936","758675","NA","Sternberg Task","89","109340","102","yes","1024"
"87.3786407767","87.3786407767","1067.89320388","1067.89320388","black","experiment","legacy","legacy","legacy","0","uniform","1","1","undefined","1","left","102","102","102","0","0","102","102","0","0","102","102","102","0","102","0","Sun Oct  7 16:48:22 2018","The main experiment item","yes","SternbergTask.osexp","/Volumes/USB20FD","no","mono","no","18","no","white","no","yes","768","legacy","90","11","/Volumes/USB20FD/subject-1 actual.csv","legacy","8 9 5 6 7","Kafkaesque Koffka","3.2.5","1","y","0","left","left","right","right","left","NA","653","974","129562","25935","653","NA","2","legacy","5","1024","2","48000","-16","experiment","1","odd","8","762880","759535","760638","2351","253493","760648","699406","2368","227557","764522","761662","763867","131936","763867","NA","Sternberg Task","90","109993","103","yes","1024"
"87.5","87.5","1066.25","1066.25","black","experiment","legacy","legacy","legacy","0","uniform","1","0","undefined","1","right","103","103","103","0","0","103","103","0","0","103","103","103","0","103","0","Sun Oct  7 16:48:22 2018","The main experiment item","yes","SternbergTask.osexp","/Volumes/USB20FD","no","mono","no","18","no","white","no","yes","768","legacy","91","11","/Volumes/USB20FD/subject-1 actual.csv","legacy","6 8 4","Kafkaesque Koffka","3.2.5","0","n","0","right","left","right","right","right","NA","897","2050","129562","25935","897","NA","2","legacy","3","1024","2","48000","-16","experiment","1","odd","1","767883","764535","765645","2351","253493","765657","699406","2368","227557","770846","766671","769946","131936","769945","NA","Sternberg Task","91","110890","104","yes","1024"
"87.619047619","87.619047619","1064.6","1064.6","black","experiment","legacy","legacy","legacy","0","uniform","1","0","undefined","1","right","104","104","104","0","0","104","104","0","0","104","104","104","0","104","0","Sun Oct  7 16:48:22 2018","The main experiment item","yes","SternbergTask.osexp","/Volumes/USB20FD","no","mono","no","18","no","white","no","yes","768","legacy","92","11","/Volumes/USB20FD/subject-1 actual.csv","legacy","1 4 3 6 5","Kafkaesque Koffka","3.2.5","0","n","0","right","left","right","right","right","NA","893","687","129562","25935","893","NA","2","legacy","5","1024","2","48000","-16","experiment","1","odd","8","774203","770860","771965","2351","253493","771975","699406","2368","227557","775799","772988","774903","131936","774903","NA","Sternberg Task","92","111783","105","yes","1024"
"87.7358490566","87.7358490566","1066.5754717","1066.5754717","black","experiment","legacy","legacy","legacy","0","uniform","1","1","undefined","1","left","105","105","105","0","0","105","105","0","0","105","105","105","0","105","0","Sun Oct  7 16:48:22 2018","The main experiment item","yes","SternbergTask.osexp","/Volumes/USB20FD","no","mono","no","18","no","white","no","yes","768","legacy","93","11","/Volumes/USB20FD/subject-1 actual.csv","legacy","4 9 7 8 5 3","Kafkaesque Koffka","3.2.5","4","y","0","left","left","right","right","left","NA","1274","541","129562","25935","1274","NA","2","legacy","6","1024","2","48000","-16","experiment","1","odd","8","779157","775813","776916","2351","253493","776926","699406","2368","227557","780986","777940","779710","131936","779710","NA","Sternberg Task","93","113057","106","yes","1024"
"87.8504672897","87.8504672897","1065.14953271","1065.14953271","black","experiment","legacy","legacy","legacy","0","uniform","1","0","undefined","1","right","106","106","106","0","0","106","106","0","0","106","106","106","0","106","0","Sun Oct  7 16:48:22 2018","The main experiment item","yes","SternbergTask.osexp","/Volumes/USB20FD","no","mono","no","18","no","white","no","yes","768","legacy","94","11","/Volumes/USB20FD/subject-1 actual.csv","legacy","5 3 8 7 2 4","Kafkaesque Koffka","3.2.5","0","n","0","right","left","right","right","right","NA","914","515","129562","25935","914","NA","2","legacy","6","1024","2","48000","-16","experiment","1","odd","9","784347","780999","782106","2351","253493","782119","699406","2368","227557","785790","783132","784874","131936","784874","NA","Sternberg Task","94","113971","107","yes","1024"
"87.037037037","87.037037037","1101.98148148","1101.98148148","black","experiment","legacy","legacy","legacy","0","uniform","0","0","undefined","0","right","107","107","107","0","0","107","107","0","0","107","107","107","0","107","0","Sun Oct  7 16:48:22 2018","The main experiment item","yes","SternbergTask.osexp","/Volumes/USB20FD","no","mono","no","18","no","white","no","yes","768","legacy","95","11","/Volumes/USB20FD/subject-1 actual.csv","legacy","6 9 4 5 3 2","Kafkaesque Koffka","3.2.5","0","n","0","left","left","right","right","left","NA","5043","1101","129562","25935","5043","NA","2","legacy","6","1024","2","48000","-16","experiment","1","odd","8","789153","785804","786912","2351","253493","786922","699406","2368","227557","795311","787937","790266","131936","790266","NA","Sternberg Task","94","119014","108","yes","1024"
"87.1559633028","87.1559633028","1106.21100917","1106.21100917","black","experiment","legacy","legacy","legacy","0","uniform","1","0","undefined","1","left","108","108","108","0","0","108","108","0","0","108","108","108","0","108","0","Sun Oct  7 16:48:22 2018","The main experiment item","yes","SternbergTask.osexp","/Volumes/USB20FD","no","mono","no","18","no","white","no","yes","768","legacy","96","11","/Volumes/USB20FD/subject-1 actual.csv","legacy","6 9 3 1","Kafkaesque Koffka","3.2.5","4","y","0","left","right","right","right","left","NA","1563","2718","129562","25935","1563","NA","2","legacy","4","1024","2","48000","-16","experiment","1","odd","1","799208","785804","796965","2351","253493","796975","795858","2368","227557","803503","797991","801938","131936","801938","NA","Sternberg Task","95","120577","109","yes","1024"
"87.2727272727","87.2727272727","1105.80909091","1105.80909091","black","experiment","legacy","legacy","legacy","0","uniform","1","0","undefined","1","left","109","109","109","0","0","109","109","0","0","109","109","109","0","109","0","Sun Oct  7 16:48:22 2018","The main experiment item","yes","SternbergTask.osexp","/Volumes/USB20FD","no","mono","no","18","no","white","no","yes","768","legacy","97","11","/Volumes/USB20FD/subject-1 actual.csv","legacy","7","Kafkaesque Koffka","3.2.5","1","y","0","left","right","right","right","left","NA","1062","874","129562","25935","1062","NA","2","legacy","1","1024","2","48000","-16","experiment","1","odd","7","806862","803520","804623","2351","253493","804633","795858","2368","227557","808814","805646","807749","131936","807749","NA","Sternberg Task","96","121639","110","yes","1024"
"87.3873873874","87.3873873874","1111.44144144","1111.44144144","black","experiment","legacy","legacy","legacy","0","uniform","1","1","undefined","1","left","110","110","110","0","0","110","110","0","0","110","110","110","0","110","0","Sun Oct  7 16:48:22 2018","The main experiment item","yes","SternbergTask.osexp","/Volumes/USB20FD","no","mono","no","18","no","white","no","yes","768","legacy","98","11","/Volumes/USB20FD/subject-1 actual.csv","legacy","4 1 5","Kafkaesque Koffka","3.2.5","2","y","0","left","left","right","right","left","NA","1731","4461","129562","25935","1731","NA","2","legacy","3","1024","2","48000","-16","experiment","1","odd","1","812179","808832","809940","2351","253493","809950","795858","2368","227557","818386","810963","816653","131936","816653","NA","Sternberg Task","97","123370","111","yes","1024"
"87.5","87.5","1106.75","1106.75","black","experiment","legacy","legacy","legacy","0","uniform","1","1","undefined","1","left","111","111","111","0","0","111","111","0","0","111","111","111","0","111","0","Sun Oct  7 16:48:22 2018","The main experiment item","yes","SternbergTask.osexp","/Volumes/USB20FD","no","mono","no","18","no","white","no","yes","768","legacy","99","11","/Volumes/USB20FD/subject-1 actual.csv","legacy","3 4 9 6 2 9","Kafkaesque Koffka","3.2.5","5","y","0","left","left","right","right","left","NA","586","1445","129562","25935","586","NA","2","legacy","6","1024","2","48000","-16","experiment","1","odd","2","821746","818399","819506","2351","253493","819517","795858","2368","227557","823792","820530","823203","131936","823203","NA","Sternberg Task","98","123956","112","yes","1024"
"87.610619469","87.610619469","1104.66371681","1104.66371681","black","experiment","legacy","legacy","legacy","0","uniform","1","0","undefined","1","right","112","112","112","0","0","112","112","0","0","112","112","112","0","112","0","Sun Oct  7 16:48:22 2018","The main experiment item","yes","SternbergTask.osexp","/Volumes/USB20FD","no","mono","no","18","no","white","no","yes","768","legacy","100","11","/Volumes/USB20FD/subject-1 actual.csv","legacy","7 8 6 1","Kafkaesque Koffka","3.2.5","0","n","0","right","left","right","right","right","NA","871","869","129562","25935","871","NA","2","legacy","4","1024","2","48000","-16","experiment","1","odd","3","827144","823804","824906","2351","253493","824916","795858","2368","227557","828899","825929","828026","131936","828025","NA","Sternberg Task","99","124827","113","yes","1024"
"87.7192982456","87.7192982456","1101.79824561","1101.79824561","black","experiment","legacy","legacy","legacy","0","uniform","1","0","undefined","1","right","113","113","113","0","0","113","113","0","0","113","113","113","0","113","0","Sun Oct  7 16:48:22 2018","The main experiment item","yes","SternbergTask.osexp","/Volumes/USB20FD","no","mono","no","18","no","white","no","yes","768","legacy","101","11","/Volumes/USB20FD/subject-1 actual.csv","legacy","5","Kafkaesque Koffka","3.2.5","0","n","0","right","left","right","right","right","NA","778","2098","129562","25935","778","NA","2","legacy","1","1024","2","48000","-16","experiment","1","odd","8","832263","828912","830018","2351","253493","830028","795858","2368","227557","835153","831045","834373","131936","834373","NA","Sternberg Task","100","125605","114","yes","1024"
"87.8260869565","87.8260869565","1099.19130435","1099.19130435","black","experiment","legacy","legacy","legacy","0","uniform","1","1","undefined","1","left","114","114","114","0","0","114","114","0","0","114","114","114","0","114","0","Sun Oct  7 16:48:22 2018","The main experiment item","yes","SternbergTask.osexp","/Volumes/USB20FD","no","mono","no","18","no","white","no","yes","768","legacy","102","11","/Volumes/USB20FD/subject-1 actual.csv","legacy","6 7 9 3 1 2","Kafkaesque Koffka","3.2.5","1","y","0","left","left","right","right","left","NA","802","773","129562","25935","802","NA","2","legacy","6","1024","2","48000","-16","experiment","1","odd","6","838521","835167","836274","2351","253493","836287","795858","2368","227557","840110","837303","839306","131936","839306","NA","Sternberg Task","101","126407","115","yes","1024"
"87.9310344828","87.9310344828","1103.4137931","1103.4137931","black","experiment","legacy","legacy","legacy","0","uniform","1","1","undefined","1","left","115","115","115","0","0","115","115","0","0","115","115","115","0","115","0","Sun Oct  7 16:48:22 2018","The main experiment item","yes","SternbergTask.osexp","/Volumes/USB20FD","no","mono","no","18","no","white","no","yes","768","legacy","103","11","/Volumes/USB20FD/subject-1 actual.csv","legacy","4 1 8 7 5","Kafkaesque Koffka","3.2.5","3","y","0","left","left","right","right","left","NA","1589","2217","129562","25935","1589","NA","2","legacy","5","1024","2","48000","-16","experiment","1","odd","8","843472","840128","841235","2351","253493","841244","795858","2368","227557","847293","842261","845702","131936","845702","NA","Sternberg Task","102","127996","116","yes","1024"
"88.0341880342","88.0341880342","1101.52991453","1101.52991453","black","experiment","legacy","legacy","legacy","0","uniform","1","0","undefined","1","right","116","116","116","0","0","116","116","0","0","116","116","116","0","116","0","Sun Oct  7 16:48:22 2018","The main experiment item","yes","SternbergTask.osexp","/Volumes/USB20FD","no","mono","no","18","no","white","no","yes","768","legacy","104","11","/Volumes/USB20FD/subject-1 actual.csv","legacy","2 8 6 3 1","Kafkaesque Koffka","3.2.5","0","n","0","right","left","right","right","right","NA","883","776","129562","25935","883","NA","2","legacy","5","1024","2","48000","-16","experiment","1","odd","7","850646","847306","848407","2351","253493","848417","795858","2368","227557","852319","849430","851434","131936","851434","NA","Sternberg Task","103","128879","117","yes","1024"
"88.1355932203","88.1355932203","1100.30508475","1100.30508475","black","experiment","legacy","legacy","legacy","0","uniform","1","0","undefined","1","right","117","117","117","0","0","117","117","0","0","117","117","117","0","117","0","Sun Oct  7 16:48:22 2018","The main experiment item","yes","SternbergTask.osexp","/Volumes/USB20FD","no","mono","no","18","no","white","no","yes","768","legacy","105","11","/Volumes/USB20FD/subject-1 actual.csv","legacy","6 9 5","Kafkaesque Koffka","3.2.5","0","n","0","right","left","right","right","right","NA","957","760","129562","25935","957","NA","2","legacy","3","1024","2","48000","-16","experiment","1","odd","8","855683","852331","853438","2351","253493","853448","795858","2368","227557","857415","854464","856456","131936","856455","NA","Sternberg Task","104","129836","118","yes","1024"
"87.3949579832","87.3949579832","1099.8907563","1099.8907563","black","experiment","legacy","legacy","legacy","0","uniform","0","0","undefined","0","right","118","118","118","0","0","118","118","0","0","118","118","118","0","118","0","Sun Oct  7 16:48:22 2018","The main experiment item","yes","SternbergTask.osexp","/Volumes/USB20FD","no","mono","no","18","no","white","no","yes","768","legacy","106","11","/Volumes/USB20FD/subject-1 actual.csv","legacy","5 3 2 6 9 8","Kafkaesque Koffka","3.2.5","0","n","0","left","left","right","right","left","NA","1051","1775","129562","25935","1051","NA","2","legacy","6","1024","2","48000","-16","experiment","1","odd","4","860769","857427","858530","2351","253493","858540","795858","2368","227557","863609","859553","862556","131936","862556","NA","Sternberg Task","104","130887","119","yes","1024"
