"acc","accuracy","average_response_time","avg_rt","background","block","canvas_backend","clock_backend","color_backend","compensation","coordinates","correct","correct_instructions1","correct_keyboard_response","correct_response","count_ISI","count_correctFeedback","count_expSequence","count_experiment","count_experimentLoop","count_fixation","count_incorrectFeedback","count_instructions1","count_instructions2","count_keyboard_response","count_logger","count_memorySet","count_practiceLoop","count_probe","count_thankYou","datetime","description","disable_garbage_collection","experiment_file","experiment_path","font_bold","font_family","font_italic","font_size","font_underline","foreground","form_clicks","fullscreen","height","keyboard_backend","live_row","live_row_practiceLoop","logfile","mouse_backend","numberSet","opensesame_codename","opensesame_version","posInSet","present","repeat_cycle","response","response_instructions1","response_instructions2","response_keyboard_response","response_thankYou","response_time","response_time_instructions1","response_time_instructions2","response_time_keyboard_response","response_time_thankYou","round_decimals","sampler_backend","setSize","sound_buf_size","sound_channels","sound_freq","sound_sample_size","start","subject_nr","subject_parity","target","time_ISI","time_correctFeedback","time_expSequence","time_experiment","time_experimentLoop","time_fixation","time_incorrectFeedback","time_instructions1","time_instructions2","time_keyboard_response","time_logger","time_memorySet","time_practiceLoop","time_probe","time_thankYou","title","total_correct","total_response_time","total_responses","uniform_coordinates","width"
"0","0","2000","2000","black","practice","legacy","legacy","legacy","0","uniform","0","undefined","0","left","0","0","0","0","0","0","0","0","0","0","0","0","0","0","0","Mon Oct  1 12:51:01 2018","The main experiment item","yes","SternbergTask.osexp","/Users/emorgan/Desktop","no","mono","no","18","no","white","no","yes","768","legacy","0","0","/Users/emorgan/Desktop/EM subject-2, f, 23.csv","legacy","6","Kafkaesque Koffka","3.2.5","1","y","0","None","right","NA","None","NA","2000","30035","NA","2000","NA","2","legacy","1","1024","2","48000","-16","experiment","2","even","6","45214","NA","42981","12101","NA","42993","NA","12124","NA","47225","49225","44002","42176","47225","NA","Sternberg Task","0","2000","1","yes","1024"
"50","50","1704.5","1704.5","black","practice","legacy","legacy","legacy","0","uniform","1","undefined","1","left","1","1","1","0","0","1","1","0","0","1","1","1","0","1","0","Mon Oct  1 12:51:01 2018","The main experiment item","yes","SternbergTask.osexp","/Users/emorgan/Desktop","no","mono","no","18","no","white","no","yes","768","legacy","1","1","/Users/emorgan/Desktop/EM subject-2, f, 23.csv","legacy","2 9 4","Kafkaesque Koffka","3.2.5","3","y","0","left","right","NA","left","NA","1409","30035","NA","1409","NA","2","legacy","3","1024","2","48000","-16","experiment","2","even","4","52667","NA","50433","12101","NA","50444","49345","12124","NA","54678","56088","51455","42176","54677","NA","Sternberg Task","1","3409","2","yes","1024"
"66.6666666667","66.6666666667","1345.66666667","1345.66666667","black","practice","legacy","legacy","legacy","0","uniform","1","undefined","1","right","2","2","2","0","0","2","2","0","0","2","2","2","0","2","0","Mon Oct  1 12:51:01 2018","The main experiment item","yes","SternbergTask.osexp","/Users/emorgan/Desktop","no","mono","no","18","no","white","no","yes","768","legacy","2","2","/Users/emorgan/Desktop/EM subject-2, f, 23.csv","legacy","4 1 5","Kafkaesque Koffka","3.2.5","0","n","0","right","right","NA","right","NA","628","30035","NA","628","NA","2","legacy","3","1024","2","48000","-16","experiment","2","even","2","59410","56100","57178","12101","NA","57188","49345","12124","NA","61421","62050","58199","42176","61421","NA","Sternberg Task","2","4037","3","yes","1024"
"75","75","1206.5","1206.5","black","practice","legacy","legacy","legacy","0","uniform","1","undefined","1","left","3","3","3","0","0","3","3","0","0","3","3","3","0","3","0","Mon Oct  1 12:51:01 2018","The main experiment item","yes","SternbergTask.osexp","/Users/emorgan/Desktop","no","mono","no","18","no","white","no","yes","768","legacy","3","3","/Users/emorgan/Desktop/EM subject-2, f, 23.csv","legacy","1 7 9 8 5","Kafkaesque Koffka","3.2.5","4","y","0","left","right","NA","left","NA","789","30035","NA","789","NA","2","legacy","5","1024","2","48000","-16","experiment","2","even","8","65381","62068","63147","12101","NA","63160","49345","12124","NA","67392","68182","64171","42176","67392","NA","Sternberg Task","3","4826","4","yes","1024"
"80","80","1076.4","1076.4","black","practice","legacy","legacy","legacy","0","uniform","1","undefined","1","left","4","4","4","0","0","4","4","0","0","4","4","4","0","4","0","Mon Oct  1 12:51:01 2018","The main experiment item","yes","SternbergTask.osexp","/Users/emorgan/Desktop","no","mono","no","18","no","white","no","yes","768","legacy","4","4","/Users/emorgan/Desktop/EM subject-2, f, 23.csv","legacy","4 8","Kafkaesque Koffka","3.2.5","1","y","0","left","right","NA","left","NA","556","30035","NA","556","NA","2","legacy","2","1024","2","48000","-16","experiment","2","even","4","71509","68198","69276","12101","NA","69288","49345","12124","NA","73520","74077","70299","42176","73519","NA","Sternberg Task","4","5382","5","yes","1024"
"83.3333333333","83.3333333333","1024.16666667","1024.16666667","black","practice","legacy","legacy","legacy","0","uniform","1","undefined","1","right","5","5","5","0","0","5","5","0","0","5","5","5","0","5","0","Mon Oct  1 12:51:01 2018","The main experiment item","yes","SternbergTask.osexp","/Users/emorgan/Desktop","no","mono","no","18","no","white","no","yes","768","legacy","5","5","/Users/emorgan/Desktop/EM subject-2, f, 23.csv","legacy","3 1 9 4","Kafkaesque Koffka","3.2.5","0","n","0","right","right","NA","right","NA","763","30035","NA","763","NA","2","legacy","4","1024","2","48000","-16","experiment","2","even","6","77399","74089","75167","12101","NA","75177","49345","12124","NA","79410","80174","76188","42176","79409","NA","Sternberg Task","5","6145","6","yes","1024"
"85.7142857143","85.7142857143","995.285714286","995.285714286","black","practice","legacy","legacy","legacy","0","uniform","1","undefined","1","right","6","6","6","0","0","6","6","0","0","6","6","6","0","6","0","Mon Oct  1 12:51:01 2018","The main experiment item","yes","SternbergTask.osexp","/Users/emorgan/Desktop","no","mono","no","18","no","white","no","yes","768","legacy","6","6","/Users/emorgan/Desktop/EM subject-2, f, 23.csv","legacy","9 6 7 4 5","Kafkaesque Koffka","3.2.5","0","n","0","right","right","NA","right","NA","822","30035","NA","822","NA","2","legacy","5","1024","2","48000","-16","experiment","2","even","3","83505","80192","81273","12101","NA","81284","49345","12124","NA","85516","86339","82294","42176","85516","NA","Sternberg Task","6","6967","7","yes","1024"
"87.5","87.5","943.75","943.75","black","practice","legacy","legacy","legacy","0","uniform","1","undefined","1","right","7","7","7","0","0","7","7","0","0","7","7","7","0","7","0","Mon Oct  1 12:51:01 2018","The main experiment item","yes","SternbergTask.osexp","/Users/emorgan/Desktop","no","mono","no","18","no","white","no","yes","768","legacy","7","7","/Users/emorgan/Desktop/EM subject-2, f, 23.csv","legacy","2 1","Kafkaesque Koffka","3.2.5","0","n","0","right","right","NA","right","NA","583","30035","NA","583","NA","2","legacy","2","1024","2","48000","-16","experiment","2","even","5","89661","86352","87429","12101","NA","87440","49345","12124","NA","91673","92257","88451","42176","91672","NA","Sternberg Task","7","7550","8","yes","1024"
"88.8888888889","88.8888888889","938.666666667","938.666666667","black","practice","legacy","legacy","legacy","0","uniform","1","undefined","1","left","8","8","8","0","0","8","8","0","0","8","8","8","0","8","0","Mon Oct  1 12:51:01 2018","The main experiment item","yes","SternbergTask.osexp","/Users/emorgan/Desktop","no","mono","no","18","no","white","no","yes","768","legacy","8","8","/Users/emorgan/Desktop/EM subject-2, f, 23.csv","legacy","1 5 2 9","Kafkaesque Koffka","3.2.5","2","y","0","left","right","NA","left","NA","898","30035","NA","898","NA","2","legacy","4","1024","2","48000","-16","experiment","2","even","5","95602","92281","93370","12101","NA","93382","49345","12124","NA","97613","98512","94392","42176","97613","NA","Sternberg Task","8","8448","9","yes","1024"
"90","90","929.9","929.9","black","practice","legacy","legacy","legacy","0","uniform","1","undefined","1","right","9","9","9","0","0","9","9","0","0","9","9","9","0","9","0","Mon Oct  1 12:51:01 2018","The main experiment item","yes","SternbergTask.osexp","/Users/emorgan/Desktop","no","mono","no","18","no","white","no","yes","768","legacy","9","9","/Users/emorgan/Desktop/EM subject-2, f, 23.csv","legacy","5","Kafkaesque Koffka","3.2.5","0","n","0","right","right","NA","right","NA","851","30035","NA","851","NA","2","legacy","1","1024","2","48000","-16","experiment","2","even","3","101848","98537","99616","12101","NA","99627","49345","12124","NA","103859","104711","100637","42176","103859","NA","Sternberg Task","9","9299","10","yes","1024"
"90.9090909091","90.9090909091","910.818181818","910.818181818","black","practice","legacy","legacy","legacy","0","uniform","1","undefined","1","right","10","10","10","0","0","10","10","0","0","10","10","10","0","10","0","Mon Oct  1 12:51:01 2018","The main experiment item","yes","SternbergTask.osexp","/Users/emorgan/Desktop","no","mono","no","18","no","white","no","yes","768","legacy","10","10","/Users/emorgan/Desktop/EM subject-2, f, 23.csv","legacy","5 7 8 4 1 2","Kafkaesque Koffka","3.2.5","0","n","0","right","right","NA","right","NA","720","30035","NA","720","NA","2","legacy","6","1024","2","48000","-16","experiment","2","even","6","108042","104724","105809","12101","NA","105821","49345","12124","NA","110054","110775","106831","42176","110053","NA","Sternberg Task","10","10019","11","yes","1024"
"91.6666666667","91.6666666667","887.583333333","887.583333333","black","practice","legacy","legacy","legacy","0","uniform","1","undefined","1","left","11","11","11","0","0","11","11","0","0","11","11","11","0","11","0","Mon Oct  1 12:51:01 2018","The main experiment item","yes","SternbergTask.osexp","/Users/emorgan/Desktop","no","mono","no","18","no","white","no","yes","768","legacy","11","11","/Users/emorgan/Desktop/EM subject-2, f, 23.csv","legacy","4 3 1 7 9 8","Kafkaesque Koffka","3.2.5","1","y","0","left","right","NA","left","NA","632","30035","NA","632","NA","2","legacy","6","1024","2","48000","-16","experiment","2","even","4","114126","110816","111894","12101","NA","111905","49345","12124","NA","116138","116772","112915","42176","116138","NA","Sternberg Task","11","10651","12","yes","1024"
"92.3076923077","92.3076923077","879.692307692","879.692307692","black","experiment","legacy","legacy","legacy","0","uniform","1","undefined","1","left","12","12","12","0","0","12","12","0","0","12","12","12","0","12","0","Mon Oct  1 12:51:01 2018","The main experiment item","yes","SternbergTask.osexp","/Users/emorgan/Desktop","no","mono","no","18","no","white","no","yes","768","legacy","0","11","/Users/emorgan/Desktop/EM subject-2, f, 23.csv","legacy","7 6","Kafkaesque Koffka","3.2.5","2","y","0","left","right","left","left","NA","785","30035","4718","785","NA","2","legacy","2","1024","2","48000","-16","experiment","2","even","6","124898","116785","122663","12101","122532","122676","49345","12124","117813","126909","127695","123686","42176","126909","NA","Sternberg Task","12","11436","13","yes","1024"
"92.8571428571","92.8571428571","877.214285714","877.214285714","black","experiment","legacy","legacy","legacy","0","uniform","1","undefined","1","left","13","13","13","0","0","13","13","0","0","13","13","13","0","13","0","Mon Oct  1 12:51:01 2018","The main experiment item","yes","SternbergTask.osexp","/Users/emorgan/Desktop","no","mono","no","18","no","white","no","yes","768","legacy","1","11","/Users/emorgan/Desktop/EM subject-2, f, 23.csv","legacy","8 7 3","Kafkaesque Koffka","3.2.5","1","y","0","left","right","left","left","NA","845","30035","4718","845","NA","2","legacy","3","1024","2","48000","-16","experiment","2","even","8","131038","127727","128806","12101","122532","128817","49345","12124","117813","133049","133895","129828","42176","133049","NA","Sternberg Task","13","12281","14","yes","1024"
"93.3333333333","93.3333333333","850.4","850.4","black","experiment","legacy","legacy","legacy","0","uniform","1","undefined","1","right","14","14","14","0","0","14","14","0","0","14","14","14","0","14","0","Mon Oct  1 12:51:01 2018","The main experiment item","yes","SternbergTask.osexp","/Users/emorgan/Desktop","no","mono","no","18","no","white","no","yes","768","legacy","2","11","/Users/emorgan/Desktop/EM subject-2, f, 23.csv","legacy","6 3 1 7 9 8","Kafkaesque Koffka","3.2.5","0","n","0","right","right","left","right","NA","475","30035","4718","475","NA","2","legacy","6","1024","2","48000","-16","experiment","2","even","4","137223","133907","134991","12101","122532","135002","49345","12124","117813","139234","139711","136013","42176","139234","NA","Sternberg Task","14","12756","15","yes","1024"
"93.75","93.75","837.625","837.625","black","experiment","legacy","legacy","legacy","0","uniform","1","undefined","1","left","15","15","15","0","0","15","15","0","0","15","15","15","0","15","0","Mon Oct  1 12:51:01 2018","The main experiment item","yes","SternbergTask.osexp","/Users/emorgan/Desktop","no","mono","no","18","no","white","no","yes","768","legacy","3","11","/Users/emorgan/Desktop/EM subject-2, f, 23.csv","legacy","3 9 7 6 4","Kafkaesque Koffka","3.2.5","3","y","0","left","right","left","left","NA","646","30035","4718","646","NA","2","legacy","5","1024","2","48000","-16","experiment","2","even","7","143104","139795","140872","12101","122532","140883","49345","12124","117813","145116","145763","141894","42176","145116","NA","Sternberg Task","15","13402","16","yes","1024"
"94.1176470588","94.1176470588","822.588235294","822.588235294","black","experiment","legacy","legacy","legacy","0","uniform","1","undefined","1","right","16","16","16","0","0","16","16","0","0","16","16","16","0","16","0","Mon Oct  1 12:51:01 2018","The main experiment item","yes","SternbergTask.osexp","/Users/emorgan/Desktop","no","mono","no","18","no","white","no","yes","768","legacy","4","11","/Users/emorgan/Desktop/EM subject-2, f, 23.csv","legacy","7 1 8 4 9 3","Kafkaesque Koffka","3.2.5","0","n","0","right","right","left","right","NA","582","30035","4718","582","NA","2","legacy","6","1024","2","48000","-16","experiment","2","even","6","149087","145776","146855","12101","122532","146866","49345","12124","117813","151098","151681","147876","42176","151098","NA","Sternberg Task","16","13984","17","yes","1024"
"94.4444444444","94.4444444444","831.222222222","831.222222222","black","experiment","legacy","legacy","legacy","0","uniform","1","undefined","1","left","17","17","17","0","0","17","17","0","0","17","17","17","0","17","0","Mon Oct  1 12:51:01 2018","The main experiment item","yes","SternbergTask.osexp","/Users/emorgan/Desktop","no","mono","no","18","no","white","no","yes","768","legacy","5","11","/Users/emorgan/Desktop/EM subject-2, f, 23.csv","legacy","7 4 2 6 3 5","Kafkaesque Koffka","3.2.5","6","y","0","left","right","left","left","NA","978","30035","4718","978","NA","2","legacy","6","1024","2","48000","-16","experiment","2","even","5","155004","151693","152771","12101","122532","152782","49345","12124","117813","157014","157993","153793","42176","157014","NA","Sternberg Task","17","14962","18","yes","1024"
"94.7368421053","94.7368421053","821.631578947","821.631578947","black","experiment","legacy","legacy","legacy","0","uniform","1","undefined","1","right","18","18","18","0","0","18","18","0","0","18","18","18","0","18","0","Mon Oct  1 12:51:01 2018","The main experiment item","yes","SternbergTask.osexp","/Users/emorgan/Desktop","no","mono","no","18","no","white","no","yes","768","legacy","6","11","/Users/emorgan/Desktop/EM subject-2, f, 23.csv","legacy","6 7 5 9","Kafkaesque Koffka","3.2.5","0","n","0","right","right","left","right","NA","649","30035","4718","649","NA","2","legacy","4","1024","2","48000","-16","experiment","2","even","2","161317","158005","159084","12101","122532","159095","49345","12124","117813","163328","163978","160106","42176","163328","NA","Sternberg Task","18","15611","19","yes","1024"
"95","95","817.6","817.6","black","experiment","legacy","legacy","legacy","0","uniform","1","undefined","1","left","19","19","19","0","0","19","19","0","0","19","19","19","0","19","0","Mon Oct  1 12:51:01 2018","The main experiment item","yes","SternbergTask.osexp","/Users/emorgan/Desktop","no","mono","no","18","no","white","no","yes","768","legacy","7","11","/Users/emorgan/Desktop/EM subject-2, f, 23.csv","legacy","8 9 6 1","Kafkaesque Koffka","3.2.5","2","y","0","left","right","left","left","NA","741","30035","4718","741","NA","2","legacy","4","1024","2","48000","-16","experiment","2","even","9","167299","163990","165066","12101","122532","165077","49345","12124","117813","169310","170052","166088","42176","169310","NA","Sternberg Task","19","16352","20","yes","1024"
"95.2380952381","95.2380952381","810.142857143","810.142857143","black","experiment","legacy","legacy","legacy","0","uniform","1","undefined","1","right","20","20","20","0","0","20","20","0","0","20","20","20","0","20","0","Mon Oct  1 12:51:01 2018","The main experiment item","yes","SternbergTask.osexp","/Users/emorgan/Desktop","no","mono","no","18","no","white","no","yes","768","legacy","8","11","/Users/emorgan/Desktop/EM subject-2, f, 23.csv","legacy","5 3 8 7 2 4","Kafkaesque Koffka","3.2.5","0","n","0","right","right","left","right","NA","661","30035","4718","661","NA","2","legacy","6","1024","2","48000","-16","experiment","2","even","9","173375","170064","171143","12101","122532","171154","49345","12124","117813","175387","176049","172165","42176","175387","NA","Sternberg Task","20","17013","21","yes","1024"
"95.4545454545","95.4545454545","805.363636364","805.363636364","black","experiment","legacy","legacy","legacy","0","uniform","1","undefined","1","right","21","21","21","0","0","21","21","0","0","21","21","21","0","21","0","Mon Oct  1 12:51:01 2018","The main experiment item","yes","SternbergTask.osexp","/Users/emorgan/Desktop","no","mono","no","18","no","white","no","yes","768","legacy","9","11","/Users/emorgan/Desktop/EM subject-2, f, 23.csv","legacy","2 8 6 3 1","Kafkaesque Koffka","3.2.5","0","n","0","right","right","left","right","NA","705","30035","4718","705","NA","2","legacy","5","1024","2","48000","-16","experiment","2","even","7","179383","176073","177150","12101","122532","177161","49345","12124","117813","181395","182101","178173","42176","181395","NA","Sternberg Task","21","17718","22","yes","1024"
"95.652173913","95.652173913","795.304347826","795.304347826","black","experiment","legacy","legacy","legacy","0","uniform","1","undefined","1","left","22","22","22","0","0","22","22","0","0","22","22","22","0","22","0","Mon Oct  1 12:51:01 2018","The main experiment item","yes","SternbergTask.osexp","/Users/emorgan/Desktop","no","mono","no","18","no","white","no","yes","768","legacy","10","11","/Users/emorgan/Desktop/EM subject-2, f, 23.csv","legacy","7 1 3","Kafkaesque Koffka","3.2.5","2","y","0","left","right","left","left","NA","574","30035","4718","574","NA","2","legacy","3","1024","2","48000","-16","experiment","2","even","1","185421","182113","183190","12101","122532","183201","49345","12124","117813","187433","188008","184211","42176","187433","NA","Sternberg Task","22","18292","23","yes","1024"
"95.8333333333","95.8333333333","793.458333333","793.458333333","black","experiment","legacy","legacy","legacy","0","uniform","1","undefined","1","left","23","23","23","0","0","23","23","0","0","23","23","23","0","23","0","Mon Oct  1 12:51:01 2018","The main experiment item","yes","SternbergTask.osexp","/Users/emorgan/Desktop","no","mono","no","18","no","white","no","yes","768","legacy","11","11","/Users/emorgan/Desktop/EM subject-2, f, 23.csv","legacy","3 5 9 6 2 4","Kafkaesque Koffka","3.2.5","1","y","0","left","right","left","left","NA","751","30035","4718","751","NA","2","legacy","6","1024","2","48000","-16","experiment","2","even","3","191330","188020","189099","12101","122532","189110","49345","12124","117813","193342","194094","190120","42176","193342","NA","Sternberg Task","23","19043","24","yes","1024"
"96","96","783.28","783.28","black","experiment","legacy","legacy","legacy","0","uniform","1","undefined","1","right","24","24","24","0","0","24","24","0","0","24","24","24","0","24","0","Mon Oct  1 12:51:01 2018","The main experiment item","yes","SternbergTask.osexp","/Users/emorgan/Desktop","no","mono","no","18","no","white","no","yes","768","legacy","12","11","/Users/emorgan/Desktop/EM subject-2, f, 23.csv","legacy","6 9 4 5 2","Kafkaesque Koffka","3.2.5","0","n","0","right","right","left","right","NA","539","30035","4718","539","NA","2","legacy","5","1024","2","48000","-16","experiment","2","even","1","197417","194106","195184","12101","122532","195195","49345","12124","117813","199428","199968","196205","42176","199428","NA","Sternberg Task","24","19582","25","yes","1024"
"96.1538461538","96.1538461538","772.384615385","772.384615385","black","experiment","legacy","legacy","legacy","0","uniform","1","undefined","1","right","25","25","25","0","0","25","25","0","0","25","25","25","0","25","0","Mon Oct  1 12:51:01 2018","The main experiment item","yes","SternbergTask.osexp","/Users/emorgan/Desktop","no","mono","no","18","no","white","no","yes","768","legacy","13","11","/Users/emorgan/Desktop/EM subject-2, f, 23.csv","legacy","7 1","Kafkaesque Koffka","3.2.5","0","n","0","right","right","left","right","NA","500","30035","4718","500","NA","2","legacy","2","1024","2","48000","-16","experiment","2","even","8","203306","199998","201074","12101","122532","201085","49345","12124","117813","205317","205818","202095","42176","205317","NA","Sternberg Task","25","20082","26","yes","1024"
"96.2962962963","96.2962962963","770.666666667","770.666666667","black","experiment","legacy","legacy","legacy","0","uniform","1","undefined","1","left","26","26","26","0","0","26","26","0","0","26","26","26","0","26","0","Mon Oct  1 12:51:01 2018","The main experiment item","yes","SternbergTask.osexp","/Users/emorgan/Desktop","no","mono","no","18","no","white","no","yes","768","legacy","14","11","/Users/emorgan/Desktop/EM subject-2, f, 23.csv","legacy","6 7 8 5","Kafkaesque Koffka","3.2.5","3","y","0","left","right","left","left","NA","726","30035","4718","726","NA","2","legacy","4","1024","2","48000","-16","experiment","2","even","8","209144","205832","206912","12101","122532","206923","49345","12124","117813","211155","211882","207933","42176","211155","NA","Sternberg Task","26","20808","27","yes","1024"
"96.4285714286","96.4285714286","762.464285714","762.464285714","black","experiment","legacy","legacy","legacy","0","uniform","1","undefined","1","right","27","27","27","0","0","27","27","0","0","27","27","27","0","27","0","Mon Oct  1 12:51:01 2018","The main experiment item","yes","SternbergTask.osexp","/Users/emorgan/Desktop","no","mono","no","18","no","white","no","yes","768","legacy","15","11","/Users/emorgan/Desktop/EM subject-2, f, 23.csv","legacy","5 7 3","Kafkaesque Koffka","3.2.5","0","n","0","right","right","left","right","NA","541","30035","4718","541","NA","2","legacy","3","1024","2","48000","-16","experiment","2","even","9","215223","211909","212991","12101","122532","213001","49345","12124","117813","217234","217776","214012","42176","217233","NA","Sternberg Task","27","21349","28","yes","1024"
"96.5517241379","96.5517241379","752.344827586","752.344827586","black","experiment","legacy","legacy","legacy","0","uniform","1","undefined","1","right","28","28","28","0","0","28","28","0","0","28","28","28","0","28","0","Mon Oct  1 12:51:01 2018","The main experiment item","yes","SternbergTask.osexp","/Users/emorgan/Desktop","no","mono","no","18","no","white","no","yes","768","legacy","16","11","/Users/emorgan/Desktop/EM subject-2, f, 23.csv","legacy","1 8 7","Kafkaesque Koffka","3.2.5","0","n","0","right","right","left","right","NA","469","30035","4718","469","NA","2","legacy","3","1024","2","48000","-16","experiment","2","even","4","221100","217788","218867","12101","122532","218878","49345","12124","117813","223111","223581","219889","42176","223111","NA","Sternberg Task","28","21818","29","yes","1024"
"96.6666666667","96.6666666667","757.133333333","757.133333333","black","experiment","legacy","legacy","legacy","0","uniform","1","undefined","1","right","29","29","29","0","0","29","29","0","0","29","29","29","0","29","0","Mon Oct  1 12:51:01 2018","The main experiment item","yes","SternbergTask.osexp","/Users/emorgan/Desktop","no","mono","no","18","no","white","no","yes","768","legacy","17","11","/Users/emorgan/Desktop/EM subject-2, f, 23.csv","legacy","1 4 9 2 5","Kafkaesque Koffka","3.2.5","0","n","0","right","right","left","right","NA","896","30035","4718","896","NA","2","legacy","5","1024","2","48000","-16","experiment","2","even","7","226906","223597","224674","12101","122532","224685","49345","12124","117813","228917","229815","225695","42176","228917","NA","Sternberg Task","29","22714","30","yes","1024"
"96.7741935484","96.7741935484","746.709677419","746.709677419","black","experiment","legacy","legacy","legacy","0","uniform","1","undefined","1","left","30","30","30","0","0","30","30","0","0","30","30","30","0","30","0","Mon Oct  1 12:51:01 2018","The main experiment item","yes","SternbergTask.osexp","/Users/emorgan/Desktop","no","mono","no","18","no","white","no","yes","768","legacy","18","11","/Users/emorgan/Desktop/EM subject-2, f, 23.csv","legacy","8 9 5 7 1 6","Kafkaesque Koffka","3.2.5","4","y","0","left","right","left","left","NA","434","30035","4718","434","NA","2","legacy","6","1024","2","48000","-16","experiment","2","even","7","233139","229827","230907","12101","122532","230918","49345","12124","117813","235150","235585","231928","42176","235150","NA","Sternberg Task","30","23148","31","yes","1024"
"96.875","96.875","741.84375","741.84375","black","experiment","legacy","legacy","legacy","0","uniform","1","undefined","1","right","31","31","31","0","0","31","31","0","0","31","31","31","0","31","0","Mon Oct  1 12:51:01 2018","The main experiment item","yes","SternbergTask.osexp","/Users/emorgan/Desktop","no","mono","no","18","no","white","no","yes","768","legacy","19","11","/Users/emorgan/Desktop/EM subject-2, f, 23.csv","legacy","1 3 2 6 9","Kafkaesque Koffka","3.2.5","0","n","0","right","right","left","right","NA","591","30035","4718","591","NA","2","legacy","5","1024","2","48000","-16","experiment","2","even","5","238910","235601","236679","12101","122532","236690","49345","12124","117813","240922","241514","237700","42176","240922","NA","Sternberg Task","31","23739","32","yes","1024"
"96.9696969697","96.9696969697","743.818181818","743.818181818","black","experiment","legacy","legacy","legacy","0","uniform","1","undefined","1","left","32","32","32","0","0","32","32","0","0","32","32","32","0","32","0","Mon Oct  1 12:51:01 2018","The main experiment item","yes","SternbergTask.osexp","/Users/emorgan/Desktop","no","mono","no","18","no","white","no","yes","768","legacy","20","11","/Users/emorgan/Desktop/EM subject-2, f, 23.csv","legacy","4 1 8 7 5","Kafkaesque Koffka","3.2.5","3","y","0","left","right","left","left","NA","807","30035","4718","807","NA","2","legacy","5","1024","2","48000","-16","experiment","2","even","8","244836","241526","242604","12101","122532","242615","49345","12124","117813","246848","247656","243625","42176","246848","NA","Sternberg Task","32","24546","33","yes","1024"
"97.0588235294","97.0588235294","738.705882353","738.705882353","black","experiment","legacy","legacy","legacy","0","uniform","1","undefined","1","right","33","33","33","0","0","33","33","0","0","33","33","33","0","33","0","Mon Oct  1 12:51:01 2018","The main experiment item","yes","SternbergTask.osexp","/Users/emorgan/Desktop","no","mono","no","18","no","white","no","yes","768","legacy","21","11","/Users/emorgan/Desktop/EM subject-2, f, 23.csv","legacy","4 1","Kafkaesque Koffka","3.2.5","0","n","0","right","right","left","right","NA","570","30035","4718","570","NA","2","legacy","2","1024","2","48000","-16","experiment","2","even","6","250982","247669","248747","12101","122532","248760","49345","12124","117813","252992","253563","249771","42176","252992","NA","Sternberg Task","33","25116","34","yes","1024"
"97.1428571429","97.1428571429","741.342857143","741.342857143","black","experiment","legacy","legacy","legacy","0","uniform","1","undefined","1","left","34","34","34","0","0","34","34","0","0","34","34","34","0","34","0","Mon Oct  1 12:51:01 2018","The main experiment item","yes","SternbergTask.osexp","/Users/emorgan/Desktop","no","mono","no","18","no","white","no","yes","768","legacy","22","11","/Users/emorgan/Desktop/EM subject-2, f, 23.csv","legacy","2 4 6 9","Kafkaesque Koffka","3.2.5","3","y","0","left","right","left","left","NA","831","30035","4718","831","NA","2","legacy","4","1024","2","48000","-16","experiment","2","even","6","256885","253575","254653","12101","122532","254664","49345","12124","117813","258896","259728","255674","42176","258896","NA","Sternberg Task","34","25947","35","yes","1024"
"97.2222222222","97.2222222222","742.277777778","742.277777778","black","experiment","legacy","legacy","legacy","0","uniform","1","undefined","1","left","35","35","35","0","0","35","35","0","0","35","35","35","0","35","0","Mon Oct  1 12:51:01 2018","The main experiment item","yes","SternbergTask.osexp","/Users/emorgan/Desktop","no","mono","no","18","no","white","no","yes","768","legacy","23","11","/Users/emorgan/Desktop/EM subject-2, f, 23.csv","legacy","8 5 3 7 4 6","Kafkaesque Koffka","3.2.5","6","y","0","left","right","left","left","NA","775","30035","4718","775","NA","2","legacy","6","1024","2","48000","-16","experiment","2","even","6","263050","259740","260819","12101","122532","260830","49345","12124","117813","265062","265838","261840","42176","265061","NA","Sternberg Task","35","26722","36","yes","1024"
"97.2972972973","97.2972972973","748.945945946","748.945945946","black","experiment","legacy","legacy","legacy","0","uniform","1","undefined","1","left","36","36","36","0","0","36","36","0","0","36","36","36","0","36","0","Mon Oct  1 12:51:01 2018","The main experiment item","yes","SternbergTask.osexp","/Users/emorgan/Desktop","no","mono","no","18","no","white","no","yes","768","legacy","24","11","/Users/emorgan/Desktop/EM subject-2, f, 23.csv","legacy","6 8 9 3 4 9","Kafkaesque Koffka","3.2.5","5","y","0","left","right","left","left","NA","989","30035","4718","989","NA","2","legacy","6","1024","2","48000","-16","experiment","2","even","4","269170","265859","266937","12101","122532","266948","49345","12124","117813","271181","272171","267958","42176","271181","NA","Sternberg Task","36","27711","37","yes","1024"
"97.3684210526","97.3684210526","760.815789474","760.815789474","black","experiment","legacy","legacy","legacy","0","uniform","1","undefined","1","left","37","37","37","0","0","37","37","0","0","37","37","37","0","37","0","Mon Oct  1 12:51:01 2018","The main experiment item","yes","SternbergTask.osexp","/Users/emorgan/Desktop","no","mono","no","18","no","white","no","yes","768","legacy","25","11","/Users/emorgan/Desktop/EM subject-2, f, 23.csv","legacy","5 7 3 6 2","Kafkaesque Koffka","3.2.5","5","y","0","left","right","left","left","NA","1200","30035","4718","1200","NA","2","legacy","5","1024","2","48000","-16","experiment","2","even","2","275495","272183","273262","12101","122532","273273","49345","12124","117813","277506","278707","274284","42176","277505","NA","Sternberg Task","37","28911","38","yes","1024"
"97.4358974359","97.4358974359","758.435897436","758.435897436","black","experiment","legacy","legacy","legacy","0","uniform","1","undefined","1","right","38","38","38","0","0","38","38","0","0","38","38","38","0","38","0","Mon Oct  1 12:51:01 2018","The main experiment item","yes","SternbergTask.osexp","/Users/emorgan/Desktop","no","mono","no","18","no","white","no","yes","768","legacy","26","11","/Users/emorgan/Desktop/EM subject-2, f, 23.csv","legacy","3 4 2","Kafkaesque Koffka","3.2.5","0","n","0","right","right","left","right","NA","668","30035","4718","668","NA","2","legacy","3","1024","2","48000","-16","experiment","2","even","5","282035","278719","279802","12101","122532","279813","49345","12124","117813","284046","284715","280823","42176","284046","NA","Sternberg Task","38","29579","39","yes","1024"
"97.5","97.5","755.4","755.4","black","experiment","legacy","legacy","legacy","0","uniform","1","undefined","1","right","39","39","39","0","0","39","39","0","0","39","39","39","0","39","0","Mon Oct  1 12:51:01 2018","The main experiment item","yes","SternbergTask.osexp","/Users/emorgan/Desktop","no","mono","no","18","no","white","no","yes","768","legacy","27","11","/Users/emorgan/Desktop/EM subject-2, f, 23.csv","legacy","9","Kafkaesque Koffka","3.2.5","0","n","0","right","right","left","right","NA","637","30035","4718","637","NA","2","legacy","1","1024","2","48000","-16","experiment","2","even","6","288039","284727","285807","12101","122532","285819","49345","12124","117813","290050","290689","286829","42176","290050","NA","Sternberg Task","39","30216","40","yes","1024"
"97.5609756098","97.5609756098","751.658536585","751.658536585","black","experiment","legacy","legacy","legacy","0","uniform","1","undefined","1","left","40","40","40","0","0","40","40","0","0","40","40","40","0","40","0","Mon Oct  1 12:51:01 2018","The main experiment item","yes","SternbergTask.osexp","/Users/emorgan/Desktop","no","mono","no","18","no","white","no","yes","768","legacy","28","11","/Users/emorgan/Desktop/EM subject-2, f, 23.csv","legacy","8 5 4 7 3 1","Kafkaesque Koffka","3.2.5","2","y","0","left","right","left","left","NA","602","30035","4718","602","NA","2","legacy","6","1024","2","48000","-16","experiment","2","even","5","294014","290701","291780","12101","122532","291794","49345","12124","117813","296026","296629","292804","42176","296026","NA","Sternberg Task","40","30818","41","yes","1024"
"97.619047619","97.619047619","747.404761905","747.404761905","black","experiment","legacy","legacy","legacy","0","uniform","1","undefined","1","right","41","41","41","0","0","41","41","0","0","41","41","41","0","41","0","Mon Oct  1 12:51:01 2018","The main experiment item","yes","SternbergTask.osexp","/Users/emorgan/Desktop","no","mono","no","18","no","white","no","yes","768","legacy","29","11","/Users/emorgan/Desktop/EM subject-2, f, 23.csv","legacy","7 9","Kafkaesque Koffka","3.2.5","0","n","0","right","right","left","right","NA","573","30035","4718","573","NA","2","legacy","2","1024","2","48000","-16","experiment","2","even","1","299950","296641","297717","12101","122532","297728","49345","12124","117813","301961","302535","298738","42176","301960","NA","Sternberg Task","41","31391","42","yes","1024"
"97.6744186047","97.6744186047","744.604651163","744.604651163","black","experiment","legacy","legacy","legacy","0","uniform","1","undefined","1","right","42","42","42","0","0","42","42","0","0","42","42","42","0","42","0","Mon Oct  1 12:51:01 2018","The main experiment item","yes","SternbergTask.osexp","/Users/emorgan/Desktop","no","mono","no","18","no","white","no","yes","768","legacy","30","11","/Users/emorgan/Desktop/EM subject-2, f, 23.csv","legacy","2 8 9 4 1","Kafkaesque Koffka","3.2.5","0","n","0","right","right","left","right","NA","627","30035","4718","627","NA","2","legacy","5","1024","2","48000","-16","experiment","2","even","5","305858","302547","303625","12101","122532","303636","49345","12124","117813","307869","308498","304647","42176","307869","NA","Sternberg Task","42","32018","43","yes","1024"
"97.7272727273","97.7272727273","739.886363636","739.886363636","black","experiment","legacy","legacy","legacy","0","uniform","1","undefined","1","right","43","43","43","0","0","43","43","0","0","43","43","43","0","43","0","Mon Oct  1 12:51:01 2018","The main experiment item","yes","SternbergTask.osexp","/Users/emorgan/Desktop","no","mono","no","18","no","white","no","yes","768","legacy","31","11","/Users/emorgan/Desktop/EM subject-2, f, 23.csv","legacy","4 2 6 9","Kafkaesque Koffka","3.2.5","0","n","0","right","right","left","right","NA","537","30035","4718","537","NA","2","legacy","4","1024","2","48000","-16","experiment","2","even","7","311820","308510","309588","12101","122532","309599","49345","12124","117813","313832","314371","310610","42176","313831","NA","Sternberg Task","43","32555","44","yes","1024"
"97.7777777778","97.7777777778","733.888888889","733.888888889","black","experiment","legacy","legacy","legacy","0","uniform","1","undefined","1","left","44","44","44","0","0","44","44","0","0","44","44","44","0","44","0","Mon Oct  1 12:51:01 2018","The main experiment item","yes","SternbergTask.osexp","/Users/emorgan/Desktop","no","mono","no","18","no","white","no","yes","768","legacy","32","11","/Users/emorgan/Desktop/EM subject-2, f, 23.csv","legacy","9 5 3 8 4","Kafkaesque Koffka","3.2.5","1","y","0","left","right","left","left","NA","470","30035","4718","470","NA","2","legacy","5","1024","2","48000","-16","experiment","2","even","9","317693","314383","315461","12101","122532","315472","49345","12124","117813","319704","320176","316482","42176","319704","NA","Sternberg Task","44","33025","45","yes","1024"
"97.8260869565","97.8260869565","730.52173913","730.52173913","black","experiment","legacy","legacy","legacy","0","uniform","1","undefined","1","left","45","45","45","0","0","45","45","0","0","45","45","45","0","45","0","Mon Oct  1 12:51:01 2018","The main experiment item","yes","SternbergTask.osexp","/Users/emorgan/Desktop","no","mono","no","18","no","white","no","yes","768","legacy","33","11","/Users/emorgan/Desktop/EM subject-2, f, 23.csv","legacy","7 8 4 6 9 5","Kafkaesque Koffka","3.2.5","4","y","0","left","right","left","left","NA","579","30035","4718","579","NA","2","legacy","6","1024","2","48000","-16","experiment","2","even","6","323501","320188","321269","12101","122532","321281","49345","12124","117813","325513","326093","322291","42176","325513","NA","Sternberg Task","45","33604","46","yes","1024"
"97.8723404255","97.8723404255","733.085106383","733.085106383","black","experiment","legacy","legacy","legacy","0","uniform","1","undefined","1","right","46","46","46","0","0","46","46","0","0","46","46","46","0","46","0","Mon Oct  1 12:51:01 2018","The main experiment item","yes","SternbergTask.osexp","/Users/emorgan/Desktop","no","mono","no","18","no","white","no","yes","768","legacy","34","11","/Users/emorgan/Desktop/EM subject-2, f, 23.csv","legacy","9 7 4 5 8","Kafkaesque Koffka","3.2.5","0","n","0","right","right","left","right","NA","851","30035","4718","851","NA","2","legacy","5","1024","2","48000","-16","experiment","2","even","6","329429","326118","327196","12101","122532","327207","49345","12124","117813","331440","332292","328218","42176","331440","NA","Sternberg Task","46","34455","47","yes","1024"
"97.9166666667","97.9166666667","729.458333333","729.458333333","black","experiment","legacy","legacy","legacy","0","uniform","1","undefined","1","right","47","47","47","0","0","47","47","0","0","47","47","47","0","47","0","Mon Oct  1 12:51:01 2018","The main experiment item","yes","SternbergTask.osexp","/Users/emorgan/Desktop","no","mono","no","18","no","white","no","yes","768","legacy","35","11","/Users/emorgan/Desktop/EM subject-2, f, 23.csv","legacy","1 5 3 2 8","Kafkaesque Koffka","3.2.5","0","n","0","right","right","left","right","NA","559","30035","4718","559","NA","2","legacy","5","1024","2","48000","-16","experiment","2","even","4","335614","332304","333382","12101","122532","333393","49345","12124","117813","337627","338187","334404","42176","337627","NA","Sternberg Task","47","35014","48","yes","1024"
"97.9591836735","97.9591836735","725.673469388","725.673469388","black","experiment","legacy","legacy","legacy","0","uniform","1","undefined","1","right","48","48","48","0","0","48","48","0","0","48","48","48","0","48","0","Mon Oct  1 12:51:01 2018","The main experiment item","yes","SternbergTask.osexp","/Users/emorgan/Desktop","no","mono","no","18","no","white","no","yes","768","legacy","36","11","/Users/emorgan/Desktop/EM subject-2, f, 23.csv","legacy","7 3 2 8","Kafkaesque Koffka","3.2.5","0","n","0","right","right","left","right","NA","544","30035","4718","544","NA","2","legacy","4","1024","2","48000","-16","experiment","2","even","4","341515","338199","339281","12101","122532","339292","49345","12124","117813","343526","344071","340304","42176","343526","NA","Sternberg Task","48","35558","49","yes","1024"
"98","98","725.06","725.06","black","experiment","legacy","legacy","legacy","0","uniform","1","undefined","1","left","49","49","49","0","0","49","49","0","0","49","49","49","0","49","0","Mon Oct  1 12:51:01 2018","The main experiment item","yes","SternbergTask.osexp","/Users/emorgan/Desktop","no","mono","no","18","no","white","no","yes","768","legacy","37","11","/Users/emorgan/Desktop/EM subject-2, f, 23.csv","legacy","4 6 2 5 1","Kafkaesque Koffka","3.2.5","5","y","0","left","right","left","left","NA","695","30035","4718","695","NA","2","legacy","5","1024","2","48000","-16","experiment","2","even","1","347393","344083","345161","12101","122532","345172","49345","12124","117813","349405","350101","346182","42176","349405","NA","Sternberg Task","49","36253","50","yes","1024"
"98.0392156863","98.0392156863","725.803921569","725.803921569","black","experiment","legacy","legacy","legacy","0","uniform","1","undefined","1","left","50","50","50","0","0","50","50","0","0","50","50","50","0","50","0","Mon Oct  1 12:51:01 2018","The main experiment item","yes","SternbergTask.osexp","/Users/emorgan/Desktop","no","mono","no","18","no","white","no","yes","768","legacy","38","11","/Users/emorgan/Desktop/EM subject-2, f, 23.csv","legacy","9 3 1 2 5","Kafkaesque Koffka","3.2.5","4","y","0","left","right","left","left","NA","763","30035","4718","763","NA","2","legacy","5","1024","2","48000","-16","experiment","2","even","2","353423","350113","351191","12101","122532","351202","49345","12124","117813","355434","356199","352212","42176","355434","NA","Sternberg Task","50","37016","51","yes","1024"
"98.0769230769","98.0769230769","723.480769231","723.480769231","black","experiment","legacy","legacy","legacy","0","uniform","1","undefined","1","right","51","51","51","0","0","51","51","0","0","51","51","51","0","51","0","Mon Oct  1 12:51:01 2018","The main experiment item","yes","SternbergTask.osexp","/Users/emorgan/Desktop","no","mono","no","18","no","white","no","yes","768","legacy","39","11","/Users/emorgan/Desktop/EM subject-2, f, 23.csv","legacy","6 9 7 3 8 2","Kafkaesque Koffka","3.2.5","0","n","0","right","right","left","right","NA","605","30035","4718","605","NA","2","legacy","6","1024","2","48000","-16","experiment","2","even","5","359522","356211","357290","12101","122532","357301","49345","12124","117813","361533","362139","358311","42176","361533","NA","Sternberg Task","51","37621","52","yes","1024"
"98.1132075472","98.1132075472","722.509433962","722.509433962","black","experiment","legacy","legacy","legacy","0","uniform","1","undefined","1","right","52","52","52","0","0","52","52","0","0","52","52","52","0","52","0","Mon Oct  1 12:51:01 2018","The main experiment item","yes","SternbergTask.osexp","/Users/emorgan/Desktop","no","mono","no","18","no","white","no","yes","768","legacy","40","11","/Users/emorgan/Desktop/EM subject-2, f, 23.csv","legacy","1 6 4","Kafkaesque Koffka","3.2.5","0","n","0","right","right","left","right","NA","672","30035","4718","672","NA","2","legacy","3","1024","2","48000","-16","experiment","2","even","7","365461","362151","363228","12101","122532","363239","49345","12124","117813","367473","368147","364250","42176","367472","NA","Sternberg Task","52","38293","53","yes","1024"
"98.1481481481","98.1481481481","719.685185185","719.685185185","black","experiment","legacy","legacy","legacy","0","uniform","1","undefined","1","left","53","53","53","0","0","53","53","0","0","53","53","53","0","53","0","Mon Oct  1 12:51:01 2018","The main experiment item","yes","SternbergTask.osexp","/Users/emorgan/Desktop","no","mono","no","18","no","white","no","yes","768","legacy","41","11","/Users/emorgan/Desktop/EM subject-2, f, 23.csv","legacy","2 6 1 7 4","Kafkaesque Koffka","3.2.5","2","y","0","left","right","left","left","NA","570","30035","4718","570","NA","2","legacy","5","1024","2","48000","-16","experiment","2","even","6","371471","368158","369237","12101","122532","369248","49345","12124","117813","373482","374053","370259","42176","373482","NA","Sternberg Task","53","38863","54","yes","1024"
"98.1818181818","98.1818181818","719.218181818","719.218181818","black","experiment","legacy","legacy","legacy","0","uniform","1","undefined","1","right","54","54","54","0","0","54","54","0","0","54","54","54","0","54","0","Mon Oct  1 12:51:01 2018","The main experiment item","yes","SternbergTask.osexp","/Users/emorgan/Desktop","no","mono","no","18","no","white","no","yes","768","legacy","42","11","/Users/emorgan/Desktop/EM subject-2, f, 23.csv","legacy","4 2 7 6 1 3","Kafkaesque Koffka","3.2.5","0","n","0","right","right","left","right","NA","694","30035","4718","694","NA","2","legacy","6","1024","2","48000","-16","experiment","2","even","8","377376","374065","375143","12101","122532","375154","49345","12124","117813","379388","380083","376165","42176","379388","NA","Sternberg Task","54","39557","55","yes","1024"
"98.2142857143","98.2142857143","714.75","714.75","black","experiment","legacy","legacy","legacy","0","uniform","1","undefined","1","left","55","55","55","0","0","55","55","0","0","55","55","55","0","55","0","Mon Oct  1 12:51:01 2018","The main experiment item","yes","SternbergTask.osexp","/Users/emorgan/Desktop","no","mono","no","18","no","white","no","yes","768","legacy","43","11","/Users/emorgan/Desktop/EM subject-2, f, 23.csv","legacy","8","Kafkaesque Koffka","3.2.5","1","y","0","left","right","left","left","NA","469","30035","4718","469","NA","2","legacy","1","1024","2","48000","-16","experiment","2","even","8","383408","380095","381175","12101","122532","381186","49345","12124","117813","385419","385889","382197","42176","385419","NA","Sternberg Task","55","40026","56","yes","1024"
"96.4912280702","96.4912280702","711.298245614","711.298245614","black","experiment","legacy","legacy","legacy","0","uniform","0","undefined","0","left","56","56","56","0","0","56","56","0","0","56","56","56","0","56","0","Mon Oct  1 12:51:01 2018","The main experiment item","yes","SternbergTask.osexp","/Users/emorgan/Desktop","no","mono","no","18","no","white","no","yes","768","legacy","44","11","/Users/emorgan/Desktop/EM subject-2, f, 23.csv","legacy","2 8 5 1","Kafkaesque Koffka","3.2.5","4","y","0","right","right","left","right","NA","518","30035","4718","518","NA","2","legacy","4","1024","2","48000","-16","experiment","2","even","1","389219","385910","386988","12101","122532","386999","49345","12124","117813","391230","391750","388009","42176","391230","NA","Sternberg Task","55","40544","57","yes","1024"
"96.5517241379","96.5517241379","709.637931034","709.637931034","black","experiment","legacy","legacy","legacy","0","uniform","1","undefined","1","left","57","57","57","0","0","57","57","0","0","57","57","57","0","57","0","Mon Oct  1 12:51:01 2018","The main experiment item","yes","SternbergTask.osexp","/Users/emorgan/Desktop","no","mono","no","18","no","white","no","yes","768","legacy","45","11","/Users/emorgan/Desktop/EM subject-2, f, 23.csv","legacy","6 9 3 1","Kafkaesque Koffka","3.2.5","4","y","0","left","right","left","left","NA","615","30035","4718","615","NA","2","legacy","4","1024","2","48000","-16","experiment","2","even","1","395117","385910","392884","12101","122532","392895","391797","12124","117813","397129","397746","393906","42176","397129","NA","Sternberg Task","56","41159","58","yes","1024"
"96.6101694915","96.6101694915","711.084745763","711.084745763","black","experiment","legacy","legacy","legacy","0","uniform","1","undefined","1","left","58","58","58","0","0","58","58","0","0","58","58","58","0","58","0","Mon Oct  1 12:51:01 2018","The main experiment item","yes","SternbergTask.osexp","/Users/emorgan/Desktop","no","mono","no","18","no","white","no","yes","768","legacy","46","11","/Users/emorgan/Desktop/EM subject-2, f, 23.csv","legacy","9 6 2 4 1","Kafkaesque Koffka","3.2.5","4","y","0","left","right","left","left","NA","795","30035","4718","795","NA","2","legacy","5","1024","2","48000","-16","experiment","2","even","4","401071","397758","398838","12101","122532","398849","391797","12124","117813","403082","403878","399860","42176","403082","NA","Sternberg Task","57","41954","59","yes","1024"
"96.6666666667","96.6666666667","709","709","black","experiment","legacy","legacy","legacy","0","uniform","1","undefined","1","left","59","59","59","0","0","59","59","0","0","59","59","59","0","59","0","Mon Oct  1 12:51:01 2018","The main experiment item","yes","SternbergTask.osexp","/Users/emorgan/Desktop","no","mono","no","18","no","white","no","yes","768","legacy","47","11","/Users/emorgan/Desktop/EM subject-2, f, 23.csv","legacy","6 5","Kafkaesque Koffka","3.2.5","2","y","0","left","right","left","left","NA","586","30035","4718","586","NA","2","legacy","2","1024","2","48000","-16","experiment","2","even","5","407209","403899","404976","12101","122532","404987","391797","12124","117813","409220","409807","405999","42176","409219","NA","Sternberg Task","58","42540","60","yes","1024"
"96.7213114754","96.7213114754","704.524590164","704.524590164","black","experiment","legacy","legacy","legacy","0","uniform","1","undefined","1","left","60","60","60","0","0","60","60","0","0","60","60","60","0","60","0","Mon Oct  1 12:51:01 2018","The main experiment item","yes","SternbergTask.osexp","/Users/emorgan/Desktop","no","mono","no","18","no","white","no","yes","768","legacy","48","11","/Users/emorgan/Desktop/EM subject-2, f, 23.csv","legacy","6 2","Kafkaesque Koffka","3.2.5","1","y","0","left","right","left","left","NA","436","30035","4718","436","NA","2","legacy","2","1024","2","48000","-16","experiment","2","even","6","413128","409819","410897","12101","122532","410908","391797","12124","117813","415140","415577","411918","42176","415140","NA","Sternberg Task","59","42976","61","yes","1024"
"96.7741935484","96.7741935484","703.290322581","703.290322581","black","experiment","legacy","legacy","legacy","0","uniform","1","undefined","1","right","61","61","61","0","0","61","61","0","0","61","61","61","0","61","0","Mon Oct  1 12:51:01 2018","The main experiment item","yes","SternbergTask.osexp","/Users/emorgan/Desktop","no","mono","no","18","no","white","no","yes","768","legacy","49","11","/Users/emorgan/Desktop/EM subject-2, f, 23.csv","legacy","6 9 5","Kafkaesque Koffka","3.2.5","0","n","0","right","right","left","right","NA","628","30035","4718","628","NA","2","legacy","3","1024","2","48000","-16","experiment","2","even","8","418900","415590","416667","12101","122532","416678","391797","12124","117813","420911","421540","417688","42176","420911","NA","Sternberg Task","60","43604","62","yes","1024"
"96.8253968254","96.8253968254","700.777777778","700.777777778","black","experiment","legacy","legacy","legacy","0","uniform","1","undefined","1","right","62","62","62","0","0","62","62","0","0","62","62","62","0","62","0","Mon Oct  1 12:51:01 2018","The main experiment item","yes","SternbergTask.osexp","/Users/emorgan/Desktop","no","mono","no","18","no","white","no","yes","768","legacy","50","11","/Users/emorgan/Desktop/EM subject-2, f, 23.csv","legacy","2 7 5","Kafkaesque Koffka","3.2.5","0","n","0","right","right","left","right","NA","545","30035","4718","545","NA","2","legacy","3","1024","2","48000","-16","experiment","2","even","8","424867","421552","422633","12101","122532","422645","391797","12124","117813","426878","427424","423656","42176","426878","NA","Sternberg Task","61","44149","63","yes","1024"
"96.875","96.875","703.578125","703.578125","black","experiment","legacy","legacy","legacy","0","uniform","1","undefined","1","right","63","63","63","0","0","63","63","0","0","63","63","63","0","63","0","Mon Oct  1 12:51:01 2018","The main experiment item","yes","SternbergTask.osexp","/Users/emorgan/Desktop","no","mono","no","18","no","white","no","yes","768","legacy","51","11","/Users/emorgan/Desktop/EM subject-2, f, 23.csv","legacy","2 8 9","Kafkaesque Koffka","3.2.5","0","n","0","right","right","left","right","NA","880","30035","4718","880","NA","2","legacy","3","1024","2","48000","-16","experiment","2","even","6","430754","427443","428521","12101","122532","428532","391797","12124","117813","432764","433645","429542","42176","432764","NA","Sternberg Task","62","45029","64","yes","1024"
"96.9230769231","96.9230769231","702.107692308","702.107692308","black","experiment","legacy","legacy","legacy","0","uniform","1","undefined","1","left","64","64","64","0","0","64","64","0","0","64","64","64","0","64","0","Mon Oct  1 12:51:01 2018","The main experiment item","yes","SternbergTask.osexp","/Users/emorgan/Desktop","no","mono","no","18","no","white","no","yes","768","legacy","52","11","/Users/emorgan/Desktop/EM subject-2, f, 23.csv","legacy","4 7 6 8 2 3","Kafkaesque Koffka","3.2.5","6","y","0","left","right","left","left","NA","608","30035","4718","608","NA","2","legacy","6","1024","2","48000","-16","experiment","2","even","3","436976","433657","434743","12101","122532","434755","391797","12124","117813","438987","439597","435765","42176","438987","NA","Sternberg Task","63","45637","65","yes","1024"
"96.9696969697","96.9696969697","701.166666667","701.166666667","black","experiment","legacy","legacy","legacy","0","uniform","1","undefined","1","left","65","65","65","0","0","65","65","0","0","65","65","65","0","65","0","Mon Oct  1 12:51:01 2018","The main experiment item","yes","SternbergTask.osexp","/Users/emorgan/Desktop","no","mono","no","18","no","white","no","yes","768","legacy","53","11","/Users/emorgan/Desktop/EM subject-2, f, 23.csv","legacy","8 9 5 6 7","Kafkaesque Koffka","3.2.5","1","y","0","left","right","left","left","NA","640","30035","4718","640","NA","2","legacy","5","1024","2","48000","-16","experiment","2","even","8","442918","439609","440686","12101","122532","440697","391797","12124","117813","444929","445570","441707","42176","444929","NA","Sternberg Task","64","46277","66","yes","1024"
"97.0149253731","97.0149253731","699.119402985","699.119402985","black","experiment","legacy","legacy","legacy","0","uniform","1","undefined","1","right","66","66","66","0","0","66","66","0","0","66","66","66","0","66","0","Mon Oct  1 12:51:01 2018","The main experiment item","yes","SternbergTask.osexp","/Users/emorgan/Desktop","no","mono","no","18","no","white","no","yes","768","legacy","54","11","/Users/emorgan/Desktop/EM subject-2, f, 23.csv","legacy","6 8","Kafkaesque Koffka","3.2.5","0","n","0","right","right","left","right","NA","564","30035","4718","564","NA","2","legacy","2","1024","2","48000","-16","experiment","2","even","9","448899","445589","446667","12101","122532","446678","391797","12124","117813","450911","451477","447688","42176","450911","NA","Sternberg Task","65","46841","67","yes","1024"
"97.0588235294","97.0588235294","699.220588235","699.220588235","black","experiment","legacy","legacy","legacy","0","uniform","1","undefined","1","right","67","67","67","0","0","67","67","0","0","67","67","67","0","67","0","Mon Oct  1 12:51:01 2018","The main experiment item","yes","SternbergTask.osexp","/Users/emorgan/Desktop","no","mono","no","18","no","white","no","yes","768","legacy","55","11","/Users/emorgan/Desktop/EM subject-2, f, 23.csv","legacy","5","Kafkaesque Koffka","3.2.5","0","n","0","right","right","left","right","NA","706","30035","4718","706","NA","2","legacy","1","1024","2","48000","-16","experiment","2","even","8","454800","451489","452566","12101","122532","452576","391797","12124","117813","456811","457518","453588","42176","456811","NA","Sternberg Task","66","47547","68","yes","1024"
"97.1014492754","97.1014492754","699.275362319","699.275362319","black","experiment","legacy","legacy","legacy","0","uniform","1","undefined","1","right","68","68","68","0","0","68","68","0","0","68","68","68","0","68","0","Mon Oct  1 12:51:01 2018","The main experiment item","yes","SternbergTask.osexp","/Users/emorgan/Desktop","no","mono","no","18","no","white","no","yes","768","legacy","56","11","/Users/emorgan/Desktop/EM subject-2, f, 23.csv","legacy","8 9","Kafkaesque Koffka","3.2.5","0","n","0","right","right","left","right","NA","703","30035","4718","703","NA","2","legacy","2","1024","2","48000","-16","experiment","2","even","5","460855","457545","458623","12101","122532","458634","391797","12124","117813","462866","463571","459644","42176","462866","NA","Sternberg Task","67","48250","69","yes","1024"
"97.1428571429","97.1428571429","701.214285714","701.214285714","black","experiment","legacy","legacy","legacy","0","uniform","1","undefined","1","right","69","69","69","0","0","69","69","0","0","69","69","69","0","69","0","Mon Oct  1 12:51:01 2018","The main experiment item","yes","SternbergTask.osexp","/Users/emorgan/Desktop","no","mono","no","18","no","white","no","yes","768","legacy","57","11","/Users/emorgan/Desktop/EM subject-2, f, 23.csv","legacy","7 1 5 6 3","Kafkaesque Koffka","3.2.5","0","n","0","right","right","left","right","NA","835","30035","4718","835","NA","2","legacy","5","1024","2","48000","-16","experiment","2","even","8","466900","463587","464667","12101","122532","464678","391797","12124","117813","468911","469748","465689","42176","468911","NA","Sternberg Task","68","49085","70","yes","1024"
"97.1830985915","97.1830985915","700.507042254","700.507042254","black","experiment","legacy","legacy","legacy","0","uniform","1","undefined","1","left","70","70","70","0","0","70","70","0","0","70","70","70","0","70","0","Mon Oct  1 12:51:01 2018","The main experiment item","yes","SternbergTask.osexp","/Users/emorgan/Desktop","no","mono","no","18","no","white","no","yes","768","legacy","58","11","/Users/emorgan/Desktop/EM subject-2, f, 23.csv","legacy","1 4 9 3 2 5","Kafkaesque Koffka","3.2.5","3","y","0","left","right","left","left","NA","651","30035","4718","651","NA","2","legacy","6","1024","2","48000","-16","experiment","2","even","9","473283","469969","471050","12101","122532","471061","391797","12124","117813","475295","475947","472071","42176","475294","NA","Sternberg Task","69","49736","71","yes","1024"
"97.2222222222","97.2222222222","700.291666667","700.291666667","black","experiment","legacy","legacy","legacy","0","uniform","1","undefined","1","left","71","71","71","0","0","71","71","0","0","71","71","71","0","71","0","Mon Oct  1 12:51:01 2018","The main experiment item","yes","SternbergTask.osexp","/Users/emorgan/Desktop","no","mono","no","18","no","white","no","yes","768","legacy","59","11","/Users/emorgan/Desktop/EM subject-2, f, 23.csv","legacy","8 3","Kafkaesque Koffka","3.2.5","2","y","0","left","right","left","left","NA","685","30035","4718","685","NA","2","legacy","2","1024","2","48000","-16","experiment","2","even","3","479269","475959","477037","12101","122532","477048","391797","12124","117813","481280","481966","478058","42176","481280","NA","Sternberg Task","70","50421","72","yes","1024"
"97.2602739726","97.2602739726","701.136986301","701.136986301","black","experiment","legacy","legacy","legacy","0","uniform","1","undefined","1","left","72","72","72","0","0","72","72","0","0","72","72","72","0","72","0","Mon Oct  1 12:51:01 2018","The main experiment item","yes","SternbergTask.osexp","/Users/emorgan/Desktop","no","mono","no","18","no","white","no","yes","768","legacy","60","11","/Users/emorgan/Desktop/EM subject-2, f, 23.csv","legacy","7 2 3","Kafkaesque Koffka","3.2.5","3","y","0","left","right","left","left","NA","762","30035","4718","762","NA","2","legacy","3","1024","2","48000","-16","experiment","2","even","3","485288","481978","483055","12101","122532","483066","391797","12124","117813","487299","488063","484076","42176","487299","NA","Sternberg Task","71","51183","73","yes","1024"
"97.2972972973","97.2972972973","700.743243243","700.743243243","black","experiment","legacy","legacy","legacy","0","uniform","1","undefined","1","left","73","73","73","0","0","73","73","0","0","73","73","73","0","73","0","Mon Oct  1 12:51:01 2018","The main experiment item","yes","SternbergTask.osexp","/Users/emorgan/Desktop","no","mono","no","18","no","white","no","yes","768","legacy","61","11","/Users/emorgan/Desktop/EM subject-2, f, 23.csv","legacy","7 1 8 5 6 2","Kafkaesque Koffka","3.2.5","2","y","0","left","right","left","left","NA","672","30035","4718","672","NA","2","legacy","6","1024","2","48000","-16","experiment","2","even","1","491386","488075","489153","12101","122532","489164","391797","12124","117813","493397","494070","490175","42176","493397","NA","Sternberg Task","72","51855","74","yes","1024"
"97.3333333333","97.3333333333","707.56","707.56","black","experiment","legacy","legacy","legacy","0","uniform","1","undefined","1","right","74","74","74","0","0","74","74","0","0","74","74","74","0","74","0","Mon Oct  1 12:51:01 2018","The main experiment item","yes","SternbergTask.osexp","/Users/emorgan/Desktop","no","mono","no","18","no","white","no","yes","768","legacy","62","11","/Users/emorgan/Desktop/EM subject-2, f, 23.csv","legacy","2 6 4 3 9","Kafkaesque Koffka","3.2.5","0","n","0","right","right","left","right","NA","1212","30035","4718","1212","NA","2","legacy","5","1024","2","48000","-16","experiment","2","even","1","497392","494082","495160","12101","122532","495171","391797","12124","117813","499404","500618","496181","42176","499404","NA","Sternberg Task","73","53067","75","yes","1024"
"97.3684210526","97.3684210526","705.842105263","705.842105263","black","experiment","legacy","legacy","legacy","0","uniform","1","undefined","1","right","75","75","75","0","0","75","75","0","0","75","75","75","0","75","0","Mon Oct  1 12:51:01 2018","The main experiment item","yes","SternbergTask.osexp","/Users/emorgan/Desktop","no","mono","no","18","no","white","no","yes","768","legacy","63","11","/Users/emorgan/Desktop/EM subject-2, f, 23.csv","legacy","1 4 3 6 5","Kafkaesque Koffka","3.2.5","0","n","0","right","right","left","right","NA","577","30035","4718","577","NA","2","legacy","5","1024","2","48000","-16","experiment","2","even","8","503946","500630","501712","12101","122532","501723","391797","12124","117813","505957","506535","502735","42176","505957","NA","Sternberg Task","74","53644","76","yes","1024"
"97.4025974026","97.4025974026","703.636363636","703.636363636","black","experiment","legacy","legacy","legacy","0","uniform","1","undefined","1","right","76","76","76","0","0","76","76","0","0","76","76","76","0","76","0","Mon Oct  1 12:51:01 2018","The main experiment item","yes","SternbergTask.osexp","/Users/emorgan/Desktop","no","mono","no","18","no","white","no","yes","768","legacy","64","11","/Users/emorgan/Desktop/EM subject-2, f, 23.csv","legacy","1","Kafkaesque Koffka","3.2.5","0","n","0","right","right","left","right","NA","536","30035","4718","536","NA","2","legacy","1","1024","2","48000","-16","experiment","2","even","7","509859","506548","507626","12101","122532","507637","391797","12124","117813","511871","512408","508649","42176","511871","NA","Sternberg Task","75","54180","77","yes","1024"
"97.4358974359","97.4358974359","703.384615385","703.384615385","black","experiment","legacy","legacy","legacy","0","uniform","1","undefined","1","right","77","77","77","0","0","77","77","0","0","77","77","77","0","77","0","Mon Oct  1 12:51:01 2018","The main experiment item","yes","SternbergTask.osexp","/Users/emorgan/Desktop","no","mono","no","18","no","white","no","yes","768","legacy","65","11","/Users/emorgan/Desktop/EM subject-2, f, 23.csv","legacy","8 5 7 3 6","Kafkaesque Koffka","3.2.5","0","n","0","right","right","left","right","NA","684","30035","4718","684","NA","2","legacy","5","1024","2","48000","-16","experiment","2","even","9","515731","512420","513498","12101","122532","513509","391797","12124","117813","517742","518427","514520","42176","517742","NA","Sternberg Task","76","54864","78","yes","1024"
"97.4683544304","97.4683544304","699.569620253","699.569620253","black","experiment","legacy","legacy","legacy","0","uniform","1","undefined","1","left","78","78","78","0","0","78","78","0","0","78","78","78","0","78","0","Mon Oct  1 12:51:01 2018","The main experiment item","yes","SternbergTask.osexp","/Users/emorgan/Desktop","no","mono","no","18","no","white","no","yes","768","legacy","66","11","/Users/emorgan/Desktop/EM subject-2, f, 23.csv","legacy","7","Kafkaesque Koffka","3.2.5","1","y","0","left","right","left","left","NA","402","30035","4718","402","NA","2","legacy","1","1024","2","48000","-16","experiment","2","even","7","521750","518440","519517","12101","122532","519528","391797","12124","117813","523761","524165","520538","42176","523761","NA","Sternberg Task","77","55266","79","yes","1024"
"97.5","97.5","698.0875","698.0875","black","experiment","legacy","legacy","legacy","0","uniform","1","undefined","1","left","79","79","79","0","0","79","79","0","0","79","79","79","0","79","0","Mon Oct  1 12:51:01 2018","The main experiment item","yes","SternbergTask.osexp","/Users/emorgan/Desktop","no","mono","no","18","no","white","no","yes","768","legacy","67","11","/Users/emorgan/Desktop/EM subject-2, f, 23.csv","legacy","2 3 7 4","Kafkaesque Koffka","3.2.5","1","y","0","left","right","left","left","NA","581","30035","4718","581","NA","2","legacy","4","1024","2","48000","-16","experiment","2","even","2","527488","524177","525255","12101","122532","525267","391797","12124","117813","529500","530082","526277","42176","529499","NA","Sternberg Task","78","55847","80","yes","1024"
"97.5308641975","97.5308641975","698.469135802","698.469135802","black","experiment","legacy","legacy","legacy","0","uniform","1","undefined","1","left","80","80","80","0","0","80","80","0","0","80","80","80","0","80","0","Mon Oct  1 12:51:01 2018","The main experiment item","yes","SternbergTask.osexp","/Users/emorgan/Desktop","no","mono","no","18","no","white","no","yes","768","legacy","68","11","/Users/emorgan/Desktop/EM subject-2, f, 23.csv","legacy","3 4 9 6 2 9","Kafkaesque Koffka","3.2.5","5","y","0","left","right","left","left","NA","729","30035","4718","729","NA","2","legacy","6","1024","2","48000","-16","experiment","2","even","2","533405","530094","531172","12101","122532","531183","391797","12124","117813","535416","536146","532193","42176","535416","NA","Sternberg Task","79","56576","81","yes","1024"
"97.5609756098","97.5609756098","698.280487805","698.280487805","black","experiment","legacy","legacy","legacy","0","uniform","1","undefined","1","left","81","81","81","0","0","81","81","0","0","81","81","81","0","81","0","Mon Oct  1 12:51:01 2018","The main experiment item","yes","SternbergTask.osexp","/Users/emorgan/Desktop","no","mono","no","18","no","white","no","yes","768","legacy","69","11","/Users/emorgan/Desktop/EM subject-2, f, 23.csv","legacy","2 4 8 5 1 3","Kafkaesque Koffka","3.2.5","1","y","0","left","right","left","left","NA","683","30035","4718","683","NA","2","legacy","6","1024","2","48000","-16","experiment","2","even","2","539470","536158","537236","12101","122532","537247","391797","12124","117813","541481","542165","538259","42176","541481","NA","Sternberg Task","80","57259","82","yes","1024"
"97.5903614458","97.5903614458","696.060240964","696.060240964","black","experiment","legacy","legacy","legacy","0","uniform","1","undefined","1","left","82","82","82","0","0","82","82","0","0","82","82","82","0","82","0","Mon Oct  1 12:51:01 2018","The main experiment item","yes","SternbergTask.osexp","/Users/emorgan/Desktop","no","mono","no","18","no","white","no","yes","768","legacy","70","11","/Users/emorgan/Desktop/EM subject-2, f, 23.csv","legacy","8 5 1 3 9","Kafkaesque Koffka","3.2.5","4","y","0","left","right","left","left","NA","514","30035","4718","514","NA","2","legacy","5","1024","2","48000","-16","experiment","2","even","3","545499","542187","543267","12101","122532","543278","391797","12124","117813","547511","548026","544288","42176","547511","NA","Sternberg Task","81","57773","83","yes","1024"
"97.619047619","97.619047619","694.773809524","694.773809524","black","experiment","legacy","legacy","legacy","0","uniform","1","undefined","1","left","83","83","83","0","0","83","83","0","0","83","83","83","0","83","0","Mon Oct  1 12:51:01 2018","The main experiment item","yes","SternbergTask.osexp","/Users/emorgan/Desktop","no","mono","no","18","no","white","no","yes","768","legacy","71","11","/Users/emorgan/Desktop/EM subject-2, f, 23.csv","legacy","3 2 1 4 7","Kafkaesque Koffka","3.2.5","2","y","0","left","right","left","left","NA","588","30035","4718","588","NA","2","legacy","5","1024","2","48000","-16","experiment","2","even","2","551356","548044","549123","12101","122532","549134","391797","12124","117813","553367","553956","550145","42176","553367","NA","Sternberg Task","82","58361","84","yes","1024"
"97.6470588235","97.6470588235","692.635294118","692.635294118","black","experiment","legacy","legacy","legacy","0","uniform","1","undefined","1","left","84","84","84","0","0","84","84","0","0","84","84","84","0","84","0","Mon Oct  1 12:51:01 2018","The main experiment item","yes","SternbergTask.osexp","/Users/emorgan/Desktop","no","mono","no","18","no","white","no","yes","768","legacy","72","11","/Users/emorgan/Desktop/EM subject-2, f, 23.csv","legacy","3 9 6 2","Kafkaesque Koffka","3.2.5","4","y","0","left","right","left","left","NA","513","30035","4718","513","NA","2","legacy","4","1024","2","48000","-16","experiment","2","even","2","557292","553983","555060","12101","122532","555071","391797","12124","117813","559303","559817","556082","42176","559303","NA","Sternberg Task","83","58874","85","yes","1024"
"97.6744186047","97.6744186047","691.976744186","691.976744186","black","experiment","legacy","legacy","legacy","0","uniform","1","undefined","1","right","85","85","85","0","0","85","85","0","0","85","85","85","0","85","0","Mon Oct  1 12:51:01 2018","The main experiment item","yes","SternbergTask.osexp","/Users/emorgan/Desktop","no","mono","no","18","no","white","no","yes","768","legacy","73","11","/Users/emorgan/Desktop/EM subject-2, f, 23.csv","legacy","2 8 7 9 5 3","Kafkaesque Koffka","3.2.5","0","n","0","right","right","left","right","NA","636","30035","4718","636","NA","2","legacy","6","1024","2","48000","-16","experiment","2","even","6","563221","559910","560989","12101","122532","561000","391797","12124","117813","565233","565870","562010","42176","565233","NA","Sternberg Task","84","59510","86","yes","1024"
"97.7011494253","97.7011494253","689.91954023","689.91954023","black","experiment","legacy","legacy","legacy","0","uniform","1","undefined","1","right","86","86","86","0","0","86","86","0","0","86","86","86","0","86","0","Mon Oct  1 12:51:01 2018","The main experiment item","yes","SternbergTask.osexp","/Users/emorgan/Desktop","no","mono","no","18","no","white","no","yes","768","legacy","74","11","/Users/emorgan/Desktop/EM subject-2, f, 23.csv","legacy","5 2","Kafkaesque Koffka","3.2.5","0","n","0","right","right","left","right","NA","513","30035","4718","513","NA","2","legacy","2","1024","2","48000","-16","experiment","2","even","7","569194","565883","566962","12101","122532","566973","391797","12124","117813","571205","571719","567983","42176","571205","NA","Sternberg Task","85","60023","87","yes","1024"
"97.7272727273","97.7272727273","691.659090909","691.659090909","black","experiment","legacy","legacy","legacy","0","uniform","1","undefined","1","left","87","87","87","0","0","87","87","0","0","87","87","87","0","87","0","Mon Oct  1 12:51:01 2018","The main experiment item","yes","SternbergTask.osexp","/Users/emorgan/Desktop","no","mono","no","18","no","white","no","yes","768","legacy","75","11","/Users/emorgan/Desktop/EM subject-2, f, 23.csv","legacy","5 2 9 6 1 7","Kafkaesque Koffka","3.2.5","3","y","0","left","right","left","left","NA","843","30035","4718","843","NA","2","legacy","6","1024","2","48000","-16","experiment","2","even","9","575052","571738","572819","12101","122532","572830","391797","12124","117813","577063","577908","573842","42176","577062","NA","Sternberg Task","86","60866","88","yes","1024"
"97.7528089888","97.7528089888","690.662921348","690.662921348","black","experiment","legacy","legacy","legacy","0","uniform","1","undefined","1","right","88","88","88","0","0","88","88","0","0","88","88","88","0","88","0","Mon Oct  1 12:51:01 2018","The main experiment item","yes","SternbergTask.osexp","/Users/emorgan/Desktop","no","mono","no","18","no","white","no","yes","768","legacy","76","11","/Users/emorgan/Desktop/EM subject-2, f, 23.csv","legacy","3 9 8 1 6 4","Kafkaesque Koffka","3.2.5","0","n","0","right","right","left","right","NA","603","30035","4718","603","NA","2","legacy","6","1024","2","48000","-16","experiment","2","even","7","581232","577921","578999","12101","122532","579009","391797","12124","117813","583243","583848","580021","42176","583243","NA","Sternberg Task","87","61469","89","yes","1024"
"97.7777777778","97.7777777778","689.477777778","689.477777778","black","experiment","legacy","legacy","legacy","0","uniform","1","undefined","1","right","89","89","89","0","0","89","89","0","0","89","89","89","0","89","0","Mon Oct  1 12:51:01 2018","The main experiment item","yes","SternbergTask.osexp","/Users/emorgan/Desktop","no","mono","no","18","no","white","no","yes","768","legacy","77","11","/Users/emorgan/Desktop/EM subject-2, f, 23.csv","legacy","2 3 8 5 6 7","Kafkaesque Koffka","3.2.5","0","n","0","right","right","left","right","NA","584","30035","4718","584","NA","2","legacy","6","1024","2","48000","-16","experiment","2","even","1","587178","583860","584946","12101","122532","584957","391797","12124","117813","589190","589776","585968","42176","589189","NA","Sternberg Task","88","62053","90","yes","1024"
"97.8021978022","97.8021978022","688.428571429","688.428571429","black","experiment","legacy","legacy","legacy","0","uniform","1","undefined","1","left","90","90","90","0","0","90","90","0","0","90","90","90","0","90","0","Mon Oct  1 12:51:01 2018","The main experiment item","yes","SternbergTask.osexp","/Users/emorgan/Desktop","no","mono","no","18","no","white","no","yes","768","legacy","78","11","/Users/emorgan/Desktop/EM subject-2, f, 23.csv","legacy","9 5 8 1","Kafkaesque Koffka","3.2.5","2","y","0","left","right","left","left","NA","594","30035","4718","594","NA","2","legacy","4","1024","2","48000","-16","experiment","2","even","5","593108","589799","590877","12101","122532","590887","391797","12124","117813","595120","595716","591898","42176","595120","NA","Sternberg Task","89","62647","91","yes","1024"
"97.8260869565","97.8260869565","688.608695652","688.608695652","black","experiment","legacy","legacy","legacy","0","uniform","1","undefined","1","right","91","91","91","0","0","91","91","0","0","91","91","91","0","91","0","Mon Oct  1 12:51:01 2018","The main experiment item","yes","SternbergTask.osexp","/Users/emorgan/Desktop","no","mono","no","18","no","white","no","yes","768","legacy","79","11","/Users/emorgan/Desktop/EM subject-2, f, 23.csv","legacy","4 8 1 2","Kafkaesque Koffka","3.2.5","0","n","0","right","right","left","right","NA","705","30035","4718","705","NA","2","legacy","4","1024","2","48000","-16","experiment","2","even","7","599050","595739","596818","12101","122532","596829","391797","12124","117813","601062","601768","597840","42176","601062","NA","Sternberg Task","90","63352","92","yes","1024"
"97.8494623656","97.8494623656","689.419354839","689.419354839","black","experiment","legacy","legacy","legacy","0","uniform","1","undefined","1","right","92","92","92","0","0","92","92","0","0","92","92","92","0","92","0","Mon Oct  1 12:51:01 2018","The main experiment item","yes","SternbergTask.osexp","/Users/emorgan/Desktop","no","mono","no","18","no","white","no","yes","768","legacy","80","11","/Users/emorgan/Desktop/EM subject-2, f, 23.csv","legacy","3 9 1","Kafkaesque Koffka","3.2.5","0","n","0","right","right","left","right","NA","764","30035","4718","764","NA","2","legacy","3","1024","2","48000","-16","experiment","2","even","7","605090","601780","602858","12101","122532","602869","391797","12124","117813","607101","607867","603879","42176","607101","NA","Sternberg Task","91","64116","93","yes","1024"
"97.8723404255","97.8723404255","693.627659574","693.627659574","black","experiment","legacy","legacy","legacy","0","uniform","1","undefined","1","right","93","93","93","0","0","93","93","0","0","93","93","93","0","93","0","Mon Oct  1 12:51:01 2018","The main experiment item","yes","SternbergTask.osexp","/Users/emorgan/Desktop","no","mono","no","18","no","white","no","yes","768","legacy","81","11","/Users/emorgan/Desktop/EM subject-2, f, 23.csv","legacy","8 2 1 4 5 9","Kafkaesque Koffka","3.2.5","0","n","0","right","right","left","right","NA","1085","30035","4718","1085","NA","2","legacy","6","1024","2","48000","-16","experiment","2","even","7","611192","607879","608957","12101","122532","608967","391797","12124","117813","613203","614290","609978","42176","613202","NA","Sternberg Task","92","65201","94","yes","1024"
"97.8947368421","97.8947368421","692.568421053","692.568421053","black","experiment","legacy","legacy","legacy","0","uniform","1","undefined","1","right","94","94","94","0","0","94","94","0","0","94","94","94","0","94","0","Mon Oct  1 12:51:01 2018","The main experiment item","yes","SternbergTask.osexp","/Users/emorgan/Desktop","no","mono","no","18","no","white","no","yes","768","legacy","82","11","/Users/emorgan/Desktop/EM subject-2, f, 23.csv","legacy","7 9 1 6","Kafkaesque Koffka","3.2.5","0","n","0","right","right","left","right","NA","593","30035","4718","593","NA","2","legacy","4","1024","2","48000","-16","experiment","2","even","4","617612","614302","615380","12101","122532","615391","391797","12124","117813","619624","620219","616402","42176","619624","NA","Sternberg Task","93","65794","95","yes","1024"
"97.9166666667","97.9166666667","691.875","691.875","black","experiment","legacy","legacy","legacy","0","uniform","1","undefined","1","right","95","95","95","0","0","95","95","0","0","95","95","95","0","95","0","Mon Oct  1 12:51:01 2018","The main experiment item","yes","SternbergTask.osexp","/Users/emorgan/Desktop","no","mono","no","18","no","white","no","yes","768","legacy","83","11","/Users/emorgan/Desktop/EM subject-2, f, 23.csv","legacy","8 4 3 9","Kafkaesque Koffka","3.2.5","0","n","0","right","right","left","right","NA","626","30035","4718","626","NA","2","legacy","4","1024","2","48000","-16","experiment","2","even","5","623554","620241","621320","12101","122532","621331","391797","12124","117813","625565","626193","622343","42176","625565","NA","Sternberg Task","94","66420","96","yes","1024"
"97.9381443299","97.9381443299","690.24742268","690.24742268","black","experiment","legacy","legacy","legacy","0","uniform","1","undefined","1","right","96","96","96","0","0","96","96","0","0","96","96","96","0","96","0","Mon Oct  1 12:51:01 2018","The main experiment item","yes","SternbergTask.osexp","/Users/emorgan/Desktop","no","mono","no","18","no","white","no","yes","768","legacy","84","11","/Users/emorgan/Desktop/EM subject-2, f, 23.csv","legacy","9 8 2 7 4","Kafkaesque Koffka","3.2.5","0","n","0","right","right","left","right","NA","534","30035","4718","534","NA","2","legacy","5","1024","2","48000","-16","experiment","2","even","5","629528","626217","627296","12101","122532","627307","391797","12124","117813","631541","632077","628318","42176","631540","NA","Sternberg Task","95","66954","97","yes","1024"
"97.9591836735","97.9591836735","689.489795918","689.489795918","black","experiment","legacy","legacy","legacy","0","uniform","1","undefined","1","right","97","97","97","0","0","97","97","0","0","97","97","97","0","97","0","Mon Oct  1 12:51:01 2018","The main experiment item","yes","SternbergTask.osexp","/Users/emorgan/Desktop","no","mono","no","18","no","white","no","yes","768","legacy","85","11","/Users/emorgan/Desktop/EM subject-2, f, 23.csv","legacy","7 6 4 8 1 2","Kafkaesque Koffka","3.2.5","0","n","0","right","right","left","right","NA","616","30035","4718","616","NA","2","legacy","6","1024","2","48000","-16","experiment","2","even","9","635399","632089","633167","12101","122532","633178","391797","12124","117813","637410","638028","634188","42176","637410","NA","Sternberg Task","96","67570","98","yes","1024"
"97.9797979798","97.9797979798","689.858585859","689.858585859","black","experiment","legacy","legacy","legacy","0","uniform","1","undefined","1","left","98","98","98","0","0","98","98","0","0","98","98","98","0","98","0","Mon Oct  1 12:51:01 2018","The main experiment item","yes","SternbergTask.osexp","/Users/emorgan/Desktop","no","mono","no","18","no","white","no","yes","768","legacy","86","11","/Users/emorgan/Desktop/EM subject-2, f, 23.csv","legacy","4 1 5","Kafkaesque Koffka","3.2.5","2","y","0","left","right","left","left","NA","726","30035","4718","726","NA","2","legacy","3","1024","2","48000","-16","experiment","2","even","1","641363","638052","639130","12101","122532","639141","391797","12124","117813","643375","644103","640153","42176","643375","NA","Sternberg Task","97","68296","99","yes","1024"
"98","98","690.72","690.72","black","experiment","legacy","legacy","legacy","0","uniform","1","undefined","1","right","99","99","99","0","0","99","99","0","0","99","99","99","0","99","0","Mon Oct  1 12:51:01 2018","The main experiment item","yes","SternbergTask.osexp","/Users/emorgan/Desktop","no","mono","no","18","no","white","no","yes","768","legacy","87","11","/Users/emorgan/Desktop/EM subject-2, f, 23.csv","legacy","1 7 5 2","Kafkaesque Koffka","3.2.5","0","n","0","right","right","left","right","NA","776","30035","4718","776","NA","2","legacy","4","1024","2","48000","-16","experiment","2","even","3","647423","644115","645192","12101","122532","645203","391797","12124","117813","649434","650212","646213","42176","649434","NA","Sternberg Task","98","69072","100","yes","1024"
"98.0198019802","98.0198019802","690.198019802","690.198019802","black","experiment","legacy","legacy","legacy","0","uniform","1","undefined","1","right","100","100","100","0","0","100","100","0","0","100","100","100","0","100","0","Mon Oct  1 12:51:01 2018","The main experiment item","yes","SternbergTask.osexp","/Users/emorgan/Desktop","no","mono","no","18","no","white","no","yes","768","legacy","88","11","/Users/emorgan/Desktop/EM subject-2, f, 23.csv","legacy","6 8 4","Kafkaesque Koffka","3.2.5","0","n","0","right","right","left","right","NA","638","30035","4718","638","NA","2","legacy","3","1024","2","48000","-16","experiment","2","even","1","653535","650225","651302","12101","122532","651313","391797","12124","117813","655546","656186","652325","42176","655546","NA","Sternberg Task","99","69710","101","yes","1024"
"98.0392156863","98.0392156863","688.705882353","688.705882353","black","experiment","legacy","legacy","legacy","0","uniform","1","undefined","1","right","101","101","101","0","0","101","101","0","0","101","101","101","0","101","0","Mon Oct  1 12:51:01 2018","The main experiment item","yes","SternbergTask.osexp","/Users/emorgan/Desktop","no","mono","no","18","no","white","no","yes","768","legacy","89","11","/Users/emorgan/Desktop/EM subject-2, f, 23.csv","legacy","1 7 8 3 9","Kafkaesque Koffka","3.2.5","0","n","0","right","right","left","right","NA","538","30035","4718","538","NA","2","legacy","5","1024","2","48000","-16","experiment","2","even","2","659519","656198","657284","12101","122532","657297","391797","12124","117813","661530","662070","658308","42176","661529","NA","Sternberg Task","100","70248","102","yes","1024"
"98.0582524272","98.0582524272","690.650485437","690.650485437","black","experiment","legacy","legacy","legacy","0","uniform","1","undefined","1","left","102","102","102","0","0","102","102","0","0","102","102","102","0","102","0","Mon Oct  1 12:51:01 2018","The main experiment item","yes","SternbergTask.osexp","/Users/emorgan/Desktop","no","mono","no","18","no","white","no","yes","768","legacy","90","11","/Users/emorgan/Desktop/EM subject-2, f, 23.csv","legacy","4 9 7 8 5 3","Kafkaesque Koffka","3.2.5","4","y","0","left","right","left","left","NA","889","30035","4718","889","NA","2","legacy","6","1024","2","48000","-16","experiment","2","even","8","665399","662085","663164","12101","122532","663177","391797","12124","117813","667411","668302","664187","42176","667411","NA","Sternberg Task","101","71137","103","yes","1024"
"98.0769230769","98.0769230769","690.740384615","690.740384615","black","experiment","legacy","legacy","legacy","0","uniform","1","undefined","1","left","103","103","103","0","0","103","103","0","0","103","103","103","0","103","0","Mon Oct  1 12:51:01 2018","The main experiment item","yes","SternbergTask.osexp","/Users/emorgan/Desktop","no","mono","no","18","no","white","no","yes","768","legacy","91","11","/Users/emorgan/Desktop/EM subject-2, f, 23.csv","legacy","7 8 6 3 1","Kafkaesque Koffka","3.2.5","5","y","0","left","right","left","left","NA","700","30035","4718","700","NA","2","legacy","5","1024","2","48000","-16","experiment","2","even","1","671653","668342","669421","12101","122532","669431","391797","12124","117813","673664","674366","670442","42176","673664","NA","Sternberg Task","102","71837","104","yes","1024"
"98.0952380952","98.0952380952","690.638095238","690.638095238","black","experiment","legacy","legacy","legacy","0","uniform","1","undefined","1","right","104","104","104","0","0","104","104","0","0","104","104","104","0","104","0","Mon Oct  1 12:51:01 2018","The main experiment item","yes","SternbergTask.osexp","/Users/emorgan/Desktop","no","mono","no","18","no","white","no","yes","768","legacy","92","11","/Users/emorgan/Desktop/EM subject-2, f, 23.csv","legacy","1 4 9 3","Kafkaesque Koffka","3.2.5","0","n","0","right","right","left","right","NA","680","30035","4718","680","NA","2","legacy","4","1024","2","48000","-16","experiment","2","even","5","677692","674378","675458","12101","122532","675469","391797","12124","117813","679703","680385","676481","42176","679703","NA","Sternberg Task","103","72517","105","yes","1024"
"98.1132075472","98.1132075472","689.952830189","689.952830189","black","experiment","legacy","legacy","legacy","0","uniform","1","undefined","1","left","105","105","105","0","0","105","105","0","0","105","105","105","0","105","0","Mon Oct  1 12:51:01 2018","The main experiment item","yes","SternbergTask.osexp","/Users/emorgan/Desktop","no","mono","no","18","no","white","no","yes","768","legacy","93","11","/Users/emorgan/Desktop/EM subject-2, f, 23.csv","legacy","8 1 6","Kafkaesque Koffka","3.2.5","3","y","0","left","right","left","left","NA","618","30035","4718","618","NA","2","legacy","3","1024","2","48000","-16","experiment","2","even","6","683706","680397","681474","12101","122532","681485","391797","12124","117813","685717","686336","682495","42176","685717","NA","Sternberg Task","104","73135","106","yes","1024"
"98.1308411215","98.1308411215","689.878504673","689.878504673","black","experiment","legacy","legacy","legacy","0","uniform","1","undefined","1","right","106","106","106","0","0","106","106","0","0","106","106","106","0","106","0","Mon Oct  1 12:51:01 2018","The main experiment item","yes","SternbergTask.osexp","/Users/emorgan/Desktop","no","mono","no","18","no","white","no","yes","768","legacy","94","11","/Users/emorgan/Desktop/EM subject-2, f, 23.csv","legacy","6 2 9 3 8 4","Kafkaesque Koffka","3.2.5","0","n","0","right","right","left","right","NA","682","30035","4718","682","NA","2","legacy","6","1024","2","48000","-16","experiment","2","even","1","689660","686348","687427","12101","122532","687438","391797","12124","117813","691671","692355","688449","42176","691671","NA","Sternberg Task","105","73817","107","yes","1024"
"98.1481481481","98.1481481481","688.703703704","688.703703704","black","experiment","legacy","legacy","legacy","0","uniform","1","undefined","1","right","107","107","107","0","0","107","107","0","0","107","107","107","0","107","0","Mon Oct  1 12:51:01 2018","The main experiment item","yes","SternbergTask.osexp","/Users/emorgan/Desktop","no","mono","no","18","no","white","no","yes","768","legacy","95","11","/Users/emorgan/Desktop/EM subject-2, f, 23.csv","legacy","8 5 4 2 9 6","Kafkaesque Koffka","3.2.5","0","n","0","right","right","left","right","NA","563","30035","4718","563","NA","2","legacy","6","1024","2","48000","-16","experiment","2","even","3","695686","692376","693455","12101","122532","693466","391797","12124","117813","697697","698261","694476","42176","697697","NA","Sternberg Task","106","74380","108","yes","1024"
"98.1651376147","98.1651376147","688.220183486","688.220183486","black","experiment","legacy","legacy","legacy","0","uniform","1","undefined","1","right","108","108","108","0","0","108","108","0","0","108","108","108","0","108","0","Mon Oct  1 12:51:01 2018","The main experiment item","yes","SternbergTask.osexp","/Users/emorgan/Desktop","no","mono","no","18","no","white","no","yes","768","legacy","96","11","/Users/emorgan/Desktop/EM subject-2, f, 23.csv","legacy","1 6 4 3 9 7","Kafkaesque Koffka","3.2.5","0","n","0","right","right","left","right","NA","636","30035","4718","636","NA","2","legacy","6","1024","2","48000","-16","experiment","2","even","8","701587","698274","699353","12101","122532","699365","391797","12124","117813","703598","704235","700376","42176","703598","NA","Sternberg Task","107","75016","109","yes","1024"
"98.1818181818","98.1818181818","686.463636364","686.463636364","black","experiment","legacy","legacy","legacy","0","uniform","1","undefined","1","left","109","109","109","0","0","109","109","0","0","109","109","109","0","109","0","Mon Oct  1 12:51:01 2018","The main experiment item","yes","SternbergTask.osexp","/Users/emorgan/Desktop","no","mono","no","18","no","white","no","yes","768","legacy","97","11","/Users/emorgan/Desktop/EM subject-2, f, 23.csv","legacy","4 3 2 5 8","Kafkaesque Koffka","3.2.5","2","y","0","left","right","left","left","NA","495","30035","4718","495","NA","2","legacy","5","1024","2","48000","-16","experiment","2","even","3","707566","704256","705334","12101","122532","705345","391797","12124","117813","709577","710074","706356","42176","709577","NA","Sternberg Task","108","75511","110","yes","1024"
"98.1981981982","98.1981981982","685.252252252","685.252252252","black","experiment","legacy","legacy","legacy","0","uniform","1","undefined","1","left","110","110","110","0","0","110","110","0","0","110","110","110","0","110","0","Mon Oct  1 12:51:01 2018","The main experiment item","yes","SternbergTask.osexp","/Users/emorgan/Desktop","no","mono","no","18","no","white","no","yes","768","legacy","98","11","/Users/emorgan/Desktop/EM subject-2, f, 23.csv","legacy","3 5 4 7","Kafkaesque Koffka","3.2.5","1","y","0","left","right","left","left","NA","552","30035","4718","552","NA","2","legacy","4","1024","2","48000","-16","experiment","2","even","3","713395","710086","711163","12101","122532","711174","391797","12124","117813","715406","715959","712185","42176","715406","NA","Sternberg Task","109","76063","111","yes","1024"
"98.2142857143","98.2142857143","686.446428571","686.446428571","black","experiment","legacy","legacy","legacy","0","uniform","1","undefined","1","left","111","111","111","0","0","111","111","0","0","111","111","111","0","111","0","Mon Oct  1 12:51:01 2018","The main experiment item","yes","SternbergTask.osexp","/Users/emorgan/Desktop","no","mono","no","18","no","white","no","yes","768","legacy","99","11","/Users/emorgan/Desktop/EM subject-2, f, 23.csv","legacy","6 1 2","Kafkaesque Koffka","3.2.5","3","y","0","left","right","left","left","NA","819","30035","4718","819","NA","2","legacy","3","1024","2","48000","-16","experiment","2","even","2","719280","715971","717048","12101","122532","717059","391797","12124","117813","721291","722112","718069","42176","721290","NA","Sternberg Task","110","76882","112","yes","1024"
"98.2300884956","98.2300884956","685.442477876","685.442477876","black","experiment","legacy","legacy","legacy","0","uniform","1","undefined","1","right","112","112","112","0","0","112","112","0","0","112","112","112","0","112","0","Mon Oct  1 12:51:01 2018","The main experiment item","yes","SternbergTask.osexp","/Users/emorgan/Desktop","no","mono","no","18","no","white","no","yes","768","legacy","100","11","/Users/emorgan/Desktop/EM subject-2, f, 23.csv","legacy","7 8 6 1","Kafkaesque Koffka","3.2.5","0","n","0","right","right","left","right","NA","573","30035","4718","573","NA","2","legacy","4","1024","2","48000","-16","experiment","2","even","3","725432","722124","723201","12101","122532","723212","391797","12124","117813","727444","728019","724222","42176","727444","NA","Sternberg Task","111","77455","113","yes","1024"
"98.2456140351","98.2456140351","686.701754386","686.701754386","black","experiment","legacy","legacy","legacy","0","uniform","1","undefined","1","left","113","113","113","0","0","113","113","0","0","113","113","113","0","113","0","Mon Oct  1 12:51:01 2018","The main experiment item","yes","SternbergTask.osexp","/Users/emorgan/Desktop","no","mono","no","18","no","white","no","yes","768","legacy","101","11","/Users/emorgan/Desktop/EM subject-2, f, 23.csv","legacy","5 7 8 2 3 8","Kafkaesque Koffka","3.2.5","5","y","0","left","right","left","left","NA","829","30035","4718","829","NA","2","legacy","6","1024","2","48000","-16","experiment","2","even","3","731341","728031","729109","12101","122532","729120","391797","12124","117813","733353","734184","730131","42176","733353","NA","Sternberg Task","112","78284","114","yes","1024"
"98.2608695652","98.2608695652","686.530434783","686.530434783","black","experiment","legacy","legacy","legacy","0","uniform","1","undefined","1","right","114","114","114","0","0","114","114","0","0","114","114","114","0","114","0","Mon Oct  1 12:51:01 2018","The main experiment item","yes","SternbergTask.osexp","/Users/emorgan/Desktop","no","mono","no","18","no","white","no","yes","768","legacy","102","11","/Users/emorgan/Desktop/EM subject-2, f, 23.csv","legacy","8 4 3 5","Kafkaesque Koffka","3.2.5","0","n","0","right","right","left","right","NA","667","30035","4718","667","NA","2","legacy","4","1024","2","48000","-16","experiment","2","even","6","737523","734211","735289","12101","122532","735300","391797","12124","117813","739534","740202","736311","42176","739534","NA","Sternberg Task","113","78951","115","yes","1024"
"98.275862069","98.275862069","687.336206897","687.336206897","black","experiment","legacy","legacy","legacy","0","uniform","1","undefined","1","right","115","115","115","0","0","115","115","0","0","115","115","115","0","115","0","Mon Oct  1 12:51:01 2018","The main experiment item","yes","SternbergTask.osexp","/Users/emorgan/Desktop","no","mono","no","18","no","white","no","yes","768","legacy","103","11","/Users/emorgan/Desktop/EM subject-2, f, 23.csv","legacy","2 5 1 4","Kafkaesque Koffka","3.2.5","0","n","0","right","right","left","right","NA","780","30035","4718","780","NA","2","legacy","4","1024","2","48000","-16","experiment","2","even","6","743530","740215","741297","12101","122532","741308","391797","12124","117813","745541","746323","742319","42176","745541","NA","Sternberg Task","114","79731","116","yes","1024"
"98.2905982906","98.2905982906","686.811965812","686.811965812","black","experiment","legacy","legacy","legacy","0","uniform","1","undefined","1","left","116","116","116","0","0","116","116","0","0","116","116","116","0","116","0","Mon Oct  1 12:51:01 2018","The main experiment item","yes","SternbergTask.osexp","/Users/emorgan/Desktop","no","mono","no","18","no","white","no","yes","768","legacy","104","11","/Users/emorgan/Desktop/EM subject-2, f, 23.csv","legacy","4","Kafkaesque Koffka","3.2.5","1","y","0","left","right","left","left","NA","626","30035","4718","626","NA","2","legacy","1","1024","2","48000","-16","experiment","2","even","4","749647","746335","747413","12101","122532","747424","391797","12124","117813","751658","752285","748436","42176","751658","NA","Sternberg Task","115","80357","117","yes","1024"
"98.3050847458","98.3050847458","686.152542373","686.152542373","black","experiment","legacy","legacy","legacy","0","uniform","1","undefined","1","right","117","117","117","0","0","117","117","0","0","117","117","117","0","117","0","Mon Oct  1 12:51:01 2018","The main experiment item","yes","SternbergTask.osexp","/Users/emorgan/Desktop","no","mono","no","18","no","white","no","yes","768","legacy","105","11","/Users/emorgan/Desktop/EM subject-2, f, 23.csv","legacy","5 9 2 3","Kafkaesque Koffka","3.2.5","0","n","0","right","right","left","right","NA","609","30035","4718","609","NA","2","legacy","4","1024","2","48000","-16","experiment","2","even","8","755626","752311","753393","12101","122532","753405","391797","12124","117813","757637","758248","754415","42176","757637","NA","Sternberg Task","116","80966","118","yes","1024"
"98.3193277311","98.3193277311","690.100840336","690.100840336","black","experiment","legacy","legacy","legacy","0","uniform","1","undefined","1","left","118","118","118","0","0","118","118","0","0","118","118","118","0","118","0","Mon Oct  1 12:51:01 2018","The main experiment item","yes","SternbergTask.osexp","/Users/emorgan/Desktop","no","mono","no","18","no","white","no","yes","768","legacy","106","11","/Users/emorgan/Desktop/EM subject-2, f, 23.csv","legacy","6 9 7 4 5 1","Kafkaesque Koffka","3.2.5","2","y","0","left","right","left","left","NA","1156","30035","4718","1156","NA","2","legacy","6","1024","2","48000","-16","experiment","2","even","9","761571","758260","759339","12101","122532","759350","391797","12124","117813","763582","764739","760361","42176","763582","NA","Sternberg Task","117","82122","119","yes","1024"
"98.3333333333","98.3333333333","690.291666667","690.291666667","black","experiment","legacy","legacy","legacy","0","uniform","1","undefined","1","left","119","119","119","0","0","119","119","0","0","119","119","119","0","119","0","Mon Oct  1 12:51:01 2018","The main experiment item","yes","SternbergTask.osexp","/Users/emorgan/Desktop","no","mono","no","18","no","white","no","yes","768","legacy","107","11","/Users/emorgan/Desktop/EM subject-2, f, 23.csv","legacy","5 2 6","Kafkaesque Koffka","3.2.5","2","y","0","left","right","left","left","NA","713","30035","4718","713","NA","2","legacy","3","1024","2","48000","-16","experiment","2","even","2","768066","764752","765832","12101","122532","765844","391797","12124","117813","770077","770793","766854","42176","770077","NA","Sternberg Task","118","82835","120","yes","1024"
