"acc","accuracy","average_response_time","avg_rt","background","block","canvas_backend","clock_backend","color_backend","compensation","coordinates","correct","correct_instructions1","correct_keyboard_response","correct_response","count_ISI","count_correctFeedback","count_expSequence","count_experiment","count_experimentLoop","count_fixation","count_incorrectFeedback","count_instructions1","count_instructions2","count_keyboard_response","count_logger","count_memorySet","count_practiceLoop","count_probe","count_thankYou","datetime","description","disable_garbage_collection","experiment_file","experiment_path","font_bold","font_family","font_italic","font_size","font_underline","foreground","form_clicks","fullscreen","height","keyboard_backend","live_row","live_row_practiceLoop","logfile","mouse_backend","numberSet","opensesame_codename","opensesame_version","posInSet","present","repeat_cycle","response","response_instructions1","response_instructions2","response_keyboard_response","response_thankYou","response_time","response_time_instructions1","response_time_instructions2","response_time_keyboard_response","response_time_thankYou","round_decimals","sampler_backend","setSize","sound_buf_size","sound_channels","sound_freq","sound_sample_size","start","subject_nr","subject_parity","target","time_ISI","time_correctFeedback","time_expSequence","time_experiment","time_experimentLoop","time_fixation","time_incorrectFeedback","time_instructions1","time_instructions2","time_keyboard_response","time_logger","time_memorySet","time_practiceLoop","time_probe","time_thankYou","title","total_correct","total_response_time","total_responses","uniform_coordinates","width"
"0","0","1216","1216","black","practice","legacy","legacy","legacy","0","uniform","0","undefined","0","left","0","0","0","0","0","0","0","0","0","0","0","0","0","0","0","Mon Oct  1 13:07:57 2018","The main experiment item","yes","SternbergTask.osexp","/Users/emorgan/Desktop","no","mono","no","18","no","white","no","yes","768","legacy","0","0","/Users/emorgan/Desktop/EM subject-3, f, 21.csv","legacy","6","Kafkaesque Koffka","3.2.5","1","y","0","right","right","NA","right","NA","1216","32092","NA","1216","NA","2","legacy","1","1024","2","48000","-16","experiment","3","odd","6","43366","NA","41133","6805","NA","41144","NA","6830","NA","45377","46594","42154","39298","45377","NA","Sternberg Task","0","1216","1","yes","1024"
"0","0","1608","1608","black","practice","legacy","legacy","legacy","0","uniform","0","undefined","0","right","1","1","1","0","0","1","1","0","0","1","1","1","0","1","0","Mon Oct  1 13:07:57 2018","The main experiment item","yes","SternbergTask.osexp","/Users/emorgan/Desktop","no","mono","no","18","no","white","no","yes","768","legacy","1","1","/Users/emorgan/Desktop/EM subject-3, f, 21.csv","legacy","2 1","Kafkaesque Koffka","3.2.5","0","n","0","None","right","NA","None","NA","2000","32092","NA","2000","NA","2","legacy","2","1024","2","48000","-16","experiment","3","odd","5","50006","NA","47775","6805","NA","47786","46687","6830","NA","52017","54017","48796","39298","52017","NA","Sternberg Task","0","3216","2","yes","1024"
"0","0","1285.66666667","1285.66666667","black","practice","legacy","legacy","legacy","0","uniform","0","undefined","0","left","2","2","2","0","0","2","2","0","0","2","2","2","0","2","0","Mon Oct  1 13:07:57 2018","The main experiment item","yes","SternbergTask.osexp","/Users/emorgan/Desktop","no","mono","no","18","no","white","no","yes","768","legacy","2","2","/Users/emorgan/Desktop/EM subject-3, f, 21.csv","legacy","1 5 2 9","Kafkaesque Koffka","3.2.5","2","y","0","right","right","NA","right","NA","641","32092","NA","641","NA","2","legacy","4","1024","2","48000","-16","experiment","3","odd","5","57373","NA","55141","6805","NA","55152","54056","6830","NA","59385","60027","56163","39298","59385","NA","Sternberg Task","0","3857","3","yes","1024"
"0","0","1464.25","1464.25","black","practice","legacy","legacy","legacy","0","uniform","0","undefined","0","right","3","3","3","0","0","3","3","0","0","3","3","3","0","3","0","Mon Oct  1 13:07:57 2018","The main experiment item","yes","SternbergTask.osexp","/Users/emorgan/Desktop","no","mono","no","18","no","white","no","yes","768","legacy","3","3","/Users/emorgan/Desktop/EM subject-3, f, 21.csv","legacy","5","Kafkaesque Koffka","3.2.5","0","n","0","None","right","NA","None","NA","2000","32092","NA","2000","NA","2","legacy","1","1024","2","48000","-16","experiment","3","odd","3","63355","NA","61122","6805","NA","61133","60044","6830","NA","65366","67366","62144","39298","65366","NA","Sternberg Task","0","5857","4","yes","1024"
"20","20","1384.8","1384.8","black","practice","legacy","legacy","legacy","0","uniform","1","undefined","1","left","4","4","4","0","0","4","4","0","0","4","4","4","0","4","0","Mon Oct  1 13:07:57 2018","The main experiment item","yes","SternbergTask.osexp","/Users/emorgan/Desktop","no","mono","no","18","no","white","no","yes","768","legacy","4","4","/Users/emorgan/Desktop/EM subject-3, f, 21.csv","legacy","4 8","Kafkaesque Koffka","3.2.5","1","y","0","left","right","NA","left","NA","1067","32092","NA","1067","NA","2","legacy","2","1024","2","48000","-16","experiment","3","odd","4","70694","NA","68461","6805","NA","68472","67379","6830","NA","72706","73775","69483","39298","72706","NA","Sternberg Task","1","6924","5","yes","1024"
"33.3333333333","33.3333333333","1301.5","1301.5","black","practice","legacy","legacy","legacy","0","uniform","1","undefined","1","right","5","5","5","0","0","5","5","0","0","5","5","5","0","5","0","Mon Oct  1 13:07:57 2018","The main experiment item","yes","SternbergTask.osexp","/Users/emorgan/Desktop","no","mono","no","18","no","white","no","yes","768","legacy","5","5","/Users/emorgan/Desktop/EM subject-3, f, 21.csv","legacy","3 1 9 4","Kafkaesque Koffka","3.2.5","0","n","0","right","right","NA","right","NA","885","32092","NA","885","NA","2","legacy","4","1024","2","48000","-16","experiment","3","odd","6","77100","73787","74867","6805","NA","74878","67379","6830","NA","79111","79997","75889","39298","79111","NA","Sternberg Task","2","7809","6","yes","1024"
"42.8571428571","42.8571428571","1265.42857143","1265.42857143","black","practice","legacy","legacy","legacy","0","uniform","1","undefined","1","left","6","6","6","0","0","6","6","0","0","6","6","6","0","6","0","Mon Oct  1 13:07:57 2018","The main experiment item","yes","SternbergTask.osexp","/Users/emorgan/Desktop","no","mono","no","18","no","white","no","yes","768","legacy","6","6","/Users/emorgan/Desktop/EM subject-3, f, 21.csv","legacy","4 3 1 7 9 8","Kafkaesque Koffka","3.2.5","1","y","0","left","right","NA","left","NA","1049","32092","NA","1049","NA","2","legacy","6","1024","2","48000","-16","experiment","3","odd","4","83325","80014","81092","6805","NA","81103","67379","6830","NA","85336","86386","82115","39298","85336","NA","Sternberg Task","3","8858","7","yes","1024"
"50","50","1201.125","1201.125","black","practice","legacy","legacy","legacy","0","uniform","1","undefined","1","right","7","7","7","0","0","7","7","0","0","7","7","7","0","7","0","Mon Oct  1 13:07:57 2018","The main experiment item","yes","SternbergTask.osexp","/Users/emorgan/Desktop","no","mono","no","18","no","white","no","yes","768","legacy","7","7","/Users/emorgan/Desktop/EM subject-3, f, 21.csv","legacy","4 1 5","Kafkaesque Koffka","3.2.5","0","n","0","right","right","NA","right","NA","751","32092","NA","751","NA","2","legacy","3","1024","2","48000","-16","experiment","3","odd","2","89721","86403","87488","6805","NA","87499","67379","6830","NA","91732","92484","88509","39298","91732","NA","Sternberg Task","4","9609","8","yes","1024"
"55.5555555556","55.5555555556","1190","1190","black","practice","legacy","legacy","legacy","0","uniform","1","undefined","1","right","8","8","8","0","0","8","8","0","0","8","8","8","0","8","0","Mon Oct  1 13:07:57 2018","The main experiment item","yes","SternbergTask.osexp","/Users/emorgan/Desktop","no","mono","no","18","no","white","no","yes","768","legacy","8","8","/Users/emorgan/Desktop/EM subject-3, f, 21.csv","legacy","9 6 7 4 5","Kafkaesque Koffka","3.2.5","0","n","0","right","right","NA","right","NA","1101","32092","NA","1101","NA","2","legacy","5","1024","2","48000","-16","experiment","3","odd","3","95808","92496","93574","6805","NA","93585","67379","6830","NA","97818","98920","94596","39298","97818","NA","Sternberg Task","5","10710","9","yes","1024"
"60","60","1215.8","1215.8","black","practice","legacy","legacy","legacy","0","uniform","1","undefined","1","left","9","9","9","0","0","9","9","0","0","9","9","9","0","9","0","Mon Oct  1 13:07:57 2018","The main experiment item","yes","SternbergTask.osexp","/Users/emorgan/Desktop","no","mono","no","18","no","white","no","yes","768","legacy","9","9","/Users/emorgan/Desktop/EM subject-3, f, 21.csv","legacy","1 7 9 8 5","Kafkaesque Koffka","3.2.5","4","y","0","left","right","NA","left","NA","1448","32092","NA","1448","NA","2","legacy","5","1024","2","48000","-16","experiment","3","odd","8","102265","98955","100032","6805","NA","100044","67379","6830","NA","104276","105725","101054","39298","104276","NA","Sternberg Task","6","12158","10","yes","1024"
"63.6363636364","63.6363636364","1177","1177","black","practice","legacy","legacy","legacy","0","uniform","1","undefined","1","right","10","10","10","0","0","10","10","0","0","10","10","10","0","10","0","Mon Oct  1 13:07:57 2018","The main experiment item","yes","SternbergTask.osexp","/Users/emorgan/Desktop","no","mono","no","18","no","white","no","yes","768","legacy","10","10","/Users/emorgan/Desktop/EM subject-3, f, 21.csv","legacy","5 7 8 4 1 2","Kafkaesque Koffka","3.2.5","0","n","0","right","right","NA","right","NA","789","32092","NA","789","NA","2","legacy","6","1024","2","48000","-16","experiment","3","odd","6","109068","105755","106835","6805","NA","106846","67379","6830","NA","111079","111869","107857","39298","111078","NA","Sternberg Task","7","12947","11","yes","1024"
"66.6666666667","66.6666666667","1172.33333333","1172.33333333","black","practice","legacy","legacy","legacy","0","uniform","1","undefined","1","left","11","11","11","0","0","11","11","0","0","11","11","11","0","11","0","Mon Oct  1 13:07:57 2018","The main experiment item","yes","SternbergTask.osexp","/Users/emorgan/Desktop","no","mono","no","18","no","white","no","yes","768","legacy","11","11","/Users/emorgan/Desktop/EM subject-3, f, 21.csv","legacy","2 9 4","Kafkaesque Koffka","3.2.5","3","y","0","left","right","NA","left","NA","1121","32092","NA","1121","NA","2","legacy","3","1024","2","48000","-16","experiment","3","odd","4","115191","111881","112959","6805","NA","112969","67379","6830","NA","117203","118326","113981","39298","117203","NA","Sternberg Task","8","14068","12","yes","1024"
"69.2307692308","69.2307692308","1151.53846154","1151.53846154","black","experiment","legacy","legacy","legacy","0","uniform","1","undefined","1","left","12","12","12","0","0","12","12","0","0","12","12","12","0","12","0","Mon Oct  1 13:07:57 2018","The main experiment item","yes","SternbergTask.osexp","/Users/emorgan/Desktop","no","mono","no","18","no","white","no","yes","768","legacy","0","11","/Users/emorgan/Desktop/EM subject-3, f, 21.csv","legacy","4 1 5","Kafkaesque Koffka","3.2.5","2","y","0","left","right","right","left","NA","902","32092","6783","902","NA","2","legacy","3","1024","2","48000","-16","experiment","3","odd","1","128529","118343","126296","6805","126156","126307","67379","6830","119371","130540","131443","127318","39298","130540","NA","Sternberg Task","9","14970","13","yes","1024"
"71.4285714286","71.4285714286","1116.42857143","1116.42857143","black","experiment","legacy","legacy","legacy","0","uniform","1","undefined","1","right","13","13","13","0","0","13","13","0","0","13","13","13","0","13","0","Mon Oct  1 13:07:57 2018","The main experiment item","yes","SternbergTask.osexp","/Users/emorgan/Desktop","no","mono","no","18","no","white","no","yes","768","legacy","1","11","/Users/emorgan/Desktop/EM subject-3, f, 21.csv","legacy","1 7 8 3 9","Kafkaesque Koffka","3.2.5","0","n","0","right","right","right","right","NA","660","32092","6783","660","NA","2","legacy","5","1024","2","48000","-16","experiment","3","odd","2","134779","131466","132545","6805","126156","132556","67379","6830","119371","136790","137451","133568","39298","136790","NA","Sternberg Task","10","15630","14","yes","1024"
"73.3333333333","73.3333333333","1108.53333333","1108.53333333","black","experiment","legacy","legacy","legacy","0","uniform","1","undefined","1","left","14","14","14","0","0","14","14","0","0","14","14","14","0","14","0","Mon Oct  1 13:07:57 2018","The main experiment item","yes","SternbergTask.osexp","/Users/emorgan/Desktop","no","mono","no","18","no","white","no","yes","768","legacy","2","11","/Users/emorgan/Desktop/EM subject-3, f, 21.csv","legacy","4 1 8 7 5","Kafkaesque Koffka","3.2.5","3","y","0","left","right","right","left","NA","998","32092","6783","998","NA","2","legacy","5","1024","2","48000","-16","experiment","3","odd","8","140798","137488","138566","6805","126156","138577","67379","6830","119371","142809","143808","139587","39298","142809","NA","Sternberg Task","11","16628","15","yes","1024"
"75","75","1089.4375","1089.4375","black","experiment","legacy","legacy","legacy","0","uniform","1","undefined","1","left","15","15","15","0","0","15","15","0","0","15","15","15","0","15","0","Mon Oct  1 13:07:57 2018","The main experiment item","yes","SternbergTask.osexp","/Users/emorgan/Desktop","no","mono","no","18","no","white","no","yes","768","legacy","3","11","/Users/emorgan/Desktop/EM subject-3, f, 21.csv","legacy","6 7 9 3 1 2","Kafkaesque Koffka","3.2.5","1","y","0","left","right","right","left","NA","803","32092","6783","803","NA","2","legacy","6","1024","2","48000","-16","experiment","3","odd","6","147156","143844","144923","6805","126156","144934","67379","6830","119371","149169","149973","145945","39298","149169","NA","Sternberg Task","12","17431","16","yes","1024"
"76.4705882353","76.4705882353","1070.64705882","1070.64705882","black","experiment","legacy","legacy","legacy","0","uniform","1","undefined","1","left","16","16","16","0","0","16","16","0","0","16","16","16","0","16","0","Mon Oct  1 13:07:57 2018","The main experiment item","yes","SternbergTask.osexp","/Users/emorgan/Desktop","no","mono","no","18","no","white","no","yes","768","legacy","4","11","/Users/emorgan/Desktop/EM subject-3, f, 21.csv","legacy","4 3 2 5 8","Kafkaesque Koffka","3.2.5","2","y","0","left","right","right","left","NA","770","32092","6783","770","NA","2","legacy","5","1024","2","48000","-16","experiment","3","odd","3","153322","150012","151090","6805","126156","151102","67379","6830","119371","155333","156104","152112","39298","155333","NA","Sternberg Task","13","18201","17","yes","1024"
"77.7777777778","77.7777777778","1048.5","1048.5","black","experiment","legacy","legacy","legacy","0","uniform","1","undefined","1","left","17","17","17","0","0","17","17","0","0","17","17","17","0","17","0","Mon Oct  1 13:07:57 2018","The main experiment item","yes","SternbergTask.osexp","/Users/emorgan/Desktop","no","mono","no","18","no","white","no","yes","768","legacy","5","11","/Users/emorgan/Desktop/EM subject-3, f, 21.csv","legacy","3 2 1 4 7","Kafkaesque Koffka","3.2.5","2","y","0","left","right","right","left","NA","672","32092","6783","672","NA","2","legacy","5","1024","2","48000","-16","experiment","3","odd","2","159426","156116","157194","6805","126156","157205","67379","6830","119371","161438","162111","158215","39298","161437","NA","Sternberg Task","14","18873","18","yes","1024"
"73.6842105263","73.6842105263","1035.84210526","1035.84210526","black","experiment","legacy","legacy","legacy","0","uniform","0","undefined","0","left","18","18","18","0","0","18","18","0","0","18","18","18","0","18","0","Mon Oct  1 13:07:57 2018","The main experiment item","yes","SternbergTask.osexp","/Users/emorgan/Desktop","no","mono","no","18","no","white","no","yes","768","legacy","6","11","/Users/emorgan/Desktop/EM subject-3, f, 21.csv","legacy","7 8 4 6 9 5","Kafkaesque Koffka","3.2.5","4","y","0","right","right","right","right","NA","808","32092","6783","808","NA","2","legacy","6","1024","2","48000","-16","experiment","3","odd","6","165445","162134","163212","6805","126156","163223","67379","6830","119371","167456","168265","164234","39298","167455","NA","Sternberg Task","14","19681","19","yes","1024"
"75","75","1020.65","1020.65","black","experiment","legacy","legacy","legacy","0","uniform","1","undefined","1","left","19","19","19","0","0","19","19","0","0","19","19","19","0","19","0","Mon Oct  1 13:07:57 2018","The main experiment item","yes","SternbergTask.osexp","/Users/emorgan/Desktop","no","mono","no","18","no","white","no","yes","768","legacy","7","11","/Users/emorgan/Desktop/EM subject-3, f, 21.csv","legacy","6 9 3 1","Kafkaesque Koffka","3.2.5","4","y","0","left","right","right","left","NA","732","32092","6783","732","NA","2","legacy","4","1024","2","48000","-16","experiment","3","odd","1","171607","162134","169373","6805","126156","169385","168290","6830","119371","173618","174352","170396","39298","173618","NA","Sternberg Task","15","20413","20","yes","1024"
"76.1904761905","76.1904761905","1002.0952381","1002.0952381","black","experiment","legacy","legacy","legacy","0","uniform","1","undefined","1","left","20","20","20","0","0","20","20","0","0","20","20","20","0","20","0","Mon Oct  1 13:07:57 2018","The main experiment item","yes","SternbergTask.osexp","/Users/emorgan/Desktop","no","mono","no","18","no","white","no","yes","768","legacy","8","11","/Users/emorgan/Desktop/EM subject-3, f, 21.csv","legacy","8 7 3","Kafkaesque Koffka","3.2.5","1","y","0","left","right","right","left","NA","631","32092","6783","631","NA","2","legacy","3","1024","2","48000","-16","experiment","3","odd","8","177693","174376","175459","6805","126156","175471","168290","6830","119371","179704","180337","176482","39298","179704","NA","Sternberg Task","16","21044","21","yes","1024"
"77.2727272727","77.2727272727","986.909090909","986.909090909","black","experiment","legacy","legacy","legacy","0","uniform","1","undefined","1","right","21","21","21","0","0","21","21","0","0","21","21","21","0","21","0","Mon Oct  1 13:07:57 2018","The main experiment item","yes","SternbergTask.osexp","/Users/emorgan/Desktop","no","mono","no","18","no","white","no","yes","768","legacy","9","11","/Users/emorgan/Desktop/EM subject-3, f, 21.csv","legacy","6 9 5","Kafkaesque Koffka","3.2.5","0","n","0","right","right","right","right","NA","668","32092","6783","668","NA","2","legacy","3","1024","2","48000","-16","experiment","3","odd","8","183675","180361","181442","6805","126156","181454","168290","6830","119371","185687","186356","182464","39298","185687","NA","Sternberg Task","17","21712","22","yes","1024"
"78.2608695652","78.2608695652","975.52173913","975.52173913","black","experiment","legacy","legacy","legacy","0","uniform","1","undefined","1","right","22","22","22","0","0","22","22","0","0","22","22","22","0","22","0","Mon Oct  1 13:07:57 2018","The main experiment item","yes","SternbergTask.osexp","/Users/emorgan/Desktop","no","mono","no","18","no","white","no","yes","768","legacy","10","11","/Users/emorgan/Desktop/EM subject-3, f, 21.csv","legacy","1 6 4","Kafkaesque Koffka","3.2.5","0","n","0","right","right","right","right","NA","725","32092","6783","725","NA","2","legacy","3","1024","2","48000","-16","experiment","3","odd","7","189697","186383","187463","6805","126156","187475","168290","6830","119371","191709","192435","188485","39298","191708","NA","Sternberg Task","18","22437","23","yes","1024"
"79.1666666667","79.1666666667","967.875","967.875","black","experiment","legacy","legacy","legacy","0","uniform","1","undefined","1","left","23","23","23","0","0","23","23","0","0","23","23","23","0","23","0","Mon Oct  1 13:07:57 2018","The main experiment item","yes","SternbergTask.osexp","/Users/emorgan/Desktop","no","mono","no","18","no","white","no","yes","768","legacy","11","11","/Users/emorgan/Desktop/EM subject-3, f, 21.csv","legacy","4 6 5 8","Kafkaesque Koffka","3.2.5","1","y","0","left","right","right","left","NA","792","32092","6783","792","NA","2","legacy","4","1024","2","48000","-16","experiment","3","odd","4","195859","192539","193624","6805","126156","193636","168290","6830","119371","197870","198663","194646","39298","197870","NA","Sternberg Task","19","23229","24","yes","1024"
"80","80","950.52","950.52","black","experiment","legacy","legacy","legacy","0","uniform","1","undefined","1","right","24","24","24","0","0","24","24","0","0","24","24","24","0","24","0","Mon Oct  1 13:07:57 2018","The main experiment item","yes","SternbergTask.osexp","/Users/emorgan/Desktop","no","mono","no","18","no","white","no","yes","768","legacy","12","11","/Users/emorgan/Desktop/EM subject-3, f, 21.csv","legacy","1 4 9 2 5","Kafkaesque Koffka","3.2.5","0","n","0","right","right","right","right","NA","534","32092","6783","534","NA","2","legacy","5","1024","2","48000","-16","experiment","3","odd","7","202035","198724","199803","6805","126156","199815","168290","6830","119371","204046","204581","200825","39298","204046","NA","Sternberg Task","20","23763","25","yes","1024"
"80.7692307692","80.7692307692","951.538461538","951.538461538","black","experiment","legacy","legacy","legacy","0","uniform","1","undefined","1","left","25","25","25","0","0","25","25","0","0","25","25","25","0","25","0","Mon Oct  1 13:07:57 2018","The main experiment item","yes","SternbergTask.osexp","/Users/emorgan/Desktop","no","mono","no","18","no","white","no","yes","768","legacy","13","11","/Users/emorgan/Desktop/EM subject-3, f, 21.csv","legacy","8 5 4 7 3 1","Kafkaesque Koffka","3.2.5","2","y","0","left","right","right","left","NA","977","32092","6783","977","NA","2","legacy","6","1024","2","48000","-16","experiment","3","odd","5","207915","204605","205682","6805","126156","205693","168290","6830","119371","209926","210904","206703","39298","209926","NA","Sternberg Task","21","24740","26","yes","1024"
"81.4814814815","81.4814814815","942.037037037","942.037037037","black","experiment","legacy","legacy","legacy","0","uniform","1","undefined","1","right","26","26","26","0","0","26","26","0","0","26","26","26","0","26","0","Mon Oct  1 13:07:57 2018","The main experiment item","yes","SternbergTask.osexp","/Users/emorgan/Desktop","no","mono","no","18","no","white","no","yes","768","legacy","14","11","/Users/emorgan/Desktop/EM subject-3, f, 21.csv","legacy","1 5 3 2 8","Kafkaesque Koffka","3.2.5","0","n","0","right","right","right","right","NA","695","32092","6783","695","NA","2","legacy","5","1024","2","48000","-16","experiment","3","odd","4","214228","210917","211996","6805","126156","212005","168290","6830","119371","216239","216935","213017","39298","216239","NA","Sternberg Task","22","25435","27","yes","1024"
"82.1428571429","82.1428571429","934.285714286","934.285714286","black","experiment","legacy","legacy","legacy","0","uniform","1","undefined","1","left","27","27","27","0","0","27","27","0","0","27","27","27","0","27","0","Mon Oct  1 13:07:57 2018","The main experiment item","yes","SternbergTask.osexp","/Users/emorgan/Desktop","no","mono","no","18","no","white","no","yes","768","legacy","15","11","/Users/emorgan/Desktop/EM subject-3, f, 21.csv","legacy","4","Kafkaesque Koffka","3.2.5","1","y","0","left","right","right","left","NA","725","32092","6783","725","NA","2","legacy","1","1024","2","48000","-16","experiment","3","odd","4","220271","216962","218039","6805","126156","218050","168290","6830","119371","222283","223009","219060","39298","222282","NA","Sternberg Task","23","26160","28","yes","1024"
"82.7586206897","82.7586206897","921.24137931","921.24137931","black","experiment","legacy","legacy","legacy","0","uniform","1","undefined","1","left","28","28","28","0","0","28","28","0","0","28","28","28","0","28","0","Mon Oct  1 13:07:57 2018","The main experiment item","yes","SternbergTask.osexp","/Users/emorgan/Desktop","no","mono","no","18","no","white","no","yes","768","legacy","16","11","/Users/emorgan/Desktop/EM subject-3, f, 21.csv","legacy","9 4 2","Kafkaesque Koffka","3.2.5","1","y","0","left","right","right","left","NA","556","32092","6783","556","NA","2","legacy","3","1024","2","48000","-16","experiment","3","odd","9","226337","223021","224105","6805","126156","224116","168290","6830","119371","228348","228905","225126","39298","228348","NA","Sternberg Task","24","26716","29","yes","1024"
"83.3333333333","83.3333333333","913.7","913.7","black","experiment","legacy","legacy","legacy","0","uniform","1","undefined","1","left","29","29","29","0","0","29","29","0","0","29","29","29","0","29","0","Mon Oct  1 13:07:57 2018","The main experiment item","yes","SternbergTask.osexp","/Users/emorgan/Desktop","no","mono","no","18","no","white","no","yes","768","legacy","17","11","/Users/emorgan/Desktop/EM subject-3, f, 21.csv","legacy","3 5 9 6 2 4","Kafkaesque Koffka","3.2.5","1","y","0","left","right","right","left","NA","695","32092","6783","695","NA","2","legacy","6","1024","2","48000","-16","experiment","3","odd","3","232239","228929","230007","6805","126156","230018","168290","6830","119371","234250","234946","231028","39298","234250","NA","Sternberg Task","25","27411","30","yes","1024"
"83.8709677419","83.8709677419","901.322580645","901.322580645","black","experiment","legacy","legacy","legacy","0","uniform","1","undefined","1","right","30","30","30","0","0","30","30","0","0","30","30","30","0","30","0","Mon Oct  1 13:07:57 2018","The main experiment item","yes","SternbergTask.osexp","/Users/emorgan/Desktop","no","mono","no","18","no","white","no","yes","768","legacy","18","11","/Users/emorgan/Desktop/EM subject-3, f, 21.csv","legacy","8 9","Kafkaesque Koffka","3.2.5","0","n","0","right","right","right","right","NA","530","32092","6783","530","NA","2","legacy","2","1024","2","48000","-16","experiment","3","odd","5","238266","234958","236033","6805","126156","236044","168290","6830","119371","240277","240808","237054","39298","240277","NA","Sternberg Task","26","27941","31","yes","1024"
"84.375","84.375","903.65625","903.65625","black","experiment","legacy","legacy","legacy","0","uniform","1","undefined","1","right","31","31","31","0","0","31","31","0","0","31","31","31","0","31","0","Mon Oct  1 13:07:57 2018","The main experiment item","yes","SternbergTask.osexp","/Users/emorgan/Desktop","no","mono","no","18","no","white","no","yes","768","legacy","19","11","/Users/emorgan/Desktop/EM subject-3, f, 21.csv","legacy","8 5 4 2 9 6","Kafkaesque Koffka","3.2.5","0","n","0","right","right","right","right","NA","976","32092","6783","976","NA","2","legacy","6","1024","2","48000","-16","experiment","3","odd","3","244130","240820","241898","6805","126156","241909","168290","6830","119371","246141","247118","242920","39298","246141","NA","Sternberg Task","27","28917","32","yes","1024"
"81.8181818182","81.8181818182","894.242424242","894.242424242","black","experiment","legacy","legacy","legacy","0","uniform","0","undefined","0","left","32","32","32","0","0","32","32","0","0","32","32","32","0","32","0","Mon Oct  1 13:07:57 2018","The main experiment item","yes","SternbergTask.osexp","/Users/emorgan/Desktop","no","mono","no","18","no","white","no","yes","768","legacy","20","11","/Users/emorgan/Desktop/EM subject-3, f, 21.csv","legacy","7 6","Kafkaesque Koffka","3.2.5","2","y","0","right","right","right","right","NA","593","32092","6783","593","NA","2","legacy","2","1024","2","48000","-16","experiment","3","odd","6","250451","247140","248216","6805","126156","248227","168290","6830","119371","252464","253058","249239","39298","252464","NA","Sternberg Task","27","29510","33","yes","1024"
"82.3529411765","82.3529411765","895.823529412","895.823529412","black","experiment","legacy","legacy","legacy","0","uniform","1","undefined","1","right","33","33","33","0","0","33","33","0","0","33","33","33","0","33","0","Mon Oct  1 13:07:57 2018","The main experiment item","yes","SternbergTask.osexp","/Users/emorgan/Desktop","no","mono","no","18","no","white","no","yes","768","legacy","21","11","/Users/emorgan/Desktop/EM subject-3, f, 21.csv","legacy","7 4 2 8 1 9","Kafkaesque Koffka","3.2.5","0","n","0","right","right","right","right","NA","948","32092","6783","948","NA","2","legacy","6","1024","2","48000","-16","experiment","3","odd","5","256408","247140","254176","6805","126156","254187","253097","6830","119371","258420","259370","255197","39298","258420","NA","Sternberg Task","28","30458","34","yes","1024"
"82.8571428571","82.8571428571","895.714285714","895.714285714","black","experiment","legacy","legacy","legacy","0","uniform","1","undefined","1","right","34","34","34","0","0","34","34","0","0","34","34","34","0","34","0","Mon Oct  1 13:07:57 2018","The main experiment item","yes","SternbergTask.osexp","/Users/emorgan/Desktop","no","mono","no","18","no","white","no","yes","768","legacy","22","11","/Users/emorgan/Desktop/EM subject-3, f, 21.csv","legacy","7 9 1 6","Kafkaesque Koffka","3.2.5","0","n","0","right","right","right","right","NA","892","32092","6783","892","NA","2","legacy","4","1024","2","48000","-16","experiment","3","odd","4","262697","259385","260464","6805","126156","260476","253097","6830","119371","264709","265602","261487","39298","264709","NA","Sternberg Task","29","31350","35","yes","1024"
"83.3333333333","83.3333333333","893.888888889","893.888888889","black","experiment","legacy","legacy","legacy","0","uniform","1","undefined","1","left","35","35","35","0","0","35","35","0","0","35","35","35","0","35","0","Mon Oct  1 13:07:57 2018","The main experiment item","yes","SternbergTask.osexp","/Users/emorgan/Desktop","no","mono","no","18","no","white","no","yes","768","legacy","23","11","/Users/emorgan/Desktop/EM subject-3, f, 21.csv","legacy","8 5 1 3 9","Kafkaesque Koffka","3.2.5","4","y","0","left","right","right","left","NA","830","32092","6783","830","NA","2","legacy","5","1024","2","48000","-16","experiment","3","odd","3","268925","265614","266693","6805","126156","266704","253097","6830","119371","270936","271767","267715","39298","270936","NA","Sternberg Task","30","32180","36","yes","1024"
"81.0810810811","81.0810810811","894.405405405","894.405405405","black","experiment","legacy","legacy","legacy","0","uniform","0","undefined","0","right","36","36","36","0","0","36","36","0","0","36","36","36","0","36","0","Mon Oct  1 13:07:57 2018","The main experiment item","yes","SternbergTask.osexp","/Users/emorgan/Desktop","no","mono","no","18","no","white","no","yes","768","legacy","24","11","/Users/emorgan/Desktop/EM subject-3, f, 21.csv","legacy","4 2 7 6 1 3","Kafkaesque Koffka","3.2.5","0","n","0","left","right","right","left","NA","913","32092","6783","913","NA","2","legacy","6","1024","2","48000","-16","experiment","3","odd","8","275097","271779","272864","6805","126156","272876","253097","6830","119371","277108","278022","273887","39298","277107","NA","Sternberg Task","30","33093","37","yes","1024"
"81.5789473684","81.5789473684","893","893","black","experiment","legacy","legacy","legacy","0","uniform","1","undefined","1","right","37","37","37","0","0","37","37","0","0","37","37","37","0","37","0","Mon Oct  1 13:07:57 2018","The main experiment item","yes","SternbergTask.osexp","/Users/emorgan/Desktop","no","mono","no","18","no","white","no","yes","768","legacy","25","11","/Users/emorgan/Desktop/EM subject-3, f, 21.csv","legacy","6 9 7 3 8 2","Kafkaesque Koffka","3.2.5","0","n","0","right","right","right","right","NA","841","32092","6783","841","NA","2","legacy","6","1024","2","48000","-16","experiment","3","odd","5","281345","271779","279113","6805","126156","279124","278035","6830","119371","283357","284199","280134","39298","283357","NA","Sternberg Task","31","33934","38","yes","1024"
"82.0512820513","82.0512820513","892.282051282","892.282051282","black","experiment","legacy","legacy","legacy","0","uniform","1","undefined","1","right","38","38","38","0","0","38","38","0","0","38","38","38","0","38","0","Mon Oct  1 13:07:57 2018","The main experiment item","yes","SternbergTask.osexp","/Users/emorgan/Desktop","no","mono","no","18","no","white","no","yes","768","legacy","26","11","/Users/emorgan/Desktop/EM subject-3, f, 21.csv","legacy","3 9 1","Kafkaesque Koffka","3.2.5","0","n","0","right","right","right","right","NA","865","32092","6783","865","NA","2","legacy","3","1024","2","48000","-16","experiment","3","odd","7","287542","284228","285308","6805","126156","285321","278035","6830","119371","289554","290420","286331","39298","289554","NA","Sternberg Task","32","34799","39","yes","1024"
"82.5","82.5","895.1","895.1","black","experiment","legacy","legacy","legacy","0","uniform","1","undefined","1","left","39","39","39","0","0","39","39","0","0","39","39","39","0","39","0","Mon Oct  1 13:07:57 2018","The main experiment item","yes","SternbergTask.osexp","/Users/emorgan/Desktop","no","mono","no","18","no","white","no","yes","768","legacy","27","11","/Users/emorgan/Desktop/EM subject-3, f, 21.csv","legacy","8 5 3 7 4 6","Kafkaesque Koffka","3.2.5","6","y","0","left","right","right","left","NA","1005","32092","6783","1005","NA","2","legacy","6","1024","2","48000","-16","experiment","3","odd","6","293748","290438","291516","6805","126156","291527","278035","6830","119371","295759","296765","292537","39298","295759","NA","Sternberg Task","33","35804","40","yes","1024"
"82.9268292683","82.9268292683","897.097560976","897.097560976","black","experiment","legacy","legacy","legacy","0","uniform","1","undefined","1","left","40","40","40","0","0","40","40","0","0","40","40","40","0","40","0","Mon Oct  1 13:07:57 2018","The main experiment item","yes","SternbergTask.osexp","/Users/emorgan/Desktop","no","mono","no","18","no","white","no","yes","768","legacy","28","11","/Users/emorgan/Desktop/EM subject-3, f, 21.csv","legacy","7 8 6 3 1","Kafkaesque Koffka","3.2.5","5","y","0","left","right","right","left","NA","977","32092","6783","977","NA","2","legacy","5","1024","2","48000","-16","experiment","3","odd","1","300088","296777","297856","6805","126156","297866","278035","6830","119371","302099","303077","298877","39298","302098","NA","Sternberg Task","34","36781","41","yes","1024"
"83.3333333333","83.3333333333","890.19047619","890.19047619","black","experiment","legacy","legacy","legacy","0","uniform","1","undefined","1","right","41","41","41","0","0","41","41","0","0","41","41","41","0","41","0","Mon Oct  1 13:07:57 2018","The main experiment item","yes","SternbergTask.osexp","/Users/emorgan/Desktop","no","mono","no","18","no","white","no","yes","768","legacy","29","11","/Users/emorgan/Desktop/EM subject-3, f, 21.csv","legacy","3 4 2","Kafkaesque Koffka","3.2.5","0","n","0","right","right","right","right","NA","607","32092","6783","607","NA","2","legacy","3","1024","2","48000","-16","experiment","3","odd","5","306398","303089","304166","6805","126156","304178","278035","6830","119371","308409","309017","305188","39298","308409","NA","Sternberg Task","35","37388","42","yes","1024"
"83.7209302326","83.7209302326","892.441860465","892.441860465","black","experiment","legacy","legacy","legacy","0","uniform","1","undefined","1","right","42","42","42","0","0","42","42","0","0","42","42","42","0","42","0","Mon Oct  1 13:07:57 2018","The main experiment item","yes","SternbergTask.osexp","/Users/emorgan/Desktop","no","mono","no","18","no","white","no","yes","768","legacy","30","11","/Users/emorgan/Desktop/EM subject-3, f, 21.csv","legacy","9 7 4 5 8","Kafkaesque Koffka","3.2.5","0","n","0","right","right","right","right","NA","987","32092","6783","987","NA","2","legacy","5","1024","2","48000","-16","experiment","3","odd","6","312339","309029","310108","6805","126156","310119","278035","6830","119371","314351","315341","311129","39298","314351","NA","Sternberg Task","36","38375","43","yes","1024"
"84.0909090909","84.0909090909","890.159090909","890.159090909","black","experiment","legacy","legacy","legacy","0","uniform","1","undefined","1","left","43","43","43","0","0","43","43","0","0","43","43","43","0","43","0","Mon Oct  1 13:07:57 2018","The main experiment item","yes","SternbergTask.osexp","/Users/emorgan/Desktop","no","mono","no","18","no","white","no","yes","768","legacy","31","11","/Users/emorgan/Desktop/EM subject-3, f, 21.csv","legacy","6 8 9 3 4 9","Kafkaesque Koffka","3.2.5","5","y","0","left","right","right","left","NA","792","32092","6783","792","NA","2","legacy","6","1024","2","48000","-16","experiment","3","odd","4","318667","315354","316434","6805","126156","316445","278035","6830","119371","320678","321471","317456","39298","320678","NA","Sternberg Task","37","39167","44","yes","1024"
"84.4444444444","84.4444444444","887.311111111","887.311111111","black","experiment","legacy","legacy","legacy","0","uniform","1","undefined","1","right","44","44","44","0","0","44","44","0","0","44","44","44","0","44","0","Mon Oct  1 13:07:57 2018","The main experiment item","yes","SternbergTask.osexp","/Users/emorgan/Desktop","no","mono","no","18","no","white","no","yes","768","legacy","32","11","/Users/emorgan/Desktop/EM subject-3, f, 21.csv","legacy","7 1 5 6 3","Kafkaesque Koffka","3.2.5","0","n","0","right","right","right","right","NA","762","32092","6783","762","NA","2","legacy","5","1024","2","48000","-16","experiment","3","odd","8","324792","321483","322561","6805","126156","322572","278035","6830","119371","326805","327569","323582","39298","326805","NA","Sternberg Task","38","39929","45","yes","1024"
"84.7826086957","84.7826086957","888.239130435","888.239130435","black","experiment","legacy","legacy","legacy","0","uniform","1","undefined","1","right","45","45","45","0","0","45","45","0","0","45","45","45","0","45","0","Mon Oct  1 13:07:57 2018","The main experiment item","yes","SternbergTask.osexp","/Users/emorgan/Desktop","no","mono","no","18","no","white","no","yes","768","legacy","33","11","/Users/emorgan/Desktop/EM subject-3, f, 21.csv","legacy","1 4 3 6 5","Kafkaesque Koffka","3.2.5","0","n","0","right","right","right","right","NA","930","32092","6783","930","NA","2","legacy","5","1024","2","48000","-16","experiment","3","odd","8","330894","327581","328661","6805","126156","328673","278035","6830","119371","332905","333836","329683","39298","332905","NA","Sternberg Task","39","40859","46","yes","1024"
"85.1063829787","85.1063829787","897.893617021","897.893617021","black","experiment","legacy","legacy","legacy","0","uniform","1","undefined","1","right","46","46","46","0","0","46","46","0","0","46","46","46","0","46","0","Mon Oct  1 13:07:57 2018","The main experiment item","yes","SternbergTask.osexp","/Users/emorgan/Desktop","no","mono","no","18","no","white","no","yes","768","legacy","34","11","/Users/emorgan/Desktop/EM subject-3, f, 21.csv","legacy","5 2","Kafkaesque Koffka","3.2.5","0","n","0","right","right","right","right","NA","1342","32092","6783","1342","NA","2","legacy","2","1024","2","48000","-16","experiment","3","odd","7","337163","333848","334929","6805","126156","334939","278035","6830","119371","339174","340518","335951","39298","339173","NA","Sternberg Task","40","42201","47","yes","1024"
"83.3333333333","83.3333333333","893.979166667","893.979166667","black","experiment","legacy","legacy","legacy","0","uniform","0","undefined","0","right","47","47","47","0","0","47","47","0","0","47","47","47","0","47","0","Mon Oct  1 13:07:57 2018","The main experiment item","yes","SternbergTask.osexp","/Users/emorgan/Desktop","no","mono","no","18","no","white","no","yes","768","legacy","35","11","/Users/emorgan/Desktop/EM subject-3, f, 21.csv","legacy","2 3 8 5 6 7","Kafkaesque Koffka","3.2.5","0","n","0","left","right","right","left","NA","710","32092","6783","710","NA","2","legacy","6","1024","2","48000","-16","experiment","3","odd","1","343848","340530","341614","6805","126156","341626","278035","6830","119371","345859","346570","342637","39298","345859","NA","Sternberg Task","40","42911","48","yes","1024"
"83.6734693878","83.6734693878","897.551020408","897.551020408","black","experiment","legacy","legacy","legacy","0","uniform","1","undefined","1","right","48","48","48","0","0","48","48","0","0","48","48","48","0","48","0","Mon Oct  1 13:07:57 2018","The main experiment item","yes","SternbergTask.osexp","/Users/emorgan/Desktop","no","mono","no","18","no","white","no","yes","768","legacy","36","11","/Users/emorgan/Desktop/EM subject-3, f, 21.csv","legacy","2 6 4 3 9","Kafkaesque Koffka","3.2.5","0","n","0","right","right","right","right","NA","1069","32092","6783","1069","NA","2","legacy","5","1024","2","48000","-16","experiment","3","odd","1","349891","340530","347659","6805","126156","347670","346582","6830","119371","351902","352973","348680","39298","351902","NA","Sternberg Task","41","43980","49","yes","1024"
"84","84","898.88","898.88","black","experiment","legacy","legacy","legacy","0","uniform","1","undefined","1","left","49","49","49","0","0","49","49","0","0","49","49","49","0","49","0","Mon Oct  1 13:07:57 2018","The main experiment item","yes","SternbergTask.osexp","/Users/emorgan/Desktop","no","mono","no","18","no","white","no","yes","768","legacy","37","11","/Users/emorgan/Desktop/EM subject-3, f, 21.csv","legacy","5 2 6","Kafkaesque Koffka","3.2.5","2","y","0","left","right","right","left","NA","964","32092","6783","964","NA","2","legacy","3","1024","2","48000","-16","experiment","3","odd","2","356293","352985","354061","6805","126156","354072","346582","6830","119371","358306","359271","355083","39298","358306","NA","Sternberg Task","42","44944","50","yes","1024"
"84.3137254902","84.3137254902","896.862745098","896.862745098","black","experiment","legacy","legacy","legacy","0","uniform","1","undefined","1","right","50","50","50","0","0","50","50","0","0","50","50","50","0","50","0","Mon Oct  1 13:07:57 2018","The main experiment item","yes","SternbergTask.osexp","/Users/emorgan/Desktop","no","mono","no","18","no","white","no","yes","768","legacy","38","11","/Users/emorgan/Desktop/EM subject-3, f, 21.csv","legacy","8 4 3 5","Kafkaesque Koffka","3.2.5","0","n","0","right","right","right","right","NA","796","32092","6783","796","NA","2","legacy","4","1024","2","48000","-16","experiment","3","odd","6","362594","359284","360362","6805","126156","360372","346582","6830","119371","364606","365403","361383","39298","364606","NA","Sternberg Task","43","45740","51","yes","1024"
"84.6153846154","84.6153846154","896.25","896.25","black","experiment","legacy","legacy","legacy","0","uniform","1","undefined","1","right","51","51","51","0","0","51","51","0","0","51","51","51","0","51","0","Mon Oct  1 13:07:57 2018","The main experiment item","yes","SternbergTask.osexp","/Users/emorgan/Desktop","no","mono","no","18","no","white","no","yes","768","legacy","39","11","/Users/emorgan/Desktop/EM subject-3, f, 21.csv","legacy","2 8 6 3 1","Kafkaesque Koffka","3.2.5","0","n","0","right","right","right","right","NA","865","32092","6783","865","NA","2","legacy","5","1024","2","48000","-16","experiment","3","odd","7","368725","365415","366493","6805","126156","366504","346582","6830","119371","370736","371602","367515","39298","370736","NA","Sternberg Task","44","46605","52","yes","1024"
"83.0188679245","83.0188679245","898.603773585","898.603773585","black","experiment","legacy","legacy","legacy","0","uniform","0","undefined","0","left","52","52","52","0","0","52","52","0","0","52","52","52","0","52","0","Mon Oct  1 13:07:57 2018","The main experiment item","yes","SternbergTask.osexp","/Users/emorgan/Desktop","no","mono","no","18","no","white","no","yes","768","legacy","40","11","/Users/emorgan/Desktop/EM subject-3, f, 21.csv","legacy","4 9 7 8 5 3","Kafkaesque Koffka","3.2.5","4","y","0","right","right","right","right","NA","1021","32092","6783","1021","NA","2","legacy","6","1024","2","48000","-16","experiment","3","odd","8","374926","371614","372693","6805","126156","372703","346582","6830","119371","376937","377959","373715","39298","376937","NA","Sternberg Task","44","47626","53","yes","1024"
"83.3333333333","83.3333333333","897.351851852","897.351851852","black","experiment","legacy","legacy","legacy","0","uniform","1","undefined","1","right","53","53","53","0","0","53","53","0","0","53","53","53","0","53","0","Mon Oct  1 13:07:57 2018","The main experiment item","yes","SternbergTask.osexp","/Users/emorgan/Desktop","no","mono","no","18","no","white","no","yes","768","legacy","41","11","/Users/emorgan/Desktop/EM subject-3, f, 21.csv","legacy","7 1","Kafkaesque Koffka","3.2.5","0","n","0","right","right","right","right","NA","831","32092","6783","831","NA","2","legacy","2","1024","2","48000","-16","experiment","3","odd","8","381290","371614","379059","6805","126156","379069","377983","6830","119371","383302","384135","380080","39298","383302","NA","Sternberg Task","45","48457","54","yes","1024"
"83.6363636364","83.6363636364","897.781818182","897.781818182","black","experiment","legacy","legacy","legacy","0","uniform","1","undefined","1","left","54","54","54","0","0","54","54","0","0","54","54","54","0","54","0","Mon Oct  1 13:07:57 2018","The main experiment item","yes","SternbergTask.osexp","/Users/emorgan/Desktop","no","mono","no","18","no","white","no","yes","768","legacy","42","11","/Users/emorgan/Desktop/EM subject-3, f, 21.csv","legacy","7","Kafkaesque Koffka","3.2.5","1","y","0","left","right","right","left","NA","921","32092","6783","921","NA","2","legacy","1","1024","2","48000","-16","experiment","3","odd","7","387455","384147","385223","6805","126156","385234","377983","6830","119371","389467","390390","386244","39298","389466","NA","Sternberg Task","46","49378","55","yes","1024"
"83.9285714286","83.9285714286","895.803571429","895.803571429","black","experiment","legacy","legacy","legacy","0","uniform","1","undefined","1","left","55","55","55","0","0","55","55","0","0","55","55","55","0","55","0","Mon Oct  1 13:07:57 2018","The main experiment item","yes","SternbergTask.osexp","/Users/emorgan/Desktop","no","mono","no","18","no","white","no","yes","768","legacy","43","11","/Users/emorgan/Desktop/EM subject-3, f, 21.csv","legacy","3 4","Kafkaesque Koffka","3.2.5","1","y","0","left","right","right","left","NA","787","32092","6783","787","NA","2","legacy","2","1024","2","48000","-16","experiment","3","odd","3","393711","390402","391480","6805","126156","391491","377983","6830","119371","395722","396510","392501","39298","395722","NA","Sternberg Task","47","50165","56","yes","1024"
"84.2105263158","84.2105263158","892.684210526","892.684210526","black","experiment","legacy","legacy","legacy","0","uniform","1","undefined","1","right","56","56","56","0","0","56","56","0","0","56","56","56","0","56","0","Mon Oct  1 13:07:57 2018","The main experiment item","yes","SternbergTask.osexp","/Users/emorgan/Desktop","no","mono","no","18","no","white","no","yes","768","legacy","44","11","/Users/emorgan/Desktop/EM subject-3, f, 21.csv","legacy","7 9","Kafkaesque Koffka","3.2.5","0","n","0","right","right","right","right","NA","718","32092","6783","718","NA","2","legacy","2","1024","2","48000","-16","experiment","3","odd","1","399831","396522","397599","6805","126156","397610","377983","6830","119371","401843","402563","398620","39298","401843","NA","Sternberg Task","48","50883","57","yes","1024"
"84.4827586207","84.4827586207","895.293103448","895.293103448","black","experiment","legacy","legacy","legacy","0","uniform","1","undefined","1","right","57","57","57","0","0","57","57","0","0","57","57","57","0","57","0","Mon Oct  1 13:07:57 2018","The main experiment item","yes","SternbergTask.osexp","/Users/emorgan/Desktop","no","mono","no","18","no","white","no","yes","768","legacy","45","11","/Users/emorgan/Desktop/EM subject-3, f, 21.csv","legacy","2 8 7 9 5 3","Kafkaesque Koffka","3.2.5","0","n","0","right","right","right","right","NA","1044","32092","6783","1044","NA","2","legacy","6","1024","2","48000","-16","experiment","3","odd","6","405886","402575","403654","6805","126156","403665","377983","6830","119371","407897","408942","404675","39298","407897","NA","Sternberg Task","49","51927","58","yes","1024"
"84.7457627119","84.7457627119","902","902","black","experiment","legacy","legacy","legacy","0","uniform","1","undefined","1","left","58","58","58","0","0","58","58","0","0","58","58","58","0","58","0","Mon Oct  1 13:07:57 2018","The main experiment item","yes","SternbergTask.osexp","/Users/emorgan/Desktop","no","mono","no","18","no","white","no","yes","768","legacy","46","11","/Users/emorgan/Desktop/EM subject-3, f, 21.csv","legacy","5 7 3 6 2","Kafkaesque Koffka","3.2.5","5","y","0","left","right","right","left","NA","1291","32092","6783","1291","NA","2","legacy","5","1024","2","48000","-16","experiment","3","odd","2","412263","408954","410031","6805","126156","410042","377983","6830","119371","414275","415568","411052","39298","414275","NA","Sternberg Task","50","53218","59","yes","1024"
"85","85","897.816666667","897.816666667","black","experiment","legacy","legacy","legacy","0","uniform","1","undefined","1","left","59","59","59","0","0","59","59","0","0","59","59","59","0","59","0","Mon Oct  1 13:07:57 2018","The main experiment item","yes","SternbergTask.osexp","/Users/emorgan/Desktop","no","mono","no","18","no","white","no","yes","768","legacy","47","11","/Users/emorgan/Desktop/EM subject-3, f, 21.csv","legacy","9 8 4","Kafkaesque Koffka","3.2.5","1","y","0","left","right","right","left","NA","651","32092","6783","651","NA","2","legacy","3","1024","2","48000","-16","experiment","3","odd","9","418890","415580","416658","6805","126156","416669","377983","6830","119371","420901","421553","417679","39298","420901","NA","Sternberg Task","51","53869","60","yes","1024"
"85.2459016393","85.2459016393","898.655737705","898.655737705","black","experiment","legacy","legacy","legacy","0","uniform","1","undefined","1","right","60","60","60","0","0","60","60","0","0","60","60","60","0","60","0","Mon Oct  1 13:07:57 2018","The main experiment item","yes","SternbergTask.osexp","/Users/emorgan/Desktop","no","mono","no","18","no","white","no","yes","768","legacy","48","11","/Users/emorgan/Desktop/EM subject-3, f, 21.csv","legacy","1 4 9 3","Kafkaesque Koffka","3.2.5","0","n","0","right","right","right","right","NA","949","32092","6783","949","NA","2","legacy","4","1024","2","48000","-16","experiment","3","odd","5","424882","421566","422649","6805","126156","422661","377983","6830","119371","426892","427843","423671","39298","426892","NA","Sternberg Task","52","54818","61","yes","1024"
"85.4838709677","85.4838709677","896.096774194","896.096774194","black","experiment","legacy","legacy","legacy","0","uniform","1","undefined","1","left","61","61","61","0","0","61","61","0","0","61","61","61","0","61","0","Mon Oct  1 13:07:57 2018","The main experiment item","yes","SternbergTask.osexp","/Users/emorgan/Desktop","no","mono","no","18","no","white","no","yes","768","legacy","49","11","/Users/emorgan/Desktop/EM subject-3, f, 21.csv","legacy","6 9 7 4 5 1","Kafkaesque Koffka","3.2.5","2","y","0","left","right","right","left","NA","740","32092","6783","740","NA","2","legacy","6","1024","2","48000","-16","experiment","3","odd","9","431164","427855","428933","6805","126156","428943","377983","6830","119371","433176","433918","429953","39298","433175","NA","Sternberg Task","53","55558","62","yes","1024"
"84.126984127","84.126984127","903.841269841","903.841269841","black","experiment","legacy","legacy","legacy","0","uniform","0","undefined","0","left","62","62","62","0","0","62","62","0","0","62","62","62","0","62","0","Mon Oct  1 13:07:57 2018","The main experiment item","yes","SternbergTask.osexp","/Users/emorgan/Desktop","no","mono","no","18","no","white","no","yes","768","legacy","50","11","/Users/emorgan/Desktop/EM subject-3, f, 21.csv","legacy","2 4 8 5 1 3","Kafkaesque Koffka","3.2.5","1","y","0","right","right","right","right","NA","1384","32092","6783","1384","NA","2","legacy","6","1024","2","48000","-16","experiment","3","odd","2","437237","433930","435006","6805","126156","435017","377983","6830","119371","439248","440633","436027","39298","439248","NA","Sternberg Task","53","56942","63","yes","1024"
"84.375","84.375","901.828125","901.828125","black","experiment","legacy","legacy","legacy","0","uniform","1","undefined","1","right","63","63","63","0","0","63","63","0","0","63","63","63","0","63","0","Mon Oct  1 13:07:57 2018","The main experiment item","yes","SternbergTask.osexp","/Users/emorgan/Desktop","no","mono","no","18","no","white","no","yes","768","legacy","51","11","/Users/emorgan/Desktop/EM subject-3, f, 21.csv","legacy","4 8 1 2","Kafkaesque Koffka","3.2.5","0","n","0","right","right","right","right","NA","775","32092","6783","775","NA","2","legacy","4","1024","2","48000","-16","experiment","3","odd","7","443955","433930","441722","6805","126156","441733","440645","6830","119371","445966","446742","442744","39298","445966","NA","Sternberg Task","54","57717","64","yes","1024"
"84.6153846154","84.6153846154","898.292307692","898.292307692","black","experiment","legacy","legacy","legacy","0","uniform","1","undefined","1","left","64","64","64","0","0","64","64","0","0","64","64","64","0","64","0","Mon Oct  1 13:07:57 2018","The main experiment item","yes","SternbergTask.osexp","/Users/emorgan/Desktop","no","mono","no","18","no","white","no","yes","768","legacy","52","11","/Users/emorgan/Desktop/EM subject-3, f, 21.csv","legacy","9 3 8 2 1 4","Kafkaesque Koffka","3.2.5","3","y","0","left","right","right","left","NA","672","32092","6783","672","NA","2","legacy","6","1024","2","48000","-16","experiment","3","odd","8","450064","446754","447833","6805","126156","447844","440645","6830","119371","452076","452750","448854","39298","452075","NA","Sternberg Task","55","58389","65","yes","1024"
"84.8484848485","84.8484848485","895.393939394","895.393939394","black","experiment","legacy","legacy","legacy","0","uniform","1","undefined","1","right","65","65","65","0","0","65","65","0","0","65","65","65","0","65","0","Mon Oct  1 13:07:57 2018","The main experiment item","yes","SternbergTask.osexp","/Users/emorgan/Desktop","no","mono","no","18","no","white","no","yes","768","legacy","53","11","/Users/emorgan/Desktop/EM subject-3, f, 21.csv","legacy","6 8 4","Kafkaesque Koffka","3.2.5","0","n","0","right","right","right","right","NA","707","32092","6783","707","NA","2","legacy","3","1024","2","48000","-16","experiment","3","odd","1","456072","452763","453841","6805","126156","453852","440645","6830","119371","458083","458791","454862","39298","458083","NA","Sternberg Task","56","59096","66","yes","1024"
"85.0746268657","85.0746268657","895.597014925","895.597014925","black","experiment","legacy","legacy","legacy","0","uniform","1","undefined","1","right","66","66","66","0","0","66","66","0","0","66","66","66","0","66","0","Mon Oct  1 13:07:57 2018","The main experiment item","yes","SternbergTask.osexp","/Users/emorgan/Desktop","no","mono","no","18","no","white","no","yes","768","legacy","54","11","/Users/emorgan/Desktop/EM subject-3, f, 21.csv","legacy","7 8 6 1","Kafkaesque Koffka","3.2.5","0","n","0","right","right","right","right","NA","909","32092","6783","909","NA","2","legacy","4","1024","2","48000","-16","experiment","3","odd","3","462114","458804","459882","6805","126156","459893","440645","6830","119371","464125","465035","460904","39298","464125","NA","Sternberg Task","57","60005","67","yes","1024"
"85.2941176471","85.2941176471","891.75","891.75","black","experiment","legacy","legacy","legacy","0","uniform","1","undefined","1","left","67","67","67","0","0","67","67","0","0","67","67","67","0","67","0","Mon Oct  1 13:07:57 2018","The main experiment item","yes","SternbergTask.osexp","/Users/emorgan/Desktop","no","mono","no","18","no","white","no","yes","768","legacy","55","11","/Users/emorgan/Desktop/EM subject-3, f, 21.csv","legacy","6 2","Kafkaesque Koffka","3.2.5","1","y","0","left","right","right","left","NA","634","32092","6783","634","NA","2","legacy","2","1024","2","48000","-16","experiment","3","odd","6","468362","465048","466128","6805","126156","466140","440645","6830","119371","470373","471009","467151","39298","470373","NA","Sternberg Task","58","60639","68","yes","1024"
"85.5072463768","85.5072463768","889.594202899","889.594202899","black","experiment","legacy","legacy","legacy","0","uniform","1","undefined","1","right","68","68","68","0","0","68","68","0","0","68","68","68","0","68","0","Mon Oct  1 13:07:57 2018","The main experiment item","yes","SternbergTask.osexp","/Users/emorgan/Desktop","no","mono","no","18","no","white","no","yes","768","legacy","56","11","/Users/emorgan/Desktop/EM subject-3, f, 21.csv","legacy","5 9 2 3","Kafkaesque Koffka","3.2.5","0","n","0","right","right","right","right","NA","743","32092","6783","743","NA","2","legacy","4","1024","2","48000","-16","experiment","3","odd","8","474329","471021","472098","6805","126156","472109","440645","6830","119371","476340","477084","473119","39298","476339","NA","Sternberg Task","59","61382","69","yes","1024"
"85.7142857143","85.7142857143","893.714285714","893.714285714","black","experiment","legacy","legacy","legacy","0","uniform","1","undefined","1","left","69","69","69","0","0","69","69","0","0","69","69","69","0","69","0","Mon Oct  1 13:07:57 2018","The main experiment item","yes","SternbergTask.osexp","/Users/emorgan/Desktop","no","mono","no","18","no","white","no","yes","768","legacy","57","11","/Users/emorgan/Desktop/EM subject-3, f, 21.csv","legacy","4 6 2 5 1","Kafkaesque Koffka","3.2.5","5","y","0","left","right","right","left","NA","1178","32092","6783","1178","NA","2","legacy","5","1024","2","48000","-16","experiment","3","odd","1","480406","477096","478173","6805","126156","478184","440645","6830","119371","482418","483598","479196","39298","482418","NA","Sternberg Task","60","62560","70","yes","1024"
"85.9154929577","85.9154929577","891.070422535","891.070422535","black","experiment","legacy","legacy","legacy","0","uniform","1","undefined","1","left","70","70","70","0","0","70","70","0","0","70","70","70","0","70","0","Mon Oct  1 13:07:57 2018","The main experiment item","yes","SternbergTask.osexp","/Users/emorgan/Desktop","no","mono","no","18","no","white","no","yes","768","legacy","58","11","/Users/emorgan/Desktop/EM subject-3, f, 21.csv","legacy","8 9 6 1","Kafkaesque Koffka","3.2.5","2","y","0","left","right","right","left","NA","706","32092","6783","706","NA","2","legacy","4","1024","2","48000","-16","experiment","3","odd","9","486922","483610","484688","6805","126156","484699","440645","6830","119371","488932","489639","485709","39298","488932","NA","Sternberg Task","61","63266","71","yes","1024"
"86.1111111111","86.1111111111","889.305555556","889.305555556","black","experiment","legacy","legacy","legacy","0","uniform","1","undefined","1","left","71","71","71","0","0","71","71","0","0","71","71","71","0","71","0","Mon Oct  1 13:07:57 2018","The main experiment item","yes","SternbergTask.osexp","/Users/emorgan/Desktop","no","mono","no","18","no","white","no","yes","768","legacy","59","11","/Users/emorgan/Desktop/EM subject-3, f, 21.csv","legacy","8 3","Kafkaesque Koffka","3.2.5","2","y","0","left","right","right","left","NA","764","32092","6783","764","NA","2","legacy","2","1024","2","48000","-16","experiment","3","odd","3","492960","489651","490727","6805","126156","490738","440645","6830","119371","494971","495737","491749","39298","494971","NA","Sternberg Task","62","64030","72","yes","1024"
"86.301369863","86.301369863","885.561643836","885.561643836","black","experiment","legacy","legacy","legacy","0","uniform","1","undefined","1","right","72","72","72","0","0","72","72","0","0","72","72","72","0","72","0","Mon Oct  1 13:07:57 2018","The main experiment item","yes","SternbergTask.osexp","/Users/emorgan/Desktop","no","mono","no","18","no","white","no","yes","768","legacy","60","11","/Users/emorgan/Desktop/EM subject-3, f, 21.csv","legacy","4 1","Kafkaesque Koffka","3.2.5","0","n","0","right","right","right","right","NA","616","32092","6783","616","NA","2","legacy","2","1024","2","48000","-16","experiment","3","odd","6","499060","495749","496829","6805","126156","496839","440645","6830","119371","501071","501688","497849","39298","501070","NA","Sternberg Task","63","64646","73","yes","1024"
"86.4864864865","86.4864864865","883.108108108","883.108108108","black","experiment","legacy","legacy","legacy","0","uniform","1","undefined","1","right","73","73","73","0","0","73","73","0","0","73","73","73","0","73","0","Mon Oct  1 13:07:57 2018","The main experiment item","yes","SternbergTask.osexp","/Users/emorgan/Desktop","no","mono","no","18","no","white","no","yes","768","legacy","61","11","/Users/emorgan/Desktop/EM subject-3, f, 21.csv","legacy","2 5 1 4","Kafkaesque Koffka","3.2.5","0","n","0","right","right","right","right","NA","704","32092","6783","704","NA","2","legacy","4","1024","2","48000","-16","experiment","3","odd","6","505013","501700","502780","6805","126156","502791","440645","6830","119371","507024","507730","503803","39298","507024","NA","Sternberg Task","64","65350","74","yes","1024"
"86.6666666667","86.6666666667","883.533333333","883.533333333","black","experiment","legacy","legacy","legacy","0","uniform","1","undefined","1","left","74","74","74","0","0","74","74","0","0","74","74","74","0","74","0","Mon Oct  1 13:07:57 2018","The main experiment item","yes","SternbergTask.osexp","/Users/emorgan/Desktop","no","mono","no","18","no","white","no","yes","768","legacy","62","11","/Users/emorgan/Desktop/EM subject-3, f, 21.csv","legacy","2 3","Kafkaesque Koffka","3.2.5","1","y","0","left","right","right","left","NA","915","32092","6783","915","NA","2","legacy","2","1024","2","48000","-16","experiment","3","odd","2","511058","507741","508826","6805","126156","508838","440645","6830","119371","513069","513986","509848","39298","513068","NA","Sternberg Task","65","66265","75","yes","1024"
"86.8421052632","86.8421052632","881.934210526","881.934210526","black","experiment","legacy","legacy","legacy","0","uniform","1","undefined","1","left","75","75","75","0","0","75","75","0","0","75","75","75","0","75","0","Mon Oct  1 13:07:57 2018","The main experiment item","yes","SternbergTask.osexp","/Users/emorgan/Desktop","no","mono","no","18","no","white","no","yes","768","legacy","63","11","/Users/emorgan/Desktop/EM subject-3, f, 21.csv","legacy","9 5 3 8 4","Kafkaesque Koffka","3.2.5","1","y","0","left","right","right","left","NA","762","32092","6783","762","NA","2","legacy","5","1024","2","48000","-16","experiment","3","odd","9","517308","513998","515075","6805","126156","515086","440645","6830","119371","519319","520082","516096","39298","519319","NA","Sternberg Task","66","67027","76","yes","1024"
"87.012987013","87.012987013","880.103896104","880.103896104","black","experiment","legacy","legacy","legacy","0","uniform","1","undefined","1","right","76","76","76","0","0","76","76","0","0","76","76","76","0","76","0","Mon Oct  1 13:07:57 2018","The main experiment item","yes","SternbergTask.osexp","/Users/emorgan/Desktop","no","mono","no","18","no","white","no","yes","768","legacy","64","11","/Users/emorgan/Desktop/EM subject-3, f, 21.csv","legacy","1 7 5 2","Kafkaesque Koffka","3.2.5","0","n","0","right","right","right","right","NA","741","32092","6783","741","NA","2","legacy","4","1024","2","48000","-16","experiment","3","odd","3","523404","520094","521171","6805","126156","521182","440645","6830","119371","525415","526158","522193","39298","525415","NA","Sternberg Task","67","67768","77","yes","1024"
"87.1794871795","87.1794871795","880.166666667","880.166666667","black","experiment","legacy","legacy","legacy","0","uniform","1","undefined","1","left","77","77","77","0","0","77","77","0","0","77","77","77","0","77","0","Mon Oct  1 13:07:57 2018","The main experiment item","yes","SternbergTask.osexp","/Users/emorgan/Desktop","no","mono","no","18","no","white","no","yes","768","legacy","65","11","/Users/emorgan/Desktop/EM subject-3, f, 21.csv","legacy","2 3 7 4","Kafkaesque Koffka","3.2.5","1","y","0","left","right","right","left","NA","885","32092","6783","885","NA","2","legacy","4","1024","2","48000","-16","experiment","3","odd","2","529480","526170","527249","6805","126156","527260","440645","6830","119371","531492","532379","528270","39298","531492","NA","Sternberg Task","68","68653","78","yes","1024"
"87.3417721519","87.3417721519","879.721518987","879.721518987","black","experiment","legacy","legacy","legacy","0","uniform","1","undefined","1","left","78","78","78","0","0","78","78","0","0","78","78","78","0","78","0","Mon Oct  1 13:07:57 2018","The main experiment item","yes","SternbergTask.osexp","/Users/emorgan/Desktop","no","mono","no","18","no","white","no","yes","768","legacy","66","11","/Users/emorgan/Desktop/EM subject-3, f, 21.csv","legacy","4 7 6 8 2 3","Kafkaesque Koffka","3.2.5","6","y","0","left","right","right","left","NA","845","32092","6783","845","NA","2","legacy","6","1024","2","48000","-16","experiment","3","odd","3","535899","532590","533668","6805","126156","533679","440645","6830","119371","537911","538758","534689","39298","537910","NA","Sternberg Task","69","69498","79","yes","1024"
"86.25","86.25","879.2625","879.2625","black","experiment","legacy","legacy","legacy","0","uniform","0","undefined","0","right","79","79","79","0","0","79","79","0","0","79","79","79","0","79","0","Mon Oct  1 13:07:57 2018","The main experiment item","yes","SternbergTask.osexp","/Users/emorgan/Desktop","no","mono","no","18","no","white","no","yes","768","legacy","67","11","/Users/emorgan/Desktop/EM subject-3, f, 21.csv","legacy","3 4 9 6 7 8","Kafkaesque Koffka","3.2.5","0","n","0","left","right","right","left","NA","843","32092","6783","843","NA","2","legacy","6","1024","2","48000","-16","experiment","3","odd","2","542080","538769","539848","6805","126156","539859","440645","6830","119371","544091","544935","540870","39298","544091","NA","Sternberg Task","69","70341","80","yes","1024"
"86.4197530864","86.4197530864","875.209876543","875.209876543","black","experiment","legacy","legacy","legacy","0","uniform","1","undefined","1","left","80","80","80","0","0","80","80","0","0","80","80","80","0","80","0","Mon Oct  1 13:07:57 2018","The main experiment item","yes","SternbergTask.osexp","/Users/emorgan/Desktop","no","mono","no","18","no","white","no","yes","768","legacy","68","11","/Users/emorgan/Desktop/EM subject-3, f, 21.csv","legacy","3 5 4 7","Kafkaesque Koffka","3.2.5","1","y","0","left","right","right","left","NA","551","32092","6783","551","NA","2","legacy","4","1024","2","48000","-16","experiment","3","odd","3","548256","538769","546024","6805","126156","546035","544947","6830","119371","550266","550819","547045","39298","550266","NA","Sternberg Task","70","70892","81","yes","1024"
"86.5853658537","86.5853658537","872.743902439","872.743902439","black","experiment","legacy","legacy","legacy","0","uniform","1","undefined","1","right","81","81","81","0","0","81","81","0","0","81","81","81","0","81","0","Mon Oct  1 13:07:57 2018","The main experiment item","yes","SternbergTask.osexp","/Users/emorgan/Desktop","no","mono","no","18","no","white","no","yes","768","legacy","69","11","/Users/emorgan/Desktop/EM subject-3, f, 21.csv","legacy","1","Kafkaesque Koffka","3.2.5","0","n","0","right","right","right","right","NA","673","32092","6783","673","NA","2","legacy","1","1024","2","48000","-16","experiment","3","odd","7","554141","550831","551908","6805","126156","551919","544947","6830","119371","556152","556827","552929","39298","556152","NA","Sternberg Task","71","71565","82","yes","1024"
"86.7469879518","86.7469879518","874.530120482","874.530120482","black","experiment","legacy","legacy","legacy","0","uniform","1","undefined","1","right","82","82","82","0","0","82","82","0","0","82","82","82","0","82","0","Mon Oct  1 13:07:57 2018","The main experiment item","yes","SternbergTask.osexp","/Users/emorgan/Desktop","no","mono","no","18","no","white","no","yes","768","legacy","70","11","/Users/emorgan/Desktop/EM subject-3, f, 21.csv","legacy","5 3 8 7 2 4","Kafkaesque Koffka","3.2.5","0","n","0","right","right","right","right","NA","1021","32092","6783","1021","NA","2","legacy","6","1024","2","48000","-16","experiment","3","odd","9","560148","556839","557917","6805","126156","557928","544947","6830","119371","562159","563182","558938","39298","562159","NA","Sternberg Task","72","72586","83","yes","1024"
"86.9047619048","86.9047619048","878.94047619","878.94047619","black","experiment","legacy","legacy","legacy","0","uniform","1","undefined","1","right","83","83","83","0","0","83","83","0","0","83","83","83","0","83","0","Mon Oct  1 13:07:57 2018","The main experiment item","yes","SternbergTask.osexp","/Users/emorgan/Desktop","no","mono","no","18","no","white","no","yes","768","legacy","71","11","/Users/emorgan/Desktop/EM subject-3, f, 21.csv","legacy","2 8 9","Kafkaesque Koffka","3.2.5","0","n","0","right","right","right","right","NA","1245","32092","6783","1245","NA","2","legacy","3","1024","2","48000","-16","experiment","3","odd","6","566785","563477","564554","6805","126156","564565","544947","6830","119371","568798","570045","565575","39298","568797","NA","Sternberg Task","73","73831","84","yes","1024"
"87.0588235294","87.0588235294","877.129411765","877.129411765","black","experiment","legacy","legacy","legacy","0","uniform","1","undefined","1","left","84","84","84","0","0","84","84","0","0","84","84","84","0","84","0","Mon Oct  1 13:07:57 2018","The main experiment item","yes","SternbergTask.osexp","/Users/emorgan/Desktop","no","mono","no","18","no","white","no","yes","768","legacy","72","11","/Users/emorgan/Desktop/EM subject-3, f, 21.csv","legacy","5 7 8 2 3 8","Kafkaesque Koffka","3.2.5","5","y","0","left","right","right","left","NA","725","32092","6783","725","NA","2","legacy","6","1024","2","48000","-16","experiment","3","odd","3","573369","570057","571134","6805","126156","571145","544947","6830","119371","575382","576108","572157","39298","575382","NA","Sternberg Task","74","74556","85","yes","1024"
"87.2093023256","87.2093023256","874.755813953","874.755813953","black","experiment","legacy","legacy","legacy","0","uniform","1","undefined","1","right","85","85","85","0","0","85","85","0","0","85","85","85","0","85","0","Mon Oct  1 13:07:57 2018","The main experiment item","yes","SternbergTask.osexp","/Users/emorgan/Desktop","no","mono","no","18","no","white","no","yes","768","legacy","73","11","/Users/emorgan/Desktop/EM subject-3, f, 21.csv","legacy","5 3 2 6 9 8","Kafkaesque Koffka","3.2.5","0","n","0","right","right","right","right","NA","673","32092","6783","673","NA","2","legacy","6","1024","2","48000","-16","experiment","3","odd","4","579430","576120","577198","6805","126156","577209","544947","6830","119371","581441","582116","578219","39298","581441","NA","Sternberg Task","75","75229","86","yes","1024"
"87.3563218391","87.3563218391","873.816091954","873.816091954","black","experiment","legacy","legacy","legacy","0","uniform","1","undefined","1","right","86","86","86","0","0","86","86","0","0","86","86","86","0","86","0","Mon Oct  1 13:07:57 2018","The main experiment item","yes","SternbergTask.osexp","/Users/emorgan/Desktop","no","mono","no","18","no","white","no","yes","768","legacy","74","11","/Users/emorgan/Desktop/EM subject-3, f, 21.csv","legacy","6 7 5 9","Kafkaesque Koffka","3.2.5","0","n","0","right","right","right","right","NA","793","32092","6783","793","NA","2","legacy","4","1024","2","48000","-16","experiment","3","odd","2","585442","582128","583210","6805","126156","583221","544947","6830","119371","587453","588247","584232","39298","587453","NA","Sternberg Task","76","76022","87","yes","1024"
"86.3636363636","86.3636363636","873.397727273","873.397727273","black","experiment","legacy","legacy","legacy","0","uniform","0","undefined","0","right","87","87","87","0","0","87","87","0","0","87","87","87","0","87","0","Mon Oct  1 13:07:57 2018","The main experiment item","yes","SternbergTask.osexp","/Users/emorgan/Desktop","no","mono","no","18","no","white","no","yes","768","legacy","75","11","/Users/emorgan/Desktop/EM subject-3, f, 21.csv","legacy","1 3 2 6 9","Kafkaesque Koffka","3.2.5","0","n","0","left","right","right","left","NA","837","32092","6783","837","NA","2","legacy","5","1024","2","48000","-16","experiment","3","odd","5","591571","588261","589339","6805","126156","589351","544947","6830","119371","593585","594424","590361","39298","593584","NA","Sternberg Task","76","76859","88","yes","1024"
"86.5168539326","86.5168539326","875.786516854","875.786516854","black","experiment","legacy","legacy","legacy","0","uniform","1","undefined","1","left","88","88","88","0","0","88","88","0","0","88","88","88","0","88","0","Mon Oct  1 13:07:57 2018","The main experiment item","yes","SternbergTask.osexp","/Users/emorgan/Desktop","no","mono","no","18","no","white","no","yes","768","legacy","76","11","/Users/emorgan/Desktop/EM subject-3, f, 21.csv","legacy","7 2 3","Kafkaesque Koffka","3.2.5","3","y","0","left","right","right","left","NA","1086","32092","6783","1086","NA","2","legacy","3","1024","2","48000","-16","experiment","3","odd","3","597749","588261","595516","6805","126156","595528","594436","6830","119371","599761","600849","596538","39298","599760","NA","Sternberg Task","77","77945","89","yes","1024"
"86.6666666667","86.6666666667","876.055555556","876.055555556","black","experiment","legacy","legacy","legacy","0","uniform","1","undefined","1","right","89","89","89","0","0","89","89","0","0","89","89","89","0","89","0","Mon Oct  1 13:07:57 2018","The main experiment item","yes","SternbergTask.osexp","/Users/emorgan/Desktop","no","mono","no","18","no","white","no","yes","768","legacy","77","11","/Users/emorgan/Desktop/EM subject-3, f, 21.csv","legacy","7 1 8 4 9 3","Kafkaesque Koffka","3.2.5","0","n","0","right","right","right","right","NA","900","32092","6783","900","NA","2","legacy","6","1024","2","48000","-16","experiment","3","odd","6","604179","600861","601947","6805","126156","601958","594436","6830","119371","606190","607092","602968","39298","606190","NA","Sternberg Task","78","78845","90","yes","1024"
"86.8131868132","86.8131868132","876.648351648","876.648351648","black","experiment","legacy","legacy","legacy","0","uniform","1","undefined","1","left","90","90","90","0","0","90","90","0","0","90","90","90","0","90","0","Mon Oct  1 13:07:57 2018","The main experiment item","yes","SternbergTask.osexp","/Users/emorgan/Desktop","no","mono","no","18","no","white","no","yes","768","legacy","78","11","/Users/emorgan/Desktop/EM subject-3, f, 21.csv","legacy","7 4 2 6 3 5","Kafkaesque Koffka","3.2.5","6","y","0","left","right","right","left","NA","930","32092","6783","930","NA","2","legacy","6","1024","2","48000","-16","experiment","3","odd","5","610415","607104","608182","6805","126156","608193","594436","6830","119371","612426","613358","609203","39298","612426","NA","Sternberg Task","79","79775","91","yes","1024"
"86.9565217391","86.9565217391","876.108695652","876.108695652","black","experiment","legacy","legacy","legacy","0","uniform","1","undefined","1","right","91","91","91","0","0","91","91","0","0","91","91","91","0","91","0","Mon Oct  1 13:07:57 2018","The main experiment item","yes","SternbergTask.osexp","/Users/emorgan/Desktop","no","mono","no","18","no","white","no","yes","768","legacy","79","11","/Users/emorgan/Desktop/EM subject-3, f, 21.csv","legacy","2 7 5","Kafkaesque Koffka","3.2.5","0","n","0","right","right","right","right","NA","827","32092","6783","827","NA","2","legacy","3","1024","2","48000","-16","experiment","3","odd","8","616684","613370","614452","6805","126156","614463","594436","6830","119371","618695","619523","615474","39298","618695","NA","Sternberg Task","80","80602","92","yes","1024"
"86.0215053763","86.0215053763","878.301075269","878.301075269","black","experiment","legacy","legacy","legacy","0","uniform","0","undefined","0","right","92","92","92","0","0","92","92","0","0","92","92","92","0","92","0","Mon Oct  1 13:07:57 2018","The main experiment item","yes","SternbergTask.osexp","/Users/emorgan/Desktop","no","mono","no","18","no","white","no","yes","768","legacy","80","11","/Users/emorgan/Desktop/EM subject-3, f, 21.csv","legacy","9 5 3 2 8 6","Kafkaesque Koffka","3.2.5","0","n","0","left","right","right","left","NA","1080","32092","6783","1080","NA","2","legacy","6","1024","2","48000","-16","experiment","3","odd","7","622845","619535","620613","6805","126156","620624","594436","6830","119371","624855","625937","621634","39298","624855","NA","Sternberg Task","80","81682","93","yes","1024"
"86.170212766","86.170212766","879.234042553","879.234042553","black","experiment","legacy","legacy","legacy","0","uniform","1","undefined","1","left","93","93","93","0","0","93","93","0","0","93","93","93","0","93","0","Mon Oct  1 13:07:57 2018","The main experiment item","yes","SternbergTask.osexp","/Users/emorgan/Desktop","no","mono","no","18","no","white","no","yes","768","legacy","81","11","/Users/emorgan/Desktop/EM subject-3, f, 21.csv","legacy","6 5","Kafkaesque Koffka","3.2.5","2","y","0","left","right","right","left","NA","966","32092","6783","966","NA","2","legacy","2","1024","2","48000","-16","experiment","3","odd","5","629256","619535","627025","6805","126156","627035","625949","6830","119371","631268","632236","628046","39298","631268","NA","Sternberg Task","81","82648","94","yes","1024"
"86.3157894737","86.3157894737","877.978947368","877.978947368","black","experiment","legacy","legacy","legacy","0","uniform","1","undefined","1","right","94","94","94","0","0","94","94","0","0","94","94","94","0","94","0","Mon Oct  1 13:07:57 2018","The main experiment item","yes","SternbergTask.osexp","/Users/emorgan/Desktop","no","mono","no","18","no","white","no","yes","768","legacy","82","11","/Users/emorgan/Desktop/EM subject-3, f, 21.csv","legacy","8 5 7 3 6","Kafkaesque Koffka","3.2.5","0","n","0","right","right","right","right","NA","760","32092","6783","760","NA","2","legacy","5","1024","2","48000","-16","experiment","3","odd","9","635561","632248","633328","6805","126156","633339","625949","6830","119371","637572","638333","634349","39298","637572","NA","Sternberg Task","82","83408","95","yes","1024"
"86.4583333333","86.4583333333","877.947916667","877.947916667","black","experiment","legacy","legacy","legacy","0","uniform","1","undefined","1","left","95","95","95","0","0","95","95","0","0","95","95","95","0","95","0","Mon Oct  1 13:07:57 2018","The main experiment item","yes","SternbergTask.osexp","/Users/emorgan/Desktop","no","mono","no","18","no","white","no","yes","768","legacy","83","11","/Users/emorgan/Desktop/EM subject-3, f, 21.csv","legacy","3 5 7 1","Kafkaesque Koffka","3.2.5","3","y","0","left","right","right","left","NA","875","32092","6783","875","NA","2","legacy","4","1024","2","48000","-16","experiment","3","odd","7","641655","638346","639423","6805","126156","639434","625949","6830","119371","643667","644543","640445","39298","643667","NA","Sternberg Task","83","84283","96","yes","1024"
"86.5979381443","86.5979381443","877.690721649","877.690721649","black","experiment","legacy","legacy","legacy","0","uniform","1","undefined","1","left","96","96","96","0","0","96","96","0","0","96","96","96","0","96","0","Mon Oct  1 13:07:57 2018","The main experiment item","yes","SternbergTask.osexp","/Users/emorgan/Desktop","no","mono","no","18","no","white","no","yes","768","legacy","84","11","/Users/emorgan/Desktop/EM subject-3, f, 21.csv","legacy","8 1 6","Kafkaesque Koffka","3.2.5","3","y","0","left","right","right","left","NA","853","32092","6783","853","NA","2","legacy","3","1024","2","48000","-16","experiment","3","odd","6","647866","644555","645634","6805","126156","645645","625949","6830","119371","649877","650731","646656","39298","649876","NA","Sternberg Task","84","85136","97","yes","1024"
"86.7346938776","86.7346938776","875.448979592","875.448979592","black","experiment","legacy","legacy","legacy","0","uniform","1","undefined","1","left","97","97","97","0","0","97","97","0","0","97","97","97","0","97","0","Mon Oct  1 13:07:57 2018","The main experiment item","yes","SternbergTask.osexp","/Users/emorgan/Desktop","no","mono","no","18","no","white","no","yes","768","legacy","85","11","/Users/emorgan/Desktop/EM subject-3, f, 21.csv","legacy","9 6 2 4 1","Kafkaesque Koffka","3.2.5","4","y","0","left","right","right","left","NA","658","32092","6783","658","NA","2","legacy","5","1024","2","48000","-16","experiment","3","odd","4","654057","650743","651823","6805","126156","651834","625949","6830","119371","656068","656728","652846","39298","656068","NA","Sternberg Task","85","85794","98","yes","1024"
"86.8686868687","86.8686868687","874.646464646","874.646464646","black","experiment","legacy","legacy","legacy","0","uniform","1","undefined","1","right","98","98","98","0","0","98","98","0","0","98","98","98","0","98","0","Mon Oct  1 13:07:57 2018","The main experiment item","yes","SternbergTask.osexp","/Users/emorgan/Desktop","no","mono","no","18","no","white","no","yes","768","legacy","86","11","/Users/emorgan/Desktop/EM subject-3, f, 21.csv","legacy","6 9 4 5 2","Kafkaesque Koffka","3.2.5","0","n","0","right","right","right","right","NA","796","32092","6783","796","NA","2","legacy","5","1024","2","48000","-16","experiment","3","odd","1","660051","656740","657819","6805","126156","657830","625949","6830","119371","662062","662860","658840","39298","662062","NA","Sternberg Task","86","86590","99","yes","1024"
"87","87","875.56","875.56","black","experiment","legacy","legacy","legacy","0","uniform","1","undefined","1","left","99","99","99","0","0","99","99","0","0","99","99","99","0","99","0","Mon Oct  1 13:07:57 2018","The main experiment item","yes","SternbergTask.osexp","/Users/emorgan/Desktop","no","mono","no","18","no","white","no","yes","768","legacy","87","11","/Users/emorgan/Desktop/EM subject-3, f, 21.csv","legacy","9 1 7 2","Kafkaesque Koffka","3.2.5","2","y","0","left","right","right","left","NA","966","32092","6783","966","NA","2","legacy","4","1024","2","48000","-16","experiment","3","odd","1","666180","662872","663949","6805","126156","663960","625949","6830","119371","668191","669159","664970","39298","668191","NA","Sternberg Task","87","87556","100","yes","1024"
"87.1287128713","87.1287128713","878","878","black","experiment","legacy","legacy","legacy","0","uniform","1","undefined","1","right","100","100","100","0","0","100","100","0","0","100","100","100","0","100","0","Mon Oct  1 13:07:57 2018","The main experiment item","yes","SternbergTask.osexp","/Users/emorgan/Desktop","no","mono","no","18","no","white","no","yes","768","legacy","88","11","/Users/emorgan/Desktop/EM subject-3, f, 21.csv","legacy","8 2 1 4 5 9","Kafkaesque Koffka","3.2.5","0","n","0","right","right","right","right","NA","1122","32092","6783","1122","NA","2","legacy","6","1024","2","48000","-16","experiment","3","odd","7","672482","669171","670249","6805","126156","670260","625949","6830","119371","674493","675617","671271","39298","674493","NA","Sternberg Task","88","88678","101","yes","1024"
"87.2549019608","87.2549019608","878.088235294","878.088235294","black","experiment","legacy","legacy","legacy","0","uniform","1","undefined","1","right","101","101","101","0","0","101","101","0","0","101","101","101","0","101","0","Mon Oct  1 13:07:57 2018","The main experiment item","yes","SternbergTask.osexp","/Users/emorgan/Desktop","no","mono","no","18","no","white","no","yes","768","legacy","89","11","/Users/emorgan/Desktop/EM subject-3, f, 21.csv","legacy","1 8 7","Kafkaesque Koffka","3.2.5","0","n","0","right","right","right","right","NA","887","32092","6783","887","NA","2","legacy","3","1024","2","48000","-16","experiment","3","odd","4","678939","675629","676706","6805","126156","676717","625949","6830","119371","680950","681839","677728","39298","680950","NA","Sternberg Task","89","89565","102","yes","1024"
"87.3786407767","87.3786407767","879.058252427","879.058252427","black","experiment","legacy","legacy","legacy","0","uniform","1","undefined","1","left","102","102","102","0","0","102","102","0","0","102","102","102","0","102","0","Mon Oct  1 13:07:57 2018","The main experiment item","yes","SternbergTask.osexp","/Users/emorgan/Desktop","no","mono","no","18","no","white","no","yes","768","legacy","90","11","/Users/emorgan/Desktop/EM subject-3, f, 21.csv","legacy","9 3 1 2 5","Kafkaesque Koffka","3.2.5","4","y","0","left","right","right","left","NA","978","32092","6783","978","NA","2","legacy","5","1024","2","48000","-16","experiment","3","odd","2","685160","681851","682928","6805","126156","682939","625949","6830","119371","687170","688149","683949","39298","687170","NA","Sternberg Task","90","90543","103","yes","1024"
"87.5","87.5","876.961538462","876.961538462","black","experiment","legacy","legacy","legacy","0","uniform","1","undefined","1","right","103","103","103","0","0","103","103","0","0","103","103","103","0","103","0","Mon Oct  1 13:07:57 2018","The main experiment item","yes","SternbergTask.osexp","/Users/emorgan/Desktop","no","mono","no","18","no","white","no","yes","768","legacy","91","11","/Users/emorgan/Desktop/EM subject-3, f, 21.csv","legacy","9 8 2 7 4","Kafkaesque Koffka","3.2.5","0","n","0","right","right","right","right","NA","661","32092","6783","661","NA","2","legacy","5","1024","2","48000","-16","experiment","3","odd","5","691472","688161","689239","6805","126156","689250","625949","6830","119371","693483","694146","690261","39298","693483","NA","Sternberg Task","91","91204","104","yes","1024"
"87.619047619","87.619047619","876.40952381","876.40952381","black","experiment","legacy","legacy","legacy","0","uniform","1","undefined","1","left","104","104","104","0","0","104","104","0","0","104","104","104","0","104","0","Mon Oct  1 13:07:57 2018","The main experiment item","yes","SternbergTask.osexp","/Users/emorgan/Desktop","no","mono","no","18","no","white","no","yes","768","legacy","92","11","/Users/emorgan/Desktop/EM subject-3, f, 21.csv","legacy","3 9 6 2","Kafkaesque Koffka","3.2.5","4","y","0","left","right","right","left","NA","819","32092","6783","819","NA","2","legacy","4","1024","2","48000","-16","experiment","3","odd","2","697468","694158","695235","6805","126156","695246","625949","6830","119371","699479","700300","696256","39298","699479","NA","Sternberg Task","92","92023","105","yes","1024"
"87.7358490566","87.7358490566","873.754716981","873.754716981","black","experiment","legacy","legacy","legacy","0","uniform","1","undefined","1","left","105","105","105","0","0","105","105","0","0","105","105","105","0","105","0","Mon Oct  1 13:07:57 2018","The main experiment item","yes","SternbergTask.osexp","/Users/emorgan/Desktop","no","mono","no","18","no","white","no","yes","768","legacy","93","11","/Users/emorgan/Desktop/EM subject-3, f, 21.csv","legacy","7 1 8 5 6 2","Kafkaesque Koffka","3.2.5","2","y","0","left","right","right","left","NA","595","32092","6783","595","NA","2","legacy","6","1024","2","48000","-16","experiment","3","odd","1","703621","700312","701390","6805","126156","701401","625949","6830","119371","705632","706229","702411","39298","705632","NA","Sternberg Task","93","92618","106","yes","1024"
"87.8504672897","87.8504672897","872.261682243","872.261682243","black","experiment","legacy","legacy","legacy","0","uniform","1","undefined","1","right","106","106","106","0","0","106","106","0","0","106","106","106","0","106","0","Mon Oct  1 13:07:57 2018","The main experiment item","yes","SternbergTask.osexp","/Users/emorgan/Desktop","no","mono","no","18","no","white","no","yes","768","legacy","94","11","/Users/emorgan/Desktop/EM subject-3, f, 21.csv","legacy","2 8 9 4 1","Kafkaesque Koffka","3.2.5","0","n","0","right","right","right","right","NA","714","32092","6783","714","NA","2","legacy","5","1024","2","48000","-16","experiment","3","odd","5","709554","706240","707321","6805","126156","707331","625949","6830","119371","711565","712281","708343","39298","711564","NA","Sternberg Task","94","93332","107","yes","1024"
"87.962962963","87.962962963","873.62962963","873.62962963","black","experiment","legacy","legacy","legacy","0","uniform","1","undefined","1","right","107","107","107","0","0","107","107","0","0","107","107","107","0","107","0","Mon Oct  1 13:07:57 2018","The main experiment item","yes","SternbergTask.osexp","/Users/emorgan/Desktop","no","mono","no","18","no","white","no","yes","768","legacy","95","11","/Users/emorgan/Desktop/EM subject-3, f, 21.csv","legacy","6 2 9 3 8 4","Kafkaesque Koffka","3.2.5","0","n","0","right","right","right","right","NA","1020","32092","6783","1020","NA","2","legacy","6","1024","2","48000","-16","experiment","3","odd","1","715605","712293","713372","6805","126156","713383","625949","6830","119371","717616","718637","714393","39298","717616","NA","Sternberg Task","95","94352","108","yes","1024"
"88.0733944954","88.0733944954","872.614678899","872.614678899","black","experiment","legacy","legacy","legacy","0","uniform","1","undefined","1","left","108","108","108","0","0","108","108","0","0","108","108","108","0","108","0","Mon Oct  1 13:07:57 2018","The main experiment item","yes","SternbergTask.osexp","/Users/emorgan/Desktop","no","mono","no","18","no","white","no","yes","768","legacy","96","11","/Users/emorgan/Desktop/EM subject-3, f, 21.csv","legacy","8 9 5 6 7","Kafkaesque Koffka","3.2.5","1","y","0","left","right","right","left","NA","763","32092","6783","763","NA","2","legacy","5","1024","2","48000","-16","experiment","3","odd","8","721960","718650","719727","6805","126156","719738","625949","6830","119371","723971","724735","720748","39298","723970","NA","Sternberg Task","96","95115","109","yes","1024"
"88.1818181818","88.1818181818","871.5","871.5","black","experiment","legacy","legacy","legacy","0","uniform","1","undefined","1","left","109","109","109","0","0","109","109","0","0","109","109","109","0","109","0","Mon Oct  1 13:07:57 2018","The main experiment item","yes","SternbergTask.osexp","/Users/emorgan/Desktop","no","mono","no","18","no","white","no","yes","768","legacy","97","11","/Users/emorgan/Desktop/EM subject-3, f, 21.csv","legacy","5 2 9 6 1 7","Kafkaesque Koffka","3.2.5","3","y","0","left","right","right","left","NA","750","32092","6783","750","NA","2","legacy","6","1024","2","48000","-16","experiment","3","odd","9","728060","724747","725827","6805","126156","725838","625949","6830","119371","730071","730823","726848","39298","730071","NA","Sternberg Task","97","95865","110","yes","1024"
"88.2882882883","88.2882882883","875.531531532","875.531531532","black","experiment","legacy","legacy","legacy","0","uniform","1","undefined","1","right","110","110","110","0","0","110","110","0","0","110","110","110","0","110","0","Mon Oct  1 13:07:57 2018","The main experiment item","yes","SternbergTask.osexp","/Users/emorgan/Desktop","no","mono","no","18","no","white","no","yes","768","legacy","98","11","/Users/emorgan/Desktop/EM subject-3, f, 21.csv","legacy","5 7 3","Kafkaesque Koffka","3.2.5","0","n","0","right","right","right","right","NA","1319","32092","6783","1319","NA","2","legacy","3","1024","2","48000","-16","experiment","3","odd","9","734150","730835","731917","6805","126156","731928","625949","6830","119371","736161","737482","732939","39298","736160","NA","Sternberg Task","98","97184","111","yes","1024"
"88.3928571429","88.3928571429","874.9375","874.9375","black","experiment","legacy","legacy","legacy","0","uniform","1","undefined","1","left","111","111","111","0","0","111","111","0","0","111","111","111","0","111","0","Mon Oct  1 13:07:57 2018","The main experiment item","yes","SternbergTask.osexp","/Users/emorgan/Desktop","no","mono","no","18","no","white","no","yes","768","legacy","99","11","/Users/emorgan/Desktop/EM subject-3, f, 21.csv","legacy","2 6 1 7 4","Kafkaesque Koffka","3.2.5","2","y","0","left","right","right","left","NA","809","32092","6783","809","NA","2","legacy","5","1024","2","48000","-16","experiment","3","odd","6","740803","737494","738571","6805","126156","738582","625949","6830","119371","742814","743624","739592","39298","742814","NA","Sternberg Task","99","97993","112","yes","1024"
"88.4955752212","88.4955752212","871.982300885","871.982300885","black","experiment","legacy","legacy","legacy","0","uniform","1","undefined","1","left","112","112","112","0","0","112","112","0","0","112","112","112","0","112","0","Mon Oct  1 13:07:57 2018","The main experiment item","yes","SternbergTask.osexp","/Users/emorgan/Desktop","no","mono","no","18","no","white","no","yes","768","legacy","100","11","/Users/emorgan/Desktop/EM subject-3, f, 21.csv","legacy","6 1 2","Kafkaesque Koffka","3.2.5","3","y","0","left","right","right","left","NA","541","32092","6783","541","NA","2","legacy","3","1024","2","48000","-16","experiment","3","odd","2","746955","743637","744721","6805","126156","744732","625949","6830","119371","748965","749508","745743","39298","748965","NA","Sternberg Task","100","98534","113","yes","1024"
"88.5964912281","88.5964912281","870.543859649","870.543859649","black","experiment","legacy","legacy","legacy","0","uniform","1","undefined","1","right","113","113","113","0","0","113","113","0","0","113","113","113","0","113","0","Mon Oct  1 13:07:57 2018","The main experiment item","yes","SternbergTask.osexp","/Users/emorgan/Desktop","no","mono","no","18","no","white","no","yes","768","legacy","101","11","/Users/emorgan/Desktop/EM subject-3, f, 21.csv","legacy","5","Kafkaesque Koffka","3.2.5","0","n","0","right","right","right","right","NA","708","32092","6783","708","NA","2","legacy","1","1024","2","48000","-16","experiment","3","odd","8","752829","749520","750597","6805","126156","750607","625949","6830","119371","754840","755549","751619","39298","754840","NA","Sternberg Task","101","99242","114","yes","1024"
"88.6956521739","88.6956521739","868.643478261","868.643478261","black","experiment","legacy","legacy","legacy","0","uniform","1","undefined","1","left","114","114","114","0","0","114","114","0","0","114","114","114","0","114","0","Mon Oct  1 13:07:57 2018","The main experiment item","yes","SternbergTask.osexp","/Users/emorgan/Desktop","no","mono","no","18","no","white","no","yes","768","legacy","102","11","/Users/emorgan/Desktop/EM subject-3, f, 21.csv","legacy","9 1 6 7 8","Kafkaesque Koffka","3.2.5","1","y","0","left","right","right","left","NA","652","32092","6783","652","NA","2","legacy","5","1024","2","48000","-16","experiment","3","odd","9","758871","755561","756638","6805","126156","756649","625949","6830","119371","760881","761535","757659","39298","760881","NA","Sternberg Task","102","99894","115","yes","1024"
"88.7931034483","88.7931034483","869.379310345","869.379310345","black","experiment","legacy","legacy","legacy","0","uniform","1","undefined","1","right","115","115","115","0","0","115","115","0","0","115","115","115","0","115","0","Mon Oct  1 13:07:57 2018","The main experiment item","yes","SternbergTask.osexp","/Users/emorgan/Desktop","no","mono","no","18","no","white","no","yes","768","legacy","103","11","/Users/emorgan/Desktop/EM subject-3, f, 21.csv","legacy","7 6 4 8 1 2","Kafkaesque Koffka","3.2.5","0","n","0","right","right","right","right","NA","954","32092","6783","954","NA","2","legacy","6","1024","2","48000","-16","experiment","3","odd","9","764858","761547","762625","6805","126156","762636","625949","6830","119371","766869","767824","763646","39298","766869","NA","Sternberg Task","103","100848","116","yes","1024"
"88.8888888889","88.8888888889","868.846153846","868.846153846","black","experiment","legacy","legacy","legacy","0","uniform","1","undefined","1","left","116","116","116","0","0","116","116","0","0","116","116","116","0","116","0","Mon Oct  1 13:07:57 2018","The main experiment item","yes","SternbergTask.osexp","/Users/emorgan/Desktop","no","mono","no","18","no","white","no","yes","768","legacy","104","11","/Users/emorgan/Desktop/EM subject-3, f, 21.csv","legacy","1 4 9 3 2 5","Kafkaesque Koffka","3.2.5","3","y","0","left","right","right","left","NA","807","32092","6783","807","NA","2","legacy","6","1024","2","48000","-16","experiment","3","odd","9","771147","767836","768915","6805","126156","768926","625949","6830","119371","773158","773967","769936","39298","773158","NA","Sternberg Task","104","101655","117","yes","1024"
"88.9830508475","88.9830508475","867.016949153","867.016949153","black","experiment","legacy","legacy","legacy","0","uniform","1","undefined","1","left","117","117","117","0","0","117","117","0","0","117","117","117","0","117","0","Mon Oct  1 13:07:57 2018","The main experiment item","yes","SternbergTask.osexp","/Users/emorgan/Desktop","no","mono","no","18","no","white","no","yes","768","legacy","105","11","/Users/emorgan/Desktop/EM subject-3, f, 21.csv","legacy","2 5 4 8 7","Kafkaesque Koffka","3.2.5","3","y","0","left","right","right","left","NA","653","32092","6783","653","NA","2","legacy","5","1024","2","48000","-16","experiment","3","odd","4","777287","773979","775056","6805","126156","775066","625949","6830","119371","779298","779952","776077","39298","779298","NA","Sternberg Task","105","102308","118","yes","1024"
"89.0756302521","89.0756302521","865.957983193","865.957983193","black","experiment","legacy","legacy","legacy","0","uniform","1","undefined","1","left","118","118","118","0","0","118","118","0","0","118","118","118","0","118","0","Mon Oct  1 13:07:57 2018","The main experiment item","yes","SternbergTask.osexp","/Users/emorgan/Desktop","no","mono","no","18","no","white","no","yes","768","legacy","106","11","/Users/emorgan/Desktop/EM subject-3, f, 21.csv","legacy","9 5 8 1","Kafkaesque Koffka","3.2.5","2","y","0","left","right","right","left","NA","741","32092","6783","741","NA","2","legacy","4","1024","2","48000","-16","experiment","3","odd","5","783274","779964","781041","6805","126156","781052","625949","6830","119371","785284","786027","782062","39298","785284","NA","Sternberg Task","106","103049","119","yes","1024"
"89.1666666667","89.1666666667","866.466666667","866.466666667","black","experiment","legacy","legacy","legacy","0","uniform","1","undefined","1","right","119","119","119","0","0","119","119","0","0","119","119","119","0","119","0","Mon Oct  1 13:07:57 2018","The main experiment item","yes","SternbergTask.osexp","/Users/emorgan/Desktop","no","mono","no","18","no","white","no","yes","768","legacy","107","11","/Users/emorgan/Desktop/EM subject-3, f, 21.csv","legacy","6 9 4 5 3 2","Kafkaesque Koffka","3.2.5","0","n","0","right","right","right","right","NA","927","32092","6783","927","NA","2","legacy","6","1024","2","48000","-16","experiment","3","odd","8","789353","786040","787120","6805","126156","787131","625949","6830","119371","791364","792293","788141","39298","791364","NA","Sternberg Task","107","103976","120","yes","1024"
"88.4297520661","88.4297520661","863.933884298","863.933884298","black","experiment","legacy","legacy","legacy","0","uniform","0","undefined","0","right","120","120","120","0","0","120","120","0","0","120","120","120","0","120","0","Mon Oct  1 13:07:57 2018","The main experiment item","yes","SternbergTask.osexp","/Users/emorgan/Desktop","no","mono","no","18","no","white","no","yes","768","legacy","108","11","/Users/emorgan/Desktop/EM subject-3, f, 21.csv","legacy","6 3 1 7 9 8","Kafkaesque Koffka","3.2.5","0","n","0","left","right","right","left","NA","560","32092","6783","560","NA","2","legacy","6","1024","2","48000","-16","experiment","3","odd","4","795615","792305","793384","6805","126156","793394","625949","6830","119371","797626","798188","794404","39298","797625","NA","Sternberg Task","107","104536","121","yes","1024"
