"acc","accuracy","average_response_time","avg_rt","background","block","canvas_backend","clock_backend","color_backend","compensation","coordinates","correct","correct_ISI","correct_instruction1","correct_new_keyboard_response","correct_response","count_ISI","count_correctFeedback","count_expSequence","count_experiment","count_experimentLoop","count_fixation","count_incorrectFeedback","count_instruction1","count_instruction2","count_logger","count_memorySet","count_new_keyboard_response","count_practiceLoop","count_probe","count_thankYou","datetime","description","disable_garbage_collection","experiment_file","experiment_path","font_bold","font_family","font_italic","font_size","font_underline","foreground","form_clicks","fullscreen","height","keyboard_backend","live_row","live_row_practiceLoop","logfile","mouse_backend","numberSet","opensesame_codename","opensesame_version","posInSet","present","repeat_cycle","response","response_ISI","response_instruction1","response_instruction2","response_new_keyboard_response","response_thankYou","response_time","response_time_ISI","response_time_instruction1","response_time_instruction2","response_time_new_keyboard_response","response_time_thankYou","round_decimals","sampler_backend","setSize","sound_buf_size","sound_channels","sound_freq","sound_sample_size","start","subject_nr","subject_parity","target","time_ISI","time_correctFeedback","time_expSequence","time_experiment","time_experimentLoop","time_fixation","time_incorrectFeedback","time_instruction1","time_instruction2","time_logger","time_memorySet","time_new_keyboard_response","time_practiceLoop","time_probe","time_thankYou","title","total_correct","total_response_time","total_responses","uniform_coordinates","width"
"0","0","4667","4667","black","practice","legacy","legacy","legacy","0","uniform","0","0","undefined","0","right","0","0","0","0","0","0","0","0","0","0","0","0","0","0","0","Sun Oct  7 18:07:52 2018","The main experiment item","yes","SternbergTask.osexp","/Volumes/USB20FD","no","mono","no","18","no","white","no","yes","768","legacy","0","0","/Volumes/USB20FD/subject-2 f.csv","legacy","2 1","Kafkaesque Koffka","3.2.5","0","n","0","left","left","","NA","left","NA","4667","9280","78277","NA","4667","NA","2","legacy","2","1024","2","48000","-16","experiment","2","even","5","134531","NA","132292","2307","NA","132303","NA","2324","NA","148491","133316","143823","132152","143823","NA","Sternberg Task","0","4667","1","yes","1024"
"50","50","3373","3373","black","practice","legacy","legacy","legacy","0","uniform","1","0","undefined","1","left","1","1","1","0","0","1","1","0","0","1","1","1","0","1","0","Sun Oct  7 18:07:52 2018","The main experiment item","yes","SternbergTask.osexp","/Volumes/USB20FD","no","mono","no","18","no","white","no","yes","768","legacy","1","1","/Volumes/USB20FD/subject-2 f.csv","legacy","1 7 9 8 5","Kafkaesque Koffka","3.2.5","4","y","0","left","right","","NA","left","NA","2079","6355","78277","NA","2079","NA","2","legacy","5","1024","2","48000","-16","experiment","2","even","8","151905","NA","149670","2307","NA","149680","148552","2324","NA","160352","150693","158272","132152","158272","NA","Sternberg Task","1","6746","2","yes","1024"
"66.6666666667","66.6666666667","2910.66666667","2910.66666667","black","practice","legacy","legacy","legacy","0","uniform","1","0","undefined","1","left","2","2","2","0","0","2","2","0","0","2","2","2","0","2","0","Sun Oct  7 18:07:52 2018","The main experiment item","yes","SternbergTask.osexp","/Volumes/USB20FD","no","mono","no","18","no","white","no","yes","768","legacy","2","2","/Volumes/USB20FD/subject-2 f.csv","legacy","4 3 1 7 9 8","Kafkaesque Koffka","3.2.5","1","y","0","left","up","","NA","left","NA","1986","3426","78277","NA","1986","NA","2","legacy","6","1024","2","48000","-16","experiment","2","even","4","163712","160366","161472","2307","NA","161482","148552","2324","NA","169137","162496","167149","132152","167149","NA","Sternberg Task","2","8732","3","yes","1024"
"75","75","2586.25","2586.25","black","practice","legacy","legacy","legacy","0","uniform","1","0","undefined","1","right","3","3","3","0","0","3","3","0","0","3","3","3","0","3","0","Sun Oct  7 18:07:52 2018","The main experiment item","yes","SternbergTask.osexp","/Volumes/USB20FD","no","mono","no","18","no","white","no","yes","768","legacy","3","3","/Volumes/USB20FD/subject-2 f.csv","legacy","4 1 5","Kafkaesque Koffka","3.2.5","0","n","0","right","up","","NA","right","NA","1613","1614","78277","NA","1613","NA","2","legacy","3","1024","2","48000","-16","experiment","2","even","2","172492","169149","170253","2307","NA","170264","148552","2324","NA","175731","171277","174117","132152","174117","NA","Sternberg Task","3","10345","4","yes","1024"
"80","80","2349.4","2349.4","black","practice","legacy","legacy","legacy","0","uniform","1","0","undefined","1","left","4","4","4","0","0","4","4","0","0","4","4","4","0","4","0","Sun Oct  7 18:07:52 2018","The main experiment item","yes","SternbergTask.osexp","/Volumes/USB20FD","no","mono","no","18","no","white","no","yes","768","legacy","4","4","/Volumes/USB20FD/subject-2 f.csv","legacy","6","Kafkaesque Koffka","3.2.5","1","y","0","left","up","","NA","left","NA","1402","3737","78277","NA","1402","NA","2","legacy","1","1024","2","48000","-16","experiment","2","even","6","179100","175748","176855","2307","NA","176865","148552","2324","NA","184252","177882","182849","132152","182848","NA","Sternberg Task","4","11747","5","yes","1024"
"83.3333333333","83.3333333333","2100.16666667","2100.16666667","black","practice","legacy","legacy","legacy","0","uniform","1","0","undefined","1","right","5","5","5","0","0","5","5","0","0","5","5","5","0","5","0","Sun Oct  7 18:07:52 2018","The main experiment item","yes","SternbergTask.osexp","/Volumes/USB20FD","no","mono","no","18","no","white","no","yes","768","legacy","5","5","/Volumes/USB20FD/subject-2 f.csv","legacy","5","Kafkaesque Koffka","3.2.5","0","n","0","right","up","","NA","right","NA","854","362","78277","NA","854","NA","2","legacy","1","1024","2","48000","-16","experiment","2","even","3","187609","184267","185370","2307","NA","185380","148552","2324","NA","188838","186394","187983","132152","187982","NA","Sternberg Task","5","12601","6","yes","1024"
"85.7142857143","85.7142857143","1973.57142857","1973.57142857","black","practice","legacy","legacy","legacy","0","uniform","1","0","undefined","1","left","6","6","6","0","0","6","6","0","0","6","6","6","0","6","0","Sun Oct  7 18:07:52 2018","The main experiment item","yes","SternbergTask.osexp","/Volumes/USB20FD","no","mono","no","18","no","white","no","yes","768","legacy","6","6","/Volumes/USB20FD/subject-2 f.csv","legacy","4 8","Kafkaesque Koffka","3.2.5","1","y","0","left","up","","NA","left","NA","1214","1846","78277","NA","1214","NA","2","legacy","2","1024","2","48000","-16","experiment","2","even","4","192201","188851","189954","2307","NA","189965","148552","2324","NA","195275","190983","194060","132152","194060","NA","Sternberg Task","6","13815","7","yes","1024"
"87.5","87.5","1904","1904","black","practice","legacy","legacy","legacy","0","uniform","1","0","undefined","1","left","7","7","7","0","0","7","7","0","0","7","7","7","0","7","0","Sun Oct  7 18:07:52 2018","The main experiment item","yes","SternbergTask.osexp","/Volumes/USB20FD","no","mono","no","18","no","white","no","yes","768","legacy","7","7","/Volumes/USB20FD/subject-2 f.csv","legacy","1 5 2 9","Kafkaesque Koffka","3.2.5","2","y","0","left","up","","NA","left","NA","1417","2480","78277","NA","1417","NA","2","legacy","4","1024","2","48000","-16","experiment","2","even","5","198638","195293","196397","2307","NA","196408","148552","2324","NA","202547","197421","201129","132152","201129","NA","Sternberg Task","7","15232","8","yes","1024"
"88.8888888889","88.8888888889","1794.66666667","1794.66666667","black","practice","legacy","legacy","legacy","0","uniform","1","0","undefined","1","right","8","8","8","0","0","8","8","0","0","8","8","8","0","8","0","Sun Oct  7 18:07:52 2018","The main experiment item","yes","SternbergTask.osexp","/Volumes/USB20FD","no","mono","no","18","no","white","no","yes","768","legacy","8","8","/Volumes/USB20FD/subject-2 f.csv","legacy","9 6 7 4 5","Kafkaesque Koffka","3.2.5","0","n","0","right","up","","NA","right","NA","920","4685","78277","NA","920","NA","2","legacy","5","1024","2","48000","-16","experiment","2","even","3","205915","202560","203669","2307","NA","203680","148552","2324","NA","211533","204697","210612","132152","210611","NA","Sternberg Task","8","16152","9","yes","1024"
"90","90","1870.2","1870.2","black","practice","legacy","legacy","legacy","0","uniform","1","0","undefined","1","left","9","9","9","0","0","9","9","0","0","9","9","9","0","9","0","Sun Oct  7 18:07:52 2018","The main experiment item","yes","SternbergTask.osexp","/Volumes/USB20FD","no","mono","no","18","no","white","no","yes","768","legacy","9","9","/Volumes/USB20FD/subject-2 f.csv","legacy","2 9 4","Kafkaesque Koffka","3.2.5","3","y","0","left","up","","NA","left","NA","2550","807","78277","NA","2550","NA","2","legacy","3","1024","2","48000","-16","experiment","2","even","4","214903","211555","212659","2307","NA","212670","148552","2324","NA","218273","213684","215722","132152","215721","NA","Sternberg Task","9","18702","10","yes","1024"
"90.9090909091","90.9090909091","1782.63636364","1782.63636364","black","practice","legacy","legacy","legacy","0","uniform","1","0","undefined","1","right","10","10","10","0","0","10","10","0","0","10","10","10","0","10","0","Sun Oct  7 18:07:52 2018","The main experiment item","yes","SternbergTask.osexp","/Volumes/USB20FD","no","mono","no","18","no","white","no","yes","768","legacy","10","10","/Volumes/USB20FD/subject-2 f.csv","legacy","3 1 9 4","Kafkaesque Koffka","3.2.5","0","n","0","right","up","","NA","right","NA","907","648","78277","NA","907","NA","2","legacy","4","1024","2","48000","-16","experiment","2","even","6","221635","218288","219396","2307","NA","219407","148552","2324","NA","223204","220420","222295","132152","222294","NA","Sternberg Task","10","19609","11","yes","1024"
"83.3333333333","83.3333333333","1822.83333333","1822.83333333","black","practice","legacy","legacy","legacy","0","uniform","0","0","undefined","0","right","11","11","11","0","0","11","11","0","0","11","11","11","0","11","0","Sun Oct  7 18:07:52 2018","The main experiment item","yes","SternbergTask.osexp","/Volumes/USB20FD","no","mono","no","18","no","white","no","yes","768","legacy","11","11","/Volumes/USB20FD/subject-2 f.csv","legacy","5 7 8 4 1 2","Kafkaesque Koffka","3.2.5","0","n","0","left","up","","NA","left","NA","2265","1795","78277","NA","2265","NA","2","legacy","6","1024","2","48000","-16","experiment","2","even","6","226560","223216","224320","2307","NA","224331","148552","2324","NA","230632","225344","228366","132152","228366","NA","Sternberg Task","10","21874","12","yes","1024"
"76.9230769231","76.9230769231","1820.84615385","1820.84615385","black","experiment","legacy","legacy","legacy","0","uniform","0","0","undefined","0","right","12","12","12","0","0","12","12","0","0","12","12","12","0","12","0","Sun Oct  7 18:07:52 2018","The main experiment item","yes","SternbergTask.osexp","/Volumes/USB20FD","no","mono","no","18","no","white","no","yes","768","legacy","0","11","/Volumes/USB20FD/subject-2 f.csv","legacy","1 4 9 3","Kafkaesque Koffka","3.2.5","0","n","0","left","up","","up","left","NA","1797","1807","78277","11966","1797","NA","2","legacy","4","1024","2","48000","-16","experiment","2","even","5","246005","223216","243763","2307","243648","243773","230645","2324","231681","249623","244789","247825","132152","247825","NA","Sternberg Task","10","23671","13","yes","1024"
"78.5714285714","78.5714285714","1830.07142857","1830.07142857","black","experiment","legacy","legacy","legacy","0","uniform","1","0","undefined","1","left","13","13","13","0","0","13","13","0","0","13","13","13","0","13","0","Sun Oct  7 18:07:52 2018","The main experiment item","yes","SternbergTask.osexp","/Volumes/USB20FD","no","mono","no","18","no","white","no","yes","768","legacy","1","11","/Volumes/USB20FD/subject-2 f.csv","legacy","6 9 7 4 5 1","Kafkaesque Koffka","3.2.5","2","y","0","left","up","","up","left","NA","1950","2611","78277","11966","1950","NA","2","legacy","6","1024","2","48000","-16","experiment","2","even","9","252985","223216","250743","2307","243648","250753","249636","2324","231681","257558","251769","255607","132152","255607","NA","Sternberg Task","11","25621","14","yes","1024"
"80","80","1772.13333333","1772.13333333","black","experiment","legacy","legacy","legacy","0","uniform","1","0","undefined","1","left","14","14","14","0","0","14","14","0","0","14","14","14","0","14","0","Sun Oct  7 18:07:52 2018","The main experiment item","yes","SternbergTask.osexp","/Volumes/USB20FD","no","mono","no","18","no","white","no","yes","768","legacy","2","11","/Volumes/USB20FD/subject-2 f.csv","legacy","9 1 6 7 8","Kafkaesque Koffka","3.2.5","1","y","0","left","up","","up","left","NA","961","2339","78277","11966","961","NA","2","legacy","5","1024","2","48000","-16","experiment","2","even","9","260918","257571","258675","2307","243648","258685","249636","2324","231681","264230","259702","263268","132152","263268","NA","Sternberg Task","12","26582","15","yes","1024"
"81.25","81.25","1742.375","1742.375","black","experiment","legacy","legacy","legacy","0","uniform","1","0","undefined","1","left","15","15","15","0","0","15","15","0","0","15","15","15","0","15","0","Sun Oct  7 18:07:52 2018","The main experiment item","yes","SternbergTask.osexp","/Volumes/USB20FD","no","mono","no","18","no","white","no","yes","768","legacy","3","11","/Volumes/USB20FD/subject-2 f.csv","legacy","7 8 4 6 9 5","Kafkaesque Koffka","3.2.5","4","y","0","left","up","","up","left","NA","1296","977","78277","11966","1296","NA","2","legacy","6","1024","2","48000","-16","experiment","2","even","6","267593","264244","265353","2307","243648","265363","249636","2324","231681","269878","266376","268581","132152","268581","NA","Sternberg Task","13","27878","16","yes","1024"
"82.3529411765","82.3529411765","1697.64705882","1697.64705882","black","experiment","legacy","legacy","legacy","0","uniform","1","0","undefined","1","left","16","16","16","0","0","16","16","0","0","16","16","16","0","16","0","Sun Oct  7 18:07:52 2018","The main experiment item","yes","SternbergTask.osexp","/Volumes/USB20FD","no","mono","no","18","no","white","no","yes","768","legacy","4","11","/Volumes/USB20FD/subject-2 f.csv","legacy","4 1 5","Kafkaesque Koffka","3.2.5","2","y","0","left","up","","up","left","NA","982","1385","78277","11966","982","NA","2","legacy","3","1024","2","48000","-16","experiment","2","even","1","273236","269891","270999","2307","243648","271008","249636","2324","231681","275615","272021","274632","132152","274632","NA","Sternberg Task","14","28860","17","yes","1024"
"83.3333333333","83.3333333333","1638.66666667","1638.66666667","black","experiment","legacy","legacy","legacy","0","uniform","1","0","undefined","1","right","17","17","17","0","0","17","17","0","0","17","17","17","0","17","0","Sun Oct  7 18:07:52 2018","The main experiment item","yes","SternbergTask.osexp","/Volumes/USB20FD","no","mono","no","18","no","white","no","yes","768","legacy","5","11","/Volumes/USB20FD/subject-2 f.csv","legacy","1 7 5 2","Kafkaesque Koffka","3.2.5","0","n","0","right","up","","up","right","NA","636","1240","78277","11966","636","NA","2","legacy","4","1024","2","48000","-16","experiment","2","even","3","278973","275628","276732","2307","243648","276743","249636","2324","231681","280862","277756","280224","132152","280224","NA","Sternberg Task","15","29496","18","yes","1024"
"84.2105263158","84.2105263158","1612.57894737","1612.57894737","black","experiment","legacy","legacy","legacy","0","uniform","1","0","undefined","1","right","18","18","18","0","0","18","18","0","0","18","18","18","0","18","0","Sun Oct  7 18:07:52 2018","The main experiment item","yes","SternbergTask.osexp","/Volumes/USB20FD","no","mono","no","18","no","white","no","yes","768","legacy","6","11","/Volumes/USB20FD/subject-2 f.csv","legacy","8 9","Kafkaesque Koffka","3.2.5","0","n","0","right","up","","up","right","NA","1143","84","78277","11966","1143","NA","2","legacy","2","1024","2","48000","-16","experiment","2","even","5","284217","280874","281984","2307","243648","281994","249636","2324","231681","285458","283005","284313","132152","284313","NA","Sternberg Task","16","30639","19","yes","1024"
"85","85","1574.65","1574.65","black","experiment","legacy","legacy","legacy","0","uniform","1","0","undefined","1","left","19","19","19","0","0","19","19","0","0","19","19","19","0","19","0","Sun Oct  7 18:07:52 2018","The main experiment item","yes","SternbergTask.osexp","/Volumes/USB20FD","no","mono","no","18","no","white","no","yes","768","legacy","7","11","/Volumes/USB20FD/subject-2 f.csv","legacy","5 2 6","Kafkaesque Koffka","3.2.5","2","y","0","left","up","","up","left","NA","854","502","78277","11966","854","NA","2","legacy","3","1024","2","48000","-16","experiment","2","even","2","288820","285474","286581","2307","243648","286591","249636","2324","231681","290188","287604","289333","132152","289333","NA","Sternberg Task","17","31493","20","yes","1024"
"85.7142857143","85.7142857143","1541.95238095","1541.95238095","black","experiment","legacy","legacy","legacy","0","uniform","1","0","undefined","1","right","20","20","20","0","0","20","20","0","0","20","20","20","0","20","0","Sun Oct  7 18:07:52 2018","The main experiment item","yes","SternbergTask.osexp","/Volumes/USB20FD","no","mono","no","18","no","white","no","yes","768","legacy","8","11","/Volumes/USB20FD/subject-2 f.csv","legacy","4 2 6 9","Kafkaesque Koffka","3.2.5","0","n","0","right","up","","up","right","NA","888","1382","78277","11966","888","NA","2","legacy","4","1024","2","48000","-16","experiment","2","even","7","293551","290205","291310","2307","243648","291320","249636","2324","231681","295836","292335","294947","132152","294947","NA","Sternberg Task","18","32381","21","yes","1024"
"86.3636363636","86.3636363636","1513.09090909","1513.09090909","black","experiment","legacy","legacy","legacy","0","uniform","1","0","undefined","1","right","21","21","21","0","0","21","21","0","0","21","21","21","0","21","0","Sun Oct  7 18:07:52 2018","The main experiment item","yes","SternbergTask.osexp","/Volumes/USB20FD","no","mono","no","18","no","white","no","yes","768","legacy","9","11","/Volumes/USB20FD/subject-2 f.csv","legacy","8 4 3 5","Kafkaesque Koffka","3.2.5","0","n","0","right","up","","up","right","NA","907","809","78277","11966","907","NA","2","legacy","4","1024","2","48000","-16","experiment","2","even","6","299191","295849","296955","2307","243648","296966","249636","2324","231681","300919","297980","300011","132152","300011","NA","Sternberg Task","19","33288","22","yes","1024"
"86.9565217391","86.9565217391","1489.56521739","1489.56521739","black","experiment","legacy","legacy","legacy","0","uniform","1","0","undefined","1","right","22","22","22","0","0","22","22","0","0","22","22","22","0","22","0","Sun Oct  7 18:07:52 2018","The main experiment item","yes","SternbergTask.osexp","/Volumes/USB20FD","no","mono","no","18","no","white","no","yes","768","legacy","10","11","/Volumes/USB20FD/subject-2 f.csv","legacy","7 6 4 8 1 2","Kafkaesque Koffka","3.2.5","0","n","0","right","up","","up","right","NA","972","1449","78277","11966","972","NA","2","legacy","6","1024","2","48000","-16","experiment","2","even","9","304277","300933","302038","2307","243648","302048","249636","2324","231681","306712","303061","305739","132152","305739","NA","Sternberg Task","20","34260","23","yes","1024"
"87.5","87.5","1475.08333333","1475.08333333","black","experiment","legacy","legacy","legacy","0","uniform","1","0","undefined","1","left","23","23","23","0","0","23","23","0","0","23","23","23","0","23","0","Sun Oct  7 18:07:52 2018","The main experiment item","yes","SternbergTask.osexp","/Volumes/USB20FD","no","mono","no","18","no","white","no","yes","768","legacy","11","11","/Volumes/USB20FD/subject-2 f.csv","legacy","5 7 8 2 3 8","Kafkaesque Koffka","3.2.5","5","y","0","left","up","","up","left","NA","1142","2796","78277","11966","1142","NA","2","legacy","6","1024","2","48000","-16","experiment","2","even","3","310072","306725","307836","2307","243648","307847","249636","2324","231681","314023","308861","312879","132152","312879","NA","Sternberg Task","21","35402","24","yes","1024"
"88","88","1484.12","1484.12","black","experiment","legacy","legacy","legacy","0","uniform","1","0","undefined","1","right","24","24","24","0","0","24","24","0","0","24","24","24","0","24","0","Sun Oct  7 18:07:52 2018","The main experiment item","yes","SternbergTask.osexp","/Volumes/USB20FD","no","mono","no","18","no","white","no","yes","768","legacy","12","11","/Volumes/USB20FD/subject-2 f.csv","legacy","6 9 4 5 3 2","Kafkaesque Koffka","3.2.5","0","n","0","right","up","","up","right","NA","1701","1688","78277","11966","1701","NA","2","legacy","6","1024","2","48000","-16","experiment","2","even","8","317380","314035","315139","2307","243648","315150","249636","2324","231681","320782","316164","319079","132152","319079","NA","Sternberg Task","22","37103","25","yes","1024"
"88.4615384615","88.4615384615","1462.11538462","1462.11538462","black","experiment","legacy","legacy","legacy","0","uniform","1","0","undefined","1","right","25","25","25","0","0","25","25","0","0","25","25","25","0","25","0","Sun Oct  7 18:07:52 2018","The main experiment item","yes","SternbergTask.osexp","/Volumes/USB20FD","no","mono","no","18","no","white","no","yes","768","legacy","13","11","/Volumes/USB20FD/subject-2 f.csv","legacy","7 8 6 1","Kafkaesque Koffka","3.2.5","0","n","0","right","up","","up","right","NA","912","483","78277","11966","912","NA","2","legacy","4","1024","2","48000","-16","experiment","2","even","3","324152","320800","321909","2307","243648","321919","249636","2324","231681","325561","322932","324648","132152","324648","NA","Sternberg Task","23","38015","26","yes","1024"
"88.8888888889","88.8888888889","1443.33333333","1443.33333333","black","experiment","legacy","legacy","legacy","0","uniform","1","0","undefined","1","right","26","26","26","0","0","26","26","0","0","26","26","26","0","26","0","Sun Oct  7 18:07:52 2018","The main experiment item","yes","SternbergTask.osexp","/Volumes/USB20FD","no","mono","no","18","no","white","no","yes","768","legacy","14","11","/Volumes/USB20FD/subject-2 f.csv","legacy","1 5 3 2 8","Kafkaesque Koffka","3.2.5","0","n","0","right","up","","up","right","NA","955","546","78277","11966","955","NA","2","legacy","5","1024","2","48000","-16","experiment","2","even","4","328919","325573","326679","2307","243648","326689","249636","2324","231681","330434","327703","329477","132152","329477","NA","Sternberg Task","24","38970","27","yes","1024"
"89.2857142857","89.2857142857","1439.03571429","1439.03571429","black","experiment","legacy","legacy","legacy","0","uniform","1","0","undefined","1","right","27","27","27","0","0","27","27","0","0","27","27","27","0","27","0","Sun Oct  7 18:07:52 2018","The main experiment item","yes","SternbergTask.osexp","/Volumes/USB20FD","no","mono","no","18","no","white","no","yes","768","legacy","15","11","/Volumes/USB20FD/subject-2 f.csv","legacy","9 5 3 2 8 6","Kafkaesque Koffka","3.2.5","0","n","0","right","up","","up","right","NA","1323","1278","78277","11966","1323","NA","2","legacy","6","1024","2","48000","-16","experiment","2","even","7","333794","330446","331551","2307","243648","331562","249636","2324","231681","336408","332578","335084","132152","335083","NA","Sternberg Task","25","40293","28","yes","1024"
"89.6551724138","89.6551724138","1429.48275862","1429.48275862","black","experiment","legacy","legacy","legacy","0","uniform","1","0","undefined","1","left","28","28","28","0","0","28","28","0","0","28","28","28","0","28","0","Sun Oct  7 18:07:52 2018","The main experiment item","yes","SternbergTask.osexp","/Volumes/USB20FD","no","mono","no","18","no","white","no","yes","768","legacy","16","11","/Volumes/USB20FD/subject-2 f.csv","legacy","6 8 9 3 4 9","Kafkaesque Koffka","3.2.5","5","y","0","left","up","","up","left","NA","1162","905","78277","11966","1162","NA","2","legacy","6","1024","2","48000","-16","experiment","2","even","4","339764","336421","337526","2307","243648","337536","249636","2324","231681","341843","338548","340680","132152","340680","NA","Sternberg Task","26","41455","29","yes","1024"
"90","90","1455.03333333","1455.03333333","black","experiment","legacy","legacy","legacy","0","uniform","1","0","undefined","1","right","29","29","29","0","0","29","29","0","0","29","29","29","0","29","0","Sun Oct  7 18:07:52 2018","The main experiment item","yes","SternbergTask.osexp","/Volumes/USB20FD","no","mono","no","18","no","white","no","yes","768","legacy","17","11","/Volumes/USB20FD/subject-2 f.csv","legacy","8 2 1 4 5 9","Kafkaesque Koffka","3.2.5","0","n","0","right","up","","up","right","NA","2196","453","78277","11966","2196","NA","2","legacy","6","1024","2","48000","-16","experiment","2","even","7","345209","341858","342963","2307","243648","342974","249636","2324","231681","347871","343991","345673","132152","345673","NA","Sternberg Task","27","43651","30","yes","1024"
"90.3225806452","90.3225806452","1436.80645161","1436.80645161","black","experiment","legacy","legacy","legacy","0","uniform","1","0","undefined","1","right","30","30","30","0","0","30","30","0","0","30","30","30","0","30","0","Sun Oct  7 18:07:52 2018","The main experiment item","yes","SternbergTask.osexp","/Volumes/USB20FD","no","mono","no","18","no","white","no","yes","768","legacy","18","11","/Volumes/USB20FD/subject-2 f.csv","legacy","8 5 4 2 9 6","Kafkaesque Koffka","3.2.5","0","n","0","right","up","","up","right","NA","890","1553","78277","11966","890","NA","2","legacy","6","1024","2","48000","-16","experiment","2","even","3","351223","347885","348989","2307","243648","348999","249636","2324","231681","353678","350012","352787","132152","352787","NA","Sternberg Task","28","44541","31","yes","1024"
"90.625","90.625","1418.21875","1418.21875","black","experiment","legacy","legacy","legacy","0","uniform","1","0","undefined","1","right","31","31","31","0","0","31","31","0","0","31","31","31","0","31","0","Sun Oct  7 18:07:52 2018","The main experiment item","yes","SternbergTask.osexp","/Volumes/USB20FD","no","mono","no","18","no","white","no","yes","768","legacy","19","11","/Volumes/USB20FD/subject-2 f.csv","legacy","1 6 4 3 9 7","Kafkaesque Koffka","3.2.5","0","n","0","right","up","","up","right","NA","842","646","78277","11966","842","NA","2","legacy","6","1024","2","48000","-16","experiment","2","even","8","357037","353690","354797","2307","243648","354808","249636","2324","231681","358537","355821","357694","132152","357694","NA","Sternberg Task","29","45383","32","yes","1024"
"90.9090909091","90.9090909091","1402.39393939","1402.39393939","black","experiment","legacy","legacy","legacy","0","uniform","1","0","undefined","1","left","32","32","32","0","0","32","32","0","0","32","32","32","0","32","0","Sun Oct  7 18:07:52 2018","The main experiment item","yes","SternbergTask.osexp","/Volumes/USB20FD","no","mono","no","18","no","white","no","yes","768","legacy","20","11","/Volumes/USB20FD/subject-2 f.csv","legacy","9 3 8 2 1 4","Kafkaesque Koffka","3.2.5","3","y","0","left","up","","up","left","NA","896","473","78277","11966","896","NA","2","legacy","6","1024","2","48000","-16","experiment","2","even","8","361898","358550","359657","2307","243648","359667","249636","2324","231681","363281","360681","362382","132152","362382","NA","Sternberg Task","30","46279","33","yes","1024"
"91.1764705882","91.1764705882","1396.70588235","1396.70588235","black","experiment","legacy","legacy","legacy","0","uniform","1","0","undefined","1","left","33","33","33","0","0","33","33","0","0","33","33","33","0","33","0","Sun Oct  7 18:07:52 2018","The main experiment item","yes","SternbergTask.osexp","/Volumes/USB20FD","no","mono","no","18","no","white","no","yes","768","legacy","21","11","/Volumes/USB20FD/subject-2 f.csv","legacy","2 4 8 5 1 3","Kafkaesque Koffka","3.2.5","1","y","0","left","up","","up","left","NA","1209","407","78277","11966","1209","NA","2","legacy","6","1024","2","48000","-16","experiment","2","even","2","366643","363296","364403","2307","243648","364413","249636","2324","231681","368271","365426","367061","132152","367061","NA","Sternberg Task","31","47488","34","yes","1024"
"91.4285714286","91.4285714286","1396.05714286","1396.05714286","black","experiment","legacy","legacy","legacy","0","uniform","1","0","undefined","1","right","34","34","34","0","0","34","34","0","0","34","34","34","0","34","0","Sun Oct  7 18:07:52 2018","The main experiment item","yes","SternbergTask.osexp","/Volumes/USB20FD","no","mono","no","18","no","white","no","yes","768","legacy","22","11","/Volumes/USB20FD/subject-2 f.csv","legacy","7 3 2 8","Kafkaesque Koffka","3.2.5","0","n","0","right","up","","up","right","NA","1374","1072","78277","11966","1374","NA","2","legacy","4","1024","2","48000","-16","experiment","2","even","4","371631","368284","369389","2307","243648","369400","249636","2324","231681","374091","370416","372715","132152","372715","NA","Sternberg Task","32","48862","35","yes","1024"
"91.6666666667","91.6666666667","1402.77777778","1402.77777778","black","experiment","legacy","legacy","legacy","0","uniform","1","0","undefined","1","right","35","35","35","0","0","35","35","0","0","35","35","35","0","35","0","Sun Oct  7 18:07:52 2018","The main experiment item","yes","SternbergTask.osexp","/Volumes/USB20FD","no","mono","no","18","no","white","no","yes","768","legacy","23","11","/Volumes/USB20FD/subject-2 f.csv","legacy","9 7 4 5 8","Kafkaesque Koffka","3.2.5","0","n","0","right","up","","up","right","NA","1638","559","78277","11966","1638","NA","2","legacy","5","1024","2","48000","-16","experiment","2","even","6","377446","374106","375208","2307","243648","375218","249636","2324","231681","379656","376235","378017","132152","378016","NA","Sternberg Task","33","50500","36","yes","1024"
"91.8918918919","91.8918918919","1395.37837838","1395.37837838","black","experiment","legacy","legacy","legacy","0","uniform","1","0","undefined","1","left","36","36","36","0","0","36","36","0","0","36","36","36","0","36","0","Sun Oct  7 18:07:52 2018","The main experiment item","yes","SternbergTask.osexp","/Volumes/USB20FD","no","mono","no","18","no","white","no","yes","768","legacy","24","11","/Volumes/USB20FD/subject-2 f.csv","legacy","7 1 3","Kafkaesque Koffka","3.2.5","2","y","0","left","up","","up","left","NA","1129","508","78277","11966","1129","NA","2","legacy","3","1024","2","48000","-16","experiment","2","even","1","383014","379669","380774","2307","243648","380784","249636","2324","231681","384665","381798","383534","132152","383534","NA","Sternberg Task","34","51629","37","yes","1024"
"92.1052631579","92.1052631579","1387.97368421","1387.97368421","black","experiment","legacy","legacy","legacy","0","uniform","1","0","undefined","1","left","37","37","37","0","0","37","37","0","0","37","37","37","0","37","0","Sun Oct  7 18:07:52 2018","The main experiment item","yes","SternbergTask.osexp","/Volumes/USB20FD","no","mono","no","18","no","white","no","yes","768","legacy","25","11","/Volumes/USB20FD/subject-2 f.csv","legacy","7 1 8 5 6 2","Kafkaesque Koffka","3.2.5","2","y","0","left","up","","up","left","NA","1114","821","78277","11966","1114","NA","2","legacy","6","1024","2","48000","-16","experiment","2","even","1","388029","384678","385787","2307","243648","385798","249636","2324","231681","389978","386811","388862","132152","388862","NA","Sternberg Task","35","52743","38","yes","1024"
"92.3076923077","92.3076923077","1379.20512821","1379.20512821","black","experiment","legacy","legacy","legacy","0","uniform","1","0","undefined","1","right","38","38","38","0","0","38","38","0","0","38","38","38","0","38","0","Sun Oct  7 18:07:52 2018","The main experiment item","yes","SternbergTask.osexp","/Volumes/USB20FD","no","mono","no","18","no","white","no","yes","768","legacy","26","11","/Volumes/USB20FD/subject-2 f.csv","legacy","7 1 8 4 9 3","Kafkaesque Koffka","3.2.5","0","n","0","right","up","","up","right","NA","1046","975","78277","11966","1046","NA","2","legacy","6","1024","2","48000","-16","experiment","2","even","6","393339","389990","391099","2307","243648","391110","249636","2324","231681","395372","392123","394325","132152","394325","NA","Sternberg Task","36","53789","39","yes","1024"
"92.5","92.5","1364.975","1364.975","black","experiment","legacy","legacy","legacy","0","uniform","1","0","undefined","1","right","39","39","39","0","0","39","39","0","0","39","39","39","0","39","0","Sun Oct  7 18:07:52 2018","The main experiment item","yes","SternbergTask.osexp","/Volumes/USB20FD","no","mono","no","18","no","white","no","yes","768","legacy","27","11","/Volumes/USB20FD/subject-2 f.csv","legacy","6 7 5 9","Kafkaesque Koffka","3.2.5","0","n","0","right","up","","up","right","NA","810","701","78277","11966","810","NA","2","legacy","4","1024","2","48000","-16","experiment","2","even","2","398733","395385","396493","2307","243648","396503","249636","2324","231681","400256","397517","399445","132152","399445","NA","Sternberg Task","37","54599","40","yes","1024"
"92.6829268293","92.6829268293","1355.36585366","1355.36585366","black","experiment","legacy","legacy","legacy","0","uniform","1","0","undefined","1","right","40","40","40","0","0","40","40","0","0","40","40","40","0","40","0","Sun Oct  7 18:07:52 2018","The main experiment item","yes","SternbergTask.osexp","/Volumes/USB20FD","no","mono","no","18","no","white","no","yes","768","legacy","28","11","/Volumes/USB20FD/subject-2 f.csv","legacy","1","Kafkaesque Koffka","3.2.5","0","n","0","right","up","","up","right","NA","971","2356","78277","11966","971","NA","2","legacy","1","1024","2","48000","-16","experiment","2","even","7","403608","400272","401371","2307","243648","401382","249636","2324","231681","406948","402396","405975","132152","405975","NA","Sternberg Task","38","55570","41","yes","1024"
"92.8571428571","92.8571428571","1352.71428571","1352.71428571","black","experiment","legacy","legacy","legacy","0","uniform","1","0","undefined","1","left","41","41","41","0","0","41","41","0","0","41","41","41","0","41","0","Sun Oct  7 18:07:52 2018","The main experiment item","yes","SternbergTask.osexp","/Volumes/USB20FD","no","mono","no","18","no","white","no","yes","768","legacy","29","11","/Volumes/USB20FD/subject-2 f.csv","legacy","7 8 6 3 1","Kafkaesque Koffka","3.2.5","5","y","0","left","up","","up","left","NA","1244","1346","78277","11966","1244","NA","2","legacy","5","1024","2","48000","-16","experiment","2","even","1","410309","406965","408069","2307","243648","408079","249636","2324","231681","412912","409094","411667","132152","411667","NA","Sternberg Task","39","56814","42","yes","1024"
"93.023255814","93.023255814","1336.34883721","1336.34883721","black","experiment","legacy","legacy","legacy","0","uniform","1","0","undefined","1","right","42","42","42","0","0","42","42","0","0","42","42","42","0","42","0","Sun Oct  7 18:07:52 2018","The main experiment item","yes","SternbergTask.osexp","/Volumes/USB20FD","no","mono","no","18","no","white","no","yes","768","legacy","30","11","/Volumes/USB20FD/subject-2 f.csv","legacy","5 7 3","Kafkaesque Koffka","3.2.5","0","n","0","right","up","","up","right","NA","649","309","78277","11966","649","NA","2","legacy","3","1024","2","48000","-16","experiment","2","even","9","416266","412925","414028","2307","243648","414038","249636","2324","231681","417238","415052","416587","132152","416587","NA","Sternberg Task","40","57463","43","yes","1024"
"93.1818181818","93.1818181818","1317.34090909","1317.34090909","black","experiment","legacy","legacy","legacy","0","uniform","1","0","undefined","1","right","43","43","43","0","0","43","43","0","0","43","43","43","0","43","0","Sun Oct  7 18:07:52 2018","The main experiment item","yes","SternbergTask.osexp","/Volumes/USB20FD","no","mono","no","18","no","white","no","yes","768","legacy","31","11","/Volumes/USB20FD/subject-2 f.csv","legacy","4 8 1 2","Kafkaesque Koffka","3.2.5","0","n","0","right","up","","up","right","NA","500","498","78277","11966","500","NA","2","legacy","4","1024","2","48000","-16","experiment","2","even","7","420596","417250","418356","2307","243648","418367","249636","2324","231681","421606","419380","421105","132152","421105","NA","Sternberg Task","41","57963","44","yes","1024"
"93.3333333333","93.3333333333","1305.33333333","1305.33333333","black","experiment","legacy","legacy","legacy","0","uniform","1","0","undefined","1","left","44","44","44","0","0","44","44","0","0","44","44","44","0","44","0","Sun Oct  7 18:07:52 2018","The main experiment item","yes","SternbergTask.osexp","/Volumes/USB20FD","no","mono","no","18","no","white","no","yes","768","legacy","32","11","/Volumes/USB20FD/subject-2 f.csv","legacy","3 4 9 6 2 9","Kafkaesque Koffka","3.2.5","5","y","0","left","up","","up","left","NA","777","444","78277","11966","777","NA","2","legacy","6","1024","2","48000","-16","experiment","2","even","2","424963","421619","422723","2307","243648","422733","249636","2324","231681","426197","423746","425419","132152","425419","NA","Sternberg Task","42","58740","45","yes","1024"
"93.4782608696","93.4782608696","1289.15217391","1289.15217391","black","experiment","legacy","legacy","legacy","0","uniform","1","0","undefined","1","left","45","45","45","0","0","45","45","0","0","45","45","45","0","45","0","Sun Oct  7 18:07:52 2018","The main experiment item","yes","SternbergTask.osexp","/Volumes/USB20FD","no","mono","no","18","no","white","no","yes","768","legacy","33","11","/Volumes/USB20FD/subject-2 f.csv","legacy","4 3 2 5 8","Kafkaesque Koffka","3.2.5","2","y","0","left","up","","up","left","NA","561","266","78277","11966","561","NA","2","legacy","5","1024","2","48000","-16","experiment","2","even","3","429555","426211","427318","2307","243648","427328","249636","2324","231681","430394","428338","429832","132152","429832","NA","Sternberg Task","43","59301","46","yes","1024"
"93.6170212766","93.6170212766","1278.19148936","1278.19148936","black","experiment","legacy","legacy","legacy","0","uniform","1","0","undefined","1","right","46","46","46","0","0","46","46","0","0","46","46","46","0","46","0","Sun Oct  7 18:07:52 2018","The main experiment item","yes","SternbergTask.osexp","/Volumes/USB20FD","no","mono","no","18","no","white","no","yes","768","legacy","34","11","/Volumes/USB20FD/subject-2 f.csv","legacy","1 6 4","Kafkaesque Koffka","3.2.5","0","n","0","right","up","","up","right","NA","774","339","78277","11966","774","NA","2","legacy","3","1024","2","48000","-16","experiment","2","even","7","433762","430413","431521","2307","243648","431532","249636","2324","231681","434887","432545","434112","132152","434112","NA","Sternberg Task","44","60075","47","yes","1024"
"93.75","93.75","1265.4375","1265.4375","black","experiment","legacy","legacy","legacy","0","uniform","1","0","undefined","1","left","47","47","47","0","0","47","47","0","0","47","47","47","0","47","0","Sun Oct  7 18:07:52 2018","The main experiment item","yes","SternbergTask.osexp","/Volumes/USB20FD","no","mono","no","18","no","white","no","yes","768","legacy","35","11","/Volumes/USB20FD/subject-2 f.csv","legacy","3 9 7 6 4","Kafkaesque Koffka","3.2.5","3","y","0","left","up","","up","left","NA","666","1405","78277","11966","666","NA","2","legacy","5","1024","2","48000","-16","experiment","2","even","7","438243","434900","436006","2307","243648","436016","249636","2324","231681","440328","437029","439660","132152","439660","NA","Sternberg Task","45","60741","48","yes","1024"
"93.8775510204","93.8775510204","1257.73469388","1257.73469388","black","experiment","legacy","legacy","legacy","0","uniform","1","0","undefined","1","right","48","48","48","0","0","48","48","0","0","48","48","48","0","48","0","Sun Oct  7 18:07:52 2018","The main experiment item","yes","SternbergTask.osexp","/Volumes/USB20FD","no","mono","no","18","no","white","no","yes","768","legacy","36","11","/Volumes/USB20FD/subject-2 f.csv","legacy","2 6 4 3 9","Kafkaesque Koffka","3.2.5","0","n","0","right","up","","up","right","NA","888","634","78277","11966","888","NA","2","legacy","5","1024","2","48000","-16","experiment","2","even","1","443689","440341","441447","2307","243648","441458","249636","2324","231681","445224","442473","444335","132152","444335","NA","Sternberg Task","46","61629","49","yes","1024"
"92","92","1238.78","1238.78","black","experiment","legacy","legacy","legacy","0","uniform","0","0","undefined","0","left","49","49","49","0","0","49","49","0","0","49","49","49","0","49","0","Sun Oct  7 18:07:52 2018","The main experiment item","yes","SternbergTask.osexp","/Volumes/USB20FD","no","mono","no","18","no","white","no","yes","768","legacy","37","11","/Volumes/USB20FD/subject-2 f.csv","legacy","3 4","Kafkaesque Koffka","3.2.5","1","y","0","right","up","","up","right","NA","310","363","78277","11966","310","NA","2","legacy","2","1024","2","48000","-16","experiment","2","even","3","448579","445237","446340","2307","243648","446350","249636","2324","231681","449265","447363","448953","132152","448953","NA","Sternberg Task","46","61939","50","yes","1024"
"92.1568627451","92.1568627451","1224.37254902","1224.37254902","black","experiment","legacy","legacy","legacy","0","uniform","1","0","undefined","1","left","50","50","50","0","0","50","50","0","0","50","50","50","0","50","0","Sun Oct  7 18:07:52 2018","The main experiment item","yes","SternbergTask.osexp","/Volumes/USB20FD","no","mono","no","18","no","white","no","yes","768","legacy","38","11","/Volumes/USB20FD/subject-2 f.csv","legacy","9 4 2","Kafkaesque Koffka","3.2.5","1","y","0","left","up","","up","left","NA","504","559","78277","11966","504","NA","2","legacy","3","1024","2","48000","-16","experiment","2","even","9","452625","445237","450386","2307","243648","450397","449282","2324","231681","453702","451407","453196","132152","453196","NA","Sternberg Task","47","62443","51","yes","1024"
"92.3076923077","92.3076923077","1211.03846154","1211.03846154","black","experiment","legacy","legacy","legacy","0","uniform","1","0","undefined","1","left","51","51","51","0","0","51","51","0","0","51","51","51","0","51","0","Sun Oct  7 18:07:52 2018","The main experiment item","yes","SternbergTask.osexp","/Volumes/USB20FD","no","mono","no","18","no","white","no","yes","768","legacy","39","11","/Volumes/USB20FD/subject-2 f.csv","legacy","9 5 3 8 4","Kafkaesque Koffka","3.2.5","1","y","0","left","up","","up","left","NA","531","563","78277","11966","531","NA","2","legacy","5","1024","2","48000","-16","experiment","2","even","9","457066","453717","454827","2307","243648","454837","449282","2324","231681","458174","455850","457641","132152","457641","NA","Sternberg Task","48","62974","52","yes","1024"
"92.4528301887","92.4528301887","1197.94339623","1197.94339623","black","experiment","legacy","legacy","legacy","0","uniform","1","0","undefined","1","left","52","52","52","0","0","52","52","0","0","52","52","52","0","52","0","Sun Oct  7 18:07:52 2018","The main experiment item","yes","SternbergTask.osexp","/Volumes/USB20FD","no","mono","no","18","no","white","no","yes","768","legacy","40","11","/Volumes/USB20FD/subject-2 f.csv","legacy","8 9 5 6 7","Kafkaesque Koffka","3.2.5","1","y","0","left","up","","up","left","NA","517","416","78277","11966","517","NA","2","legacy","5","1024","2","48000","-16","experiment","2","even","8","461534","458187","459294","2307","243648","459305","449282","2324","231681","462480","460318","461962","132152","461961","NA","Sternberg Task","49","63491","53","yes","1024"
"92.5925925926","92.5925925926","1189.68518519","1189.68518519","black","experiment","legacy","legacy","legacy","0","uniform","1","0","undefined","1","right","53","53","53","0","0","53","53","0","0","53","53","53","0","53","0","Sun Oct  7 18:07:52 2018","The main experiment item","yes","SternbergTask.osexp","/Volumes/USB20FD","no","mono","no","18","no","white","no","yes","768","legacy","41","11","/Volumes/USB20FD/subject-2 f.csv","legacy","1 7 5 2 9","Kafkaesque Koffka","3.2.5","0","n","0","right","up","","up","right","NA","752","382","78277","11966","752","NA","2","legacy","5","1024","2","48000","-16","experiment","2","even","3","465846","462494","463600","2307","243648","463611","449282","2324","231681","466995","464631","466241","132152","466241","NA","Sternberg Task","50","64243","54","yes","1024"
"92.7272727273","92.7272727273","1182.81818182","1182.81818182","black","experiment","legacy","legacy","legacy","0","uniform","1","0","undefined","1","left","54","54","54","0","0","54","54","0","0","54","54","54","0","54","0","Sun Oct  7 18:07:52 2018","The main experiment item","yes","SternbergTask.osexp","/Volumes/USB20FD","no","mono","no","18","no","white","no","yes","768","legacy","42","11","/Volumes/USB20FD/subject-2 f.csv","legacy","7 4 2 6 3 5","Kafkaesque Koffka","3.2.5","6","y","0","left","up","","up","left","NA","812","542","78277","11966","812","NA","2","legacy","6","1024","2","48000","-16","experiment","2","even","5","470354","467006","468114","2307","243648","468125","449282","2324","231681","471721","469138","470908","132152","470907","NA","Sternberg Task","51","65055","55","yes","1024"
"92.8571428571","92.8571428571","1174.82142857","1174.82142857","black","experiment","legacy","legacy","legacy","0","uniform","1","0","undefined","1","right","55","55","55","0","0","55","55","0","0","55","55","55","0","55","0","Sun Oct  7 18:07:52 2018","The main experiment item","yes","SternbergTask.osexp","/Volumes/USB20FD","no","mono","no","18","no","white","no","yes","768","legacy","43","11","/Volumes/USB20FD/subject-2 f.csv","legacy","7 1 5 6 3","Kafkaesque Koffka","3.2.5","0","n","0","right","up","","up","right","NA","735","572","78277","11966","735","NA","2","legacy","5","1024","2","48000","-16","experiment","2","even","8","475084","471734","472838","2307","243648","472848","449282","2324","231681","476403","473866","475667","132152","475667","NA","Sternberg Task","52","65790","56","yes","1024"
"91.2280701754","91.2280701754","1168.71929825","1168.71929825","black","experiment","legacy","legacy","legacy","0","uniform","0","0","undefined","0","right","56","56","56","0","0","56","56","0","0","56","56","56","0","56","0","Sun Oct  7 18:07:52 2018","The main experiment item","yes","SternbergTask.osexp","/Volumes/USB20FD","no","mono","no","18","no","white","no","yes","768","legacy","44","11","/Volumes/USB20FD/subject-2 f.csv","legacy","2 8 7 9 5 3","Kafkaesque Koffka","3.2.5","0","n","0","left","up","","up","left","NA","827","781","78277","11966","827","NA","2","legacy","6","1024","2","48000","-16","experiment","2","even","6","479763","476421","477526","2307","243648","477538","449282","2324","231681","481386","478552","480557","132152","480557","NA","Sternberg Task","52","66617","57","yes","1024"
"91.3793103448","91.3793103448","1161.5862069","1161.5862069","black","experiment","legacy","legacy","legacy","0","uniform","1","0","undefined","1","right","57","57","57","0","0","57","57","0","0","57","57","57","0","57","0","Sun Oct  7 18:07:52 2018","The main experiment item","yes","SternbergTask.osexp","/Volumes/USB20FD","no","mono","no","18","no","white","no","yes","768","legacy","45","11","/Volumes/USB20FD/subject-2 f.csv","legacy","1 4 3 6 5","Kafkaesque Koffka","3.2.5","0","n","0","right","up","","up","right","NA","755","777","78277","11966","755","NA","2","legacy","5","1024","2","48000","-16","experiment","2","even","8","484746","476421","482508","2307","243648","482518","481399","2324","231681","486290","483531","485534","132152","485534","NA","Sternberg Task","53","67372","58","yes","1024"
"89.8305084746","89.8305084746","1156","1156","black","experiment","legacy","legacy","legacy","0","uniform","0","0","undefined","0","right","58","58","58","0","0","58","58","0","0","58","58","58","0","58","0","Sun Oct  7 18:07:52 2018","The main experiment item","yes","SternbergTask.osexp","/Volumes/USB20FD","no","mono","no","18","no","white","no","yes","768","legacy","46","11","/Volumes/USB20FD/subject-2 f.csv","legacy","3 4 9 6 7 8","Kafkaesque Koffka","3.2.5","0","n","0","left","up","","up","left","NA","832","615","78277","11966","832","NA","2","legacy","6","1024","2","48000","-16","experiment","2","even","2","489647","486305","487408","2307","243648","487418","481399","2324","231681","491108","488432","490274","132152","490274","NA","Sternberg Task","53","68204","59","yes","1024"
"90","90","1154.9","1154.9","black","experiment","legacy","legacy","legacy","0","uniform","1","0","undefined","1","left","59","59","59","0","0","59","59","0","0","59","59","59","0","59","0","Sun Oct  7 18:07:52 2018","The main experiment item","yes","SternbergTask.osexp","/Volumes/USB20FD","no","mono","no","18","no","white","no","yes","768","legacy","47","11","/Volumes/USB20FD/subject-2 f.csv","legacy","8 5 1 3 9","Kafkaesque Koffka","3.2.5","4","y","0","left","up","","up","left","NA","1090","833","78277","11966","1090","NA","2","legacy","5","1024","2","48000","-16","experiment","2","even","3","494465","486305","492225","2307","243648","492235","491121","2324","231681","496401","493250","495310","132152","495309","NA","Sternberg Task","54","69294","60","yes","1024"
"90.1639344262","90.1639344262","1150.70491803","1150.70491803","black","experiment","legacy","legacy","legacy","0","uniform","1","0","undefined","1","left","60","60","60","0","0","60","60","0","0","60","60","60","0","60","0","Sun Oct  7 18:07:52 2018","The main experiment item","yes","SternbergTask.osexp","/Volumes/USB20FD","no","mono","no","18","no","white","no","yes","768","legacy","48","11","/Volumes/USB20FD/subject-2 f.csv","legacy","2 6 1 7 4","Kafkaesque Koffka","3.2.5","2","y","0","left","up","","up","left","NA","899","513","78277","11966","899","NA","2","legacy","5","1024","2","48000","-16","experiment","2","even","6","499759","496415","497519","2307","243648","497531","491121","2324","231681","501187","498544","500286","132152","500285","NA","Sternberg Task","55","70193","61","yes","1024"
"90.3225806452","90.3225806452","1139.14516129","1139.14516129","black","experiment","legacy","legacy","legacy","0","uniform","1","0","undefined","1","right","61","61","61","0","0","61","61","0","0","61","61","61","0","61","0","Sun Oct  7 18:07:52 2018","The main experiment item","yes","SternbergTask.osexp","/Volumes/USB20FD","no","mono","no","18","no","white","no","yes","768","legacy","49","11","/Volumes/USB20FD/subject-2 f.csv","legacy","6 9 5","Kafkaesque Koffka","3.2.5","0","n","0","right","up","","up","right","NA","434","344","78277","11966","434","NA","2","legacy","3","1024","2","48000","-16","experiment","2","even","8","504547","501202","502305","2307","243648","502317","491121","2324","231681","505339","503330","504903","132152","504903","NA","Sternberg Task","56","70627","62","yes","1024"
"90.4761904762","90.4761904762","1137.14285714","1137.14285714","black","experiment","legacy","legacy","legacy","0","uniform","1","0","undefined","1","left","62","62","62","0","0","62","62","0","0","62","62","62","0","62","0","Sun Oct  7 18:07:52 2018","The main experiment item","yes","SternbergTask.osexp","/Volumes/USB20FD","no","mono","no","18","no","white","no","yes","768","legacy","50","11","/Volumes/USB20FD/subject-2 f.csv","legacy","2 8 5 1","Kafkaesque Koffka","3.2.5","4","y","0","left","up","","up","left","NA","1013","473","78277","11966","1013","NA","2","legacy","4","1024","2","48000","-16","experiment","2","even","1","508700","505351","506459","2307","243648","506471","491121","2324","231681","510200","507485","509186","132152","509186","NA","Sternberg Task","57","71640","63","yes","1024"
"90.625","90.625","1126.515625","1126.515625","black","experiment","legacy","legacy","legacy","0","uniform","1","0","undefined","1","left","63","63","63","0","0","63","63","0","0","63","63","63","0","63","0","Sun Oct  7 18:07:52 2018","The main experiment item","yes","SternbergTask.osexp","/Volumes/USB20FD","no","mono","no","18","no","white","no","yes","768","legacy","51","11","/Volumes/USB20FD/subject-2 f.csv","legacy","2 3 7 4","Kafkaesque Koffka","3.2.5","1","y","0","left","up","","up","left","NA","457","392","78277","11966","457","NA","2","legacy","4","1024","2","48000","-16","experiment","2","even","2","513562","510213","511323","2307","243648","511333","491121","2324","231681","514425","512347","513966","132152","513966","NA","Sternberg Task","58","72097","64","yes","1024"
"90.7692307692","90.7692307692","1117.98461538","1117.98461538","black","experiment","legacy","legacy","legacy","0","uniform","1","0","undefined","1","left","64","64","64","0","0","64","64","0","0","64","64","64","0","64","0","Sun Oct  7 18:07:52 2018","The main experiment item","yes","SternbergTask.osexp","/Volumes/USB20FD","no","mono","no","18","no","white","no","yes","768","legacy","52","11","/Volumes/USB20FD/subject-2 f.csv","legacy","9 6 2 4 1","Kafkaesque Koffka","3.2.5","4","y","0","left","up","","up","left","NA","572","494","78277","11966","572","NA","2","legacy","5","1024","2","48000","-16","experiment","2","even","4","517794","514438","515544","2307","243648","515554","491121","2324","231681","518874","516573","518300","132152","518300","NA","Sternberg Task","59","72669","65","yes","1024"
"90.9090909091","90.9090909091","1110.13636364","1110.13636364","black","experiment","legacy","legacy","legacy","0","uniform","1","0","undefined","1","right","65","65","65","0","0","65","65","0","0","65","65","65","0","65","0","Sun Oct  7 18:07:52 2018","The main experiment item","yes","SternbergTask.osexp","/Volumes/USB20FD","no","mono","no","18","no","white","no","yes","768","legacy","53","11","/Volumes/USB20FD/subject-2 f.csv","legacy","7 9","Kafkaesque Koffka","3.2.5","0","n","0","right","up","","up","right","NA","600","305","78277","11966","600","NA","2","legacy","2","1024","2","48000","-16","experiment","2","even","1","522231","518886","519990","2307","243648","520000","491121","2324","231681","523150","521016","522548","132152","522548","NA","Sternberg Task","60","73269","66","yes","1024"
"91.0447761194","91.0447761194","1102.97014925","1102.97014925","black","experiment","legacy","legacy","legacy","0","uniform","1","0","undefined","1","left","66","66","66","0","0","66","66","0","0","66","66","66","0","66","0","Sun Oct  7 18:07:52 2018","The main experiment item","yes","SternbergTask.osexp","/Volumes/USB20FD","no","mono","no","18","no","white","no","yes","768","legacy","54","11","/Volumes/USB20FD/subject-2 f.csv","legacy","6 7 8 5","Kafkaesque Koffka","3.2.5","3","y","0","left","up","","up","left","NA","630","674","78277","11966","630","NA","2","legacy","4","1024","2","48000","-16","experiment","2","even","8","526509","523164","524268","2307","243648","524279","491121","2324","231681","527827","525292","527195","132152","527195","NA","Sternberg Task","61","73899","67","yes","1024"
"89.7058823529","89.7058823529","1102","1102","black","experiment","legacy","legacy","legacy","0","uniform","0","0","undefined","0","right","67","67","67","0","0","67","67","0","0","67","67","67","0","67","0","Sun Oct  7 18:07:52 2018","The main experiment item","yes","SternbergTask.osexp","/Volumes/USB20FD","no","mono","no","18","no","white","no","yes","768","legacy","55","11","/Volumes/USB20FD/subject-2 f.csv","legacy","8 5 7 3 6","Kafkaesque Koffka","3.2.5","0","n","0","left","up","","up","left","NA","1037","868","78277","11966","1037","NA","2","legacy","5","1024","2","48000","-16","experiment","2","even","9","531199","527839","528957","2307","243648","528967","491121","2324","231681","533118","529982","532079","132152","532079","NA","Sternberg Task","61","74936","68","yes","1024"
"89.8550724638","89.8550724638","1098.55072464","1098.55072464","black","experiment","legacy","legacy","legacy","0","uniform","1","0","undefined","1","right","68","68","68","0","0","68","68","0","0","68","68","68","0","68","0","Sun Oct  7 18:07:52 2018","The main experiment item","yes","SternbergTask.osexp","/Volumes/USB20FD","no","mono","no","18","no","white","no","yes","768","legacy","56","11","/Volumes/USB20FD/subject-2 f.csv","legacy","6 8 4","Kafkaesque Koffka","3.2.5","0","n","0","right","up","","up","right","NA","864","613","78277","11966","864","NA","2","legacy","3","1024","2","48000","-16","experiment","2","even","1","536479","527839","534239","2307","243648","534249","533131","2324","231681","537969","535264","537104","132152","537103","NA","Sternberg Task","62","75800","69","yes","1024"
"90","90","1092.71428571","1092.71428571","black","experiment","legacy","legacy","legacy","0","uniform","1","0","undefined","1","left","69","69","69","0","0","69","69","0","0","69","69","69","0","69","0","Sun Oct  7 18:07:52 2018","The main experiment item","yes","SternbergTask.osexp","/Volumes/USB20FD","no","mono","no","18","no","white","no","yes","768","legacy","57","11","/Volumes/USB20FD/subject-2 f.csv","legacy","6 7 9 3 1 2","Kafkaesque Koffka","3.2.5","1","y","0","left","up","","up","left","NA","690","1063","78277","11966","690","NA","2","legacy","6","1024","2","48000","-16","experiment","2","even","6","541325","537982","539086","2307","243648","539096","533131","2324","231681","543093","540110","542401","132152","542400","NA","Sternberg Task","63","76490","70","yes","1024"
"90.1408450704","90.1408450704","1084.09859155","1084.09859155","black","experiment","legacy","legacy","legacy","0","uniform","1","0","undefined","1","left","70","70","70","0","0","70","70","0","0","70","70","70","0","70","0","Sun Oct  7 18:07:52 2018","The main experiment item","yes","SternbergTask.osexp","/Volumes/USB20FD","no","mono","no","18","no","white","no","yes","768","legacy","58","11","/Volumes/USB20FD/subject-2 f.csv","legacy","4 6 5 8","Kafkaesque Koffka","3.2.5","1","y","0","left","up","","up","left","NA","481","608","78277","11966","481","NA","2","legacy","4","1024","2","48000","-16","experiment","2","even","4","546456","543107","544216","2307","243648","544227","533131","2324","231681","547559","545240","547076","132152","547076","NA","Sternberg Task","64","76971","71","yes","1024"
"88.8888888889","88.8888888889","1077.47222222","1077.47222222","black","experiment","legacy","legacy","legacy","0","uniform","0","0","undefined","0","left","71","71","71","0","0","71","71","0","0","71","71","71","0","71","0","Sun Oct  7 18:07:52 2018","The main experiment item","yes","SternbergTask.osexp","/Volumes/USB20FD","no","mono","no","18","no","white","no","yes","768","legacy","59","11","/Volumes/USB20FD/subject-2 f.csv","legacy","8 3","Kafkaesque Koffka","3.2.5","2","y","0","right","up","","up","right","NA","607","410","78277","11966","607","NA","2","legacy","2","1024","2","48000","-16","experiment","2","even","3","550925","547576","548681","2307","243648","548691","533131","2324","231681","551956","549706","551347","132152","551347","NA","Sternberg Task","64","77578","72","yes","1024"
"89.0410958904","89.0410958904","1074.30136986","1074.30136986","black","experiment","legacy","legacy","legacy","0","uniform","1","0","undefined","1","right","72","72","72","0","0","72","72","0","0","72","72","72","0","72","0","Sun Oct  7 18:07:52 2018","The main experiment item","yes","SternbergTask.osexp","/Volumes/USB20FD","no","mono","no","18","no","white","no","yes","768","legacy","60","11","/Volumes/USB20FD/subject-2 f.csv","legacy","5 3 2 6 9 8","Kafkaesque Koffka","3.2.5","0","n","0","right","up","","up","right","NA","846","1113","78277","11966","846","NA","2","legacy","6","1024","2","48000","-16","experiment","2","even","4","555309","547576","553073","2307","243648","553084","551969","2324","231681","557284","554098","556436","132152","556435","NA","Sternberg Task","65","78424","73","yes","1024"
"89.1891891892","89.1891891892","1075.90540541","1075.90540541","black","experiment","legacy","legacy","legacy","0","uniform","1","0","undefined","1","right","73","73","73","0","0","73","73","0","0","73","73","73","0","73","0","Sun Oct  7 18:07:52 2018","The main experiment item","yes","SternbergTask.osexp","/Volumes/USB20FD","no","mono","no","18","no","white","no","yes","768","legacy","61","11","/Volumes/USB20FD/subject-2 f.csv","legacy","5","Kafkaesque Koffka","3.2.5","0","n","0","right","up","","up","right","NA","1193","1107","78277","11966","1193","NA","2","legacy","1","1024","2","48000","-16","experiment","2","even","8","560655","557296","558410","2307","243648","558423","551969","2324","231681","562970","559438","561774","132152","561774","NA","Sternberg Task","66","79617","74","yes","1024"
"89.3333333333","89.3333333333","1076.45333333","1076.45333333","black","experiment","legacy","legacy","legacy","0","uniform","1","0","undefined","1","right","74","74","74","0","0","74","74","0","0","74","74","74","0","74","0","Sun Oct  7 18:07:52 2018","The main experiment item","yes","SternbergTask.osexp","/Volumes/USB20FD","no","mono","no","18","no","white","no","yes","768","legacy","62","11","/Volumes/USB20FD/subject-2 f.csv","legacy","7 4 2 8 1 9","Kafkaesque Koffka","3.2.5","0","n","0","right","up","","up","right","NA","1117","1488","78277","11966","1117","NA","2","legacy","6","1024","2","48000","-16","experiment","2","even","5","566328","562982","564085","2307","243648","564097","551969","2324","231681","568947","565112","567828","132152","567828","NA","Sternberg Task","67","80734","75","yes","1024"
"89.4736842105","89.4736842105","1073.01315789","1073.01315789","black","experiment","legacy","legacy","legacy","0","uniform","1","0","undefined","1","right","75","75","75","0","0","75","75","0","0","75","75","75","0","75","0","Sun Oct  7 18:07:52 2018","The main experiment item","yes","SternbergTask.osexp","/Volumes/USB20FD","no","mono","no","18","no","white","no","yes","768","legacy","63","11","/Volumes/USB20FD/subject-2 f.csv","legacy","8 4 3 9","Kafkaesque Koffka","3.2.5","0","n","0","right","up","","up","right","NA","815","593","78277","11966","815","NA","2","legacy","4","1024","2","48000","-16","experiment","2","even","5","572302","568959","570062","2307","243648","570075","551969","2324","231681","573725","571087","572908","132152","572907","NA","Sternberg Task","68","81549","76","yes","1024"
"89.6103896104","89.6103896104","1070.12987013","1070.12987013","black","experiment","legacy","legacy","legacy","0","uniform","1","0","undefined","1","right","76","76","76","0","0","76","76","0","0","76","76","76","0","76","0","Sun Oct  7 18:07:52 2018","The main experiment item","yes","SternbergTask.osexp","/Volumes/USB20FD","no","mono","no","18","no","white","no","yes","768","legacy","64","11","/Volumes/USB20FD/subject-2 f.csv","legacy","1 3 2 6 9","Kafkaesque Koffka","3.2.5","0","n","0","right","up","","up","right","NA","851","780","78277","11966","851","NA","2","legacy","5","1024","2","48000","-16","experiment","2","even","5","577087","573744","574848","2307","243648","574860","551969","2324","231681","578732","575873","577879","132152","577879","NA","Sternberg Task","69","82400","77","yes","1024"
"89.7435897436","89.7435897436","1067.01282051","1067.01282051","black","experiment","legacy","legacy","legacy","0","uniform","1","0","undefined","1","right","77","77","77","0","0","77","77","0","0","77","77","77","0","77","0","Sun Oct  7 18:07:52 2018","The main experiment item","yes","SternbergTask.osexp","/Volumes/USB20FD","no","mono","no","18","no","white","no","yes","768","legacy","65","11","/Volumes/USB20FD/subject-2 f.csv","legacy","2 8 9 4 1","Kafkaesque Koffka","3.2.5","0","n","0","right","up","","up","right","NA","827","505","78277","11966","827","NA","2","legacy","5","1024","2","48000","-16","experiment","2","even","5","582091","578744","579851","2307","243648","579863","551969","2324","231681","583437","580876","582608","132152","582608","NA","Sternberg Task","70","83227","78","yes","1024"
"89.8734177215","89.8734177215","1062.13924051","1062.13924051","black","experiment","legacy","legacy","legacy","0","uniform","1","0","undefined","1","left","78","78","78","0","0","78","78","0","0","78","78","78","0","78","0","Sun Oct  7 18:07:52 2018","The main experiment item","yes","SternbergTask.osexp","/Volumes/USB20FD","no","mono","no","18","no","white","no","yes","768","legacy","66","11","/Volumes/USB20FD/subject-2 f.csv","legacy","3 5 4 7","Kafkaesque Koffka","3.2.5","1","y","0","left","up","","up","left","NA","682","513","78277","11966","682","NA","2","legacy","4","1024","2","48000","-16","experiment","2","even","3","586799","583449","584556","2307","243648","584566","551969","2324","231681","588008","585583","587324","132152","587324","NA","Sternberg Task","71","83909","79","yes","1024"
"90","90","1057.875","1057.875","black","experiment","legacy","legacy","legacy","0","uniform","1","0","undefined","1","right","79","79","79","0","0","79","79","0","0","79","79","79","0","79","0","Sun Oct  7 18:07:52 2018","The main experiment item","yes","SternbergTask.osexp","/Volumes/USB20FD","no","mono","no","18","no","white","no","yes","768","legacy","67","11","/Volumes/USB20FD/subject-2 f.csv","legacy","6 8","Kafkaesque Koffka","3.2.5","0","n","0","right","up","","up","right","NA","721","791","78277","11966","721","NA","2","legacy","2","1024","2","48000","-16","experiment","2","even","9","591365","588020","589125","2307","243648","589135","551969","2324","231681","592891","590148","592168","132152","592167","NA","Sternberg Task","72","84630","80","yes","1024"
"90.1234567901","90.1234567901","1053.20987654","1053.20987654","black","experiment","legacy","legacy","legacy","0","uniform","1","0","undefined","1","right","80","80","80","0","0","80","80","0","0","80","80","80","0","80","0","Sun Oct  7 18:07:52 2018","The main experiment item","yes","SternbergTask.osexp","/Volumes/USB20FD","no","mono","no","18","no","white","no","yes","768","legacy","68","11","/Volumes/USB20FD/subject-2 f.csv","legacy","7 1","Kafkaesque Koffka","3.2.5","0","n","0","right","up","","up","right","NA","680","386","78277","11966","680","NA","2","legacy","2","1024","2","48000","-16","experiment","2","even","8","596251","592907","594012","2307","243648","594022","551969","2324","231681","597333","595033","596651","132152","596651","NA","Sternberg Task","73","85310","81","yes","1024"
"90.243902439","90.243902439","1050.52439024","1050.52439024","black","experiment","legacy","legacy","legacy","0","uniform","1","0","undefined","1","left","81","81","81","0","0","81","81","0","0","81","81","81","0","81","0","Sun Oct  7 18:07:52 2018","The main experiment item","yes","SternbergTask.osexp","/Volumes/USB20FD","no","mono","no","18","no","white","no","yes","768","legacy","69","11","/Volumes/USB20FD/subject-2 f.csv","legacy","8 1 6","Kafkaesque Koffka","3.2.5","3","y","0","left","up","","up","left","NA","833","321","78277","11966","833","NA","2","legacy","3","1024","2","48000","-16","experiment","2","even","6","600692","597347","598451","2307","243648","598463","551969","2324","231681","601859","599476","601025","132152","601024","NA","Sternberg Task","74","86143","82","yes","1024"
"90.3614457831","90.3614457831","1045.90361446","1045.90361446","black","experiment","legacy","legacy","legacy","0","uniform","1","0","undefined","1","right","82","82","82","0","0","82","82","0","0","82","82","82","0","82","0","Sun Oct  7 18:07:52 2018","The main experiment item","yes","SternbergTask.osexp","/Volumes/USB20FD","no","mono","no","18","no","white","no","yes","768","legacy","70","11","/Volumes/USB20FD/subject-2 f.csv","legacy","2 7 5","Kafkaesque Koffka","3.2.5","0","n","0","right","up","","up","right","NA","667","376","78277","11966","667","NA","2","legacy","3","1024","2","48000","-16","experiment","2","even","8","605217","601872","602975","2307","243648","602986","551969","2324","231681","606273","604000","605604","132152","605604","NA","Sternberg Task","75","86810","83","yes","1024"
"90.4761904762","90.4761904762","1048.86904762","1048.86904762","black","experiment","legacy","legacy","legacy","0","uniform","1","0","undefined","1","right","83","83","83","0","0","83","83","0","0","83","83","83","0","83","0","Sun Oct  7 18:07:52 2018","The main experiment item","yes","SternbergTask.osexp","/Volumes/USB20FD","no","mono","no","18","no","white","no","yes","768","legacy","71","11","/Volumes/USB20FD/subject-2 f.csv","legacy","9","Kafkaesque Koffka","3.2.5","0","n","0","right","up","","up","right","NA","1295","399","78277","11966","1295","NA","2","legacy","1","1024","2","48000","-16","experiment","2","even","6","609630","606285","607392","2307","243648","607402","551969","2324","231681","611338","608415","610041","132152","610041","NA","Sternberg Task","76","88105","84","yes","1024"
"90.5882352941","90.5882352941","1057.07058824","1057.07058824","black","experiment","legacy","legacy","legacy","0","uniform","1","0","undefined","1","left","84","84","84","0","0","84","84","0","0","84","84","84","0","84","0","Sun Oct  7 18:07:52 2018","The main experiment item","yes","SternbergTask.osexp","/Volumes/USB20FD","no","mono","no","18","no","white","no","yes","768","legacy","72","11","/Volumes/USB20FD/subject-2 f.csv","legacy","6 1 2","Kafkaesque Koffka","3.2.5","3","y","0","left","up","","up","left","NA","1746","601","78277","11966","1746","NA","2","legacy","3","1024","2","48000","-16","experiment","2","even","2","614698","611350","612458","2307","243648","612469","551969","2324","231681","617058","613482","615311","132152","615310","NA","Sternberg Task","77","89851","85","yes","1024"
"90.6976744186","90.6976744186","1051.13953488","1051.13953488","black","experiment","legacy","legacy","legacy","0","uniform","1","0","undefined","1","left","85","85","85","0","0","85","85","0","0","85","85","85","0","85","0","Sun Oct  7 18:07:52 2018","The main experiment item","yes","SternbergTask.osexp","/Volumes/USB20FD","no","mono","no","18","no","white","no","yes","768","legacy","73","11","/Volumes/USB20FD/subject-2 f.csv","legacy","9 8 4","Kafkaesque Koffka","3.2.5","1","y","0","left","up","","up","left","NA","547","934","78277","11966","547","NA","2","legacy","3","1024","2","48000","-16","experiment","2","even","9","620412","617071","618177","2307","243648","618187","551969","2324","231681","621906","619201","621358","132152","621358","NA","Sternberg Task","78","90398","86","yes","1024"
"90.8045977011","90.8045977011","1054.74712644","1054.74712644","black","experiment","legacy","legacy","legacy","0","uniform","1","0","undefined","1","left","86","86","86","0","0","86","86","0","0","86","86","86","0","86","0","Sun Oct  7 18:07:52 2018","The main experiment item","yes","SternbergTask.osexp","/Volumes/USB20FD","no","mono","no","18","no","white","no","yes","768","legacy","74","11","/Volumes/USB20FD/subject-2 f.csv","legacy","4 6 2 5 1","Kafkaesque Koffka","3.2.5","5","y","0","left","up","","up","left","NA","1365","2732","78277","11966","1365","NA","2","legacy","5","1024","2","48000","-16","experiment","2","even","1","625269","621924","623028","2307","243648","623038","551969","2324","231681","629380","624052","628013","132152","628013","NA","Sternberg Task","79","91763","87","yes","1024"
"90.9090909091","90.9090909091","1050.5","1050.5","black","experiment","legacy","legacy","legacy","0","uniform","1","0","undefined","1","left","87","87","87","0","0","87","87","0","0","87","87","87","0","87","0","Sun Oct  7 18:07:52 2018","The main experiment item","yes","SternbergTask.osexp","/Volumes/USB20FD","no","mono","no","18","no","white","no","yes","768","legacy","75","11","/Volumes/USB20FD/subject-2 f.csv","legacy","7","Kafkaesque Koffka","3.2.5","1","y","0","left","up","","up","left","NA","681","362","78277","11966","681","NA","2","legacy","1","1024","2","48000","-16","experiment","2","even","7","632735","629393","630496","2307","243648","630506","551969","2324","231681","633793","631520","633110","132152","633109","NA","Sternberg Task","80","92444","88","yes","1024"
"91.0112359551","91.0112359551","1051.58426966","1051.58426966","black","experiment","legacy","legacy","legacy","0","uniform","1","0","undefined","1","left","88","88","88","0","0","88","88","0","0","88","88","88","0","88","0","Sun Oct  7 18:07:52 2018","The main experiment item","yes","SternbergTask.osexp","/Volumes/USB20FD","no","mono","no","18","no","white","no","yes","768","legacy","76","11","/Volumes/USB20FD/subject-2 f.csv","legacy","2 5 4 8 7","Kafkaesque Koffka","3.2.5","3","y","0","left","up","","up","left","NA","1147","1757","78277","11966","1147","NA","2","legacy","5","1024","2","48000","-16","experiment","2","even","4","637158","633806","634915","2307","243648","634925","551969","2324","231681","640077","635939","638928","132152","638928","NA","Sternberg Task","81","93591","89","yes","1024"
"91.1111111111","91.1111111111","1047.36666667","1047.36666667","black","experiment","legacy","legacy","legacy","0","uniform","1","0","undefined","1","right","89","89","89","0","0","89","89","0","0","89","89","89","0","89","0","Sun Oct  7 18:07:52 2018","The main experiment item","yes","SternbergTask.osexp","/Volumes/USB20FD","no","mono","no","18","no","white","no","yes","768","legacy","77","11","/Volumes/USB20FD/subject-2 f.csv","legacy","5 2","Kafkaesque Koffka","3.2.5","0","n","0","right","up","","up","right","NA","672","553","78277","11966","672","NA","2","legacy","2","1024","2","48000","-16","experiment","2","even","7","643437","640090","641195","2307","243648","641205","551969","2324","231681","644675","642219","644001","132152","644001","NA","Sternberg Task","82","94263","90","yes","1024"
"91.2087912088","91.2087912088","1045.43956044","1045.43956044","black","experiment","legacy","legacy","legacy","0","uniform","1","0","undefined","1","left","90","90","90","0","0","90","90","0","0","90","90","90","0","90","0","Sun Oct  7 18:07:52 2018","The main experiment item","yes","SternbergTask.osexp","/Volumes/USB20FD","no","mono","no","18","no","white","no","yes","768","legacy","78","11","/Volumes/USB20FD/subject-2 f.csv","legacy","6 9 3 1","Kafkaesque Koffka","3.2.5","4","y","0","left","up","","up","left","NA","872","1050","78277","11966","872","NA","2","legacy","4","1024","2","48000","-16","experiment","2","even","1","648029","644690","645794","2307","243648","645805","551969","2324","231681","649965","646818","649091","132152","649091","NA","Sternberg Task","83","95135","91","yes","1024"
"91.3043478261","91.3043478261","1041.43478261","1041.43478261","black","experiment","legacy","legacy","legacy","0","uniform","1","0","undefined","1","left","91","91","91","0","0","91","91","0","0","91","91","91","0","91","0","Sun Oct  7 18:07:52 2018","The main experiment item","yes","SternbergTask.osexp","/Volumes/USB20FD","no","mono","no","18","no","white","no","yes","768","legacy","79","11","/Volumes/USB20FD/subject-2 f.csv","legacy","9 5 8 1","Kafkaesque Koffka","3.2.5","2","y","0","left","up","","up","left","NA","677","3101","78277","11966","677","NA","2","legacy","4","1024","2","48000","-16","experiment","2","even","5","653320","649979","651083","2307","243648","651093","551969","2324","231681","657112","652104","656433","132152","656433","NA","Sternberg Task","84","95812","92","yes","1024"
"91.3978494624","91.3978494624","1035.44086022","1035.44086022","black","experiment","legacy","legacy","legacy","0","uniform","1","0","undefined","1","left","92","92","92","0","0","92","92","0","0","92","92","92","0","92","0","Sun Oct  7 18:07:52 2018","The main experiment item","yes","SternbergTask.osexp","/Volumes/USB20FD","no","mono","no","18","no","white","no","yes","768","legacy","80","11","/Volumes/USB20FD/subject-2 f.csv","legacy","1 4 9 3 2 5","Kafkaesque Koffka","3.2.5","3","y","0","left","up","","up","left","NA","484","1430","78277","11966","484","NA","2","legacy","6","1024","2","48000","-16","experiment","2","even","9","660471","657124","658234","2307","243648","658244","551969","2324","231681","662399","659254","661913","132152","661913","NA","Sternberg Task","85","96296","93","yes","1024"
"90.4255319149","90.4255319149","1032.65957447","1032.65957447","black","experiment","legacy","legacy","legacy","0","uniform","0","0","undefined","0","right","93","93","93","0","0","93","93","0","0","93","93","93","0","93","0","Sun Oct  7 18:07:52 2018","The main experiment item","yes","SternbergTask.osexp","/Volumes/USB20FD","no","mono","no","18","no","white","no","yes","768","legacy","81","11","/Volumes/USB20FD/subject-2 f.csv","legacy","6 3 1 7 9 8","Kafkaesque Koffka","3.2.5","0","n","0","left","up","","up","left","NA","774","955","78277","11966","774","NA","2","legacy","6","1024","2","48000","-16","experiment","2","even","4","665758","662412","663517","2307","243648","663528","551969","2324","231681","667501","664541","666725","132152","666724","NA","Sternberg Task","85","97070","94","yes","1024"
"90.5263157895","90.5263157895","1029.64210526","1029.64210526","black","experiment","legacy","legacy","legacy","0","uniform","1","0","undefined","1","left","94","94","94","0","0","94","94","0","0","94","94","94","0","94","0","Sun Oct  7 18:07:52 2018","The main experiment item","yes","SternbergTask.osexp","/Volumes/USB20FD","no","mono","no","18","no","white","no","yes","768","legacy","82","11","/Volumes/USB20FD/subject-2 f.csv","legacy","9 3 1 2 5","Kafkaesque Koffka","3.2.5","4","y","0","left","up","","up","left","NA","746","2553","78277","11966","746","NA","2","legacy","5","1024","2","48000","-16","experiment","2","even","2","670860","662412","668620","2307","243648","668630","667514","2324","231681","674174","669643","673426","132152","673426","NA","Sternberg Task","86","97816","95","yes","1024"
"90.625","90.625","1026.4375","1026.4375","black","experiment","legacy","legacy","legacy","0","uniform","1","0","undefined","1","left","95","95","95","0","0","95","95","0","0","95","95","95","0","95","0","Sun Oct  7 18:07:52 2018","The main experiment item","yes","SternbergTask.osexp","/Volumes/USB20FD","no","mono","no","18","no","white","no","yes","768","legacy","83","11","/Volumes/USB20FD/subject-2 f.csv","legacy","8 7 3","Kafkaesque Koffka","3.2.5","1","y","0","left","up","","up","left","NA","722","535","78277","11966","722","NA","2","legacy","3","1024","2","48000","-16","experiment","2","even","8","677529","674187","675289","2307","243648","675300","667514","2324","231681","678801","676313","678077","132152","678077","NA","Sternberg Task","87","98538","96","yes","1024"
"90.7216494845","90.7216494845","1022.10309278","1022.10309278","black","experiment","legacy","legacy","legacy","0","uniform","1","0","undefined","1","left","96","96","96","0","0","96","96","0","0","96","96","96","0","96","0","Sun Oct  7 18:07:52 2018","The main experiment item","yes","SternbergTask.osexp","/Volumes/USB20FD","no","mono","no","18","no","white","no","yes","768","legacy","84","11","/Volumes/USB20FD/subject-2 f.csv","legacy","5 2 9 6 1 7","Kafkaesque Koffka","3.2.5","3","y","0","left","up","","up","left","NA","606","1604","78277","11966","606","NA","2","legacy","6","1024","2","48000","-16","experiment","2","even","9","682171","678815","679925","2307","243648","679936","667514","2324","231681","684395","680954","683787","132152","683787","NA","Sternberg Task","88","99144","97","yes","1024"
"90.8163265306","90.8163265306","1020.44897959","1020.44897959","black","experiment","legacy","legacy","legacy","0","uniform","1","0","undefined","1","left","97","97","97","0","0","97","97","0","0","97","97","97","0","97","0","Sun Oct  7 18:07:52 2018","The main experiment item","yes","SternbergTask.osexp","/Volumes/USB20FD","no","mono","no","18","no","white","no","yes","768","legacy","85","11","/Volumes/USB20FD/subject-2 f.csv","legacy","4 7 6 8 2 3","Kafkaesque Koffka","3.2.5","6","y","0","left","up","","up","left","NA","860","1286","78277","11966","860","NA","2","legacy","6","1024","2","48000","-16","experiment","2","even","3","687758","684408","685516","2307","243648","685526","667514","2324","231681","689918","686541","689056","132152","689056","NA","Sternberg Task","89","100004","98","yes","1024"
"90.9090909091","90.9090909091","1014.62626263","1014.62626263","black","experiment","legacy","legacy","legacy","0","uniform","1","0","undefined","1","left","98","98","98","0","0","98","98","0","0","98","98","98","0","98","0","Sun Oct  7 18:07:52 2018","The main experiment item","yes","SternbergTask.osexp","/Volumes/USB20FD","no","mono","no","18","no","white","no","yes","768","legacy","86","11","/Volumes/USB20FD/subject-2 f.csv","legacy","8","Kafkaesque Koffka","3.2.5","1","y","0","left","up","","up","left","NA","444","542","78277","11966","444","NA","2","legacy","1","1024","2","48000","-16","experiment","2","even","8","693272","689931","691032","2307","243648","691043","667514","2324","231681","694272","692056","693826","132152","693826","NA","Sternberg Task","90","100448","99","yes","1024"
"91","91","1009.14","1009.14","black","experiment","legacy","legacy","legacy","0","uniform","1","0","undefined","1","left","99","99","99","0","0","99","99","0","0","99","99","99","0","99","0","Sun Oct  7 18:07:52 2018","The main experiment item","yes","SternbergTask.osexp","/Volumes/USB20FD","no","mono","no","18","no","white","no","yes","768","legacy","87","11","/Volumes/USB20FD/subject-2 f.csv","legacy","3 5 9 6 2 4","Kafkaesque Koffka","3.2.5","1","y","0","left","up","","up","left","NA","466","1203","78277","11966","466","NA","2","legacy","6","1024","2","48000","-16","experiment","2","even","3","697628","694285","695389","2307","243648","695399","667514","2324","231681","699311","696413","698843","132152","698843","NA","Sternberg Task","91","100914","100","yes","1024"
"91.0891089109","91.0891089109","1004.06930693","1004.06930693","black","experiment","legacy","legacy","legacy","0","uniform","1","0","undefined","1","left","100","100","100","0","0","100","100","0","0","100","100","100","0","100","0","Sun Oct  7 18:07:52 2018","The main experiment item","yes","SternbergTask.osexp","/Volumes/USB20FD","no","mono","no","18","no","white","no","yes","768","legacy","88","11","/Volumes/USB20FD/subject-2 f.csv","legacy","4","Kafkaesque Koffka","3.2.5","1","y","0","left","up","","up","left","NA","497","374","78277","11966","497","NA","2","legacy","1","1024","2","48000","-16","experiment","2","even","4","702667","699325","700428","2307","243648","700439","667514","2324","231681","703552","701454","703053","132152","703053","NA","Sternberg Task","92","101411","101","yes","1024"
"91.1764705882","91.1764705882","1000.54901961","1000.54901961","black","experiment","legacy","legacy","legacy","0","uniform","1","0","undefined","1","right","101","101","101","0","0","101","101","0","0","101","101","101","0","101","0","Sun Oct  7 18:07:52 2018","The main experiment item","yes","SternbergTask.osexp","/Volumes/USB20FD","no","mono","no","18","no","white","no","yes","768","legacy","89","11","/Volumes/USB20FD/subject-2 f.csv","legacy","3 4 2","Kafkaesque Koffka","3.2.5","0","n","0","right","up","","up","right","NA","645","425","78277","11966","645","NA","2","legacy","3","1024","2","48000","-16","experiment","2","even","5","706915","703569","704672","2307","243648","704683","667514","2324","231681","708001","705697","707354","132152","707353","NA","Sternberg Task","93","102056","102","yes","1024"
"91.2621359223","91.2621359223","998.155339806","998.155339806","black","experiment","legacy","legacy","legacy","0","uniform","1","0","undefined","1","right","102","102","102","0","0","102","102","0","0","102","102","102","0","102","0","Sun Oct  7 18:07:52 2018","The main experiment item","yes","SternbergTask.osexp","/Volumes/USB20FD","no","mono","no","18","no","white","no","yes","768","legacy","90","11","/Volumes/USB20FD/subject-2 f.csv","legacy","3 9 1","Kafkaesque Koffka","3.2.5","0","n","0","right","up","","up","right","NA","754","1128","78277","11966","754","NA","2","legacy","3","1024","2","48000","-16","experiment","2","even","7","711357","708014","709119","2307","243648","709129","667514","2324","231681","713254","710144","712497","132152","712497","NA","Sternberg Task","94","102810","103","yes","1024"
"91.3461538462","91.3461538462","997.798076923","997.798076923","black","experiment","legacy","legacy","legacy","0","uniform","1","0","undefined","1","left","103","103","103","0","0","103","103","0","0","103","103","103","0","103","0","Sun Oct  7 18:07:52 2018","The main experiment item","yes","SternbergTask.osexp","/Volumes/USB20FD","no","mono","no","18","no","white","no","yes","768","legacy","91","11","/Volumes/USB20FD/subject-2 f.csv","legacy","4 9 7 8 5 3","Kafkaesque Koffka","3.2.5","4","y","0","left","up","","up","left","NA","961","1210","78277","11966","961","NA","2","legacy","6","1024","2","48000","-16","experiment","2","even","8","716618","713267","714382","2307","243648","714392","667514","2324","231681","718803","715407","717840","132152","717840","NA","Sternberg Task","95","103771","104","yes","1024"
"91.4285714286","91.4285714286","997.00952381","997.00952381","black","experiment","legacy","legacy","legacy","0","uniform","1","0","undefined","1","right","104","104","104","0","0","104","104","0","0","104","104","104","0","104","0","Sun Oct  7 18:07:52 2018","The main experiment item","yes","SternbergTask.osexp","/Volumes/USB20FD","no","mono","no","18","no","white","no","yes","768","legacy","92","11","/Volumes/USB20FD/subject-2 f.csv","legacy","5 3 8 7 2 4","Kafkaesque Koffka","3.2.5","0","n","0","right","up","","up","right","NA","915","940","78277","11966","915","NA","2","legacy","6","1024","2","48000","-16","experiment","2","even","9","722160","718816","719921","2307","243648","719932","667514","2324","231681","724029","720945","723112","132152","723112","NA","Sternberg Task","96","104686","105","yes","1024"
"91.5094339623","91.5094339623","996.603773585","996.603773585","black","experiment","legacy","legacy","legacy","0","uniform","1","0","undefined","1","right","105","105","105","0","0","105","105","0","0","105","105","105","0","105","0","Sun Oct  7 18:07:52 2018","The main experiment item","yes","SternbergTask.osexp","/Volumes/USB20FD","no","mono","no","18","no","white","no","yes","768","legacy","93","11","/Volumes/USB20FD/subject-2 f.csv","legacy","3 9 8 1 6 4","Kafkaesque Koffka","3.2.5","0","n","0","right","up","","up","right","NA","954","1403","78277","11966","954","NA","2","legacy","6","1024","2","48000","-16","experiment","2","even","7","727384","724041","725147","2307","243648","725158","667514","2324","231681","729755","726169","728799","132152","728799","NA","Sternberg Task","97","105640","106","yes","1024"
"90.6542056075","90.6542056075","994.803738318","994.803738318","black","experiment","legacy","legacy","legacy","0","uniform","0","0","undefined","0","right","106","106","106","0","0","106","106","0","0","106","106","106","0","106","0","Sun Oct  7 18:07:52 2018","The main experiment item","yes","SternbergTask.osexp","/Volumes/USB20FD","no","mono","no","18","no","white","no","yes","768","legacy","94","11","/Volumes/USB20FD/subject-2 f.csv","legacy","6 9 7 3 8 2","Kafkaesque Koffka","3.2.5","0","n","0","left","up","","up","left","NA","804","1709","78277","11966","804","NA","2","legacy","6","1024","2","48000","-16","experiment","2","even","5","733120","729773","730879","2307","243648","730890","667514","2324","231681","735650","731904","734844","132152","734843","NA","Sternberg Task","97","106444","107","yes","1024"
"90.7407407407","90.7407407407","990.574074074","990.574074074","black","experiment","legacy","legacy","legacy","0","uniform","1","0","undefined","1","left","107","107","107","0","0","107","107","0","0","107","107","107","0","107","0","Sun Oct  7 18:07:52 2018","The main experiment item","yes","SternbergTask.osexp","/Volumes/USB20FD","no","mono","no","18","no","white","no","yes","768","legacy","95","11","/Volumes/USB20FD/subject-2 f.csv","legacy","2 3","Kafkaesque Koffka","3.2.5","1","y","0","left","up","","up","left","NA","538","375","78277","11966","538","NA","2","legacy","2","1024","2","48000","-16","experiment","2","even","2","739018","729773","736772","2307","243648","736783","735662","2324","231681","739945","737801","739405","132152","739405","NA","Sternberg Task","98","106982","108","yes","1024"
"90.8256880734","90.8256880734","988.073394495","988.073394495","black","experiment","legacy","legacy","legacy","0","uniform","1","0","undefined","1","left","108","108","108","0","0","108","108","0","0","108","108","108","0","108","0","Sun Oct  7 18:07:52 2018","The main experiment item","yes","SternbergTask.osexp","/Volumes/USB20FD","no","mono","no","18","no","white","no","yes","768","legacy","96","11","/Volumes/USB20FD/subject-2 f.csv","legacy","3 2 1 4 7","Kafkaesque Koffka","3.2.5","2","y","0","left","up","","up","left","NA","718","1273","78277","11966","718","NA","2","legacy","5","1024","2","48000","-16","experiment","2","even","2","743302","739958","741062","2307","243648","741072","735662","2324","231681","745307","742086","744587","132152","744587","NA","Sternberg Task","99","107700","109","yes","1024"
"90.9090909091","90.9090909091","982.963636364","982.963636364","black","experiment","legacy","legacy","legacy","0","uniform","1","0","undefined","1","left","109","109","109","0","0","109","109","0","0","109","109","109","0","109","0","Sun Oct  7 18:07:52 2018","The main experiment item","yes","SternbergTask.osexp","/Volumes/USB20FD","no","mono","no","18","no","white","no","yes","768","legacy","97","11","/Volumes/USB20FD/subject-2 f.csv","legacy","7 6","Kafkaesque Koffka","3.2.5","2","y","0","left","up","","up","left","NA","426","319","78277","11966","426","NA","2","legacy","2","1024","2","48000","-16","experiment","2","even","6","748668","745320","746430","2307","243648","746440","735662","2324","231681","749427","747453","748999","132152","748999","NA","Sternberg Task","100","108126","110","yes","1024"
"90.990990991","90.990990991","980.468468468","980.468468468","black","experiment","legacy","legacy","legacy","0","uniform","1","0","undefined","1","right","110","110","110","0","0","110","110","0","0","110","110","110","0","110","0","Sun Oct  7 18:07:52 2018","The main experiment item","yes","SternbergTask.osexp","/Volumes/USB20FD","no","mono","no","18","no","white","no","yes","768","legacy","98","11","/Volumes/USB20FD/subject-2 f.csv","legacy","2 3 8 5 6 7","Kafkaesque Koffka","3.2.5","0","n","0","right","up","","up","right","NA","706","709","78277","11966","706","NA","2","legacy","6","1024","2","48000","-16","experiment","2","even","1","752782","749441","750546","2307","243648","750557","735662","2324","231681","754211","751571","753503","132152","753503","NA","Sternberg Task","101","108832","111","yes","1024"
"91.0714285714","91.0714285714","980.026785714","980.026785714","black","experiment","legacy","legacy","legacy","0","uniform","1","0","undefined","1","right","111","111","111","0","0","111","111","0","0","111","111","111","0","111","0","Sun Oct  7 18:07:52 2018","The main experiment item","yes","SternbergTask.osexp","/Volumes/USB20FD","no","mono","no","18","no","white","no","yes","768","legacy","99","11","/Volumes/USB20FD/subject-2 f.csv","legacy","1 4 9 2 5","Kafkaesque Koffka","3.2.5","0","n","0","right","up","","up","right","NA","931","669","78277","11966","931","NA","2","legacy","5","1024","2","48000","-16","experiment","2","even","7","757569","754226","755331","2307","243648","755341","735662","2324","231681","759183","756351","758250","132152","758250","NA","Sternberg Task","102","109763","112","yes","1024"
"91.1504424779","91.1504424779","977.761061947","977.761061947","black","experiment","legacy","legacy","legacy","0","uniform","1","0","undefined","1","right","112","112","112","0","0","112","112","0","0","112","112","112","0","112","0","Sun Oct  7 18:07:52 2018","The main experiment item","yes","SternbergTask.osexp","/Volumes/USB20FD","no","mono","no","18","no","white","no","yes","768","legacy","100","11","/Volumes/USB20FD/subject-2 f.csv","legacy","2 8 9","Kafkaesque Koffka","3.2.5","0","n","0","right","up","","up","right","NA","724","433","78277","11966","724","NA","2","legacy","3","1024","2","48000","-16","experiment","2","even","6","762543","759201","760303","2307","243648","760314","735662","2324","231681","763716","761328","762989","132152","762989","NA","Sternberg Task","103","110487","113","yes","1024"
"91.2280701754","91.2280701754","975.289473684","975.289473684","black","experiment","legacy","legacy","legacy","0","uniform","1","0","undefined","1","left","113","113","113","0","0","113","113","0","0","113","113","113","0","113","0","Sun Oct  7 18:07:52 2018","The main experiment item","yes","SternbergTask.osexp","/Volumes/USB20FD","no","mono","no","18","no","white","no","yes","768","legacy","101","11","/Volumes/USB20FD/subject-2 f.csv","legacy","2 4 6 9","Kafkaesque Koffka","3.2.5","3","y","0","left","up","","up","left","NA","696","375","78277","11966","696","NA","2","legacy","4","1024","2","48000","-16","experiment","2","even","6","767070","763729","764830","2307","243648","764841","735662","2324","231681","768157","765855","767458","132152","767457","NA","Sternberg Task","104","111183","114","yes","1024"
"91.3043478261","91.3043478261","971.965217391","971.965217391","black","experiment","legacy","legacy","legacy","0","uniform","1","0","undefined","1","left","114","114","114","0","0","114","114","0","0","114","114","114","0","114","0","Sun Oct  7 18:07:52 2018","The main experiment item","yes","SternbergTask.osexp","/Volumes/USB20FD","no","mono","no","18","no","white","no","yes","768","legacy","102","11","/Volumes/USB20FD/subject-2 f.csv","legacy","6 5","Kafkaesque Koffka","3.2.5","2","y","0","left","up","","up","left","NA","593","297","78277","11966","593","NA","2","legacy","2","1024","2","48000","-16","experiment","2","even","5","771515","768169","769274","2307","243648","769284","735662","2324","231681","772420","770298","771824","132152","771824","NA","Sternberg Task","105","111776","115","yes","1024"
"91.3793103448","91.3793103448","969.689655172","969.689655172","black","experiment","legacy","legacy","legacy","0","uniform","1","0","undefined","1","right","115","115","115","0","0","115","115","0","0","115","115","115","0","115","0","Sun Oct  7 18:07:52 2018","The main experiment item","yes","SternbergTask.osexp","/Volumes/USB20FD","no","mono","no","18","no","white","no","yes","768","legacy","103","11","/Volumes/USB20FD/subject-2 f.csv","legacy","4 2 7 6 1 3","Kafkaesque Koffka","3.2.5","0","n","0","right","up","","up","right","NA","708","1013","78277","11966","708","NA","2","legacy","6","1024","2","48000","-16","experiment","2","even","8","775783","772432","773546","2307","243648","773557","735662","2324","231681","777519","774572","776808","132152","776808","NA","Sternberg Task","106","112484","116","yes","1024"
"91.452991453","91.452991453","965.435897436","965.435897436","black","experiment","legacy","legacy","legacy","0","uniform","1","0","undefined","1","left","116","116","116","0","0","116","116","0","0","116","116","116","0","116","0","Sun Oct  7 18:07:52 2018","The main experiment item","yes","SternbergTask.osexp","/Volumes/USB20FD","no","mono","no","18","no","white","no","yes","768","legacy","104","11","/Volumes/USB20FD/subject-2 f.csv","legacy","9 1 7 2","Kafkaesque Koffka","3.2.5","2","y","0","left","up","","up","left","NA","472","663","78277","11966","472","NA","2","legacy","4","1024","2","48000","-16","experiment","2","even","1","780884","777537","778642","2307","243648","778652","735662","2324","231681","782034","779666","781560","132152","781559","NA","Sternberg Task","107","112956","117","yes","1024"
"90.6779661017","90.6779661017","962.059322034","962.059322034","black","experiment","legacy","legacy","legacy","0","uniform","0","0","undefined","0","right","117","117","117","0","0","117","117","0","0","117","117","117","0","117","0","Sun Oct  7 18:07:52 2018","The main experiment item","yes","SternbergTask.osexp","/Volumes/USB20FD","no","mono","no","18","no","white","no","yes","768","legacy","105","11","/Volumes/USB20FD/subject-2 f.csv","legacy","6 9 4 5 2","Kafkaesque Koffka","3.2.5","0","n","0","left","up","","up","left","NA","567","1608","78277","11966","567","NA","2","legacy","5","1024","2","48000","-16","experiment","2","even","1","785393","782047","783152","2307","243648","783162","735662","2324","231681","787583","784178","787014","132152","787013","NA","Sternberg Task","107","113523","118","yes","1024"
"90.756302521","90.756302521","960.033613445","960.033613445","black","experiment","legacy","legacy","legacy","0","uniform","1","0","undefined","1","right","118","118","118","0","0","118","118","0","0","118","118","118","0","118","0","Sun Oct  7 18:07:52 2018","The main experiment item","yes","SternbergTask.osexp","/Volumes/USB20FD","no","mono","no","18","no","white","no","yes","768","legacy","106","11","/Volumes/USB20FD/subject-2 f.csv","legacy","9 8 2 7 4","Kafkaesque Koffka","3.2.5","0","n","0","right","up","","up","right","NA","721","1114","78277","11966","721","NA","2","legacy","5","1024","2","48000","-16","experiment","2","even","5","790945","782047","788705","2307","243648","788715","787596","2324","231681","792796","789728","792073","132152","792073","NA","Sternberg Task","108","114244","119","yes","1024"
"90.8333333333","90.8333333333","958.85","958.85","black","experiment","legacy","legacy","legacy","0","uniform","1","0","undefined","1","right","119","119","119","0","0","119","119","0","0","119","119","119","0","119","0","Sun Oct  7 18:07:52 2018","The main experiment item","yes","SternbergTask.osexp","/Volumes/USB20FD","no","mono","no","18","no","white","no","yes","768","legacy","107","11","/Volumes/USB20FD/subject-2 f.csv","legacy","1 8 7","Kafkaesque Koffka","3.2.5","0","n","0","right","up","","up","right","NA","818","2273","78277","11966","818","NA","2","legacy","3","1024","2","48000","-16","experiment","2","even","4","796158","792811","793918","2307","243648","793929","787596","2324","231681","799263","794942","798443","132152","798443","NA","Sternberg Task","109","115062","120","yes","1024"
"90.9090909091","90.9090909091","959.090909091","959.090909091","black","experiment","legacy","legacy","legacy","0","uniform","1","0","undefined","1","right","120","120","120","0","0","120","120","0","0","120","120","120","0","120","0","Sun Oct  7 18:07:52 2018","The main experiment item","yes","SternbergTask.osexp","/Volumes/USB20FD","no","mono","no","18","no","white","no","yes","768","legacy","108","11","/Volumes/USB20FD/subject-2 f.csv","legacy","2 8 6 3 1","Kafkaesque Koffka","3.2.5","0","n","0","right","up","","up","right","NA","988","3277","78277","11966","988","NA","2","legacy","5","1024","2","48000","-16","experiment","2","even","7","802623","799280","800383","2307","243648","800394","787596","2324","231681","806902","801407","805912","132152","805912","NA","Sternberg Task","110","116050","121","yes","1024"
