"acc","accuracy","average_response_time","avg_rt","background","block","canvas_backend","clock_backend","color_backend","compensation","coordinates","correct","correct_instruction1","correct_keyboard_response","correct_response","count_ISI","count_correctFeedback","count_expSequence","count_experiment","count_experimentLoop","count_fixation","count_incorrectFeedback","count_instruction1","count_instructions2","count_keyboard_response","count_logger","count_memorySet","count_practiceLoop","count_probe","count_thankYou","datetime","description","disable_garbage_collection","experiment_file","experiment_path","font_bold","font_family","font_italic","font_size","font_underline","foreground","form_clicks","fullscreen","height","keyboard_backend","live_row","live_row_practiceLoop","logfile","mouse_backend","numberSet","opensesame_codename","opensesame_version","posInSet","present","repeat_cycle","response","response_instruction1","response_instructions2","response_keyboard_response","response_thankYou","response_time","response_time_instruction1","response_time_instructions2","response_time_keyboard_response","response_time_thankYou","round_decimals","sampler_backend","setSize","sound_buf_size","sound_channels","sound_freq","sound_sample_size","start","subject_nr","subject_parity","target","time_ISI","time_correctFeedback","time_expSequence","time_experiment","time_experimentLoop","time_fixation","time_incorrectFeedback","time_instruction1","time_instructions2","time_keyboard_response","time_logger","time_memorySet","time_practiceLoop","time_probe","time_thankYou","title","total_correct","total_response_time","total_responses","uniform_coordinates","width"
"0","0","726","726","black","practice","legacy","legacy","legacy","0","uniform","0","undefined","0","left","0","0","0","0","0","0","0","0","0","0","0","0","0","0","0","Wed Oct  3 11:26:37 2018","The main experiment item","yes","SternbergTask.osexp","/Users/abigailchristie/Desktop","no","mono","no","18","no","white","no","yes","768","legacy","0","0","/Users/abigailchristie/Desktop/2018/Faulkenberry/Lab2/AC-subject-1.csv","legacy","1 5 2 9","Kafkaesque Koffka","3.2.5","2","y","0","right","left","NA","right","NA","726","40086","NA","726","NA","2","legacy","4","1024","2","48000","-16","experiment","1","odd","5","45337","NA","43109","2706","NA","43117","NA","2720","NA","47346","48074","44127","42815","47346","NA","Sternberg Task","0","726","1","yes","1024"
"0","0","734.5","734.5","black","practice","legacy","legacy","legacy","0","uniform","0","undefined","0","right","1","1","1","0","0","1","1","0","0","1","1","1","0","1","0","Wed Oct  3 11:26:37 2018","The main experiment item","yes","SternbergTask.osexp","/Users/abigailchristie/Desktop","no","mono","no","18","no","white","no","yes","768","legacy","1","1","/Users/abigailchristie/Desktop/2018/Faulkenberry/Lab2/AC-subject-1.csv","legacy","4 1 5","Kafkaesque Koffka","3.2.5","0","n","0","left","left","NA","left","NA","743","40086","NA","743","NA","2","legacy","3","1024","2","48000","-16","experiment","1","odd","2","51453","NA","49224","2706","NA","49232","48133","2720","NA","53461","54205","50241","42815","53461","NA","Sternberg Task","0","1469","2","yes","1024"
"33.3333333333","33.3333333333","709","709","black","practice","legacy","legacy","legacy","0","uniform","1","undefined","1","right","2","2","2","0","0","2","2","0","0","2","2","2","0","2","0","Wed Oct  3 11:26:37 2018","The main experiment item","yes","SternbergTask.osexp","/Users/abigailchristie/Desktop","no","mono","no","18","no","white","no","yes","768","legacy","2","2","/Users/abigailchristie/Desktop/2018/Faulkenberry/Lab2/AC-subject-1.csv","legacy","5 7 8 4 1 2","Kafkaesque Koffka","3.2.5","0","n","0","right","left","NA","right","NA","658","40086","NA","658","NA","2","legacy","6","1024","2","48000","-16","experiment","1","odd","6","57530","NA","55300","2706","NA","55309","54217","2720","NA","59538","60197","56318","42815","59538","NA","Sternberg Task","1","2127","3","yes","1024"
"50","50","863.5","863.5","black","practice","legacy","legacy","legacy","0","uniform","1","undefined","1","left","3","3","3","0","0","3","3","0","0","3","3","3","0","3","0","Wed Oct  3 11:26:37 2018","The main experiment item","yes","SternbergTask.osexp","/Users/abigailchristie/Desktop","no","mono","no","18","no","white","no","yes","768","legacy","3","3","/Users/abigailchristie/Desktop/2018/Faulkenberry/Lab2/AC-subject-1.csv","legacy","2 9 4","Kafkaesque Koffka","3.2.5","3","y","0","left","left","NA","left","NA","1327","40086","NA","1327","NA","2","legacy","3","1024","2","48000","-16","experiment","1","odd","4","63520","60209","61291","2706","NA","61299","54217","2720","NA","65528","66856","62309","42815","65528","NA","Sternberg Task","2","3454","4","yes","1024"
"60","60","931","931","black","practice","legacy","legacy","legacy","0","uniform","1","undefined","1","left","4","4","4","0","0","4","4","0","0","4","4","4","0","4","0","Wed Oct  3 11:26:37 2018","The main experiment item","yes","SternbergTask.osexp","/Users/abigailchristie/Desktop","no","mono","no","18","no","white","no","yes","768","legacy","4","4","/Users/abigailchristie/Desktop/2018/Faulkenberry/Lab2/AC-subject-1.csv","legacy","1 7 9 8 5","Kafkaesque Koffka","3.2.5","4","y","0","left","left","NA","left","NA","1201","40086","NA","1201","NA","2","legacy","5","1024","2","48000","-16","experiment","1","odd","8","70180","66867","67952","2706","NA","67960","54217","2720","NA","72189","73391","68970","42815","72189","NA","Sternberg Task","3","4655","5","yes","1024"
"66.6666666667","66.6666666667","1053.33333333","1053.33333333","black","practice","legacy","legacy","legacy","0","uniform","1","undefined","1","left","5","5","5","0","0","5","5","0","0","5","5","5","0","5","0","Wed Oct  3 11:26:37 2018","The main experiment item","yes","SternbergTask.osexp","/Users/abigailchristie/Desktop","no","mono","no","18","no","white","no","yes","768","legacy","5","5","/Users/abigailchristie/Desktop/2018/Faulkenberry/Lab2/AC-subject-1.csv","legacy","6","Kafkaesque Koffka","3.2.5","1","y","0","left","left","NA","left","NA","1665","40086","NA","1665","NA","2","legacy","1","1024","2","48000","-16","experiment","1","odd","6","76713","73403","74484","2706","NA","74492","54217","2720","NA","78721","80388","75502","42815","78721","NA","Sternberg Task","4","6320","6","yes","1024"
"71.4285714286","71.4285714286","1015.71428571","1015.71428571","black","practice","legacy","legacy","legacy","0","uniform","1","undefined","1","left","6","6","6","0","0","6","6","0","0","6","6","6","0","6","0","Wed Oct  3 11:26:37 2018","The main experiment item","yes","SternbergTask.osexp","/Users/abigailchristie/Desktop","no","mono","no","18","no","white","no","yes","768","legacy","6","6","/Users/abigailchristie/Desktop/2018/Faulkenberry/Lab2/AC-subject-1.csv","legacy","4 3 1 7 9 8","Kafkaesque Koffka","3.2.5","1","y","0","left","left","NA","left","NA","790","40086","NA","790","NA","2","legacy","6","1024","2","48000","-16","experiment","1","odd","4","83709","80397","81481","2706","NA","81489","54217","2720","NA","85718","86510","82499","42815","85718","NA","Sternberg Task","5","7110","7","yes","1024"
"75","75","951","951","black","practice","legacy","legacy","legacy","0","uniform","1","undefined","1","left","7","7","7","0","0","7","7","0","0","7","7","7","0","7","0","Wed Oct  3 11:26:37 2018","The main experiment item","yes","SternbergTask.osexp","/Users/abigailchristie/Desktop","no","mono","no","18","no","white","no","yes","768","legacy","7","7","/Users/abigailchristie/Desktop/2018/Faulkenberry/Lab2/AC-subject-1.csv","legacy","4 8","Kafkaesque Koffka","3.2.5","1","y","0","left","left","NA","left","NA","498","40086","NA","498","NA","2","legacy","2","1024","2","48000","-16","experiment","1","odd","4","89831","86520","87604","2706","NA","87612","54217","2720","NA","91839","92338","88620","42815","91839","NA","Sternberg Task","6","7608","8","yes","1024"
"77.7777777778","77.7777777778","891.666666667","891.666666667","black","practice","legacy","legacy","legacy","0","uniform","1","undefined","1","right","8","8","8","0","0","8","8","0","0","8","8","8","0","8","0","Wed Oct  3 11:26:37 2018","The main experiment item","yes","SternbergTask.osexp","/Users/abigailchristie/Desktop","no","mono","no","18","no","white","no","yes","768","legacy","8","8","/Users/abigailchristie/Desktop/2018/Faulkenberry/Lab2/AC-subject-1.csv","legacy","5","Kafkaesque Koffka","3.2.5","0","n","0","right","left","NA","right","NA","417","40086","NA","417","NA","2","legacy","1","1024","2","48000","-16","experiment","1","odd","3","95662","92349","93431","2706","NA","93440","54217","2720","NA","97670","98089","94451","42815","97670","NA","Sternberg Task","7","8025","9","yes","1024"
"70","70","852.8","852.8","black","practice","legacy","legacy","legacy","0","uniform","0","undefined","0","right","9","9","9","0","0","9","9","0","0","9","9","9","0","9","0","Wed Oct  3 11:26:37 2018","The main experiment item","yes","SternbergTask.osexp","/Users/abigailchristie/Desktop","no","mono","no","18","no","white","no","yes","768","legacy","9","9","/Users/abigailchristie/Desktop/2018/Faulkenberry/Lab2/AC-subject-1.csv","legacy","2 1","Kafkaesque Koffka","3.2.5","0","n","0","left","left","NA","left","NA","503","40086","NA","503","NA","2","legacy","2","1024","2","48000","-16","experiment","1","odd","5","101406","98099","99179","2706","NA","99187","54217","2720","NA","103415","103919","100195","42815","103415","NA","Sternberg Task","7","8528","10","yes","1024"
"72.7272727273","72.7272727273","882.818181818","882.818181818","black","practice","legacy","legacy","legacy","0","uniform","1","undefined","1","right","10","10","10","0","0","10","10","0","0","10","10","10","0","10","0","Wed Oct  3 11:26:37 2018","The main experiment item","yes","SternbergTask.osexp","/Users/abigailchristie/Desktop","no","mono","no","18","no","white","no","yes","768","legacy","10","10","/Users/abigailchristie/Desktop/2018/Faulkenberry/Lab2/AC-subject-1.csv","legacy","9 6 7 4 5","Kafkaesque Koffka","3.2.5","0","n","0","right","left","NA","right","NA","1183","40086","NA","1183","NA","2","legacy","5","1024","2","48000","-16","experiment","1","odd","3","107245","98099","105016","2706","NA","105025","103930","2720","NA","109253","110437","106034","42815","109253","NA","Sternberg Task","8","9711","11","yes","1024"
"75","75","888.25","888.25","black","practice","legacy","legacy","legacy","0","uniform","1","undefined","1","right","11","11","11","0","0","11","11","0","0","11","11","11","0","11","0","Wed Oct  3 11:26:37 2018","The main experiment item","yes","SternbergTask.osexp","/Users/abigailchristie/Desktop","no","mono","no","18","no","white","no","yes","768","legacy","11","11","/Users/abigailchristie/Desktop/2018/Faulkenberry/Lab2/AC-subject-1.csv","legacy","3 1 9 4","Kafkaesque Koffka","3.2.5","0","n","0","right","left","NA","right","NA","948","40086","NA","948","NA","2","legacy","4","1024","2","48000","-16","experiment","1","odd","6","113761","110451","111534","2706","NA","111541","103930","2720","NA","115771","116721","112550","42815","115771","NA","Sternberg Task","9","10659","12","yes","1024"
"76.9230769231","76.9230769231","873","873","black","experiment","legacy","legacy","legacy","0","uniform","1","undefined","1","right","12","12","12","0","0","12","12","0","0","12","12","12","0","12","0","Wed Oct  3 11:26:37 2018","The main experiment item","yes","SternbergTask.osexp","/Users/abigailchristie/Desktop","no","mono","no","18","no","white","no","yes","768","legacy","0","11","/Users/abigailchristie/Desktop/2018/Faulkenberry/Lab2/AC-subject-1.csv","legacy","7 1 8 4 9 3","Kafkaesque Koffka","3.2.5","0","n","0","right","left","right","right","NA","690","40086","10572","690","NA","2","legacy","6","1024","2","48000","-16","experiment","1","odd","6","130658","116732","128429","2706","128331","128437","103930","2720","117757","132667","133359","129447","42815","132667","NA","Sternberg Task","10","11349","13","yes","1024"
"78.5714285714","78.5714285714","882.214285714","882.214285714","black","experiment","legacy","legacy","legacy","0","uniform","1","undefined","1","right","13","13","13","0","0","13","13","0","0","13","13","13","0","13","0","Wed Oct  3 11:26:37 2018","The main experiment item","yes","SternbergTask.osexp","/Users/abigailchristie/Desktop","no","mono","no","18","no","white","no","yes","768","legacy","1","11","/Users/abigailchristie/Desktop/2018/Faulkenberry/Lab2/AC-subject-1.csv","legacy","6 9 4 5 2","Kafkaesque Koffka","3.2.5","0","n","0","right","left","right","right","NA","1002","40086","10572","1002","NA","2","legacy","5","1024","2","48000","-16","experiment","1","odd","1","136683","133369","134454","2706","128331","134462","103930","2720","117757","138692","139696","135472","42815","138691","NA","Sternberg Task","11","12351","14","yes","1024"
"80","80","897.933333333","897.933333333","black","experiment","legacy","legacy","legacy","0","uniform","1","undefined","1","right","14","14","14","0","0","14","14","0","0","14","14","14","0","14","0","Wed Oct  3 11:26:37 2018","The main experiment item","yes","SternbergTask.osexp","/Users/abigailchristie/Desktop","no","mono","no","18","no","white","no","yes","768","legacy","2","11","/Users/abigailchristie/Desktop/2018/Faulkenberry/Lab2/AC-subject-1.csv","legacy","2 3 8 5 6 7","Kafkaesque Koffka","3.2.5","0","n","0","right","left","right","right","NA","1118","40086","10572","1118","NA","2","legacy","6","1024","2","48000","-16","experiment","1","odd","1","143019","139708","140790","2706","128331","140798","103930","2720","117757","145028","146148","141809","42815","145028","NA","Sternberg Task","12","13469","15","yes","1024"
"81.25","81.25","874.1875","874.1875","black","experiment","legacy","legacy","legacy","0","uniform","1","undefined","1","left","15","15","15","0","0","15","15","0","0","15","15","15","0","15","0","Wed Oct  3 11:26:37 2018","The main experiment item","yes","SternbergTask.osexp","/Users/abigailchristie/Desktop","no","mono","no","18","no","white","no","yes","768","legacy","3","11","/Users/abigailchristie/Desktop/2018/Faulkenberry/Lab2/AC-subject-1.csv","legacy","7 2 3","Kafkaesque Koffka","3.2.5","3","y","0","left","left","right","left","NA","518","40086","10572","518","NA","2","legacy","3","1024","2","48000","-16","experiment","1","odd","3","149466","146158","147239","2706","128331","147246","103930","2720","117757","151474","151993","148256","42815","151474","NA","Sternberg Task","13","13987","16","yes","1024"
"82.3529411765","82.3529411765","873.058823529","873.058823529","black","experiment","legacy","legacy","legacy","0","uniform","1","undefined","1","left","16","16","16","0","0","16","16","0","0","16","16","16","0","16","0","Wed Oct  3 11:26:37 2018","The main experiment item","yes","SternbergTask.osexp","/Users/abigailchristie/Desktop","no","mono","no","18","no","white","no","yes","768","legacy","4","11","/Users/abigailchristie/Desktop/2018/Faulkenberry/Lab2/AC-subject-1.csv","legacy","3 9 6 2","Kafkaesque Koffka","3.2.5","4","y","0","left","left","right","left","NA","855","40086","10572","855","NA","2","legacy","4","1024","2","48000","-16","experiment","1","odd","2","155314","152004","153085","2706","128331","153094","103930","2720","117757","157322","158179","154103","42815","157322","NA","Sternberg Task","14","14842","17","yes","1024"
"83.3333333333","83.3333333333","885.888888889","885.888888889","black","experiment","legacy","legacy","legacy","0","uniform","1","undefined","1","right","17","17","17","0","0","17","17","0","0","17","17","17","0","17","0","Wed Oct  3 11:26:37 2018","The main experiment item","yes","SternbergTask.osexp","/Users/abigailchristie/Desktop","no","mono","no","18","no","white","no","yes","768","legacy","5","11","/Users/abigailchristie/Desktop/2018/Faulkenberry/Lab2/AC-subject-1.csv","legacy","1 4 9 2 5","Kafkaesque Koffka","3.2.5","0","n","0","right","left","right","right","NA","1104","40086","10572","1104","NA","2","legacy","5","1024","2","48000","-16","experiment","1","odd","7","161503","158193","159276","2706","128331","159284","103930","2720","117757","163512","164618","160293","42815","163512","NA","Sternberg Task","15","15946","18","yes","1024"
"84.2105263158","84.2105263158","868.684210526","868.684210526","black","experiment","legacy","legacy","legacy","0","uniform","1","undefined","1","left","18","18","18","0","0","18","18","0","0","18","18","18","0","18","0","Wed Oct  3 11:26:37 2018","The main experiment item","yes","SternbergTask.osexp","/Users/abigailchristie/Desktop","no","mono","no","18","no","white","no","yes","768","legacy","6","11","/Users/abigailchristie/Desktop/2018/Faulkenberry/Lab2/AC-subject-1.csv","legacy","6 2","Kafkaesque Koffka","3.2.5","1","y","0","left","left","right","left","NA","559","40086","10572","559","NA","2","legacy","2","1024","2","48000","-16","experiment","1","odd","6","167937","164628","165709","2706","128331","165717","103930","2720","117757","169946","170507","166726","42815","169945","NA","Sternberg Task","16","16505","19","yes","1024"
"85","85","904.65","904.65","black","experiment","legacy","legacy","legacy","0","uniform","1","undefined","1","left","19","19","19","0","0","19","19","0","0","19","19","19","0","19","0","Wed Oct  3 11:26:37 2018","The main experiment item","yes","SternbergTask.osexp","/Users/abigailchristie/Desktop","no","mono","no","18","no","white","no","yes","768","legacy","7","11","/Users/abigailchristie/Desktop/2018/Faulkenberry/Lab2/AC-subject-1.csv","legacy","7 4 2 6 3 5","Kafkaesque Koffka","3.2.5","6","y","0","left","left","right","left","NA","1588","40086","10572","1588","NA","2","legacy","6","1024","2","48000","-16","experiment","1","odd","5","173829","170520","171602","2706","128331","171610","103930","2720","117757","175837","177427","172618","42815","175837","NA","Sternberg Task","17","18093","20","yes","1024"
"85.7142857143","85.7142857143","900.523809524","900.523809524","black","experiment","legacy","legacy","legacy","0","uniform","1","undefined","1","left","20","20","20","0","0","20","20","0","0","20","20","20","0","20","0","Wed Oct  3 11:26:37 2018","The main experiment item","yes","SternbergTask.osexp","/Users/abigailchristie/Desktop","no","mono","no","18","no","white","no","yes","768","legacy","8","11","/Users/abigailchristie/Desktop/2018/Faulkenberry/Lab2/AC-subject-1.csv","legacy","4 9 7 8 5 3","Kafkaesque Koffka","3.2.5","4","y","0","left","left","right","left","NA","818","40086","10572","818","NA","2","legacy","6","1024","2","48000","-16","experiment","1","odd","8","180751","177439","178523","2706","128331","178531","103930","2720","117757","182760","183579","179540","42815","182759","NA","Sternberg Task","18","18911","21","yes","1024"
"86.3636363636","86.3636363636","892.681818182","892.681818182","black","experiment","legacy","legacy","legacy","0","uniform","1","undefined","1","left","21","21","21","0","0","21","21","0","0","21","21","21","0","21","0","Wed Oct  3 11:26:37 2018","The main experiment item","yes","SternbergTask.osexp","/Users/abigailchristie/Desktop","no","mono","no","18","no","white","no","yes","768","legacy","9","11","/Users/abigailchristie/Desktop/2018/Faulkenberry/Lab2/AC-subject-1.csv","legacy","3 5 7 1","Kafkaesque Koffka","3.2.5","3","y","0","left","left","right","left","NA","728","40086","10572","728","NA","2","legacy","4","1024","2","48000","-16","experiment","1","odd","7","186898","183590","184672","2706","128331","184680","103930","2720","117757","188906","189635","185689","42815","188906","NA","Sternberg Task","19","19639","22","yes","1024"
"86.9565217391","86.9565217391","882.652173913","882.652173913","black","experiment","legacy","legacy","legacy","0","uniform","1","undefined","1","left","22","22","22","0","0","22","22","0","0","22","22","22","0","22","0","Wed Oct  3 11:26:37 2018","The main experiment item","yes","SternbergTask.osexp","/Users/abigailchristie/Desktop","no","mono","no","18","no","white","no","yes","768","legacy","10","11","/Users/abigailchristie/Desktop/2018/Faulkenberry/Lab2/AC-subject-1.csv","legacy","8 9 5 6 7","Kafkaesque Koffka","3.2.5","1","y","0","left","left","right","left","NA","662","40086","10572","662","NA","2","legacy","5","1024","2","48000","-16","experiment","1","odd","8","192957","189647","190729","2706","128331","190737","103930","2720","117757","194966","195630","191746","42815","194966","NA","Sternberg Task","20","20301","23","yes","1024"
"87.5","87.5","878.166666667","878.166666667","black","experiment","legacy","legacy","legacy","0","uniform","1","undefined","1","right","23","23","23","0","0","23","23","0","0","23","23","23","0","23","0","Wed Oct  3 11:26:37 2018","The main experiment item","yes","SternbergTask.osexp","/Users/abigailchristie/Desktop","no","mono","no","18","no","white","no","yes","768","legacy","11","11","/Users/abigailchristie/Desktop/2018/Faulkenberry/Lab2/AC-subject-1.csv","legacy","5 3 2 6 9 8","Kafkaesque Koffka","3.2.5","0","n","0","right","left","right","right","NA","775","40086","10572","775","NA","2","legacy","6","1024","2","48000","-16","experiment","1","odd","4","198952","195641","196725","2706","128331","196732","103930","2720","117757","200961","201738","197742","42815","200961","NA","Sternberg Task","21","21076","24","yes","1024"
"88","88","869.96","869.96","black","experiment","legacy","legacy","legacy","0","uniform","1","undefined","1","right","24","24","24","0","0","24","24","0","0","24","24","24","0","24","0","Wed Oct  3 11:26:37 2018","The main experiment item","yes","SternbergTask.osexp","/Users/abigailchristie/Desktop","no","mono","no","18","no","white","no","yes","768","legacy","12","11","/Users/abigailchristie/Desktop/2018/Faulkenberry/Lab2/AC-subject-1.csv","legacy","3 4 2","Kafkaesque Koffka","3.2.5","0","n","0","right","left","right","right","NA","673","40086","10572","673","NA","2","legacy","3","1024","2","48000","-16","experiment","1","odd","5","205059","201750","202831","2706","128331","202839","103930","2720","117757","207068","207743","203849","42815","207068","NA","Sternberg Task","22","21749","25","yes","1024"
"88.4615384615","88.4615384615","870.346153846","870.346153846","black","experiment","legacy","legacy","legacy","0","uniform","1","undefined","1","right","25","25","25","0","0","25","25","0","0","25","25","25","0","25","0","Wed Oct  3 11:26:37 2018","The main experiment item","yes","SternbergTask.osexp","/Users/abigailchristie/Desktop","no","mono","no","18","no","white","no","yes","768","legacy","13","11","/Users/abigailchristie/Desktop/2018/Faulkenberry/Lab2/AC-subject-1.csv","legacy","1 3 2 6 9","Kafkaesque Koffka","3.2.5","0","n","0","right","left","right","right","NA","880","40086","10572","880","NA","2","legacy","5","1024","2","48000","-16","experiment","1","odd","5","211070","207755","208843","2706","128331","208851","103930","2720","117757","213079","213961","209860","42815","213079","NA","Sternberg Task","23","22629","26","yes","1024"
"88.8888888889","88.8888888889","862.814814815","862.814814815","black","experiment","legacy","legacy","legacy","0","uniform","1","undefined","1","left","26","26","26","0","0","26","26","0","0","26","26","26","0","26","0","Wed Oct  3 11:26:37 2018","The main experiment item","yes","SternbergTask.osexp","/Users/abigailchristie/Desktop","no","mono","no","18","no","white","no","yes","768","legacy","14","11","/Users/abigailchristie/Desktop/2018/Faulkenberry/Lab2/AC-subject-1.csv","legacy","9 1 6 7 8","Kafkaesque Koffka","3.2.5","1","y","0","left","left","right","left","NA","667","40086","10572","667","NA","2","legacy","5","1024","2","48000","-16","experiment","1","odd","9","217281","213970","215053","2706","128331","215061","103930","2720","117757","219289","219958","216071","42815","219289","NA","Sternberg Task","24","23296","27","yes","1024"
"85.7142857143","85.7142857143","857.5","857.5","black","experiment","legacy","legacy","legacy","0","uniform","0","undefined","0","right","27","27","27","0","0","27","27","0","0","27","27","27","0","27","0","Wed Oct  3 11:26:37 2018","The main experiment item","yes","SternbergTask.osexp","/Users/abigailchristie/Desktop","no","mono","no","18","no","white","no","yes","768","legacy","15","11","/Users/abigailchristie/Desktop/2018/Faulkenberry/Lab2/AC-subject-1.csv","legacy","2 6 4 3 9","Kafkaesque Koffka","3.2.5","0","n","0","left","left","right","left","NA","714","40086","10572","714","NA","2","legacy","5","1024","2","48000","-16","experiment","1","odd","1","223277","219969","221049","2706","128331","221058","103930","2720","117757","225286","226002","222066","42815","225286","NA","Sternberg Task","24","24010","28","yes","1024"
"86.2068965517","86.2068965517","849.862068966","849.862068966","black","experiment","legacy","legacy","legacy","0","uniform","1","undefined","1","right","28","28","28","0","0","28","28","0","0","28","28","28","0","28","0","Wed Oct  3 11:26:37 2018","The main experiment item","yes","SternbergTask.osexp","/Users/abigailchristie/Desktop","no","mono","no","18","no","white","no","yes","768","legacy","16","11","/Users/abigailchristie/Desktop/2018/Faulkenberry/Lab2/AC-subject-1.csv","legacy","6 8 4","Kafkaesque Koffka","3.2.5","0","n","0","right","left","right","right","NA","636","40086","10572","636","NA","2","legacy","3","1024","2","48000","-16","experiment","1","odd","1","229323","219969","227095","2706","128331","227103","226014","2720","117757","231331","231969","228112","42815","231331","NA","Sternberg Task","25","24646","29","yes","1024"
"86.6666666667","86.6666666667","871.4","871.4","black","experiment","legacy","legacy","legacy","0","uniform","1","undefined","1","right","29","29","29","0","0","29","29","0","0","29","29","29","0","29","0","Wed Oct  3 11:26:37 2018","The main experiment item","yes","SternbergTask.osexp","/Users/abigailchristie/Desktop","no","mono","no","18","no","white","no","yes","768","legacy","17","11","/Users/abigailchristie/Desktop/2018/Faulkenberry/Lab2/AC-subject-1.csv","legacy","2 8 6 3 1","Kafkaesque Koffka","3.2.5","0","n","0","right","left","right","right","NA","1496","40086","10572","1496","NA","2","legacy","5","1024","2","48000","-16","experiment","1","odd","7","235292","231980","233064","2706","128331","233072","226014","2720","117757","237301","238799","234081","42815","237301","NA","Sternberg Task","26","26142","30","yes","1024"
"87.0967741935","87.0967741935","877.64516129","877.64516129","black","experiment","legacy","legacy","legacy","0","uniform","1","undefined","1","left","30","30","30","0","0","30","30","0","0","30","30","30","0","30","0","Wed Oct  3 11:26:37 2018","The main experiment item","yes","SternbergTask.osexp","/Users/abigailchristie/Desktop","no","mono","no","18","no","white","no","yes","768","legacy","18","11","/Users/abigailchristie/Desktop/2018/Faulkenberry/Lab2/AC-subject-1.csv","legacy","9 5 3 8 4","Kafkaesque Koffka","3.2.5","1","y","0","left","left","right","left","NA","1065","40086","10572","1065","NA","2","legacy","5","1024","2","48000","-16","experiment","1","odd","9","242127","238811","239898","2706","128331","239906","226014","2720","117757","244135","245202","240916","42815","244135","NA","Sternberg Task","27","27207","31","yes","1024"
"87.5","87.5","871.78125","871.78125","black","experiment","legacy","legacy","legacy","0","uniform","1","undefined","1","right","31","31","31","0","0","31","31","0","0","31","31","31","0","31","0","Wed Oct  3 11:26:37 2018","The main experiment item","yes","SternbergTask.osexp","/Users/abigailchristie/Desktop","no","mono","no","18","no","white","no","yes","768","legacy","19","11","/Users/abigailchristie/Desktop/2018/Faulkenberry/Lab2/AC-subject-1.csv","legacy","6 2 9 3 8 4","Kafkaesque Koffka","3.2.5","0","n","0","right","left","right","right","NA","690","40086","10572","690","NA","2","legacy","6","1024","2","48000","-16","experiment","1","odd","1","248528","245215","246301","2706","128331","246309","226014","2720","117757","250536","251228","247318","42815","250536","NA","Sternberg Task","28","27897","32","yes","1024"
"87.8787878788","87.8787878788","886.303030303","886.303030303","black","experiment","legacy","legacy","legacy","0","uniform","1","undefined","1","left","32","32","32","0","0","32","32","0","0","32","32","32","0","32","0","Wed Oct  3 11:26:37 2018","The main experiment item","yes","SternbergTask.osexp","/Users/abigailchristie/Desktop","no","mono","no","18","no","white","no","yes","768","legacy","20","11","/Users/abigailchristie/Desktop/2018/Faulkenberry/Lab2/AC-subject-1.csv","legacy","7 8 6 3 1","Kafkaesque Koffka","3.2.5","5","y","0","left","left","right","left","NA","1351","40086","10572","1351","NA","2","legacy","5","1024","2","48000","-16","experiment","1","odd","1","254551","251241","252323","2706","128331","252331","226014","2720","117757","256560","257913","253340","42815","256560","NA","Sternberg Task","29","29248","33","yes","1024"
"88.2352941176","88.2352941176","885.852941176","885.852941176","black","experiment","legacy","legacy","legacy","0","uniform","1","undefined","1","left","33","33","33","0","0","33","33","0","0","33","33","33","0","33","0","Wed Oct  3 11:26:37 2018","The main experiment item","yes","SternbergTask.osexp","/Users/abigailchristie/Desktop","no","mono","no","18","no","white","no","yes","768","legacy","21","11","/Users/abigailchristie/Desktop/2018/Faulkenberry/Lab2/AC-subject-1.csv","legacy","4 1 8 7 5","Kafkaesque Koffka","3.2.5","3","y","0","left","left","right","left","NA","871","40086","10572","871","NA","2","legacy","5","1024","2","48000","-16","experiment","1","odd","8","261237","257924","259008","2706","128331","259016","226014","2720","117757","263246","264119","260027","42815","263246","NA","Sternberg Task","30","30119","34","yes","1024"
"85.7142857143","85.7142857143","878.6","878.6","black","experiment","legacy","legacy","legacy","0","uniform","0","undefined","0","left","34","34","34","0","0","34","34","0","0","34","34","34","0","34","0","Wed Oct  3 11:26:37 2018","The main experiment item","yes","SternbergTask.osexp","/Users/abigailchristie/Desktop","no","mono","no","18","no","white","no","yes","768","legacy","22","11","/Users/abigailchristie/Desktop/2018/Faulkenberry/Lab2/AC-subject-1.csv","legacy","7 6","Kafkaesque Koffka","3.2.5","2","y","0","right","left","right","right","NA","632","40086","10572","632","NA","2","legacy","2","1024","2","48000","-16","experiment","1","odd","6","267439","264130","265211","2706","128331","265219","226014","2720","117757","269449","270083","266228","42815","269449","NA","Sternberg Task","30","30751","35","yes","1024"
"86.1111111111","86.1111111111","876.5","876.5","black","experiment","legacy","legacy","legacy","0","uniform","1","undefined","1","right","35","35","35","0","0","35","35","0","0","35","35","35","0","35","0","Wed Oct  3 11:26:37 2018","The main experiment item","yes","SternbergTask.osexp","/Users/abigailchristie/Desktop","no","mono","no","18","no","white","no","yes","768","legacy","23","11","/Users/abigailchristie/Desktop/2018/Faulkenberry/Lab2/AC-subject-1.csv","legacy","4 2 7 6 1 3","Kafkaesque Koffka","3.2.5","0","n","0","right","left","right","right","NA","803","40086","10572","803","NA","2","legacy","6","1024","2","48000","-16","experiment","1","odd","8","273408","264130","271179","2706","128331","271188","270096","2720","117757","275416","276221","272197","42815","275416","NA","Sternberg Task","31","31554","36","yes","1024"
"83.7837837838","83.7837837838","871.702702703","871.702702703","black","experiment","legacy","legacy","legacy","0","uniform","0","undefined","0","right","36","36","36","0","0","36","36","0","0","36","36","36","0","36","0","Wed Oct  3 11:26:37 2018","The main experiment item","yes","SternbergTask.osexp","/Users/abigailchristie/Desktop","no","mono","no","18","no","white","no","yes","768","legacy","24","11","/Users/abigailchristie/Desktop/2018/Faulkenberry/Lab2/AC-subject-1.csv","legacy","5 2","Kafkaesque Koffka","3.2.5","0","n","0","left","left","right","left","NA","699","40086","10572","699","NA","2","legacy","2","1024","2","48000","-16","experiment","1","odd","7","279539","276232","277311","2706","128331","277320","270096","2720","117757","281548","282249","278328","42815","281548","NA","Sternberg Task","31","32253","37","yes","1024"
"84.2105263158","84.2105263158","898.342105263","898.342105263","black","experiment","legacy","legacy","legacy","0","uniform","1","undefined","1","left","37","37","37","0","0","37","37","0","0","37","37","37","0","37","0","Wed Oct  3 11:26:37 2018","The main experiment item","yes","SternbergTask.osexp","/Users/abigailchristie/Desktop","no","mono","no","18","no","white","no","yes","768","legacy","25","11","/Users/abigailchristie/Desktop/2018/Faulkenberry/Lab2/AC-subject-1.csv","legacy","9 1 7 2","Kafkaesque Koffka","3.2.5","2","y","0","left","left","right","left","NA","1884","40086","10572","1884","NA","2","legacy","4","1024","2","48000","-16","experiment","1","odd","1","285573","276232","283344","2706","128331","283352","282261","2720","117757","287582","289467","284361","42815","287582","NA","Sternberg Task","32","34137","38","yes","1024"
"84.6153846154","84.6153846154","899.256410256","899.256410256","black","experiment","legacy","legacy","legacy","0","uniform","1","undefined","1","left","38","38","38","0","0","38","38","0","0","38","38","38","0","38","0","Wed Oct  3 11:26:37 2018","The main experiment item","yes","SternbergTask.osexp","/Users/abigailchristie/Desktop","no","mono","no","18","no","white","no","yes","768","legacy","26","11","/Users/abigailchristie/Desktop/2018/Faulkenberry/Lab2/AC-subject-1.csv","legacy","7 8 4 6 9 5","Kafkaesque Koffka","3.2.5","4","y","0","left","left","right","left","NA","934","40086","10572","934","NA","2","legacy","6","1024","2","48000","-16","experiment","1","odd","6","292790","289479","290562","2706","128331","290570","282261","2720","117757","294798","295734","291579","42815","294798","NA","Sternberg Task","33","35071","39","yes","1024"
"85","85","897.825","897.825","black","experiment","legacy","legacy","legacy","0","uniform","1","undefined","1","right","39","39","39","0","0","39","39","0","0","39","39","39","0","39","0","Wed Oct  3 11:26:37 2018","The main experiment item","yes","SternbergTask.osexp","/Users/abigailchristie/Desktop","no","mono","no","18","no","white","no","yes","768","legacy","27","11","/Users/abigailchristie/Desktop/2018/Faulkenberry/Lab2/AC-subject-1.csv","legacy","4 1","Kafkaesque Koffka","3.2.5","0","n","0","right","left","right","right","NA","842","40086","10572","842","NA","2","legacy","2","1024","2","48000","-16","experiment","1","odd","6","299057","295745","296830","2706","128331","296838","282261","2720","117757","301065","301909","297847","42815","301065","NA","Sternberg Task","34","35913","40","yes","1024"
"85.3658536585","85.3658536585","893.43902439","893.43902439","black","experiment","legacy","legacy","legacy","0","uniform","1","undefined","1","left","40","40","40","0","0","40","40","0","0","40","40","40","0","40","0","Wed Oct  3 11:26:37 2018","The main experiment item","yes","SternbergTask.osexp","/Users/abigailchristie/Desktop","no","mono","no","18","no","white","no","yes","768","legacy","28","11","/Users/abigailchristie/Desktop/2018/Faulkenberry/Lab2/AC-subject-1.csv","legacy","6 5","Kafkaesque Koffka","3.2.5","2","y","0","left","left","right","left","NA","718","40086","10572","718","NA","2","legacy","2","1024","2","48000","-16","experiment","1","odd","5","305229","301921","303002","2706","128331","303010","282261","2720","117757","307238","307958","304019","42815","307238","NA","Sternberg Task","35","36631","41","yes","1024"
"85.7142857143","85.7142857143","896.333333333","896.333333333","black","experiment","legacy","legacy","legacy","0","uniform","1","undefined","1","right","41","41","41","0","0","41","41","0","0","41","41","41","0","41","0","Wed Oct  3 11:26:37 2018","The main experiment item","yes","SternbergTask.osexp","/Users/abigailchristie/Desktop","no","mono","no","18","no","white","no","yes","768","legacy","29","11","/Users/abigailchristie/Desktop/2018/Faulkenberry/Lab2/AC-subject-1.csv","legacy","1 4 9 3","Kafkaesque Koffka","3.2.5","0","n","0","right","left","right","right","NA","1015","40086","10572","1015","NA","2","legacy","4","1024","2","48000","-16","experiment","1","odd","5","311281","307971","309053","2706","128331","309061","282261","2720","117757","313289","314307","310071","42815","313289","NA","Sternberg Task","36","37646","42","yes","1024"
"86.0465116279","86.0465116279","902.604651163","902.604651163","black","experiment","legacy","legacy","legacy","0","uniform","1","undefined","1","right","42","42","42","0","0","42","42","0","0","42","42","42","0","42","0","Wed Oct  3 11:26:37 2018","The main experiment item","yes","SternbergTask.osexp","/Users/abigailchristie/Desktop","no","mono","no","18","no","white","no","yes","768","legacy","30","11","/Users/abigailchristie/Desktop/2018/Faulkenberry/Lab2/AC-subject-1.csv","legacy","9 5 3 2 8 6","Kafkaesque Koffka","3.2.5","0","n","0","right","left","right","right","NA","1166","40086","10572","1166","NA","2","legacy","6","1024","2","48000","-16","experiment","1","odd","7","317632","314319","315403","2706","128331","315411","282261","2720","117757","319640","320809","316420","42815","319640","NA","Sternberg Task","37","38812","43","yes","1024"
"84.0909090909","84.0909090909","899.25","899.25","black","experiment","legacy","legacy","legacy","0","uniform","0","undefined","0","left","43","43","43","0","0","43","43","0","0","43","43","43","0","43","0","Wed Oct  3 11:26:37 2018","The main experiment item","yes","SternbergTask.osexp","/Users/abigailchristie/Desktop","no","mono","no","18","no","white","no","yes","768","legacy","31","11","/Users/abigailchristie/Desktop/2018/Faulkenberry/Lab2/AC-subject-1.csv","legacy","3 9 7 6 4","Kafkaesque Koffka","3.2.5","3","y","0","right","left","right","right","NA","755","40086","10572","755","NA","2","legacy","5","1024","2","48000","-16","experiment","1","odd","7","324129","320818","321901","2706","128331","321909","282261","2720","117757","326138","326895","322920","42815","326137","NA","Sternberg Task","37","39567","44","yes","1024"
"82.2222222222","82.2222222222","920.6","920.6","black","experiment","legacy","legacy","legacy","0","uniform","0","undefined","0","right","44","44","44","0","0","44","44","0","0","44","44","44","0","44","0","Wed Oct  3 11:26:37 2018","The main experiment item","yes","SternbergTask.osexp","/Users/abigailchristie/Desktop","no","mono","no","18","no","white","no","yes","768","legacy","32","11","/Users/abigailchristie/Desktop/2018/Faulkenberry/Lab2/AC-subject-1.csv","legacy","5 9 2 3","Kafkaesque Koffka","3.2.5","0","n","0","left","left","right","left","NA","1860","40086","10572","1860","NA","2","legacy","4","1024","2","48000","-16","experiment","1","odd","8","330218","320818","327992","2706","128331","327999","326907","2720","117757","332227","334089","329007","42815","332227","NA","Sternberg Task","37","41427","45","yes","1024"
"82.6086956522","82.6086956522","927.173913043","927.173913043","black","experiment","legacy","legacy","legacy","0","uniform","1","undefined","1","right","45","45","45","0","0","45","45","0","0","45","45","45","0","45","0","Wed Oct  3 11:26:37 2018","The main experiment item","yes","SternbergTask.osexp","/Users/abigailchristie/Desktop","no","mono","no","18","no","white","no","yes","768","legacy","33","11","/Users/abigailchristie/Desktop/2018/Faulkenberry/Lab2/AC-subject-1.csv","legacy","7 4 2 8 1 9","Kafkaesque Koffka","3.2.5","0","n","0","right","left","right","right","NA","1223","40086","10572","1223","NA","2","legacy","6","1024","2","48000","-16","experiment","1","odd","5","337411","320818","335183","2706","128331","335191","334100","2720","117757","339420","340646","336200","42815","339420","NA","Sternberg Task","38","42650","46","yes","1024"
"80.8510638298","80.8510638298","935.489361702","935.489361702","black","experiment","legacy","legacy","legacy","0","uniform","0","undefined","0","left","46","46","46","0","0","46","46","0","0","46","46","46","0","46","0","Wed Oct  3 11:26:37 2018","The main experiment item","yes","SternbergTask.osexp","/Users/abigailchristie/Desktop","no","mono","no","18","no","white","no","yes","768","legacy","34","11","/Users/abigailchristie/Desktop/2018/Faulkenberry/Lab2/AC-subject-1.csv","legacy","1 4 9 3 2 5","Kafkaesque Koffka","3.2.5","3","y","0","right","left","right","right","NA","1318","40086","10572","1318","NA","2","legacy","6","1024","2","48000","-16","experiment","1","odd","9","343967","340658","341742","2706","128331","341750","334100","2720","117757","345975","347295","342758","42815","345975","NA","Sternberg Task","38","43968","47","yes","1024"
"81.25","81.25","933.208333333","933.208333333","black","experiment","legacy","legacy","legacy","0","uniform","1","undefined","1","left","47","47","47","0","0","47","47","0","0","47","47","47","0","47","0","Wed Oct  3 11:26:37 2018","The main experiment item","yes","SternbergTask.osexp","/Users/abigailchristie/Desktop","no","mono","no","18","no","white","no","yes","768","legacy","35","11","/Users/abigailchristie/Desktop/2018/Faulkenberry/Lab2/AC-subject-1.csv","legacy","3 5 9 6 2 4","Kafkaesque Koffka","3.2.5","1","y","0","left","left","right","left","NA","826","40086","10572","826","NA","2","legacy","6","1024","2","48000","-16","experiment","1","odd","3","350617","340658","348389","2706","128331","348397","347306","2720","117757","352626","353454","349405","42815","352626","NA","Sternberg Task","39","44794","48","yes","1024"
"81.6326530612","81.6326530612","930.285714286","930.285714286","black","experiment","legacy","legacy","legacy","0","uniform","1","undefined","1","right","48","48","48","0","0","48","48","0","0","48","48","48","0","48","0","Wed Oct  3 11:26:37 2018","The main experiment item","yes","SternbergTask.osexp","/Users/abigailchristie/Desktop","no","mono","no","18","no","white","no","yes","768","legacy","36","11","/Users/abigailchristie/Desktop/2018/Faulkenberry/Lab2/AC-subject-1.csv","legacy","2 8 9","Kafkaesque Koffka","3.2.5","0","n","0","right","left","right","right","NA","790","40086","10572","790","NA","2","legacy","3","1024","2","48000","-16","experiment","1","odd","6","356772","353465","354546","2706","128331","354554","347306","2720","117757","358780","359572","355563","42815","358780","NA","Sternberg Task","40","45584","49","yes","1024"
"82","82","929.88","929.88","black","experiment","legacy","legacy","legacy","0","uniform","1","undefined","1","right","49","49","49","0","0","49","49","0","0","49","49","49","0","49","0","Wed Oct  3 11:26:37 2018","The main experiment item","yes","SternbergTask.osexp","/Users/abigailchristie/Desktop","no","mono","no","18","no","white","no","yes","768","legacy","37","11","/Users/abigailchristie/Desktop/2018/Faulkenberry/Lab2/AC-subject-1.csv","legacy","1 7 5 2 9","Kafkaesque Koffka","3.2.5","0","n","0","right","left","right","right","NA","910","40086","10572","910","NA","2","legacy","5","1024","2","48000","-16","experiment","1","odd","3","362891","359582","360662","2706","128331","360670","347306","2720","117757","364900","365812","361681","42815","364900","NA","Sternberg Task","41","46494","50","yes","1024"
"80.3921568627","80.3921568627","928.980392157","928.980392157","black","experiment","legacy","legacy","legacy","0","uniform","0","undefined","0","left","50","50","50","0","0","50","50","0","0","50","50","50","0","50","0","Wed Oct  3 11:26:37 2018","The main experiment item","yes","SternbergTask.osexp","/Users/abigailchristie/Desktop","no","mono","no","18","no","white","no","yes","768","legacy","38","11","/Users/abigailchristie/Desktop/2018/Faulkenberry/Lab2/AC-subject-1.csv","legacy","9 6 2 4 1","Kafkaesque Koffka","3.2.5","4","y","0","right","left","right","right","NA","884","40086","10572","884","NA","2","legacy","5","1024","2","48000","-16","experiment","1","odd","4","369135","365825","366908","2706","128331","366916","347306","2720","117757","371144","372030","367925","42815","371144","NA","Sternberg Task","41","47378","51","yes","1024"
"80.7692307692","80.7692307692","932.076923077","932.076923077","black","experiment","legacy","legacy","legacy","0","uniform","1","undefined","1","left","51","51","51","0","0","51","51","0","0","51","51","51","0","51","0","Wed Oct  3 11:26:37 2018","The main experiment item","yes","SternbergTask.osexp","/Users/abigailchristie/Desktop","no","mono","no","18","no","white","no","yes","768","legacy","39","11","/Users/abigailchristie/Desktop/2018/Faulkenberry/Lab2/AC-subject-1.csv","legacy","9 3 8 2 1 4","Kafkaesque Koffka","3.2.5","3","y","0","left","left","right","left","NA","1090","40086","10572","1090","NA","2","legacy","6","1024","2","48000","-16","experiment","1","odd","8","375354","365825","373128","2706","128331","373136","372041","2720","117757","377363","378456","374146","42815","377363","NA","Sternberg Task","42","48468","52","yes","1024"
"81.1320754717","81.1320754717","929.075471698","929.075471698","black","experiment","legacy","legacy","legacy","0","uniform","1","undefined","1","right","52","52","52","0","0","52","52","0","0","52","52","52","0","52","0","Wed Oct  3 11:26:37 2018","The main experiment item","yes","SternbergTask.osexp","/Users/abigailchristie/Desktop","no","mono","no","18","no","white","no","yes","768","legacy","40","11","/Users/abigailchristie/Desktop/2018/Faulkenberry/Lab2/AC-subject-1.csv","legacy","1 5 3 2 8","Kafkaesque Koffka","3.2.5","0","n","0","right","left","right","right","NA","773","40086","10572","773","NA","2","legacy","5","1024","2","48000","-16","experiment","1","odd","4","381775","378465","379546","2706","128331","379554","372041","2720","117757","383785","384560","380563","42815","383785","NA","Sternberg Task","43","49241","53","yes","1024"
"81.4814814815","81.4814814815","933.481481481","933.481481481","black","experiment","legacy","legacy","legacy","0","uniform","1","undefined","1","right","53","53","53","0","0","53","53","0","0","53","53","53","0","53","0","Wed Oct  3 11:26:37 2018","The main experiment item","yes","SternbergTask.osexp","/Users/abigailchristie/Desktop","no","mono","no","18","no","white","no","yes","768","legacy","41","11","/Users/abigailchristie/Desktop/2018/Faulkenberry/Lab2/AC-subject-1.csv","legacy","7 6 4 8 1 2","Kafkaesque Koffka","3.2.5","0","n","0","right","left","right","right","NA","1167","40086","10572","1167","NA","2","legacy","6","1024","2","48000","-16","experiment","1","odd","9","387885","384572","385659","2706","128331","385667","372041","2720","117757","389894","391063","386677","42815","389894","NA","Sternberg Task","44","50408","54","yes","1024"
"81.8181818182","81.8181818182","935.218181818","935.218181818","black","experiment","legacy","legacy","legacy","0","uniform","1","undefined","1","left","54","54","54","0","0","54","54","0","0","54","54","54","0","54","0","Wed Oct  3 11:26:37 2018","The main experiment item","yes","SternbergTask.osexp","/Users/abigailchristie/Desktop","no","mono","no","18","no","white","no","yes","768","legacy","42","11","/Users/abigailchristie/Desktop/2018/Faulkenberry/Lab2/AC-subject-1.csv","legacy","5 2 9 6 1 7","Kafkaesque Koffka","3.2.5","3","y","0","left","left","right","left","NA","1029","40086","10572","1029","NA","2","legacy","6","1024","2","48000","-16","experiment","1","odd","9","394384","391075","392156","2706","128331","392164","372041","2720","117757","396393","397424","393173","42815","396392","NA","Sternberg Task","45","51437","55","yes","1024"
"80.3571428571","80.3571428571","954.232142857","954.232142857","black","experiment","legacy","legacy","legacy","0","uniform","0","undefined","0","left","55","55","55","0","0","55","55","0","0","55","55","55","0","55","0","Wed Oct  3 11:26:37 2018","The main experiment item","yes","SternbergTask.osexp","/Users/abigailchristie/Desktop","no","mono","no","18","no","white","no","yes","768","legacy","43","11","/Users/abigailchristie/Desktop/2018/Faulkenberry/Lab2/AC-subject-1.csv","legacy","6 8 9 3 4 9","Kafkaesque Koffka","3.2.5","5","y","0","None","left","right","None","NA","2000","40086","10572","2000","NA","2","legacy","6","1024","2","48000","-16","experiment","1","odd","4","400749","397437","398522","2706","128331","398529","372041","2720","117757","402758","404759","399540","42815","402758","NA","Sternberg Task","45","53437","56","yes","1024"
"78.9473684211","78.9473684211","955.421052632","955.421052632","black","experiment","legacy","legacy","legacy","0","uniform","0","undefined","0","left","56","56","56","0","0","56","56","0","0","56","56","56","0","56","0","Wed Oct  3 11:26:37 2018","The main experiment item","yes","SternbergTask.osexp","/Users/abigailchristie/Desktop","no","mono","no","18","no","white","no","yes","768","legacy","44","11","/Users/abigailchristie/Desktop/2018/Faulkenberry/Lab2/AC-subject-1.csv","legacy","4 6 2 5 1","Kafkaesque Koffka","3.2.5","5","y","0","right","left","right","right","NA","1022","40086","10572","1022","NA","2","legacy","5","1024","2","48000","-16","experiment","1","odd","1","408084","397437","405854","2706","128331","405863","404772","2720","117757","410092","411116","406872","42815","410092","NA","Sternberg Task","45","54459","57","yes","1024"
"77.5862068966","77.5862068966","954.5","954.5","black","experiment","legacy","legacy","legacy","0","uniform","0","undefined","0","left","57","57","57","0","0","57","57","0","0","57","57","57","0","57","0","Wed Oct  3 11:26:37 2018","The main experiment item","yes","SternbergTask.osexp","/Users/abigailchristie/Desktop","no","mono","no","18","no","white","no","yes","768","legacy","45","11","/Users/abigailchristie/Desktop/2018/Faulkenberry/Lab2/AC-subject-1.csv","legacy","2 8 5 1","Kafkaesque Koffka","3.2.5","4","y","0","right","left","right","right","NA","902","40086","10572","902","NA","2","legacy","4","1024","2","48000","-16","experiment","1","odd","1","414436","397437","412212","2706","128331","412219","411128","2720","117757","416445","417350","413228","42815","416445","NA","Sternberg Task","45","55361","58","yes","1024"
"76.2711864407","76.2711864407","972.220338983","972.220338983","black","experiment","legacy","legacy","legacy","0","uniform","0","undefined","0","left","58","58","58","0","0","58","58","0","0","58","58","58","0","58","0","Wed Oct  3 11:26:37 2018","The main experiment item","yes","SternbergTask.osexp","/Users/abigailchristie/Desktop","no","mono","no","18","no","white","no","yes","768","legacy","46","11","/Users/abigailchristie/Desktop/2018/Faulkenberry/Lab2/AC-subject-1.csv","legacy","8 5 4 7 3 1","Kafkaesque Koffka","3.2.5","2","y","0","None","left","right","None","NA","2000","40086","10572","2000","NA","2","legacy","6","1024","2","48000","-16","experiment","1","odd","5","420676","397437","418449","2706","128331","418457","417360","2720","117757","422685","424685","419466","42815","422685","NA","Sternberg Task","45","57361","59","yes","1024"
"76.6666666667","76.6666666667","970.2","970.2","black","experiment","legacy","legacy","legacy","0","uniform","1","undefined","1","right","59","59","59","0","0","59","59","0","0","59","59","59","0","59","0","Wed Oct  3 11:26:37 2018","The main experiment item","yes","SternbergTask.osexp","/Users/abigailchristie/Desktop","no","mono","no","18","no","white","no","yes","768","legacy","47","11","/Users/abigailchristie/Desktop/2018/Faulkenberry/Lab2/AC-subject-1.csv","legacy","8 2 1 4 5 9","Kafkaesque Koffka","3.2.5","0","n","0","right","left","right","right","NA","851","40086","10572","851","NA","2","legacy","6","1024","2","48000","-16","experiment","1","odd","7","428009","397437","425782","2706","128331","425790","424699","2720","117757","430017","430870","426800","42815","430017","NA","Sternberg Task","46","58212","60","yes","1024"
"77.0491803279","77.0491803279","970.459016393","970.459016393","black","experiment","legacy","legacy","legacy","0","uniform","1","undefined","1","left","60","60","60","0","0","60","60","0","0","60","60","60","0","60","0","Wed Oct  3 11:26:37 2018","The main experiment item","yes","SternbergTask.osexp","/Users/abigailchristie/Desktop","no","mono","no","18","no","white","no","yes","768","legacy","48","11","/Users/abigailchristie/Desktop/2018/Faulkenberry/Lab2/AC-subject-1.csv","legacy","9 4 2","Kafkaesque Koffka","3.2.5","1","y","0","left","left","right","left","NA","986","40086","10572","986","NA","2","legacy","3","1024","2","48000","-16","experiment","1","odd","9","434189","430881","431962","2706","128331","431970","424699","2720","117757","436198","437185","432979","42815","436198","NA","Sternberg Task","47","59198","61","yes","1024"
"77.4193548387","77.4193548387","964.403225806","964.403225806","black","experiment","legacy","legacy","legacy","0","uniform","1","undefined","1","left","61","61","61","0","0","61","61","0","0","61","61","61","0","61","0","Wed Oct  3 11:26:37 2018","The main experiment item","yes","SternbergTask.osexp","/Users/abigailchristie/Desktop","no","mono","no","18","no","white","no","yes","768","legacy","49","11","/Users/abigailchristie/Desktop/2018/Faulkenberry/Lab2/AC-subject-1.csv","legacy","3 4","Kafkaesque Koffka","3.2.5","1","y","0","left","left","right","left","NA","595","40086","10572","595","NA","2","legacy","2","1024","2","48000","-16","experiment","1","odd","3","440504","437195","438275","2706","128331","438283","424699","2720","117757","442512","443109","439292","42815","442512","NA","Sternberg Task","48","59793","62","yes","1024"
"77.7777777778","77.7777777778","961.19047619","961.19047619","black","experiment","legacy","legacy","legacy","0","uniform","1","undefined","1","right","62","62","62","0","0","62","62","0","0","62","62","62","0","62","0","Wed Oct  3 11:26:37 2018","The main experiment item","yes","SternbergTask.osexp","/Users/abigailchristie/Desktop","no","mono","no","18","no","white","no","yes","768","legacy","50","11","/Users/abigailchristie/Desktop/2018/Faulkenberry/Lab2/AC-subject-1.csv","legacy","9 8 2 7 4","Kafkaesque Koffka","3.2.5","0","n","0","right","left","right","right","NA","762","40086","10572","762","NA","2","legacy","5","1024","2","48000","-16","experiment","1","odd","5","446433","443120","444204","2706","128331","444212","424699","2720","117757","448441","449205","445222","42815","448441","NA","Sternberg Task","49","60555","63","yes","1024"
"78.125","78.125","957.890625","957.890625","black","experiment","legacy","legacy","legacy","0","uniform","1","undefined","1","right","63","63","63","0","0","63","63","0","0","63","63","63","0","63","0","Wed Oct  3 11:26:37 2018","The main experiment item","yes","SternbergTask.osexp","/Users/abigailchristie/Desktop","no","mono","no","18","no","white","no","yes","768","legacy","51","11","/Users/abigailchristie/Desktop/2018/Faulkenberry/Lab2/AC-subject-1.csv","legacy","7 1 5 6 3","Kafkaesque Koffka","3.2.5","0","n","0","right","left","right","right","NA","750","40086","10572","750","NA","2","legacy","5","1024","2","48000","-16","experiment","1","odd","8","452528","449218","450300","2706","128331","450308","424699","2720","117757","454536","455289","451317","42815","454536","NA","Sternberg Task","50","61305","64","yes","1024"
"78.4615384615","78.4615384615","957.2","957.2","black","experiment","legacy","legacy","legacy","0","uniform","1","undefined","1","right","64","64","64","0","0","64","64","0","0","64","64","64","0","64","0","Wed Oct  3 11:26:37 2018","The main experiment item","yes","SternbergTask.osexp","/Users/abigailchristie/Desktop","no","mono","no","18","no","white","no","yes","768","legacy","52","11","/Users/abigailchristie/Desktop/2018/Faulkenberry/Lab2/AC-subject-1.csv","legacy","8 5 4 2 9 6","Kafkaesque Koffka","3.2.5","0","n","0","right","left","right","right","NA","913","40086","10572","913","NA","2","legacy","6","1024","2","48000","-16","experiment","1","odd","3","458610","455299","456382","2706","128331","456390","424699","2720","117757","460618","461533","457399","42815","460618","NA","Sternberg Task","51","62218","65","yes","1024"
"78.7878787879","78.7878787879","958.121212121","958.121212121","black","experiment","legacy","legacy","legacy","0","uniform","1","undefined","1","left","65","65","65","0","0","65","65","0","0","65","65","65","0","65","0","Wed Oct  3 11:26:37 2018","The main experiment item","yes","SternbergTask.osexp","/Users/abigailchristie/Desktop","no","mono","no","18","no","white","no","yes","768","legacy","53","11","/Users/abigailchristie/Desktop/2018/Faulkenberry/Lab2/AC-subject-1.csv","legacy","4 1 5","Kafkaesque Koffka","3.2.5","2","y","0","left","left","right","left","NA","1018","40086","10572","1018","NA","2","legacy","3","1024","2","48000","-16","experiment","1","odd","1","464853","461544","462627","2706","128331","462635","424699","2720","117757","466862","467882","463644","42815","466862","NA","Sternberg Task","52","63236","66","yes","1024"
"79.1044776119","79.1044776119","958.268656716","958.268656716","black","experiment","legacy","legacy","legacy","0","uniform","1","undefined","1","right","66","66","66","0","0","66","66","0","0","66","66","66","0","66","0","Wed Oct  3 11:26:37 2018","The main experiment item","yes","SternbergTask.osexp","/Users/abigailchristie/Desktop","no","mono","no","18","no","white","no","yes","768","legacy","54","11","/Users/abigailchristie/Desktop/2018/Faulkenberry/Lab2/AC-subject-1.csv","legacy","2 8 9 4 1","Kafkaesque Koffka","3.2.5","0","n","0","right","left","right","right","NA","968","40086","10572","968","NA","2","legacy","5","1024","2","48000","-16","experiment","1","odd","5","471206","467894","468978","2706","128331","468986","424699","2720","117757","473215","474186","469995","42815","473215","NA","Sternberg Task","53","64204","67","yes","1024"
"77.9411764706","77.9411764706","964.75","964.75","black","experiment","legacy","legacy","legacy","0","uniform","0","undefined","0","left","67","67","67","0","0","67","67","0","0","67","67","67","0","67","0","Wed Oct  3 11:26:37 2018","The main experiment item","yes","SternbergTask.osexp","/Users/abigailchristie/Desktop","no","mono","no","18","no","white","no","yes","768","legacy","55","11","/Users/abigailchristie/Desktop/2018/Faulkenberry/Lab2/AC-subject-1.csv","legacy","8 9 5 7 1 6","Kafkaesque Koffka","3.2.5","4","y","0","right","left","right","right","NA","1399","40086","10572","1399","NA","2","legacy","6","1024","2","48000","-16","experiment","1","odd","7","477508","474197","475280","2706","128331","475288","424699","2720","117757","479517","480919","476297","42815","479517","NA","Sternberg Task","53","65603","68","yes","1024"
"76.8115942029","76.8115942029","967.956521739","967.956521739","black","experiment","legacy","legacy","legacy","0","uniform","0","undefined","0","right","68","68","68","0","0","68","68","0","0","68","68","68","0","68","0","Wed Oct  3 11:26:37 2018","The main experiment item","yes","SternbergTask.osexp","/Users/abigailchristie/Desktop","no","mono","no","18","no","white","no","yes","768","legacy","56","11","/Users/abigailchristie/Desktop/2018/Faulkenberry/Lab2/AC-subject-1.csv","legacy","8 6 3 4 7","Kafkaesque Koffka","3.2.5","0","n","0","left","left","right","left","NA","1186","40086","10572","1186","NA","2","legacy","5","1024","2","48000","-16","experiment","1","odd","1","484239","474197","482012","2706","128331","482021","480931","2720","117757","486247","487435","483029","42815","486247","NA","Sternberg Task","53","66789","69","yes","1024"
"75.7142857143","75.7142857143","964.171428571","964.171428571","black","experiment","legacy","legacy","legacy","0","uniform","0","undefined","0","left","69","69","69","0","0","69","69","0","0","69","69","69","0","69","0","Wed Oct  3 11:26:37 2018","The main experiment item","yes","SternbergTask.osexp","/Users/abigailchristie/Desktop","no","mono","no","18","no","white","no","yes","768","legacy","57","11","/Users/abigailchristie/Desktop/2018/Faulkenberry/Lab2/AC-subject-1.csv","legacy","8 3","Kafkaesque Koffka","3.2.5","2","y","0","right","left","right","right","NA","703","40086","10572","703","NA","2","legacy","2","1024","2","48000","-16","experiment","1","odd","3","490759","474197","488532","2706","128331","488540","487445","2720","117757","492768","493474","489548","42815","492767","NA","Sternberg Task","53","67492","70","yes","1024"
"76.0563380282","76.0563380282","969.014084507","969.014084507","black","experiment","legacy","legacy","legacy","0","uniform","1","undefined","1","right","70","70","70","0","0","70","70","0","0","70","70","70","0","70","0","Wed Oct  3 11:26:37 2018","The main experiment item","yes","SternbergTask.osexp","/Users/abigailchristie/Desktop","no","mono","no","18","no","white","no","yes","768","legacy","58","11","/Users/abigailchristie/Desktop/2018/Faulkenberry/Lab2/AC-subject-1.csv","legacy","9","Kafkaesque Koffka","3.2.5","0","n","0","right","left","right","right","NA","1308","40086","10572","1308","NA","2","legacy","1","1024","2","48000","-16","experiment","1","odd","6","496793","474197","494567","2706","128331","494574","493486","2720","117757","498803","500114","495584","42815","498803","NA","Sternberg Task","54","68800","71","yes","1024"
"75","75","972.513888889","972.513888889","black","experiment","legacy","legacy","legacy","0","uniform","0","undefined","0","left","71","71","71","0","0","71","71","0","0","71","71","71","0","71","0","Wed Oct  3 11:26:37 2018","The main experiment item","yes","SternbergTask.osexp","/Users/abigailchristie/Desktop","no","mono","no","18","no","white","no","yes","768","legacy","59","11","/Users/abigailchristie/Desktop/2018/Faulkenberry/Lab2/AC-subject-1.csv","legacy","5 2 6","Kafkaesque Koffka","3.2.5","2","y","0","right","left","right","right","NA","1221","40086","10572","1221","NA","2","legacy","3","1024","2","48000","-16","experiment","1","odd","2","503438","500124","501211","2706","128331","501219","493486","2720","117757","505447","506671","502227","42815","505447","NA","Sternberg Task","54","70021","72","yes","1024"
"75.3424657534","75.3424657534","975.98630137","975.98630137","black","experiment","legacy","legacy","legacy","0","uniform","1","undefined","1","right","72","72","72","0","0","72","72","0","0","72","72","72","0","72","0","Wed Oct  3 11:26:37 2018","The main experiment item","yes","SternbergTask.osexp","/Users/abigailchristie/Desktop","no","mono","no","18","no","white","no","yes","768","legacy","60","11","/Users/abigailchristie/Desktop/2018/Faulkenberry/Lab2/AC-subject-1.csv","legacy","7 1","Kafkaesque Koffka","3.2.5","0","n","0","right","left","right","right","NA","1226","40086","10572","1226","NA","2","legacy","2","1024","2","48000","-16","experiment","1","odd","8","509991","500124","507764","2706","128331","507772","506682","2720","117757","511999","513228","508781","42815","511999","NA","Sternberg Task","55","71247","73","yes","1024"
"75.6756756757","75.6756756757","979.364864865","979.364864865","black","experiment","legacy","legacy","legacy","0","uniform","1","undefined","1","right","73","73","73","0","0","73","73","0","0","73","73","73","0","73","0","Wed Oct  3 11:26:37 2018","The main experiment item","yes","SternbergTask.osexp","/Users/abigailchristie/Desktop","no","mono","no","18","no","white","no","yes","768","legacy","61","11","/Users/abigailchristie/Desktop/2018/Faulkenberry/Lab2/AC-subject-1.csv","legacy","6 3 1 7 9 8","Kafkaesque Koffka","3.2.5","0","n","0","right","left","right","right","NA","1226","40086","10572","1226","NA","2","legacy","6","1024","2","48000","-16","experiment","1","odd","4","516552","513241","514323","2706","128331","514331","506682","2720","117757","518561","519789","515340","42815","518560","NA","Sternberg Task","56","72473","74","yes","1024"
"76","76","982.453333333","982.453333333","black","experiment","legacy","legacy","legacy","0","uniform","1","undefined","1","right","74","74","74","0","0","74","74","0","0","74","74","74","0","74","0","Wed Oct  3 11:26:37 2018","The main experiment item","yes","SternbergTask.osexp","/Users/abigailchristie/Desktop","no","mono","no","18","no","white","no","yes","768","legacy","62","11","/Users/abigailchristie/Desktop/2018/Faulkenberry/Lab2/AC-subject-1.csv","legacy","7 8 6 1","Kafkaesque Koffka","3.2.5","0","n","0","right","left","right","right","NA","1211","40086","10572","1211","NA","2","legacy","4","1024","2","48000","-16","experiment","1","odd","3","523113","519802","520883","2706","128331","520892","506682","2720","117757","525122","526335","521902","42815","525122","NA","Sternberg Task","57","73684","75","yes","1024"
"75","75","978.328947368","978.328947368","black","experiment","legacy","legacy","legacy","0","uniform","0","undefined","0","left","75","75","75","0","0","75","75","0","0","75","75","75","0","75","0","Wed Oct  3 11:26:37 2018","The main experiment item","yes","SternbergTask.osexp","/Users/abigailchristie/Desktop","no","mono","no","18","no","white","no","yes","768","legacy","63","11","/Users/abigailchristie/Desktop/2018/Faulkenberry/Lab2/AC-subject-1.csv","legacy","5 7 3 6 2","Kafkaesque Koffka","3.2.5","5","y","0","right","left","right","right","NA","669","40086","10572","669","NA","2","legacy","5","1024","2","48000","-16","experiment","1","odd","2","529663","526346","527433","2706","128331","527441","506682","2720","117757","531671","532342","528452","42815","531671","NA","Sternberg Task","57","74353","76","yes","1024"
"74.025974026","74.025974026","976.376623377","976.376623377","black","experiment","legacy","legacy","legacy","0","uniform","0","undefined","0","left","76","76","76","0","0","76","76","0","0","76","76","76","0","76","0","Wed Oct  3 11:26:37 2018","The main experiment item","yes","SternbergTask.osexp","/Users/abigailchristie/Desktop","no","mono","no","18","no","white","no","yes","768","legacy","64","11","/Users/abigailchristie/Desktop/2018/Faulkenberry/Lab2/AC-subject-1.csv","legacy","6 7 8 5","Kafkaesque Koffka","3.2.5","3","y","0","right","left","right","right","NA","828","40086","10572","828","NA","2","legacy","4","1024","2","48000","-16","experiment","1","odd","8","535666","526346","533437","2706","128331","533446","532354","2720","117757","537674","538505","534455","42815","537674","NA","Sternberg Task","57","75181","77","yes","1024"
"74.358974359","74.358974359","976.692307692","976.692307692","black","experiment","legacy","legacy","legacy","0","uniform","1","undefined","1","left","77","77","77","0","0","77","77","0","0","77","77","77","0","77","0","Wed Oct  3 11:26:37 2018","The main experiment item","yes","SternbergTask.osexp","/Users/abigailchristie/Desktop","no","mono","no","18","no","white","no","yes","768","legacy","65","11","/Users/abigailchristie/Desktop/2018/Faulkenberry/Lab2/AC-subject-1.csv","legacy","9 3 1 2 5","Kafkaesque Koffka","3.2.5","4","y","0","left","left","right","left","NA","1001","40086","10572","1001","NA","2","legacy","5","1024","2","48000","-16","experiment","1","odd","2","541827","526346","539600","2706","128331","539608","538515","2720","117757","543835","544839","540617","42815","543835","NA","Sternberg Task","58","76182","78","yes","1024"
"74.6835443038","74.6835443038","981.683544304","981.683544304","black","experiment","legacy","legacy","legacy","0","uniform","1","undefined","1","right","78","78","78","0","0","78","78","0","0","78","78","78","0","78","0","Wed Oct  3 11:26:37 2018","The main experiment item","yes","SternbergTask.osexp","/Users/abigailchristie/Desktop","no","mono","no","18","no","white","no","yes","768","legacy","66","11","/Users/abigailchristie/Desktop/2018/Faulkenberry/Lab2/AC-subject-1.csv","legacy","6 9 5","Kafkaesque Koffka","3.2.5","0","n","0","right","left","right","right","NA","1371","40086","10572","1371","NA","2","legacy","3","1024","2","48000","-16","experiment","1","odd","8","548163","544851","545934","2706","128331","545942","538515","2720","117757","550172","551545","546952","42815","550172","NA","Sternberg Task","59","77553","79","yes","1024"
"75","75","981.8","981.8","black","experiment","legacy","legacy","legacy","0","uniform","1","undefined","1","left","79","79","79","0","0","79","79","0","0","79","79","79","0","79","0","Wed Oct  3 11:26:37 2018","The main experiment item","yes","SternbergTask.osexp","/Users/abigailchristie/Desktop","no","mono","no","18","no","white","no","yes","768","legacy","67","11","/Users/abigailchristie/Desktop/2018/Faulkenberry/Lab2/AC-subject-1.csv","legacy","6 7 9 3 1 2","Kafkaesque Koffka","3.2.5","1","y","0","left","left","right","left","NA","991","40086","10572","991","NA","2","legacy","6","1024","2","48000","-16","experiment","1","odd","6","554870","551558","552641","2706","128331","552650","538515","2720","117757","556879","557872","553659","42815","556878","NA","Sternberg Task","60","78544","80","yes","1024"
"74.0740740741","74.0740740741","978.555555556","978.555555556","black","experiment","legacy","legacy","legacy","0","uniform","0","undefined","0","left","80","80","80","0","0","80","80","0","0","80","80","80","0","80","0","Wed Oct  3 11:26:37 2018","The main experiment item","yes","SternbergTask.osexp","/Users/abigailchristie/Desktop","no","mono","no","18","no","white","no","yes","768","legacy","68","11","/Users/abigailchristie/Desktop/2018/Faulkenberry/Lab2/AC-subject-1.csv","legacy","8 9 6 1","Kafkaesque Koffka","3.2.5","2","y","0","right","left","right","right","NA","719","40086","10572","719","NA","2","legacy","4","1024","2","48000","-16","experiment","1","odd","9","561198","557884","558970","2706","128331","558978","538515","2720","117757","563206","563927","559987","42815","563206","NA","Sternberg Task","60","79263","81","yes","1024"
"74.3902439024","74.3902439024","974.463414634","974.463414634","black","experiment","legacy","legacy","legacy","0","uniform","1","undefined","1","left","81","81","81","0","0","81","81","0","0","81","81","81","0","81","0","Wed Oct  3 11:26:37 2018","The main experiment item","yes","SternbergTask.osexp","/Users/abigailchristie/Desktop","no","mono","no","18","no","white","no","yes","768","legacy","69","11","/Users/abigailchristie/Desktop/2018/Faulkenberry/Lab2/AC-subject-1.csv","legacy","8 7 3","Kafkaesque Koffka","3.2.5","1","y","0","left","left","right","left","NA","643","40086","10572","643","NA","2","legacy","3","1024","2","48000","-16","experiment","1","odd","8","567247","557884","565021","2706","128331","565029","563939","2720","117757","569256","569902","566037","42815","569256","NA","Sternberg Task","61","79906","82","yes","1024"
"74.6987951807","74.6987951807","975.951807229","975.951807229","black","experiment","legacy","legacy","legacy","0","uniform","1","undefined","1","right","82","82","82","0","0","82","82","0","0","82","82","82","0","82","0","Wed Oct  3 11:26:37 2018","The main experiment item","yes","SternbergTask.osexp","/Users/abigailchristie/Desktop","no","mono","no","18","no","white","no","yes","768","legacy","70","11","/Users/abigailchristie/Desktop/2018/Faulkenberry/Lab2/AC-subject-1.csv","legacy","3 9 8 1 6 4","Kafkaesque Koffka","3.2.5","0","n","0","right","left","right","right","NA","1098","40086","10572","1098","NA","2","legacy","6","1024","2","48000","-16","experiment","1","odd","7","573221","569913","570995","2706","128331","571002","563939","2720","117757","575231","576332","572011","42815","575231","NA","Sternberg Task","62","81004","83","yes","1024"
"75","75","973.25","973.25","black","experiment","legacy","legacy","legacy","0","uniform","1","undefined","1","right","83","83","83","0","0","83","83","0","0","83","83","83","0","83","0","Wed Oct  3 11:26:37 2018","The main experiment item","yes","SternbergTask.osexp","/Users/abigailchristie/Desktop","no","mono","no","18","no","white","no","yes","768","legacy","71","11","/Users/abigailchristie/Desktop/2018/Faulkenberry/Lab2/AC-subject-1.csv","legacy","9 7 4 5 8","Kafkaesque Koffka","3.2.5","0","n","0","right","left","right","right","NA","749","40086","10572","749","NA","2","legacy","5","1024","2","48000","-16","experiment","1","odd","6","579659","576344","577429","2706","128331","577437","563939","2720","117757","581667","582418","578448","42815","581667","NA","Sternberg Task","63","81753","84","yes","1024"
"74.1176470588","74.1176470588","975.941176471","975.941176471","black","experiment","legacy","legacy","legacy","0","uniform","0","undefined","0","left","84","84","84","0","0","84","84","0","0","84","84","84","0","84","0","Wed Oct  3 11:26:37 2018","The main experiment item","yes","SternbergTask.osexp","/Users/abigailchristie/Desktop","no","mono","no","18","no","white","no","yes","768","legacy","72","11","/Users/abigailchristie/Desktop/2018/Faulkenberry/Lab2/AC-subject-1.csv","legacy","6 9 3 1","Kafkaesque Koffka","3.2.5","4","y","0","right","left","right","right","NA","1202","40086","10572","1202","NA","2","legacy","4","1024","2","48000","-16","experiment","1","odd","1","585742","582430","583516","2706","128331","583524","563939","2720","117757","587751","588956","584533","42815","587751","NA","Sternberg Task","63","82955","85","yes","1024"
"74.4186046512","74.4186046512","985.488372093","985.488372093","black","experiment","legacy","legacy","legacy","0","uniform","1","undefined","1","left","85","85","85","0","0","85","85","0","0","85","85","85","0","85","0","Wed Oct  3 11:26:37 2018","The main experiment item","yes","SternbergTask.osexp","/Users/abigailchristie/Desktop","no","mono","no","18","no","white","no","yes","768","legacy","73","11","/Users/abigailchristie/Desktop/2018/Faulkenberry/Lab2/AC-subject-1.csv","legacy","2 5 4 8 7","Kafkaesque Koffka","3.2.5","3","y","0","left","left","right","left","NA","1797","40086","10572","1797","NA","2","legacy","5","1024","2","48000","-16","experiment","1","odd","4","592280","582430","590051","2706","128331","590060","588967","2720","117757","594289","596089","591069","42815","594289","NA","Sternberg Task","64","84752","86","yes","1024"
"74.7126436782","74.7126436782","987.597701149","987.597701149","black","experiment","legacy","legacy","legacy","0","uniform","1","undefined","1","left","86","86","86","0","0","86","86","0","0","86","86","86","0","86","0","Wed Oct  3 11:26:37 2018","The main experiment item","yes","SternbergTask.osexp","/Users/abigailchristie/Desktop","no","mono","no","18","no","white","no","yes","768","legacy","74","11","/Users/abigailchristie/Desktop/2018/Faulkenberry/Lab2/AC-subject-1.csv","legacy","5 7 8 2 3 8","Kafkaesque Koffka","3.2.5","5","y","0","left","left","right","left","NA","1169","40086","10572","1169","NA","2","legacy","6","1024","2","48000","-16","experiment","1","odd","3","599414","596100","597185","2706","128331","597193","588967","2720","117757","601423","602596","598203","42815","601423","NA","Sternberg Task","65","85921","87","yes","1024"
"75","75","990.045454545","990.045454545","black","experiment","legacy","legacy","legacy","0","uniform","1","undefined","1","left","87","87","87","0","0","87","87","0","0","87","87","87","0","87","0","Wed Oct  3 11:26:37 2018","The main experiment item","yes","SternbergTask.osexp","/Users/abigailchristie/Desktop","no","mono","no","18","no","white","no","yes","768","legacy","75","11","/Users/abigailchristie/Desktop/2018/Faulkenberry/Lab2/AC-subject-1.csv","legacy","8 5 3 7 4 6","Kafkaesque Koffka","3.2.5","6","y","0","left","left","right","left","NA","1203","40086","10572","1203","NA","2","legacy","6","1024","2","48000","-16","experiment","1","odd","6","605918","602608","603690","2706","128331","603698","588967","2720","117757","607926","609132","604707","42815","607926","NA","Sternberg Task","66","87124","88","yes","1024"
"75.2808988764","75.2808988764","986.415730337","986.415730337","black","experiment","legacy","legacy","legacy","0","uniform","1","undefined","1","left","88","88","88","0","0","88","88","0","0","88","88","88","0","88","0","Wed Oct  3 11:26:37 2018","The main experiment item","yes","SternbergTask.osexp","/Users/abigailchristie/Desktop","no","mono","no","18","no","white","no","yes","768","legacy","76","11","/Users/abigailchristie/Desktop/2018/Faulkenberry/Lab2/AC-subject-1.csv","legacy","4 7 6 8 2 3","Kafkaesque Koffka","3.2.5","6","y","0","left","left","right","left","NA","667","40086","10572","667","NA","2","legacy","6","1024","2","48000","-16","experiment","1","odd","3","612454","609144","610225","2706","128331","610234","588967","2720","117757","614462","615132","611243","42815","614462","NA","Sternberg Task","67","87791","89","yes","1024"
"75.5555555556","75.5555555556","985.122222222","985.122222222","black","experiment","legacy","legacy","legacy","0","uniform","1","undefined","1","right","89","89","89","0","0","89","89","0","0","89","89","89","0","89","0","Wed Oct  3 11:26:37 2018","The main experiment item","yes","SternbergTask.osexp","/Users/abigailchristie/Desktop","no","mono","no","18","no","white","no","yes","768","legacy","77","11","/Users/abigailchristie/Desktop/2018/Faulkenberry/Lab2/AC-subject-1.csv","legacy","5 7 3","Kafkaesque Koffka","3.2.5","0","n","0","right","left","right","right","NA","870","40086","10572","870","NA","2","legacy","3","1024","2","48000","-16","experiment","1","odd","9","618454","615143","616225","2706","128331","616233","588967","2720","117757","620462","621335","617242","42815","620462","NA","Sternberg Task","68","88661","90","yes","1024"
"75.8241758242","75.8241758242","982.901098901","982.901098901","black","experiment","legacy","legacy","legacy","0","uniform","1","undefined","1","right","90","90","90","0","0","90","90","0","0","90","90","90","0","90","0","Wed Oct  3 11:26:37 2018","The main experiment item","yes","SternbergTask.osexp","/Users/abigailchristie/Desktop","no","mono","no","18","no","white","no","yes","768","legacy","78","11","/Users/abigailchristie/Desktop/2018/Faulkenberry/Lab2/AC-subject-1.csv","legacy","7 9 1 6","Kafkaesque Koffka","3.2.5","0","n","0","right","left","right","right","NA","783","40086","10572","783","NA","2","legacy","4","1024","2","48000","-16","experiment","1","odd","4","624656","621347","622430","2706","128331","622438","588967","2720","117757","626665","627451","623447","42815","626665","NA","Sternberg Task","69","89444","91","yes","1024"
"76.0869565217","76.0869565217","981.510869565","981.510869565","black","experiment","legacy","legacy","legacy","0","uniform","1","undefined","1","right","91","91","91","0","0","91","91","0","0","91","91","91","0","91","0","Wed Oct  3 11:26:37 2018","The main experiment item","yes","SternbergTask.osexp","/Users/abigailchristie/Desktop","no","mono","no","18","no","white","no","yes","768","legacy","79","11","/Users/abigailchristie/Desktop/2018/Faulkenberry/Lab2/AC-subject-1.csv","legacy","1 7 5 2","Kafkaesque Koffka","3.2.5","0","n","0","right","left","right","right","NA","855","40086","10572","855","NA","2","legacy","4","1024","2","48000","-16","experiment","1","odd","3","630773","627462","628545","2706","128331","628553","588967","2720","117757","632782","633640","629562","42815","632782","NA","Sternberg Task","70","90299","92","yes","1024"
"76.3440860215","76.3440860215","978.946236559","978.946236559","black","experiment","legacy","legacy","legacy","0","uniform","1","undefined","1","left","92","92","92","0","0","92","92","0","0","92","92","92","0","92","0","Wed Oct  3 11:26:37 2018","The main experiment item","yes","SternbergTask.osexp","/Users/abigailchristie/Desktop","no","mono","no","18","no","white","no","yes","768","legacy","80","11","/Users/abigailchristie/Desktop/2018/Faulkenberry/Lab2/AC-subject-1.csv","legacy","7","Kafkaesque Koffka","3.2.5","1","y","0","left","left","right","left","NA","743","40086","10572","743","NA","2","legacy","1","1024","2","48000","-16","experiment","1","odd","7","636962","633652","634735","2706","128331","634743","588967","2720","117757","638972","639717","635752","42815","638972","NA","Sternberg Task","71","91042","93","yes","1024"
"76.5957446809","76.5957446809","972.5","972.5","black","experiment","legacy","legacy","legacy","0","uniform","1","undefined","1","right","93","93","93","0","0","93","93","0","0","93","93","93","0","93","0","Wed Oct  3 11:26:37 2018","The main experiment item","yes","SternbergTask.osexp","/Users/abigailchristie/Desktop","no","mono","no","18","no","white","no","yes","768","legacy","81","11","/Users/abigailchristie/Desktop/2018/Faulkenberry/Lab2/AC-subject-1.csv","legacy","7 9","Kafkaesque Koffka","3.2.5","0","n","0","right","left","right","right","NA","373","40086","10572","373","NA","2","legacy","2","1024","2","48000","-16","experiment","1","odd","1","643037","639729","640810","2706","128331","640818","588967","2720","117757","645046","645422","641827","42815","645045","NA","Sternberg Task","72","91415","94","yes","1024"
"76.8421052632","76.8421052632","969.136842105","969.136842105","black","experiment","legacy","legacy","legacy","0","uniform","1","undefined","1","right","94","94","94","0","0","94","94","0","0","94","94","94","0","94","0","Wed Oct  3 11:26:37 2018","The main experiment item","yes","SternbergTask.osexp","/Users/abigailchristie/Desktop","no","mono","no","18","no","white","no","yes","768","legacy","82","11","/Users/abigailchristie/Desktop/2018/Faulkenberry/Lab2/AC-subject-1.csv","legacy","2 5 1 4","Kafkaesque Koffka","3.2.5","0","n","0","right","left","right","right","NA","653","40086","10572","653","NA","2","legacy","4","1024","2","48000","-16","experiment","1","odd","6","648745","645434","646517","2706","128331","646525","588967","2720","117757","650753","651409","647534","42815","650753","NA","Sternberg Task","73","92068","95","yes","1024"
"76.0416666667","76.0416666667","975.604166667","975.604166667","black","experiment","legacy","legacy","legacy","0","uniform","0","undefined","0","left","95","95","95","0","0","95","95","0","0","95","95","95","0","95","0","Wed Oct  3 11:26:37 2018","The main experiment item","yes","SternbergTask.osexp","/Users/abigailchristie/Desktop","no","mono","no","18","no","white","no","yes","768","legacy","83","11","/Users/abigailchristie/Desktop/2018/Faulkenberry/Lab2/AC-subject-1.csv","legacy","7 1 8 5 6 2","Kafkaesque Koffka","3.2.5","2","y","0","right","left","right","right","NA","1590","40086","10572","1590","NA","2","legacy","6","1024","2","48000","-16","experiment","1","odd","1","654732","651422","652507","2706","128331","652515","588967","2720","117757","656741","658333","653524","42815","656741","NA","Sternberg Task","73","93658","96","yes","1024"
"76.2886597938","76.2886597938","973.463917526","973.463917526","black","experiment","legacy","legacy","legacy","0","uniform","1","undefined","1","right","96","96","96","0","0","96","96","0","0","96","96","96","0","96","0","Wed Oct  3 11:26:37 2018","The main experiment item","yes","SternbergTask.osexp","/Users/abigailchristie/Desktop","no","mono","no","18","no","white","no","yes","768","legacy","84","11","/Users/abigailchristie/Desktop/2018/Faulkenberry/Lab2/AC-subject-1.csv","legacy","7 3 2 8","Kafkaesque Koffka","3.2.5","0","n","0","right","left","right","right","NA","768","40086","10572","768","NA","2","legacy","4","1024","2","48000","-16","experiment","1","odd","4","661656","651422","659427","2706","128331","659435","658345","2720","117757","663665","664436","660446","42815","663665","NA","Sternberg Task","74","94426","97","yes","1024"
"76.5306122449","76.5306122449","978.43877551","978.43877551","black","experiment","legacy","legacy","legacy","0","uniform","1","undefined","1","right","97","97","97","0","0","97","97","0","0","97","97","97","0","97","0","Wed Oct  3 11:26:37 2018","The main experiment item","yes","SternbergTask.osexp","/Users/abigailchristie/Desktop","no","mono","no","18","no","white","no","yes","768","legacy","85","11","/Users/abigailchristie/Desktop/2018/Faulkenberry/Lab2/AC-subject-1.csv","legacy","1 4 3 6 5","Kafkaesque Koffka","3.2.5","0","n","0","right","left","right","right","NA","1461","40086","10572","1461","NA","2","legacy","5","1024","2","48000","-16","experiment","1","odd","8","667758","664448","665530","2706","128331","665538","658345","2720","117757","669767","671230","666547","42815","669766","NA","Sternberg Task","75","95887","98","yes","1024"
"76.7676767677","76.7676767677","980.303030303","980.303030303","black","experiment","legacy","legacy","legacy","0","uniform","1","undefined","1","left","98","98","98","0","0","98","98","0","0","98","98","98","0","98","0","Wed Oct  3 11:26:37 2018","The main experiment item","yes","SternbergTask.osexp","/Users/abigailchristie/Desktop","no","mono","no","18","no","white","no","yes","768","legacy","86","11","/Users/abigailchristie/Desktop/2018/Faulkenberry/Lab2/AC-subject-1.csv","legacy","3 2 1 4 7","Kafkaesque Koffka","3.2.5","2","y","0","left","left","right","left","NA","1163","40086","10572","1163","NA","2","legacy","5","1024","2","48000","-16","experiment","1","odd","2","674553","671242","672324","2706","128331","672332","658345","2720","117757","676562","677728","673341","42815","676561","NA","Sternberg Task","76","97050","99","yes","1024"
"77","77","981.58","981.58","black","experiment","legacy","legacy","legacy","0","uniform","1","undefined","1","right","99","99","99","0","0","99","99","0","0","99","99","99","0","99","0","Wed Oct  3 11:26:37 2018","The main experiment item","yes","SternbergTask.osexp","/Users/abigailchristie/Desktop","no","mono","no","18","no","white","no","yes","768","legacy","87","11","/Users/abigailchristie/Desktop/2018/Faulkenberry/Lab2/AC-subject-1.csv","legacy","8 9","Kafkaesque Koffka","3.2.5","0","n","0","right","left","right","right","NA","1108","40086","10572","1108","NA","2","legacy","2","1024","2","48000","-16","experiment","1","odd","5","681049","677740","678823","2706","128331","678831","658345","2720","117757","683058","684168","679839","42815","683058","NA","Sternberg Task","77","98158","100","yes","1024"
"77.2277227723","77.2277227723","979.01980198","979.01980198","black","experiment","legacy","legacy","legacy","0","uniform","1","undefined","1","left","100","100","100","0","0","100","100","0","0","100","100","100","0","100","0","Wed Oct  3 11:26:37 2018","The main experiment item","yes","SternbergTask.osexp","/Users/abigailchristie/Desktop","no","mono","no","18","no","white","no","yes","768","legacy","88","11","/Users/abigailchristie/Desktop/2018/Faulkenberry/Lab2/AC-subject-1.csv","legacy","2 4 6 9","Kafkaesque Koffka","3.2.5","3","y","0","left","left","right","left","NA","723","40086","10572","723","NA","2","legacy","4","1024","2","48000","-16","experiment","1","odd","6","687492","684180","685263","2706","128331","685271","658345","2720","117757","689501","690227","686280","42815","689500","NA","Sternberg Task","78","98881","101","yes","1024"
"77.4509803922","77.4509803922","975.382352941","975.382352941","black","experiment","legacy","legacy","legacy","0","uniform","1","undefined","1","left","101","101","101","0","0","101","101","0","0","101","101","101","0","101","0","Wed Oct  3 11:26:37 2018","The main experiment item","yes","SternbergTask.osexp","/Users/abigailchristie/Desktop","no","mono","no","18","no","white","no","yes","768","legacy","89","11","/Users/abigailchristie/Desktop/2018/Faulkenberry/Lab2/AC-subject-1.csv","legacy","2 4 8 5 1 3","Kafkaesque Koffka","3.2.5","1","y","0","left","left","right","left","NA","608","40086","10572","608","NA","2","legacy","6","1024","2","48000","-16","experiment","1","odd","2","693555","690240","691326","2706","128331","691334","658345","2720","117757","695563","696173","692343","42815","695563","NA","Sternberg Task","79","99489","102","yes","1024"
"77.6699029126","77.6699029126","975.883495146","975.883495146","black","experiment","legacy","legacy","legacy","0","uniform","1","undefined","1","left","102","102","102","0","0","102","102","0","0","102","102","102","0","102","0","Wed Oct  3 11:26:37 2018","The main experiment item","yes","SternbergTask.osexp","/Users/abigailchristie/Desktop","no","mono","no","18","no","white","no","yes","768","legacy","90","11","/Users/abigailchristie/Desktop/2018/Faulkenberry/Lab2/AC-subject-1.csv","legacy","8 5 1 3 9","Kafkaesque Koffka","3.2.5","4","y","0","left","left","right","left","NA","1027","40086","10572","1027","NA","2","legacy","5","1024","2","48000","-16","experiment","1","odd","3","699499","696187","697270","2706","128331","697278","658345","2720","117757","701507","702537","698287","42815","701507","NA","Sternberg Task","80","100516","103","yes","1024"
"77.8846153846","77.8846153846","972.692307692","972.692307692","black","experiment","legacy","legacy","legacy","0","uniform","1","undefined","1","right","103","103","103","0","0","103","103","0","0","103","103","103","0","103","0","Wed Oct  3 11:26:37 2018","The main experiment item","yes","SternbergTask.osexp","/Users/abigailchristie/Desktop","no","mono","no","18","no","white","no","yes","768","legacy","91","11","/Users/abigailchristie/Desktop/2018/Faulkenberry/Lab2/AC-subject-1.csv","legacy","1 8 7","Kafkaesque Koffka","3.2.5","0","n","0","right","left","right","right","NA","644","40086","10572","644","NA","2","legacy","3","1024","2","48000","-16","experiment","1","odd","4","705858","702549","703633","2706","128331","703641","658345","2720","117757","707868","708516","704649","42815","707868","NA","Sternberg Task","81","101160","104","yes","1024"
"78.0952380952","78.0952380952","971.142857143","971.142857143","black","experiment","legacy","legacy","legacy","0","uniform","1","undefined","1","right","104","104","104","0","0","104","104","0","0","104","104","104","0","104","0","Wed Oct  3 11:26:37 2018","The main experiment item","yes","SternbergTask.osexp","/Users/abigailchristie/Desktop","no","mono","no","18","no","white","no","yes","768","legacy","92","11","/Users/abigailchristie/Desktop/2018/Faulkenberry/Lab2/AC-subject-1.csv","legacy","1 6 4","Kafkaesque Koffka","3.2.5","0","n","0","right","left","right","right","NA","810","40086","10572","810","NA","2","legacy","3","1024","2","48000","-16","experiment","1","odd","7","711837","708528","709608","2706","128331","709617","658345","2720","117757","713845","714658","710626","42815","713845","NA","Sternberg Task","82","101970","105","yes","1024"
"77.358490566","77.358490566","970.877358491","970.877358491","black","experiment","legacy","legacy","legacy","0","uniform","0","undefined","0","left","105","105","105","0","0","105","105","0","0","105","105","105","0","105","0","Wed Oct  3 11:26:37 2018","The main experiment item","yes","SternbergTask.osexp","/Users/abigailchristie/Desktop","no","mono","no","18","no","white","no","yes","768","legacy","93","11","/Users/abigailchristie/Desktop/2018/Faulkenberry/Lab2/AC-subject-1.csv","legacy","6 9 7 4 5 1","Kafkaesque Koffka","3.2.5","2","y","0","right","left","right","right","NA","943","40086","10572","943","NA","2","legacy","6","1024","2","48000","-16","experiment","1","odd","9","717979","714668","715751","2706","128331","715759","658345","2720","117757","719988","720934","716768","42815","719988","NA","Sternberg Task","82","102913","106","yes","1024"
"77.5700934579","77.5700934579","968.775700935","968.775700935","black","experiment","legacy","legacy","legacy","0","uniform","1","undefined","1","right","106","106","106","0","0","106","106","0","0","106","106","106","0","106","0","Wed Oct  3 11:26:37 2018","The main experiment item","yes","SternbergTask.osexp","/Users/abigailchristie/Desktop","no","mono","no","18","no","white","no","yes","768","legacy","94","11","/Users/abigailchristie/Desktop/2018/Faulkenberry/Lab2/AC-subject-1.csv","legacy","2 8 7 9 5 3","Kafkaesque Koffka","3.2.5","0","n","0","right","left","right","right","NA","746","40086","10572","746","NA","2","legacy","6","1024","2","48000","-16","experiment","1","odd","6","724251","714668","722024","2706","128331","722033","720943","2720","117757","726259","727008","723042","42815","726258","NA","Sternberg Task","83","103659","107","yes","1024"
"77.7777777778","77.7777777778","965.009259259","965.009259259","black","experiment","legacy","legacy","legacy","0","uniform","1","undefined","1","left","107","107","107","0","0","107","107","0","0","107","107","107","0","107","0","Wed Oct  3 11:26:37 2018","The main experiment item","yes","SternbergTask.osexp","/Users/abigailchristie/Desktop","no","mono","no","18","no","white","no","yes","768","legacy","95","11","/Users/abigailchristie/Desktop/2018/Faulkenberry/Lab2/AC-subject-1.csv","legacy","2 3 7 4","Kafkaesque Koffka","3.2.5","1","y","0","left","left","right","left","NA","562","40086","10572","562","NA","2","legacy","4","1024","2","48000","-16","experiment","1","odd","2","730334","727019","728105","2706","128331","728113","720943","2720","117757","732343","732907","729122","42815","732343","NA","Sternberg Task","84","104221","108","yes","1024"
"77.9816513761","77.9816513761","962.724770642","962.724770642","black","experiment","legacy","legacy","legacy","0","uniform","1","undefined","1","right","108","108","108","0","0","108","108","0","0","108","108","108","0","108","0","Wed Oct  3 11:26:37 2018","The main experiment item","yes","SternbergTask.osexp","/Users/abigailchristie/Desktop","no","mono","no","18","no","white","no","yes","768","legacy","96","11","/Users/abigailchristie/Desktop/2018/Faulkenberry/Lab2/AC-subject-1.csv","legacy","8 4 3 5","Kafkaesque Koffka","3.2.5","0","n","0","right","left","right","right","NA","716","40086","10572","716","NA","2","legacy","4","1024","2","48000","-16","experiment","1","odd","6","736227","732917","734000","2706","128331","734007","720943","2720","117757","738235","738954","735016","42815","738235","NA","Sternberg Task","85","104937","109","yes","1024"
"78.1818181818","78.1818181818","958.954545455","958.954545455","black","experiment","legacy","legacy","legacy","0","uniform","1","undefined","1","left","109","109","109","0","0","109","109","0","0","109","109","109","0","109","0","Wed Oct  3 11:26:37 2018","The main experiment item","yes","SternbergTask.osexp","/Users/abigailchristie/Desktop","no","mono","no","18","no","white","no","yes","768","legacy","97","11","/Users/abigailchristie/Desktop/2018/Faulkenberry/Lab2/AC-subject-1.csv","legacy","4 6 5 8","Kafkaesque Koffka","3.2.5","1","y","0","left","left","right","left","NA","548","40086","10572","548","NA","2","legacy","4","1024","2","48000","-16","experiment","1","odd","4","742276","738965","740047","2706","128331","740055","720943","2720","117757","744284","744836","741064","42815","744284","NA","Sternberg Task","86","105485","110","yes","1024"
"78.3783783784","78.3783783784","953.765765766","953.765765766","black","experiment","legacy","legacy","legacy","0","uniform","1","undefined","1","right","110","110","110","0","0","110","110","0","0","110","110","110","0","110","0","Wed Oct  3 11:26:37 2018","The main experiment item","yes","SternbergTask.osexp","/Users/abigailchristie/Desktop","no","mono","no","18","no","white","no","yes","768","legacy","98","11","/Users/abigailchristie/Desktop/2018/Faulkenberry/Lab2/AC-subject-1.csv","legacy","5","Kafkaesque Koffka","3.2.5","0","n","0","right","left","right","right","NA","383","40086","10572","383","NA","2","legacy","1","1024","2","48000","-16","experiment","1","odd","8","748158","744847","745930","2706","128331","745938","720943","2720","117757","750166","750552","746947","42815","750166","NA","Sternberg Task","87","105868","111","yes","1024"
"77.6785714286","77.6785714286","955.133928571","955.133928571","black","experiment","legacy","legacy","legacy","0","uniform","0","undefined","0","left","111","111","111","0","0","111","111","0","0","111","111","111","0","111","0","Wed Oct  3 11:26:37 2018","The main experiment item","yes","SternbergTask.osexp","/Users/abigailchristie/Desktop","no","mono","no","18","no","white","no","yes","768","legacy","99","11","/Users/abigailchristie/Desktop/2018/Faulkenberry/Lab2/AC-subject-1.csv","legacy","3 4 9 6 2 9","Kafkaesque Koffka","3.2.5","5","y","0","right","left","right","right","NA","1107","40086","10572","1107","NA","2","legacy","6","1024","2","48000","-16","experiment","1","odd","2","753874","750563","751646","2706","128331","751654","720943","2720","117757","755883","756993","752663","42815","755883","NA","Sternberg Task","87","106975","112","yes","1024"
"76.9911504425","76.9911504425","955.17699115","955.17699115","black","experiment","legacy","legacy","legacy","0","uniform","0","undefined","0","left","112","112","112","0","0","112","112","0","0","112","112","112","0","112","0","Wed Oct  3 11:26:37 2018","The main experiment item","yes","SternbergTask.osexp","/Users/abigailchristie/Desktop","no","mono","no","18","no","white","no","yes","768","legacy","100","11","/Users/abigailchristie/Desktop/2018/Faulkenberry/Lab2/AC-subject-1.csv","legacy","8 1 6","Kafkaesque Koffka","3.2.5","3","y","0","right","left","right","right","NA","960","40086","10572","960","NA","2","legacy","3","1024","2","48000","-16","experiment","1","odd","6","760315","750563","758086","2706","128331","758094","757005","2720","117757","762324","763287","759104","42815","762324","NA","Sternberg Task","87","107935","113","yes","1024"
"77.1929824561","77.1929824561","955.236842105","955.236842105","black","experiment","legacy","legacy","legacy","0","uniform","1","undefined","1","right","113","113","113","0","0","113","113","0","0","113","113","113","0","113","0","Wed Oct  3 11:26:37 2018","The main experiment item","yes","SternbergTask.osexp","/Users/abigailchristie/Desktop","no","mono","no","18","no","white","no","yes","768","legacy","101","11","/Users/abigailchristie/Desktop/2018/Faulkenberry/Lab2/AC-subject-1.csv","legacy","6 8","Kafkaesque Koffka","3.2.5","0","n","0","right","left","right","right","NA","962","40086","10572","962","NA","2","legacy","2","1024","2","48000","-16","experiment","1","odd","9","766606","750563","764381","2706","128331","764388","763295","2720","117757","768615","769580","765398","42815","768615","NA","Sternberg Task","88","108897","114","yes","1024"
"77.3913043478","77.3913043478","955.365217391","955.365217391","black","experiment","legacy","legacy","legacy","0","uniform","1","undefined","1","left","114","114","114","0","0","114","114","0","0","114","114","114","0","114","0","Wed Oct  3 11:26:37 2018","The main experiment item","yes","SternbergTask.osexp","/Users/abigailchristie/Desktop","no","mono","no","18","no","white","no","yes","768","legacy","102","11","/Users/abigailchristie/Desktop/2018/Faulkenberry/Lab2/AC-subject-1.csv","legacy","8","Kafkaesque Koffka","3.2.5","1","y","0","left","left","right","left","NA","970","40086","10572","970","NA","2","legacy","1","1024","2","48000","-16","experiment","1","odd","8","772898","769590","770671","2706","128331","770678","763295","2720","117757","774908","775880","771688","42815","774907","NA","Sternberg Task","89","109867","115","yes","1024"
"77.5862068966","77.5862068966","955.827586207","955.827586207","black","experiment","legacy","legacy","legacy","0","uniform","1","undefined","1","right","115","115","115","0","0","115","115","0","0","115","115","115","0","115","0","Wed Oct  3 11:26:37 2018","The main experiment item","yes","SternbergTask.osexp","/Users/abigailchristie/Desktop","no","mono","no","18","no","white","no","yes","768","legacy","103","11","/Users/abigailchristie/Desktop/2018/Faulkenberry/Lab2/AC-subject-1.csv","legacy","4 8 1 2","Kafkaesque Koffka","3.2.5","0","n","0","right","left","right","right","NA","1009","40086","10572","1009","NA","2","legacy","4","1024","2","48000","-16","experiment","1","odd","7","779200","775891","776973","2706","128331","776981","763295","2720","117757","781208","782220","777991","42815","781208","NA","Sternberg Task","90","110876","116","yes","1024"
