"acc","accuracy","average_response_time","avg_rt","background","bidi","block","canvas_backend","clock_backend","color_backend","compensation","coordinates","correct","correct_Instruction1","correct_keyboard_response","correct_response","count_Fixation","count_ISI","count_Instruction1","count_Instructions2","count_ThankYou","count_correctFeedback","count_expSequence","count_experiment","count_experimentLoop","count_incorrectFeedback","count_keyboard_response","count_memorySet","count_new_logger","count_practiceLoop","count_probe","datetime","description","disable_garbage_collection","empty_column","experiment_file","experiment_path","font_bold","font_family","font_italic","font_size","font_underline","foreground","form_clicks","fullscreen","height","keyboard_backend","live_row","live_row_practiceLoop","logfile","mouse_backend","numberSet","opensesame_codename","opensesame_version","posInSet","present","repeat_cycle","response","response_Instruction1","response_Instructions2","response_ThankYou","response_keyboard_response","response_time","response_time_Instruction1","response_time_Instructions2","response_time_ThankYou","response_time_keyboard_response","round_decimals","sampler_backend","setSize","sound_buf_size","sound_channels","sound_freq","sound_sample_size","start","subject_nr","subject_parity","target","time_Fixation","time_ISI","time_Instruction1","time_Instructions2","time_ThankYou","time_correctFeedback","time_expSequence","time_experiment","time_experimentLoop","time_incorrectFeedback","time_keyboard_response","time_memorySet","time_new_logger","time_practiceLoop","time_probe","title","total_correct","total_response_time","total_responses","uniform_coordinates","width"
"100","100","697","697","black","no","practice","legacy","legacy","legacy","0","uniform","1","undefined","1","left","0","0","0","0","0","0","0","0","0","0","0","0","0","0","0","10/02/18 15:13:01","The main experiment item","yes","NA","SternbergTask.osexp","C:/Users/Anabel/Desktop","no","mono","no","18","no","white","no","yes","768","legacy","0","0","C:/Users/Anabel/Desktop/subject-2.csv","legacy","4 8","Jazzy James","3.1.9","1","y","0","left","space","NA","NA","left","697","16227","NA","NA","697","2","legacy","2","1024","2","48000","-16","experiment","2","even","4","18669","20873","1548","NA","NA","NA","18667","1544","NA","NA","22875","19671","23573","17777","22875","Sternberg Task","1","697","1","yes","1024"
"100","100","801.5","801.5","black","no","practice","legacy","legacy","legacy","0","uniform","1","undefined","1","right","1","1","0","0","0","1","1","0","0","1","1","1","1","0","1","10/02/18 15:13:01","The main experiment item","yes","NA","SternbergTask.osexp","C:/Users/Anabel/Desktop","no","mono","no","18","no","white","no","yes","768","legacy","1","1","C:/Users/Anabel/Desktop/subject-2.csv","legacy","4 1 5","Jazzy James","3.1.9","0","n","0","right","space","NA","NA","right","906","16227","NA","NA","906","2","legacy","3","1024","2","48000","-16","experiment","2","even","2","24751","26955","1548","NA","NA","23664","24749","1544","NA","NA","28957","25753","29864","17777","28957","Sternberg Task","2","1603","2","yes","1024"
"100","100","1006.33333333","1006.33333333","black","no","practice","legacy","legacy","legacy","0","uniform","1","undefined","1","right","2","2","0","0","0","2","2","0","0","2","2","2","2","0","2","10/02/18 15:13:01","The main experiment item","yes","NA","SternbergTask.osexp","C:/Users/Anabel/Desktop","no","mono","no","18","no","white","no","yes","768","legacy","2","2","C:/Users/Anabel/Desktop/subject-2.csv","legacy","9 6 7 4 5","Jazzy James","3.1.9","0","n","0","right","space","NA","NA","right","1416","16227","NA","NA","1416","2","legacy","5","1024","2","48000","-16","experiment","2","even","3","30998","33202","1548","NA","NA","29920","30996","1544","NA","NA","35204","32000","36621","17777","35204","Sternberg Task","3","3019","3","yes","1024"
"100","100","1070.25","1070.25","black","no","practice","legacy","legacy","legacy","0","uniform","1","undefined","1","left","3","3","0","0","0","3","3","0","0","3","3","3","3","0","3","10/02/18 15:13:01","The main experiment item","yes","NA","SternbergTask.osexp","C:/Users/Anabel/Desktop","no","mono","no","18","no","white","no","yes","768","legacy","3","3","C:/Users/Anabel/Desktop/subject-2.csv","legacy","2 9 4","Jazzy James","3.1.9","3","y","0","left","space","NA","NA","left","1262","16227","NA","NA","1262","2","legacy","3","1024","2","48000","-16","experiment","2","even","4","37766","39970","1548","NA","NA","36687","37764","1544","NA","NA","41972","38768","43235","17777","41972","Sternberg Task","4","4281","4","yes","1024"
"100","100","1053","1053","black","no","practice","legacy","legacy","legacy","0","uniform","1","undefined","1","left","4","4","0","0","0","4","4","0","0","4","4","4","4","0","4","10/02/18 15:13:01","The main experiment item","yes","NA","SternbergTask.osexp","C:/Users/Anabel/Desktop","no","mono","no","18","no","white","no","yes","768","legacy","4","4","C:/Users/Anabel/Desktop/subject-2.csv","legacy","6","Jazzy James","3.1.9","1","y","0","left","space","NA","NA","left","984","16227","NA","NA","984","2","legacy","1","1024","2","48000","-16","experiment","2","even","6","44376","46580","1548","NA","NA","43298","44374","1544","NA","NA","48582","45378","49567","17777","48582","Sternberg Task","5","5265","5","yes","1024"
"100","100","969.833333333","969.833333333","black","no","practice","legacy","legacy","legacy","0","uniform","1","undefined","1","right","5","5","0","0","0","5","5","0","0","5","5","5","5","0","5","10/02/18 15:13:01","The main experiment item","yes","NA","SternbergTask.osexp","C:/Users/Anabel/Desktop","no","mono","no","18","no","white","no","yes","768","legacy","5","5","C:/Users/Anabel/Desktop/subject-2.csv","legacy","5","Jazzy James","3.1.9","0","n","0","right","space","NA","NA","right","554","16227","NA","NA","554","2","legacy","1","1024","2","48000","-16","experiment","2","even","3","50706","52910","1548","NA","NA","49631","50704","1544","NA","NA","54912","51708","55468","17777","54912","Sternberg Task","6","5819","6","yes","1024"
"100","100","987.857142857","987.857142857","black","no","practice","legacy","legacy","legacy","0","uniform","1","undefined","1","left","6","6","0","0","0","6","6","0","0","6","6","6","6","0","6","10/02/18 15:13:01","The main experiment item","yes","NA","SternbergTask.osexp","C:/Users/Anabel/Desktop","no","mono","no","18","no","white","no","yes","768","legacy","6","6","C:/Users/Anabel/Desktop/subject-2.csv","legacy","1 7 9 8 5","Jazzy James","3.1.9","4","y","0","left","space","NA","NA","left","1096","16227","NA","NA","1096","2","legacy","5","1024","2","48000","-16","experiment","2","even","8","56613","58817","1548","NA","NA","55531","56611","1544","NA","NA","60819","57615","61917","17777","60819","Sternberg Task","7","6915","7","yes","1024"
"100","100","992.25","992.25","black","no","practice","legacy","legacy","legacy","0","uniform","1","undefined","1","right","7","7","0","0","0","7","7","0","0","7","7","7","7","0","7","10/02/18 15:13:01","The main experiment item","yes","NA","SternbergTask.osexp","C:/Users/Anabel/Desktop","no","mono","no","18","no","white","no","yes","768","legacy","7","7","C:/Users/Anabel/Desktop/subject-2.csv","legacy","5 7 8 4 1 2","Jazzy James","3.1.9","0","n","0","right","space","NA","NA","right","1023","16227","NA","NA","1023","2","legacy","6","1024","2","48000","-16","experiment","2","even","6","63036","65240","1548","NA","NA","61954","63034","1544","NA","NA","67242","64038","68267","17777","67242","Sternberg Task","8","7938","8","yes","1024"
"100","100","1042.22222222","1042.22222222","black","no","practice","legacy","legacy","legacy","0","uniform","1","undefined","1","left","8","8","0","0","0","8","8","0","0","8","8","8","8","0","8","10/02/18 15:13:01","The main experiment item","yes","NA","SternbergTask.osexp","C:/Users/Anabel/Desktop","no","mono","no","18","no","white","no","yes","768","legacy","8","8","C:/Users/Anabel/Desktop/subject-2.csv","legacy","4 3 1 7 9 8","Jazzy James","3.1.9","1","y","0","left","space","NA","NA","left","1442","16227","NA","NA","1442","2","legacy","6","1024","2","48000","-16","experiment","2","even","4","69399","71603","1548","NA","NA","68320","69397","1544","NA","NA","73605","70401","75048","17777","73605","Sternberg Task","9","9380","9","yes","1024"
"100","100","1040.3","1040.3","black","no","practice","legacy","legacy","legacy","0","uniform","1","undefined","1","right","9","9","0","0","0","9","9","0","0","9","9","9","9","0","9","10/02/18 15:13:01","The main experiment item","yes","NA","SternbergTask.osexp","C:/Users/Anabel/Desktop","no","mono","no","18","no","white","no","yes","768","legacy","9","9","C:/Users/Anabel/Desktop/subject-2.csv","legacy","2 1","Jazzy James","3.1.9","0","n","0","right","space","NA","NA","right","1023","16227","NA","NA","1023","2","legacy","2","1024","2","48000","-16","experiment","2","even","5","76183","78387","1548","NA","NA","75109","76181","1544","NA","NA","80389","77185","81413","17777","80389","Sternberg Task","10","10403","10","yes","1024"
"90.9090909091","90.9090909091","1023.36363636","1023.36363636","black","no","practice","legacy","legacy","legacy","0","uniform","0","undefined","0","right","10","10","0","0","0","10","10","0","0","10","10","10","10","0","10","10/02/18 15:13:01","The main experiment item","yes","NA","SternbergTask.osexp","C:/Users/Anabel/Desktop","no","mono","no","18","no","white","no","yes","768","legacy","10","10","C:/Users/Anabel/Desktop/subject-2.csv","legacy","3 1 9 4","Jazzy James","3.1.9","0","n","0","left","space","NA","NA","left","854","16227","NA","NA","854","2","legacy","4","1024","2","48000","-16","experiment","2","even","6","82559","84763","1548","NA","NA","81476","82557","1544","NA","NA","86765","83561","87620","17777","86765","Sternberg Task","10","11257","11","yes","1024"
"91.6666666667","91.6666666667","1047.66666667","1047.66666667","black","no","practice","legacy","legacy","legacy","0","uniform","1","undefined","1","left","11","11","0","0","0","11","11","0","0","11","11","11","11","0","11","10/02/18 15:13:01","The main experiment item","yes","NA","SternbergTask.osexp","C:/Users/Anabel/Desktop","no","mono","no","18","no","white","no","yes","768","legacy","11","11","C:/Users/Anabel/Desktop/subject-2.csv","legacy","1 5 2 9","Jazzy James","3.1.9","2","y","0","left","space","NA","NA","left","1315","16227","NA","NA","1315","2","legacy","4","1024","2","48000","-16","experiment","2","even","5","88750","90954","1548","NA","NA","81476","88748","1544","NA","87676","92956","89752","94273","17777","92956","Sternberg Task","11","12572","12","yes","1024"
"92.3076923077","92.3076923077","1035","1035","black","no","experiment","legacy","legacy","legacy","0","uniform","1","undefined","1","left","12","12","0","0","0","12","12","0","0","12","12","12","12","0","12","10/02/18 15:13:01","The main experiment item","yes","NA","SternbergTask.osexp","C:/Users/Anabel/Desktop","no","mono","no","18","no","white","no","yes","768","legacy","0","11","C:/Users/Anabel/Desktop/subject-2.csv","legacy","8 5 1 3 9","Jazzy James","3.1.9","4","y","0","left","space","space","NA","left","883","16227","3393","NA","883","2","legacy","5","1024","2","48000","-16","experiment","2","even","3","98854","101058","1548","95357","NA","94332","98853","1544","98751","87676","103060","99856","103944","17777","103060","Sternberg Task","12","13455","13","yes","1024"
"92.8571428571","92.8571428571","1019.21428571","1019.21428571","black","no","experiment","legacy","legacy","legacy","0","uniform","1","undefined","1","left","13","13","0","0","0","13","13","0","0","13","13","13","13","0","13","10/02/18 15:13:01","The main experiment item","yes","NA","SternbergTask.osexp","C:/Users/Anabel/Desktop","no","mono","no","18","no","white","no","yes","768","legacy","1","11","C:/Users/Anabel/Desktop/subject-2.csv","legacy","2 5 4 8 7","Jazzy James","3.1.9","3","y","0","left","space","space","NA","left","814","16227","3393","NA","814","2","legacy","5","1024","2","48000","-16","experiment","2","even","4","105073","107277","1548","95357","NA","103997","105071","1544","98751","87676","109279","106075","110095","17777","109279","Sternberg Task","13","14269","14","yes","1024"
"93.3333333333","93.3333333333","997.533333333","997.533333333","black","no","experiment","legacy","legacy","legacy","0","uniform","1","undefined","1","right","14","14","0","0","0","14","14","0","0","14","14","14","14","0","14","10/02/18 15:13:01","The main experiment item","yes","NA","SternbergTask.osexp","C:/Users/Anabel/Desktop","no","mono","no","18","no","white","no","yes","768","legacy","2","11","C:/Users/Anabel/Desktop/subject-2.csv","legacy","8 5 7 3 6","Jazzy James","3.1.9","0","n","0","right","space","space","NA","right","694","16227","3393","NA","694","2","legacy","5","1024","2","48000","-16","experiment","2","even","9","111239","113443","1548","95357","NA","110153","111237","1544","98751","87676","115445","112241","116140","17777","115445","Sternberg Task","14","14963","15","yes","1024"
"87.5","87.5","1010.625","1010.625","black","no","experiment","legacy","legacy","legacy","0","uniform","0","undefined","0","left","15","15","0","0","0","15","15","0","0","15","15","15","15","0","15","10/02/18 15:13:01","The main experiment item","yes","NA","SternbergTask.osexp","C:/Users/Anabel/Desktop","no","mono","no","18","no","white","no","yes","768","legacy","3","11","C:/Users/Anabel/Desktop/subject-2.csv","legacy","7 2 3","Jazzy James","3.1.9","3","y","0","right","space","space","NA","right","1207","16227","3393","NA","1207","2","legacy","3","1024","2","48000","-16","experiment","2","even","3","117278","119483","1548","95357","NA","116197","117277","1544","98751","87676","121485","118281","122693","17777","121485","Sternberg Task","14","16170","16","yes","1024"
"82.3529411765","82.3529411765","1468.70588235","1468.70588235","black","no","experiment","legacy","legacy","legacy","0","uniform","0","undefined","0","right","16","16","0","0","0","16","16","0","0","16","16","16","16","0","16","10/02/18 15:13:01","The main experiment item","yes","NA","SternbergTask.osexp","C:/Users/Anabel/Desktop","no","mono","no","18","no","white","no","yes","768","legacy","4","11","C:/Users/Anabel/Desktop/subject-2.csv","legacy","2 7 5","Jazzy James","3.1.9","0","n","0","left","space","space","NA","left","8798","16227","3393","NA","8798","2","legacy","3","1024","2","48000","-16","experiment","2","even","8","123838","126042","1548","95357","NA","116197","123836","1544","98751","122753","128044","124840","136843","17777","128044","Sternberg Task","14","24968","17","yes","1024"
"83.3333333333","83.3333333333","1452.11111111","1452.11111111","black","no","experiment","legacy","legacy","legacy","0","uniform","1","undefined","1","right","17","17","0","0","0","17","17","0","0","17","17","17","17","0","17","10/02/18 15:13:01","The main experiment item","yes","NA","SternbergTask.osexp","C:/Users/Anabel/Desktop","no","mono","no","18","no","white","no","yes","768","legacy","5","11","C:/Users/Anabel/Desktop/subject-2.csv","legacy","7 4 2 8 1 9","Jazzy James","3.1.9","0","n","0","right","space","space","NA","right","1170","16227","3393","NA","1170","2","legacy","6","1024","2","48000","-16","experiment","2","even","5","137977","140181","1548","95357","NA","116197","137975","1544","98751","136898","142183","138979","143354","17777","142183","Sternberg Task","15","26138","18","yes","1024"
"84.2105263158","84.2105263158","1435.84210526","1435.84210526","black","no","experiment","legacy","legacy","legacy","0","uniform","1","undefined","1","right","18","18","0","0","0","18","18","0","0","18","18","18","18","0","18","10/02/18 15:13:01","The main experiment item","yes","NA","SternbergTask.osexp","C:/Users/Anabel/Desktop","no","mono","no","18","no","white","no","yes","768","legacy","6","11","C:/Users/Anabel/Desktop/subject-2.csv","legacy","4 2 6 9","Jazzy James","3.1.9","0","n","0","right","space","space","NA","right","1143","16227","3393","NA","1143","2","legacy","4","1024","2","48000","-16","experiment","2","even","7","144487","146691","1548","95357","NA","143409","144485","1544","98751","136898","148693","145489","149837","17777","148693","Sternberg Task","16","27281","19","yes","1024"
"85","85","1414.8","1414.8","black","no","experiment","legacy","legacy","legacy","0","uniform","1","undefined","1","right","19","19","0","0","0","19","19","0","0","19","19","19","19","0","19","10/02/18 15:13:01","The main experiment item","yes","NA","SternbergTask.osexp","C:/Users/Anabel/Desktop","no","mono","no","18","no","white","no","yes","768","legacy","7","11","C:/Users/Anabel/Desktop/subject-2.csv","legacy","9","Jazzy James","3.1.9","0","n","0","right","space","space","NA","right","1015","16227","3393","NA","1015","2","legacy","1","1024","2","48000","-16","experiment","2","even","6","150955","153159","1548","95357","NA","149887","150953","1544","98751","136898","155161","151957","156178","17777","155161","Sternberg Task","17","28296","20","yes","1024"
"85.7142857143","85.7142857143","1399.33333333","1399.33333333","black","no","experiment","legacy","legacy","legacy","0","uniform","1","undefined","1","left","20","20","0","0","0","20","20","0","0","20","20","20","20","0","20","10/02/18 15:13:01","The main experiment item","yes","NA","SternbergTask.osexp","C:/Users/Anabel/Desktop","no","mono","no","18","no","white","no","yes","768","legacy","8","11","C:/Users/Anabel/Desktop/subject-2.csv","legacy","3 5 9 6 2 4","Jazzy James","3.1.9","1","y","0","left","space","space","NA","left","1090","16227","3393","NA","1090","2","legacy","6","1024","2","48000","-16","experiment","2","even","3","157317","159521","1548","95357","NA","156232","157315","1544","98751","136898","161523","158319","162614","17777","161523","Sternberg Task","18","29386","21","yes","1024"
"86.3636363636","86.3636363636","1380.13636364","1380.13636364","black","no","experiment","legacy","legacy","legacy","0","uniform","1","undefined","1","left","21","21","0","0","0","21","21","0","0","21","21","21","21","0","21","10/02/18 15:13:01","The main experiment item","yes","NA","SternbergTask.osexp","C:/Users/Anabel/Desktop","no","mono","no","18","no","white","no","yes","768","legacy","9","11","C:/Users/Anabel/Desktop/subject-2.csv","legacy","5 7 8 2 3 8","Jazzy James","3.1.9","5","y","0","left","space","space","NA","left","977","16227","3393","NA","977","2","legacy","6","1024","2","48000","-16","experiment","2","even","3","163751","165955","1548","95357","NA","162676","163749","1544","98751","136898","167957","164753","168935","17777","167957","Sternberg Task","19","30363","22","yes","1024"
"86.9565217391","86.9565217391","1357.26086957","1357.26086957","black","no","experiment","legacy","legacy","legacy","0","uniform","1","undefined","1","left","22","22","0","0","0","22","22","0","0","22","22","22","22","0","22","10/02/18 15:13:01","The main experiment item","yes","NA","SternbergTask.osexp","C:/Users/Anabel/Desktop","no","mono","no","18","no","white","no","yes","768","legacy","10","11","C:/Users/Anabel/Desktop/subject-2.csv","legacy","6 5","Jazzy James","3.1.9","2","y","0","left","space","space","NA","left","854","16227","3393","NA","854","2","legacy","2","1024","2","48000","-16","experiment","2","even","5","170095","172299","1548","95357","NA","169009","170093","1544","98751","136898","174301","171097","175157","17777","174301","Sternberg Task","20","31217","23","yes","1024"
"87.5","87.5","1326.41666667","1326.41666667","black","no","experiment","legacy","legacy","legacy","0","uniform","1","undefined","1","right","23","23","0","0","0","23","23","0","0","23","23","23","23","0","23","10/02/18 15:13:01","The main experiment item","yes","NA","SternbergTask.osexp","C:/Users/Anabel/Desktop","no","mono","no","18","no","white","no","yes","768","legacy","11","11","C:/Users/Anabel/Desktop/subject-2.csv","legacy","1 5 3 2 8","Jazzy James","3.1.9","0","n","0","right","space","space","NA","right","617","16227","3393","NA","617","2","legacy","5","1024","2","48000","-16","experiment","2","even","4","176286","178490","1548","95357","NA","175209","176284","1544","98751","136898","180492","177288","181110","17777","180492","Sternberg Task","21","31834","24","yes","1024"
"88","88","1308.72","1308.72","black","no","experiment","legacy","legacy","legacy","0","uniform","1","undefined","1","right","24","24","0","0","0","24","24","0","0","24","24","24","24","0","24","10/02/18 15:13:01","The main experiment item","yes","NA","SternbergTask.osexp","C:/Users/Anabel/Desktop","no","mono","no","18","no","white","no","yes","768","legacy","12","11","C:/Users/Anabel/Desktop/subject-2.csv","legacy","7 3 2 8","Jazzy James","3.1.9","0","n","0","right","space","space","NA","right","884","16227","3393","NA","884","2","legacy","4","1024","2","48000","-16","experiment","2","even","4","182248","184453","1548","95357","NA","181165","182247","1544","98751","136898","186455","183251","187340","17777","186455","Sternberg Task","22","32718","25","yes","1024"
"88.4615384615","88.4615384615","1281.03846154","1281.03846154","black","no","experiment","legacy","legacy","legacy","0","uniform","1","undefined","1","left","25","25","0","0","0","25","25","0","0","25","25","25","25","0","25","10/02/18 15:13:01","The main experiment item","yes","NA","SternbergTask.osexp","C:/Users/Anabel/Desktop","no","mono","no","18","no","white","no","yes","768","legacy","13","11","C:/Users/Anabel/Desktop/subject-2.csv","legacy","4 3 2 5 8","Jazzy James","3.1.9","2","y","0","left","space","space","NA","left","589","16227","3393","NA","589","2","legacy","5","1024","2","48000","-16","experiment","2","even","3","188529","190733","1548","95357","NA","187453","188527","1544","98751","136898","192735","189531","193325","17777","192735","Sternberg Task","23","33307","26","yes","1024"
"88.8888888889","88.8888888889","1278.37037037","1278.37037037","black","no","experiment","legacy","legacy","legacy","0","uniform","1","undefined","1","left","26","26","0","0","0","26","26","0","0","26","26","26","26","0","26","10/02/18 15:13:01","The main experiment item","yes","NA","SternbergTask.osexp","C:/Users/Anabel/Desktop","no","mono","no","18","no","white","no","yes","768","legacy","14","11","C:/Users/Anabel/Desktop/subject-2.csv","legacy","8 1 6","Jazzy James","3.1.9","3","y","0","left","space","space","NA","left","1209","16227","3393","NA","1209","2","legacy","3","1024","2","48000","-16","experiment","2","even","6","194492","196696","1548","95357","NA","193409","194490","1544","98751","136898","198698","195494","199908","17777","198698","Sternberg Task","24","34516","27","yes","1024"
"89.2857142857","89.2857142857","1255.60714286","1255.60714286","black","no","experiment","legacy","legacy","legacy","0","uniform","1","undefined","1","right","27","27","0","0","0","27","27","0","0","27","27","27","27","0","27","10/02/18 15:13:01","The main experiment item","yes","NA","SternbergTask.osexp","C:/Users/Anabel/Desktop","no","mono","no","18","no","white","no","yes","768","legacy","15","11","C:/Users/Anabel/Desktop/subject-2.csv","legacy","7 9","Jazzy James","3.1.9","0","n","0","right","space","space","NA","right","641","16227","3393","NA","641","2","legacy","2","1024","2","48000","-16","experiment","2","even","1","201034","203238","1548","95357","NA","199953","201032","1544","98751","136898","205240","202036","205883","17777","205240","Sternberg Task","25","35157","28","yes","1024"
"86.2068965517","86.2068965517","1242.34482759","1242.34482759","black","no","experiment","legacy","legacy","legacy","0","uniform","0","undefined","0","left","28","28","0","0","0","28","28","0","0","28","28","28","28","0","28","10/02/18 15:13:01","The main experiment item","yes","NA","SternbergTask.osexp","C:/Users/Anabel/Desktop","no","mono","no","18","no","white","no","yes","768","legacy","16","11","C:/Users/Anabel/Desktop/subject-2.csv","legacy","5 7 3 6 2","Jazzy James","3.1.9","5","y","0","right","space","space","NA","right","871","16227","3393","NA","871","2","legacy","5","1024","2","48000","-16","experiment","2","even","2","207029","209233","1548","95357","NA","205942","207027","1544","98751","136898","211235","208031","212108","17777","211235","Sternberg Task","25","36028","29","yes","1024"
"83.3333333333","83.3333333333","1240.96666667","1240.96666667","black","no","experiment","legacy","legacy","legacy","0","uniform","0","undefined","0","left","29","29","0","0","0","29","29","0","0","29","29","29","29","0","29","10/02/18 15:13:01","The main experiment item","yes","NA","SternbergTask.osexp","C:/Users/Anabel/Desktop","no","mono","no","18","no","white","no","yes","768","legacy","17","11","C:/Users/Anabel/Desktop/subject-2.csv","legacy","3 2 1 4 7","Jazzy James","3.1.9","2","y","0","right","space","space","NA","right","1201","16227","3393","NA","1201","2","legacy","5","1024","2","48000","-16","experiment","2","even","2","213246","215450","1548","95357","NA","205942","213244","1544","98751","212165","217452","214248","218655","17777","217452","Sternberg Task","25","37229","30","yes","1024"
"83.8709677419","83.8709677419","1228.58064516","1228.58064516","black","no","experiment","legacy","legacy","legacy","0","uniform","1","undefined","1","left","30","30","0","0","0","30","30","0","0","30","30","30","30","0","30","10/02/18 15:13:01","The main experiment item","yes","NA","SternbergTask.osexp","C:/Users/Anabel/Desktop","no","mono","no","18","no","white","no","yes","768","legacy","18","11","C:/Users/Anabel/Desktop/subject-2.csv","legacy","9 8 4","Jazzy James","3.1.9","1","y","0","left","space","space","NA","left","857","16227","3393","NA","857","2","legacy","3","1024","2","48000","-16","experiment","2","even","9","219782","221986","1548","95357","NA","205942","219780","1544","98751","218699","223988","220784","224846","17777","223988","Sternberg Task","26","38086","31","yes","1024"
"81.25","81.25","1212.28125","1212.28125","black","no","experiment","legacy","legacy","legacy","0","uniform","0","undefined","0","right","31","31","0","0","0","31","31","0","0","31","31","31","31","0","31","10/02/18 15:13:01","The main experiment item","yes","NA","SternbergTask.osexp","C:/Users/Anabel/Desktop","no","mono","no","18","no","white","no","yes","768","legacy","19","11","C:/Users/Anabel/Desktop/subject-2.csv","legacy","1 8 7","Jazzy James","3.1.9","0","n","0","left","space","space","NA","left","707","16227","3393","NA","707","2","legacy","3","1024","2","48000","-16","experiment","2","even","4","225983","228187","1548","95357","NA","224898","225981","1544","98751","218699","230189","226985","230897","17777","230189","Sternberg Task","26","38793","32","yes","1024"
"81.8181818182","81.8181818182","1215.81818182","1215.81818182","black","no","experiment","legacy","legacy","legacy","0","uniform","1","undefined","1","right","32","32","0","0","0","32","32","0","0","32","32","32","32","0","32","10/02/18 15:13:01","The main experiment item","yes","NA","SternbergTask.osexp","C:/Users/Anabel/Desktop","no","mono","no","18","no","white","no","yes","768","legacy","20","11","C:/Users/Anabel/Desktop/subject-2.csv","legacy","6 8","Jazzy James","3.1.9","0","n","0","right","space","space","NA","right","1329","16227","3393","NA","1329","2","legacy","2","1024","2","48000","-16","experiment","2","even","9","232031","234235","1548","95357","NA","224898","232027","1544","98751","230953","236237","233033","237567","17777","236237","Sternberg Task","27","40122","33","yes","1024"
"82.3529411765","82.3529411765","1226.91176471","1226.91176471","black","no","experiment","legacy","legacy","legacy","0","uniform","1","undefined","1","left","33","33","0","0","0","33","33","0","0","33","33","33","33","0","33","10/02/18 15:13:01","The main experiment item","yes","NA","SternbergTask.osexp","C:/Users/Anabel/Desktop","no","mono","no","18","no","white","no","yes","768","legacy","21","11","C:/Users/Anabel/Desktop/subject-2.csv","legacy","2 3","Jazzy James","3.1.9","1","y","0","left","space","space","NA","left","1593","16227","3393","NA","1593","2","legacy","2","1024","2","48000","-16","experiment","2","even","2","238706","240910","1548","95357","NA","237620","238704","1544","98751","230953","242912","239708","244507","17777","242912","Sternberg Task","28","41715","34","yes","1024"
"82.8571428571","82.8571428571","1214.54285714","1214.54285714","black","no","experiment","legacy","legacy","legacy","0","uniform","1","undefined","1","right","34","34","0","0","0","34","34","0","0","34","34","34","34","0","34","10/02/18 15:13:01","The main experiment item","yes","NA","SternbergTask.osexp","C:/Users/Anabel/Desktop","no","mono","no","18","no","white","no","yes","768","legacy","22","11","C:/Users/Anabel/Desktop/subject-2.csv","legacy","8 4 3 9","Jazzy James","3.1.9","0","n","0","right","space","space","NA","right","794","16227","3393","NA","794","2","legacy","4","1024","2","48000","-16","experiment","2","even","5","245645","247849","1548","95357","NA","244566","245643","1544","98751","230953","249852","246647","250648","17777","249852","Sternberg Task","29","42509","35","yes","1024"
"80.5555555556","80.5555555556","1202.27777778","1202.27777778","black","no","experiment","legacy","legacy","legacy","0","uniform","0","undefined","0","right","35","35","0","0","0","35","35","0","0","35","35","35","35","0","35","10/02/18 15:13:01","The main experiment item","yes","NA","SternbergTask.osexp","C:/Users/Anabel/Desktop","no","mono","no","18","no","white","no","yes","768","legacy","23","11","C:/Users/Anabel/Desktop/subject-2.csv","legacy","8 9","Jazzy James","3.1.9","0","n","0","left","space","space","NA","left","773","16227","3393","NA","773","2","legacy","2","1024","2","48000","-16","experiment","2","even","5","251791","253996","1548","95357","NA","250710","251789","1544","98751","230953","255998","252794","256773","17777","255998","Sternberg Task","29","43282","36","yes","1024"
"78.3783783784","78.3783783784","1203.08108108","1203.08108108","black","no","experiment","legacy","legacy","legacy","0","uniform","0","undefined","0","right","36","36","0","0","0","36","36","0","0","36","36","36","36","0","36","10/02/18 15:13:01","The main experiment item","yes","NA","SternbergTask.osexp","C:/Users/Anabel/Desktop","no","mono","no","18","no","white","no","yes","768","legacy","24","11","C:/Users/Anabel/Desktop/subject-2.csv","legacy","5","Jazzy James","3.1.9","0","n","0","left","space","space","NA","left","1232","16227","3393","NA","1232","2","legacy","1","1024","2","48000","-16","experiment","2","even","8","257912","260116","1548","95357","NA","250710","257910","1544","98751","256832","262118","258914","263352","17777","262118","Sternberg Task","29","44514","37","yes","1024"
"78.9473684211","78.9473684211","1201.31578947","1201.31578947","black","no","experiment","legacy","legacy","legacy","0","uniform","1","undefined","1","right","37","37","0","0","0","37","37","0","0","37","37","37","37","0","37","10/02/18 15:13:01","The main experiment item","yes","NA","SternbergTask.osexp","C:/Users/Anabel/Desktop","no","mono","no","18","no","white","no","yes","768","legacy","25","11","C:/Users/Anabel/Desktop/subject-2.csv","legacy","1 4 3 6 5","Jazzy James","3.1.9","0","n","0","right","space","space","NA","right","1136","16227","3393","NA","1136","2","legacy","5","1024","2","48000","-16","experiment","2","even","8","264483","266687","1548","95357","NA","250710","264481","1544","98751","263398","268689","265485","269827","17777","268689","Sternberg Task","30","45650","38","yes","1024"
"79.4871794872","79.4871794872","1212.25641026","1212.25641026","black","no","experiment","legacy","legacy","legacy","0","uniform","1","undefined","1","right","38","38","0","0","0","38","38","0","0","38","38","38","38","0","38","10/02/18 15:13:01","The main experiment item","yes","NA","SternbergTask.osexp","C:/Users/Anabel/Desktop","no","mono","no","18","no","white","no","yes","768","legacy","26","11","C:/Users/Anabel/Desktop/subject-2.csv","legacy","1 7 5 2 9","Jazzy James","3.1.9","0","n","0","right","space","space","NA","right","1628","16227","3393","NA","1628","2","legacy","5","1024","2","48000","-16","experiment","2","even","3","270966","273170","1548","95357","NA","269887","270964","1544","98751","263398","275172","271968","276802","17777","275172","Sternberg Task","31","47278","39","yes","1024"
"77.5","77.5","1218.3","1218.3","black","no","experiment","legacy","legacy","legacy","0","uniform","0","undefined","0","left","39","39","0","0","0","39","39","0","0","39","39","39","39","0","39","10/02/18 15:13:01","The main experiment item","yes","NA","SternbergTask.osexp","C:/Users/Anabel/Desktop","no","mono","no","18","no","white","no","yes","768","legacy","27","11","C:/Users/Anabel/Desktop/subject-2.csv","legacy","7 1 8 5 6 2","Jazzy James","3.1.9","2","y","0","right","space","space","NA","right","1454","16227","3393","NA","1454","2","legacy","6","1024","2","48000","-16","experiment","2","even","1","277949","280153","1548","95357","NA","276865","277947","1544","98751","263398","282155","278951","283611","17777","282155","Sternberg Task","31","48732","40","yes","1024"
"78.0487804878","78.0487804878","1216.26829268","1216.26829268","black","no","experiment","legacy","legacy","legacy","0","uniform","1","undefined","1","right","40","40","0","0","0","40","40","0","0","40","40","40","40","0","40","10/02/18 15:13:01","The main experiment item","yes","NA","SternbergTask.osexp","C:/Users/Anabel/Desktop","no","mono","no","18","no","white","no","yes","768","legacy","28","11","C:/Users/Anabel/Desktop/subject-2.csv","legacy","8 2 1 4 5 9","Jazzy James","3.1.9","0","n","0","right","space","space","NA","right","1135","16227","3393","NA","1135","2","legacy","6","1024","2","48000","-16","experiment","2","even","7","284740","286944","1548","95357","NA","276865","284738","1544","98751","283665","288946","285742","290083","17777","288946","Sternberg Task","32","49867","41","yes","1024"
"78.5714285714","78.5714285714","1256.73809524","1256.73809524","black","no","experiment","legacy","legacy","legacy","0","uniform","1","undefined","1","left","41","41","0","0","0","41","41","0","0","41","41","41","41","0","41","10/02/18 15:13:01","The main experiment item","yes","NA","SternbergTask.osexp","C:/Users/Anabel/Desktop","no","mono","no","18","no","white","no","yes","768","legacy","29","11","C:/Users/Anabel/Desktop/subject-2.csv","legacy","7 1 3","Jazzy James","3.1.9","2","y","0","left","space","space","NA","left","2916","16227","3393","NA","2916","2","legacy","3","1024","2","48000","-16","experiment","2","even","1","291213","293417","1548","95357","NA","290132","291211","1544","98751","283665","295419","292215","298338","17777","295419","Sternberg Task","33","52783","42","yes","1024"
"76.7441860465","76.7441860465","1261.34883721","1261.34883721","black","no","experiment","legacy","legacy","legacy","0","uniform","0","undefined","0","left","42","42","0","0","0","42","42","0","0","42","42","42","42","0","42","10/02/18 15:13:01","The main experiment item","yes","NA","SternbergTask.osexp","C:/Users/Anabel/Desktop","no","mono","no","18","no","white","no","yes","768","legacy","30","11","C:/Users/Anabel/Desktop/subject-2.csv","legacy","9 3 8 2 1 4","Jazzy James","3.1.9","3","y","0","right","space","space","NA","right","1455","16227","3393","NA","1455","2","legacy","6","1024","2","48000","-16","experiment","2","even","8","299467","301671","1548","95357","NA","298388","299465","1544","98751","283665","303673","300469","305130","17777","303673","Sternberg Task","33","54238","43","yes","1024"
"77.2727272727","77.2727272727","1255.68181818","1255.68181818","black","no","experiment","legacy","legacy","legacy","0","uniform","1","undefined","1","left","43","43","0","0","0","43","43","0","0","43","43","43","43","0","43","10/02/18 15:13:01","The main experiment item","yes","NA","SternbergTask.osexp","C:/Users/Anabel/Desktop","no","mono","no","18","no","white","no","yes","768","legacy","31","11","C:/Users/Anabel/Desktop/subject-2.csv","legacy","5 2 6","Jazzy James","3.1.9","2","y","0","left","space","space","NA","left","1012","16227","3393","NA","1012","2","legacy","3","1024","2","48000","-16","experiment","2","even","2","306277","308481","1548","95357","NA","298388","306275","1544","98751","305199","310483","307279","311497","17777","310483","Sternberg Task","34","55250","44","yes","1024"
"77.7777777778","77.7777777778","1245.57777778","1245.57777778","black","no","experiment","legacy","legacy","legacy","0","uniform","1","undefined","1","left","44","44","0","0","0","44","44","0","0","44","44","44","44","0","44","10/02/18 15:13:01","The main experiment item","yes","NA","SternbergTask.osexp","C:/Users/Anabel/Desktop","no","mono","no","18","no","white","no","yes","768","legacy","32","11","C:/Users/Anabel/Desktop/subject-2.csv","legacy","9 3 1 2 5","Jazzy James","3.1.9","4","y","0","left","space","space","NA","left","801","16227","3393","NA","801","2","legacy","5","1024","2","48000","-16","experiment","2","even","2","312634","314838","1548","95357","NA","311554","312632","1544","98751","305199","316840","313636","317643","17777","316840","Sternberg Task","35","56051","45","yes","1024"
"78.2608695652","78.2608695652","1233.41304348","1233.41304348","black","no","experiment","legacy","legacy","legacy","0","uniform","1","undefined","1","right","45","45","0","0","0","45","45","0","0","45","45","45","45","0","45","10/02/18 15:13:01","The main experiment item","yes","NA","SternbergTask.osexp","C:/Users/Anabel/Desktop","no","mono","no","18","no","white","no","yes","768","legacy","33","11","C:/Users/Anabel/Desktop/subject-2.csv","legacy","1 7 8 3 9","Jazzy James","3.1.9","0","n","0","right","space","space","NA","right","686","16227","3393","NA","686","2","legacy","5","1024","2","48000","-16","experiment","2","even","2","318781","320985","1548","95357","NA","317697","318779","1544","98751","305199","322987","319783","323674","17777","322987","Sternberg Task","36","56737","46","yes","1024"
"78.7234042553","78.7234042553","1229.38297872","1229.38297872","black","no","experiment","legacy","legacy","legacy","0","uniform","1","undefined","1","left","46","46","0","0","0","46","46","0","0","46","46","46","46","0","46","10/02/18 15:13:01","The main experiment item","yes","NA","SternbergTask.osexp","C:/Users/Anabel/Desktop","no","mono","no","18","no","white","no","yes","768","legacy","34","11","C:/Users/Anabel/Desktop/subject-2.csv","legacy","9 1 6 7 8","Jazzy James","3.1.9","1","y","0","left","space","space","NA","left","1044","16227","3393","NA","1044","2","legacy","5","1024","2","48000","-16","experiment","2","even","9","324795","326998","1548","95357","NA","323719","324793","1544","98751","305199","329000","325797","330046","17777","329000","Sternberg Task","37","57781","47","yes","1024"
"79.1666666667","79.1666666667","1226.14583333","1226.14583333","black","no","experiment","legacy","legacy","legacy","0","uniform","1","undefined","1","left","47","47","0","0","0","47","47","0","0","47","47","47","47","0","47","10/02/18 15:13:01","The main experiment item","yes","NA","SternbergTask.osexp","C:/Users/Anabel/Desktop","no","mono","no","18","no","white","no","yes","768","legacy","35","11","C:/Users/Anabel/Desktop/subject-2.csv","legacy","2 8 5 1","Jazzy James","3.1.9","4","y","0","left","space","space","NA","left","1074","16227","3393","NA","1074","2","legacy","4","1024","2","48000","-16","experiment","2","even","1","331176","333380","1548","95357","NA","330098","331174","1544","98751","305199","335382","332178","336457","17777","335382","Sternberg Task","38","58855","48","yes","1024"
"79.5918367347","79.5918367347","1225.06122449","1225.06122449","black","no","experiment","legacy","legacy","legacy","0","uniform","1","undefined","1","right","48","48","0","0","0","48","48","0","0","48","48","48","48","0","48","10/02/18 15:13:01","The main experiment item","yes","NA","SternbergTask.osexp","C:/Users/Anabel/Desktop","no","mono","no","18","no","white","no","yes","768","legacy","36","11","C:/Users/Anabel/Desktop/subject-2.csv","legacy","6 9 7 3 8 2","Jazzy James","3.1.9","0","n","0","right","space","space","NA","right","1173","16227","3393","NA","1173","2","legacy","6","1024","2","48000","-16","experiment","2","even","5","337591","339796","1548","95357","NA","336508","337589","1544","98751","305199","341798","338594","342973","17777","341798","Sternberg Task","39","60028","49","yes","1024"
"80","80","1220.38","1220.38","black","no","experiment","legacy","legacy","legacy","0","uniform","1","undefined","1","left","49","49","0","0","0","49","49","0","0","49","49","49","49","0","49","10/02/18 15:13:01","The main experiment item","yes","NA","SternbergTask.osexp","C:/Users/Anabel/Desktop","no","mono","no","18","no","white","no","yes","768","legacy","37","11","C:/Users/Anabel/Desktop/subject-2.csv","legacy","7","Jazzy James","3.1.9","1","y","0","left","space","space","NA","left","991","16227","3393","NA","991","2","legacy","1","1024","2","48000","-16","experiment","2","even","7","344090","346294","1548","95357","NA","343020","344088","1544","98751","305199","348297","345092","349290","17777","348296","Sternberg Task","40","61019","50","yes","1024"
"80.3921568627","80.3921568627","1213.80392157","1213.80392157","black","no","experiment","legacy","legacy","legacy","0","uniform","1","undefined","1","left","50","50","0","0","0","50","50","0","0","50","50","50","50","0","50","10/02/18 15:13:01","The main experiment item","yes","NA","SternbergTask.osexp","C:/Users/Anabel/Desktop","no","mono","no","18","no","white","no","yes","768","legacy","38","11","C:/Users/Anabel/Desktop/subject-2.csv","legacy","7 6","Jazzy James","3.1.9","2","y","0","left","space","space","NA","left","885","16227","3393","NA","885","2","legacy","2","1024","2","48000","-16","experiment","2","even","6","350408","352612","1548","95357","NA","349333","350406","1544","98751","305199","354614","351410","355501","17777","354614","Sternberg Task","41","61904","51","yes","1024"
"80.7692307692","80.7692307692","1206.25","1206.25","black","no","experiment","legacy","legacy","legacy","0","uniform","1","undefined","1","right","51","51","0","0","0","51","51","0","0","51","51","51","51","0","51","10/02/18 15:13:01","The main experiment item","yes","NA","SternbergTask.osexp","C:/Users/Anabel/Desktop","no","mono","no","18","no","white","no","yes","768","legacy","39","11","C:/Users/Anabel/Desktop/subject-2.csv","legacy","2 8 7 9 5 3","Jazzy James","3.1.9","0","n","0","right","space","space","NA","right","821","16227","3393","NA","821","2","legacy","6","1024","2","48000","-16","experiment","2","even","6","356640","358844","1548","95357","NA","355554","356638","1544","98751","305199","360846","357642","361668","17777","360846","Sternberg Task","42","62725","52","yes","1024"
"79.2452830189","79.2452830189","1198.60377358","1198.60377358","black","no","experiment","legacy","legacy","legacy","0","uniform","0","undefined","0","right","52","52","0","0","0","52","52","0","0","52","52","52","52","0","52","10/02/18 15:13:01","The main experiment item","yes","NA","SternbergTask.osexp","C:/Users/Anabel/Desktop","no","mono","no","18","no","white","no","yes","768","legacy","40","11","C:/Users/Anabel/Desktop/subject-2.csv","legacy","7 1 8 4 9 3","Jazzy James","3.1.9","0","n","0","left","space","space","NA","left","801","16227","3393","NA","801","2","legacy","6","1024","2","48000","-16","experiment","2","even","6","362799","365003","1548","95357","NA","361721","362797","1544","98751","305199","367004","363801","367808","17777","367004","Sternberg Task","42","63526","53","yes","1024"
"79.6296296296","79.6296296296","1196.33333333","1196.33333333","black","no","experiment","legacy","legacy","legacy","0","uniform","1","undefined","1","right","53","53","0","0","0","53","53","0","0","53","53","53","53","0","53","10/02/18 15:13:01","The main experiment item","yes","NA","SternbergTask.osexp","C:/Users/Anabel/Desktop","no","mono","no","18","no","white","no","yes","768","legacy","41","11","C:/Users/Anabel/Desktop/subject-2.csv","legacy","6 2 9 3 8 4","Jazzy James","3.1.9","0","n","0","right","space","space","NA","right","1076","16227","3393","NA","1076","2","legacy","6","1024","2","48000","-16","experiment","2","even","1","368918","371122","1548","95357","NA","361721","368916","1544","98751","367842","373124","369920","374203","17777","373124","Sternberg Task","43","64602","54","yes","1024"
"80","80","1200.61818182","1200.61818182","black","no","experiment","legacy","legacy","legacy","0","uniform","1","undefined","1","left","54","54","0","0","0","54","54","0","0","54","54","54","54","0","54","10/02/18 15:13:01","The main experiment item","yes","NA","SternbergTask.osexp","C:/Users/Anabel/Desktop","no","mono","no","18","no","white","no","yes","768","legacy","42","11","C:/Users/Anabel/Desktop/subject-2.csv","legacy","2 4 8 5 1 3","Jazzy James","3.1.9","1","y","0","left","space","space","NA","left","1432","16227","3393","NA","1432","2","legacy","6","1024","2","48000","-16","experiment","2","even","2","375335","377539","1548","95357","NA","374254","375332","1544","98751","367842","379541","376337","380976","17777","379541","Sternberg Task","44","66034","55","yes","1024"
"80.3571428571","80.3571428571","1217.83928571","1217.83928571","black","no","experiment","legacy","legacy","legacy","0","uniform","1","undefined","1","right","55","55","0","0","0","55","55","0","0","55","55","55","55","0","55","10/02/18 15:13:01","The main experiment item","yes","NA","SternbergTask.osexp","C:/Users/Anabel/Desktop","no","mono","no","18","no","white","no","yes","768","legacy","43","11","C:/Users/Anabel/Desktop/subject-2.csv","legacy","1 6 4","Jazzy James","3.1.9","0","n","0","right","space","space","NA","right","2165","16227","3393","NA","2165","2","legacy","3","1024","2","48000","-16","experiment","2","even","7","382113","384317","1548","95357","NA","381032","382111","1544","98751","367842","386319","383115","388486","17777","386319","Sternberg Task","45","68199","56","yes","1024"
"80.701754386","80.701754386","1212.47368421","1212.47368421","black","no","experiment","legacy","legacy","legacy","0","uniform","1","undefined","1","left","56","56","0","0","0","56","56","0","0","56","56","56","56","0","56","10/02/18 15:13:01","The main experiment item","yes","NA","SternbergTask.osexp","C:/Users/Anabel/Desktop","no","mono","no","18","no","white","no","yes","768","legacy","44","11","C:/Users/Anabel/Desktop/subject-2.csv","legacy","6 9 7 4 5 1","Jazzy James","3.1.9","2","y","0","left","space","space","NA","left","912","16227","3393","NA","912","2","legacy","6","1024","2","48000","-16","experiment","2","even","9","389619","391823","1548","95357","NA","388543","389617","1544","98751","367842","393825","390621","394738","17777","393825","Sternberg Task","46","69111","57","yes","1024"
"81.0344827586","81.0344827586","1202.55172414","1202.55172414","black","no","experiment","legacy","legacy","legacy","0","uniform","1","undefined","1","right","57","57","0","0","0","57","57","0","0","57","57","57","57","0","57","10/02/18 15:13:01","The main experiment item","yes","NA","SternbergTask.osexp","C:/Users/Anabel/Desktop","no","mono","no","18","no","white","no","yes","768","legacy","45","11","C:/Users/Anabel/Desktop/subject-2.csv","legacy","2 6 4 3 9","Jazzy James","3.1.9","0","n","0","right","space","space","NA","right","637","16227","3393","NA","637","2","legacy","5","1024","2","48000","-16","experiment","2","even","1","395834","398038","1548","95357","NA","394764","395832","1544","98751","367842","400040","396836","400678","17777","400040","Sternberg Task","47","69748","58","yes","1024"
"81.3559322034","81.3559322034","1195.72881356","1195.72881356","black","no","experiment","legacy","legacy","legacy","0","uniform","1","undefined","1","right","58","58","0","0","0","58","58","0","0","58","58","58","58","0","58","10/02/18 15:13:01","The main experiment item","yes","NA","SternbergTask.osexp","C:/Users/Anabel/Desktop","no","mono","no","18","no","white","no","yes","768","legacy","46","11","C:/Users/Anabel/Desktop/subject-2.csv","legacy","8 6 3 4 7","Jazzy James","3.1.9","0","n","0","right","space","space","NA","right","800","16227","3393","NA","800","2","legacy","5","1024","2","48000","-16","experiment","2","even","1","401819","404023","1548","95357","NA","400731","401817","1544","98751","367842","406025","402821","406828","17777","406025","Sternberg Task","48","70548","59","yes","1024"
"81.6666666667","81.6666666667","1188.26666667","1188.26666667","black","no","experiment","legacy","legacy","legacy","0","uniform","1","undefined","1","right","59","59","0","0","0","59","59","0","0","59","59","59","59","0","59","10/02/18 15:13:01","The main experiment item","yes","NA","SternbergTask.osexp","C:/Users/Anabel/Desktop","no","mono","no","18","no","white","no","yes","768","legacy","47","11","C:/Users/Anabel/Desktop/subject-2.csv","legacy","6 8 4","Jazzy James","3.1.9","0","n","0","right","space","space","NA","right","748","16227","3393","NA","748","2","legacy","3","1024","2","48000","-16","experiment","2","even","1","407977","410181","1548","95357","NA","406888","407975","1544","98751","367842","412183","408979","412933","17777","412183","Sternberg Task","49","71296","60","yes","1024"
"81.9672131148","81.9672131148","1184.14754098","1184.14754098","black","no","experiment","legacy","legacy","legacy","0","uniform","1","undefined","1","right","60","60","0","0","0","60","60","0","0","60","60","60","60","0","60","10/02/18 15:13:01","The main experiment item","yes","NA","SternbergTask.osexp","C:/Users/Anabel/Desktop","no","mono","no","18","no","white","no","yes","768","legacy","48","11","C:/Users/Anabel/Desktop/subject-2.csv","legacy","9 7 4 5 8","Jazzy James","3.1.9","0","n","0","right","space","space","NA","right","937","16227","3393","NA","937","2","legacy","5","1024","2","48000","-16","experiment","2","even","6","414065","416269","1548","95357","NA","412987","414063","1544","98751","367842","418271","415067","419211","17777","418271","Sternberg Task","50","72233","61","yes","1024"
"80.6451612903","80.6451612903","1174.67741935","1174.67741935","black","no","experiment","legacy","legacy","legacy","0","uniform","0","undefined","0","right","61","61","0","0","0","61","61","0","0","61","61","61","61","0","61","10/02/18 15:13:01","The main experiment item","yes","NA","SternbergTask.osexp","C:/Users/Anabel/Desktop","no","mono","no","18","no","white","no","yes","768","legacy","49","11","C:/Users/Anabel/Desktop/subject-2.csv","legacy","6 9 4 5 3 2","Jazzy James","3.1.9","0","n","0","left","space","space","NA","left","597","16227","3393","NA","597","2","legacy","6","1024","2","48000","-16","experiment","2","even","8","420343","422547","1548","95357","NA","419265","420341","1544","98751","367842","424549","421345","425148","17777","424549","Sternberg Task","50","72830","62","yes","1024"
"80.9523809524","80.9523809524","1172.55555556","1172.55555556","black","no","experiment","legacy","legacy","legacy","0","uniform","1","undefined","1","right","62","62","0","0","0","62","62","0","0","62","62","62","62","0","62","10/02/18 15:13:01","The main experiment item","yes","NA","SternbergTask.osexp","C:/Users/Anabel/Desktop","no","mono","no","18","no","white","no","yes","768","legacy","50","11","C:/Users/Anabel/Desktop/subject-2.csv","legacy","1 4 9 3","Jazzy James","3.1.9","0","n","0","right","space","space","NA","right","1041","16227","3393","NA","1041","2","legacy","4","1024","2","48000","-16","experiment","2","even","5","426293","428497","1548","95357","NA","419265","426291","1544","98751","425199","430499","427295","431543","17777","430499","Sternberg Task","51","73871","63","yes","1024"
"79.6875","79.6875","1169.609375","1169.609375","black","no","experiment","legacy","legacy","legacy","0","uniform","0","undefined","0","right","63","63","0","0","0","63","63","0","0","63","63","63","63","0","63","10/02/18 15:13:01","The main experiment item","yes","NA","SternbergTask.osexp","C:/Users/Anabel/Desktop","no","mono","no","18","no","white","no","yes","768","legacy","51","11","C:/Users/Anabel/Desktop/subject-2.csv","legacy","9 5 3 2 8 6","Jazzy James","3.1.9","0","n","0","left","space","space","NA","left","984","16227","3393","NA","984","2","legacy","6","1024","2","48000","-16","experiment","2","even","7","432660","434864","1548","95357","NA","431576","432658","1544","98751","425199","436866","433662","437851","17777","436866","Sternberg Task","51","74855","64","yes","1024"
"78.4615384615","78.4615384615","1162.49230769","1162.49230769","black","no","experiment","legacy","legacy","legacy","0","uniform","0","undefined","0","left","64","64","0","0","0","64","64","0","0","64","64","64","64","0","64","10/02/18 15:13:01","The main experiment item","yes","NA","SternbergTask.osexp","C:/Users/Anabel/Desktop","no","mono","no","18","no","white","no","yes","768","legacy","52","11","C:/Users/Anabel/Desktop/subject-2.csv","legacy","3 4","Jazzy James","3.1.9","1","y","0","right","space","space","NA","right","707","16227","3393","NA","707","2","legacy","2","1024","2","48000","-16","experiment","2","even","3","438974","441178","1548","95357","NA","431576","438971","1544","98751","437898","443180","439976","443891","17777","443180","Sternberg Task","51","75562","65","yes","1024"
"78.7878787879","78.7878787879","1157.8030303","1157.8030303","black","no","experiment","legacy","legacy","legacy","0","uniform","1","undefined","1","right","65","65","0","0","0","65","65","0","0","65","65","65","65","0","65","10/02/18 15:13:01","The main experiment item","yes","NA","SternbergTask.osexp","C:/Users/Anabel/Desktop","no","mono","no","18","no","white","no","yes","768","legacy","53","11","C:/Users/Anabel/Desktop/subject-2.csv","legacy","7 8 6 1","Jazzy James","3.1.9","0","n","0","right","space","space","NA","right","853","16227","3393","NA","853","2","legacy","4","1024","2","48000","-16","experiment","2","even","3","445023","447227","1548","95357","NA","431576","445021","1544","98751","443943","449229","446025","450084","17777","449229","Sternberg Task","52","76415","66","yes","1024"
"79.1044776119","79.1044776119","1289.62686567","1289.62686567","black","no","experiment","legacy","legacy","legacy","0","uniform","1","undefined","1","left","66","66","0","0","0","66","66","0","0","66","66","66","66","0","66","10/02/18 15:13:01","The main experiment item","yes","NA","SternbergTask.osexp","C:/Users/Anabel/Desktop","no","mono","no","18","no","white","no","yes","768","legacy","54","11","C:/Users/Anabel/Desktop/subject-2.csv","legacy","4 6 2 5 1","Jazzy James","3.1.9","5","y","0","left","space","space","NA","left","9990","16227","3393","NA","9990","2","legacy","5","1024","2","48000","-16","experiment","2","even","1","451228","453432","1548","95357","NA","450142","451226","1544","98751","443943","455434","452230","465426","17777","455434","Sternberg Task","53","86405","67","yes","1024"
"79.4117647059","79.4117647059","1282.77941176","1282.77941176","black","no","experiment","legacy","legacy","legacy","0","uniform","1","undefined","1","right","67","67","0","0","0","67","67","0","0","67","67","67","67","0","67","10/02/18 15:13:01","The main experiment item","yes","NA","SternbergTask.osexp","C:/Users/Anabel/Desktop","no","mono","no","18","no","white","no","yes","768","legacy","55","11","C:/Users/Anabel/Desktop/subject-2.csv","legacy","6 7 5 9","Jazzy James","3.1.9","0","n","0","right","space","space","NA","right","824","16227","3393","NA","824","2","legacy","4","1024","2","48000","-16","experiment","2","even","2","466566","468770","1548","95357","NA","465487","466564","1544","98751","443943","470772","467568","471598","17777","470772","Sternberg Task","54","87229","68","yes","1024"
"79.7101449275","79.7101449275","1277.26086957","1277.26086957","black","no","experiment","legacy","legacy","legacy","0","uniform","1","undefined","1","left","68","68","0","0","0","68","68","0","0","68","68","68","68","0","68","10/02/18 15:13:01","The main experiment item","yes","NA","SternbergTask.osexp","C:/Users/Anabel/Desktop","no","mono","no","18","no","white","no","yes","768","legacy","56","11","C:/Users/Anabel/Desktop/subject-2.csv","legacy","2 6 1 7 4","Jazzy James","3.1.9","2","y","0","left","space","space","NA","left","902","16227","3393","NA","902","2","legacy","5","1024","2","48000","-16","experiment","2","even","6","472739","474943","1548","95357","NA","471655","472737","1544","98751","443943","476945","473741","477850","17777","476945","Sternberg Task","55","88131","69","yes","1024"
"80","80","1279.37142857","1279.37142857","black","no","experiment","legacy","legacy","legacy","0","uniform","1","undefined","1","right","69","69","0","0","0","69","69","0","0","69","69","69","69","0","69","10/02/18 15:13:01","The main experiment item","yes","NA","SternbergTask.osexp","C:/Users/Anabel/Desktop","no","mono","no","18","no","white","no","yes","768","legacy","57","11","C:/Users/Anabel/Desktop/subject-2.csv","legacy","8 5 4 2 9 6","Jazzy James","3.1.9","0","n","0","right","space","space","NA","right","1425","16227","3393","NA","1425","2","legacy","6","1024","2","48000","-16","experiment","2","even","3","478962","481167","1548","95357","NA","477888","478961","1544","98751","443943","483169","479965","484597","17777","483169","Sternberg Task","56","89556","70","yes","1024"
"80.2816901408","80.2816901408","1274.56338028","1274.56338028","black","no","experiment","legacy","legacy","legacy","0","uniform","1","undefined","1","left","70","70","0","0","0","70","70","0","0","70","70","70","70","0","70","10/02/18 15:13:01","The main experiment item","yes","NA","SternbergTask.osexp","C:/Users/Anabel/Desktop","no","mono","no","18","no","white","no","yes","768","legacy","58","11","C:/Users/Anabel/Desktop/subject-2.csv","legacy","6 7 9 3 1 2","Jazzy James","3.1.9","1","y","0","left","space","space","NA","left","938","16227","3393","NA","938","2","legacy","6","1024","2","48000","-16","experiment","2","even","6","485735","487939","1548","95357","NA","484654","485733","1544","98751","443943","489941","486737","490881","17777","489941","Sternberg Task","57","90494","71","yes","1024"
"80.5555555556","80.5555555556","1270.81944444","1270.81944444","black","no","experiment","legacy","legacy","legacy","0","uniform","1","undefined","1","right","71","71","0","0","0","71","71","0","0","71","71","71","71","0","71","10/02/18 15:13:01","The main experiment item","yes","NA","SternbergTask.osexp","C:/Users/Anabel/Desktop","no","mono","no","18","no","white","no","yes","768","legacy","59","11","C:/Users/Anabel/Desktop/subject-2.csv","legacy","2 8 6 3 1","Jazzy James","3.1.9","0","n","0","right","space","space","NA","right","1005","16227","3393","NA","1005","2","legacy","5","1024","2","48000","-16","experiment","2","even","7","492008","494213","1548","95357","NA","490932","492006","1544","98751","443943","496215","493011","497223","17777","496215","Sternberg Task","58","91499","72","yes","1024"
"80.8219178082","80.8219178082","1263.73972603","1263.73972603","black","no","experiment","legacy","legacy","legacy","0","uniform","1","undefined","1","right","72","72","0","0","0","72","72","0","0","72","72","72","72","0","72","10/02/18 15:13:01","The main experiment item","yes","NA","SternbergTask.osexp","C:/Users/Anabel/Desktop","no","mono","no","18","no","white","no","yes","768","legacy","60","11","C:/Users/Anabel/Desktop/subject-2.csv","legacy","2 8 9 4 1","Jazzy James","3.1.9","0","n","0","right","space","space","NA","right","754","16227","3393","NA","754","2","legacy","5","1024","2","48000","-16","experiment","2","even","5","498361","500565","1548","95357","NA","497277","498359","1544","98751","443943","502567","499363","503324","17777","502567","Sternberg Task","59","92253","73","yes","1024"
"79.7297297297","79.7297297297","1259.2972973","1259.2972973","black","no","experiment","legacy","legacy","legacy","0","uniform","0","undefined","0","left","73","73","0","0","0","73","73","0","0","73","73","73","73","0","73","10/02/18 15:13:01","The main experiment item","yes","NA","SternbergTask.osexp","C:/Users/Anabel/Desktop","no","mono","no","18","no","white","no","yes","768","legacy","61","11","C:/Users/Anabel/Desktop/subject-2.csv","legacy","4 7 6 8 2 3","Jazzy James","3.1.9","6","y","0","right","space","space","NA","right","935","16227","3393","NA","935","2","legacy","6","1024","2","48000","-16","experiment","2","even","3","504456","506660","1548","95357","NA","503376","504454","1544","98751","443943","508662","505458","509599","17777","508662","Sternberg Task","59","93188","74","yes","1024"
"80","80","1255.72","1255.72","black","no","experiment","legacy","legacy","legacy","0","uniform","1","undefined","1","right","74","74","0","0","0","74","74","0","0","74","74","74","74","0","74","10/02/18 15:13:01","The main experiment item","yes","NA","SternbergTask.osexp","C:/Users/Anabel/Desktop","no","mono","no","18","no","white","no","yes","768","legacy","62","11","C:/Users/Anabel/Desktop/subject-2.csv","legacy","1 4 9 2 5","Jazzy James","3.1.9","0","n","0","right","space","space","NA","right","991","16227","3393","NA","991","2","legacy","5","1024","2","48000","-16","experiment","2","even","7","510730","512934","1548","95357","NA","503376","510728","1544","98751","509654","514936","511732","515929","17777","514936","Sternberg Task","60","94179","75","yes","1024"
"80.2631578947","80.2631578947","1250.23684211","1250.23684211","black","no","experiment","legacy","legacy","legacy","0","uniform","1","undefined","1","right","75","75","0","0","0","75","75","0","0","75","75","75","75","0","75","10/02/18 15:13:01","The main experiment item","yes","NA","SternbergTask.osexp","C:/Users/Anabel/Desktop","no","mono","no","18","no","white","no","yes","768","legacy","63","11","C:/Users/Anabel/Desktop/subject-2.csv","legacy","2 8 9","Jazzy James","3.1.9","0","n","0","right","space","space","NA","right","839","16227","3393","NA","839","2","legacy","3","1024","2","48000","-16","experiment","2","even","6","517048","519252","1548","95357","NA","515965","517046","1544","98751","509654","521254","518050","522095","17777","521254","Sternberg Task","61","95018","76","yes","1024"
"79.2207792208","79.2207792208","1245.07792208","1245.07792208","black","no","experiment","legacy","legacy","legacy","0","uniform","0","undefined","0","left","76","76","0","0","0","76","76","0","0","76","76","76","76","0","76","10/02/18 15:13:01","The main experiment item","yes","NA","SternbergTask.osexp","C:/Users/Anabel/Desktop","no","mono","no","18","no","white","no","yes","768","legacy","64","11","C:/Users/Anabel/Desktop/subject-2.csv","legacy","6 8 9 3 4 9","Jazzy James","3.1.9","5","y","0","right","space","space","NA","right","853","16227","3393","NA","853","2","legacy","6","1024","2","48000","-16","experiment","2","even","4","523228","525432","1548","95357","NA","522143","523226","1544","98751","509654","527434","524230","528289","17777","527434","Sternberg Task","61","95871","77","yes","1024"
"79.4871794872","79.4871794872","1244.14102564","1244.14102564","black","no","experiment","legacy","legacy","legacy","0","uniform","1","undefined","1","left","77","77","0","0","0","77","77","0","0","77","77","77","77","0","77","10/02/18 15:13:01","The main experiment item","yes","NA","SternbergTask.osexp","C:/Users/Anabel/Desktop","no","mono","no","18","no","white","no","yes","768","legacy","65","11","C:/Users/Anabel/Desktop/subject-2.csv","legacy","8 3","Jazzy James","3.1.9","2","y","0","left","space","space","NA","left","1172","16227","3393","NA","1172","2","legacy","2","1024","2","48000","-16","experiment","2","even","3","529601","531805","1548","95357","NA","522143","529599","1544","98751","528525","533807","530603","534980","17777","533807","Sternberg Task","62","97043","78","yes","1024"
"79.746835443","79.746835443","1243.05063291","1243.05063291","black","no","experiment","legacy","legacy","legacy","0","uniform","1","undefined","1","right","78","78","0","0","0","78","78","0","0","78","78","78","78","0","78","10/02/18 15:13:01","The main experiment item","yes","NA","SternbergTask.osexp","C:/Users/Anabel/Desktop","no","mono","no","18","no","white","no","yes","768","legacy","66","11","C:/Users/Anabel/Desktop/subject-2.csv","legacy","7 9 1 6","Jazzy James","3.1.9","0","n","0","right","space","space","NA","right","1158","16227","3393","NA","1158","2","legacy","4","1024","2","48000","-16","experiment","2","even","4","536108","538312","1548","95357","NA","535032","536106","1544","98751","528525","540314","537110","541474","17777","540314","Sternberg Task","63","98201","79","yes","1024"
"78.75","78.75","1256.45","1256.45","black","no","experiment","legacy","legacy","legacy","0","uniform","0","undefined","0","left","79","79","0","0","0","79","79","0","0","79","79","79","79","0","79","10/02/18 15:13:01","The main experiment item","yes","NA","SternbergTask.osexp","C:/Users/Anabel/Desktop","no","mono","no","18","no","white","no","yes","768","legacy","67","11","C:/Users/Anabel/Desktop/subject-2.csv","legacy","8 5 3 7 4 6","Jazzy James","3.1.9","6","y","0","right","space","space","NA","right","2315","16227","3393","NA","2315","2","legacy","6","1024","2","48000","-16","experiment","2","even","6","542595","544799","1548","95357","NA","541521","542593","1544","98751","528525","546801","543597","549118","17777","546801","Sternberg Task","63","100516","80","yes","1024"
"79.012345679","79.012345679","1250.43209877","1250.43209877","black","no","experiment","legacy","legacy","legacy","0","uniform","1","undefined","1","right","80","80","0","0","0","80","80","0","0","80","80","80","80","0","80","10/02/18 15:13:01","The main experiment item","yes","NA","SternbergTask.osexp","C:/Users/Anabel/Desktop","no","mono","no","18","no","white","no","yes","768","legacy","68","11","C:/Users/Anabel/Desktop/subject-2.csv","legacy","4 1","Jazzy James","3.1.9","0","n","0","right","space","space","NA","right","769","16227","3393","NA","769","2","legacy","2","1024","2","48000","-16","experiment","2","even","6","550240","552444","1548","95357","NA","541521","550238","1544","98751","549166","554446","551242","555218","17777","554446","Sternberg Task","64","101285","81","yes","1024"
"79.2682926829","79.2682926829","1245.80487805","1245.80487805","black","no","experiment","legacy","legacy","legacy","0","uniform","1","undefined","1","right","81","81","0","0","0","81","81","0","0","81","81","81","81","0","81","10/02/18 15:13:01","The main experiment item","yes","NA","SternbergTask.osexp","C:/Users/Anabel/Desktop","no","mono","no","18","no","white","no","yes","768","legacy","69","11","C:/Users/Anabel/Desktop/subject-2.csv","legacy","6 3 1 7 9 8","Jazzy James","3.1.9","0","n","0","right","space","space","NA","right","871","16227","3393","NA","871","2","legacy","6","1024","2","48000","-16","experiment","2","even","4","556392","558596","1548","95357","NA","555315","556390","1544","98751","549166","560598","557394","561471","17777","560598","Sternberg Task","65","102156","82","yes","1024"
"78.313253012","78.313253012","1239.44578313","1239.44578313","black","no","experiment","legacy","legacy","legacy","0","uniform","0","undefined","0","left","82","82","0","0","0","82","82","0","0","82","82","82","82","0","82","10/02/18 15:13:01","The main experiment item","yes","NA","SternbergTask.osexp","C:/Users/Anabel/Desktop","no","mono","no","18","no","white","no","yes","768","legacy","70","11","C:/Users/Anabel/Desktop/subject-2.csv","legacy","3 9 6 2","Jazzy James","3.1.9","4","y","0","right","space","space","NA","right","718","16227","3393","NA","718","2","legacy","4","1024","2","48000","-16","experiment","2","even","2","562598","564802","1548","95357","NA","561521","562596","1544","98751","549166","566804","563600","567524","17777","566804","Sternberg Task","65","102874","83","yes","1024"
"77.380952381","77.380952381","1235.30952381","1235.30952381","black","no","experiment","legacy","legacy","legacy","0","uniform","0","undefined","0","left","83","83","0","0","0","83","83","0","0","83","83","83","83","0","83","10/02/18 15:13:01","The main experiment item","yes","NA","SternbergTask.osexp","C:/Users/Anabel/Desktop","no","mono","no","18","no","white","no","yes","768","legacy","71","11","C:/Users/Anabel/Desktop/subject-2.csv","legacy","9 1 7 2","Jazzy James","3.1.9","2","y","0","right","space","space","NA","right","892","16227","3393","NA","892","2","legacy","4","1024","2","48000","-16","experiment","2","even","1","568655","570859","1548","95357","NA","561521","568653","1544","98751","567576","572861","569657","573755","17777","572861","Sternberg Task","65","103766","84","yes","1024"
"76.4705882353","76.4705882353","1233.42352941","1233.42352941","black","no","experiment","legacy","legacy","legacy","0","uniform","0","undefined","0","left","84","84","0","0","0","84","84","0","0","84","84","84","84","0","84","10/02/18 15:13:01","The main experiment item","yes","NA","SternbergTask.osexp","C:/Users/Anabel/Desktop","no","mono","no","18","no","white","no","yes","768","legacy","72","11","C:/Users/Anabel/Desktop/subject-2.csv","legacy","6 2","Jazzy James","3.1.9","1","y","0","right","space","space","NA","right","1075","16227","3393","NA","1075","2","legacy","2","1024","2","48000","-16","experiment","2","even","6","574899","577103","1548","95357","NA","561521","574896","1544","98751","573810","579105","575901","580182","17777","579105","Sternberg Task","65","104841","85","yes","1024"
"76.7441860465","76.7441860465","1243.11627907","1243.11627907","black","no","experiment","legacy","legacy","legacy","0","uniform","1","undefined","1","right","85","85","0","0","0","85","85","0","0","85","85","85","85","0","85","10/02/18 15:13:01","The main experiment item","yes","NA","SternbergTask.osexp","C:/Users/Anabel/Desktop","no","mono","no","18","no","white","no","yes","768","legacy","73","11","C:/Users/Anabel/Desktop/subject-2.csv","legacy","5 7 3","Jazzy James","3.1.9","0","n","0","right","space","space","NA","right","2067","16227","3393","NA","2067","2","legacy","3","1024","2","48000","-16","experiment","2","even","9","581312","583516","1548","95357","NA","561521","581310","1544","98751","580232","585518","582314","587587","17777","585518","Sternberg Task","66","106908","86","yes","1024"
"77.0114942529","77.0114942529","1241.83908046","1241.83908046","black","no","experiment","legacy","legacy","legacy","0","uniform","1","undefined","1","right","86","86","0","0","0","86","86","0","0","86","86","86","86","0","86","10/02/18 15:13:01","The main experiment item","yes","NA","SternbergTask.osexp","C:/Users/Anabel/Desktop","no","mono","no","18","no","white","no","yes","768","legacy","74","11","C:/Users/Anabel/Desktop/subject-2.csv","legacy","3 9 8 1 6 4","Jazzy James","3.1.9","0","n","0","right","space","space","NA","right","1132","16227","3393","NA","1132","2","legacy","6","1024","2","48000","-16","experiment","2","even","7","588698","590902","1548","95357","NA","587621","588696","1544","98751","580232","592904","589700","594038","17777","592904","Sternberg Task","67","108040","87","yes","1024"
"76.1363636364","76.1363636364","1239.22727273","1239.22727273","black","no","experiment","legacy","legacy","legacy","0","uniform","0","undefined","0","left","87","87","0","0","0","87","87","0","0","87","87","87","87","0","87","10/02/18 15:13:01","The main experiment item","yes","NA","SternbergTask.osexp","C:/Users/Anabel/Desktop","no","mono","no","18","no","white","no","yes","768","legacy","75","11","C:/Users/Anabel/Desktop/subject-2.csv","legacy","3 5 4 7","Jazzy James","3.1.9","1","y","0","right","space","space","NA","right","1012","16227","3393","NA","1012","2","legacy","4","1024","2","48000","-16","experiment","2","even","3","595171","597375","1548","95357","NA","594087","595169","1544","98751","580232","599377","596173","600390","17777","599377","Sternberg Task","67","109052","88","yes","1024"
"76.404494382","76.404494382","1236.17977528","1236.17977528","black","no","experiment","legacy","legacy","legacy","0","uniform","1","undefined","1","right","88","88","0","0","0","88","88","0","0","88","88","88","88","0","88","10/02/18 15:13:01","The main experiment item","yes","NA","SternbergTask.osexp","C:/Users/Anabel/Desktop","no","mono","no","18","no","white","no","yes","768","legacy","76","11","C:/Users/Anabel/Desktop/subject-2.csv","legacy","4 8 1 2","Jazzy James","3.1.9","0","n","0","right","space","space","NA","right","968","16227","3393","NA","968","2","legacy","4","1024","2","48000","-16","experiment","2","even","7","601534","603738","1548","95357","NA","594087","601530","1544","98751","600444","605740","602536","606711","17777","605740","Sternberg Task","68","110020","89","yes","1024"
"76.6666666667","76.6666666667","1235.2","1235.2","black","no","experiment","legacy","legacy","legacy","0","uniform","1","undefined","1","left","89","89","0","0","0","89","89","0","0","89","89","89","89","0","89","10/02/18 15:13:01","The main experiment item","yes","NA","SternbergTask.osexp","C:/Users/Anabel/Desktop","no","mono","no","18","no","white","no","yes","768","legacy","77","11","C:/Users/Anabel/Desktop/subject-2.csv","legacy","4 1 5","Jazzy James","3.1.9","2","y","0","left","space","space","NA","left","1148","16227","3393","NA","1148","2","legacy","3","1024","2","48000","-16","experiment","2","even","1","607841","610045","1548","95357","NA","606766","607839","1544","98751","600444","612047","608843","613198","17777","612047","Sternberg Task","69","111168","90","yes","1024"
"76.9230769231","76.9230769231","1232.04395604","1232.04395604","black","no","experiment","legacy","legacy","legacy","0","uniform","1","undefined","1","left","90","90","0","0","0","90","90","0","0","90","90","90","90","0","90","10/02/18 15:13:01","The main experiment item","yes","NA","SternbergTask.osexp","C:/Users/Anabel/Desktop","no","mono","no","18","no","white","no","yes","768","legacy","78","11","C:/Users/Anabel/Desktop/subject-2.csv","legacy","8","Jazzy James","3.1.9","1","y","0","left","space","space","NA","left","948","16227","3393","NA","948","2","legacy","1","1024","2","48000","-16","experiment","2","even","8","614351","616555","1548","95357","NA","613277","614349","1544","98751","600444","618557","615353","619507","17777","618557","Sternberg Task","70","112116","91","yes","1024"
"77.1739130435","77.1739130435","1231.43478261","1231.43478261","black","no","experiment","legacy","legacy","legacy","0","uniform","1","undefined","1","left","91","91","0","0","0","91","91","0","0","91","91","91","91","0","91","10/02/18 15:13:01","The main experiment item","yes","NA","SternbergTask.osexp","C:/Users/Anabel/Desktop","no","mono","no","18","no","white","no","yes","768","legacy","79","11","C:/Users/Anabel/Desktop/subject-2.csv","legacy","9 6 2 4 1","Jazzy James","3.1.9","4","y","0","left","space","space","NA","left","1176","16227","3393","NA","1176","2","legacy","5","1024","2","48000","-16","experiment","2","even","4","620651","622855","1548","95357","NA","619577","620649","1544","98751","600444","624857","621653","626036","17777","624857","Sternberg Task","71","113292","92","yes","1024"
"76.3440860215","76.3440860215","1226.69892473","1226.69892473","black","no","experiment","legacy","legacy","legacy","0","uniform","0","undefined","0","left","92","92","0","0","0","92","92","0","0","92","92","92","92","0","92","10/02/18 15:13:01","The main experiment item","yes","NA","SternbergTask.osexp","C:/Users/Anabel/Desktop","no","mono","no","18","no","white","no","yes","768","legacy","80","11","C:/Users/Anabel/Desktop/subject-2.csv","legacy","6 9 3 1","Jazzy James","3.1.9","4","y","0","right","space","space","NA","right","791","16227","3393","NA","791","2","legacy","4","1024","2","48000","-16","experiment","2","even","1","627152","629356","1548","95357","NA","626066","627150","1544","98751","600444","631358","628154","632152","17777","631358","Sternberg Task","71","114083","93","yes","1024"
"76.5957446809","76.5957446809","1225.30851064","1225.30851064","black","no","experiment","legacy","legacy","legacy","0","uniform","1","undefined","1","right","93","93","0","0","0","93","93","0","0","93","93","93","93","0","93","10/02/18 15:13:01","The main experiment item","yes","NA","SternbergTask.osexp","C:/Users/Anabel/Desktop","no","mono","no","18","no","white","no","yes","768","legacy","81","11","C:/Users/Anabel/Desktop/subject-2.csv","legacy","1","Jazzy James","3.1.9","0","n","0","right","space","space","NA","right","1096","16227","3393","NA","1096","2","legacy","1","1024","2","48000","-16","experiment","2","even","7","633295","635499","1548","95357","NA","626066","633293","1544","98751","632210","637501","634297","638600","17777","637501","Sternberg Task","72","115179","94","yes","1024"
"76.8421052632","76.8421052632","1227.90526316","1227.90526316","black","no","experiment","legacy","legacy","legacy","0","uniform","1","undefined","1","left","94","94","0","0","0","94","94","0","0","94","94","94","94","0","94","10/02/18 15:13:01","The main experiment item","yes","NA","SternbergTask.osexp","C:/Users/Anabel/Desktop","no","mono","no","18","no","white","no","yes","768","legacy","82","11","C:/Users/Anabel/Desktop/subject-2.csv","legacy","3 9 7 6 4","Jazzy James","3.1.9","3","y","0","left","space","space","NA","left","1472","16227","3393","NA","1472","2","legacy","5","1024","2","48000","-16","experiment","2","even","7","639749","641953","1548","95357","NA","638665","639747","1544","98751","632210","643955","640751","645430","17777","643955","Sternberg Task","73","116651","95","yes","1024"
"77.0833333333","77.0833333333","1224.38541667","1224.38541667","black","no","experiment","legacy","legacy","legacy","0","uniform","1","undefined","1","right","95","95","0","0","0","95","95","0","0","95","95","95","95","0","95","10/02/18 15:13:01","The main experiment item","yes","NA","SternbergTask.osexp","C:/Users/Anabel/Desktop","no","mono","no","18","no","white","no","yes","768","legacy","83","11","C:/Users/Anabel/Desktop/subject-2.csv","legacy","5 3 8 7 2 4","Jazzy James","3.1.9","0","n","0","right","space","space","NA","right","890","16227","3393","NA","890","2","legacy","6","1024","2","48000","-16","experiment","2","even","9","646560","648764","1548","95357","NA","645477","646558","1544","98751","632210","650766","647562","651658","17777","650766","Sternberg Task","74","117541","96","yes","1024"
"77.3195876289","77.3195876289","1219.40206186","1219.40206186","black","no","experiment","legacy","legacy","legacy","0","uniform","1","undefined","1","right","96","96","0","0","0","96","96","0","0","96","96","96","96","0","96","10/02/18 15:13:01","The main experiment item","yes","NA","SternbergTask.osexp","C:/Users/Anabel/Desktop","no","mono","no","18","no","white","no","yes","768","legacy","84","11","C:/Users/Anabel/Desktop/subject-2.csv","legacy","7 1 5 6 3","Jazzy James","3.1.9","0","n","0","right","space","space","NA","right","741","16227","3393","NA","741","2","legacy","5","1024","2","48000","-16","experiment","2","even","8","652795","654999","1548","95357","NA","651709","652793","1544","98751","632210","657001","653797","657745","17777","657001","Sternberg Task","75","118282","97","yes","1024"
"77.5510204082","77.5510204082","1217.19387755","1217.19387755","black","no","experiment","legacy","legacy","legacy","0","uniform","1","undefined","1","left","97","97","0","0","0","97","97","0","0","97","97","97","97","0","97","10/02/18 15:13:01","The main experiment item","yes","NA","SternbergTask.osexp","C:/Users/Anabel/Desktop","no","mono","no","18","no","white","no","yes","768","legacy","85","11","C:/Users/Anabel/Desktop/subject-2.csv","legacy","9 5 8 1","Jazzy James","3.1.9","2","y","0","left","space","space","NA","left","1003","16227","3393","NA","1003","2","legacy","4","1024","2","48000","-16","experiment","2","even","5","658873","661077","1548","95357","NA","657799","658871","1544","98751","632210","663079","659875","664084","17777","663079","Sternberg Task","76","119285","98","yes","1024"
"76.7676767677","76.7676767677","1213.65656566","1213.65656566","black","no","experiment","legacy","legacy","legacy","0","uniform","0","undefined","0","left","98","98","0","0","0","98","98","0","0","98","98","98","98","0","98","10/02/18 15:13:01","The main experiment item","yes","NA","SternbergTask.osexp","C:/Users/Anabel/Desktop","no","mono","no","18","no","white","no","yes","768","legacy","86","11","C:/Users/Anabel/Desktop/subject-2.csv","legacy","4 6 5 8","Jazzy James","3.1.9","1","y","0","right","space","space","NA","right","867","16227","3393","NA","867","2","legacy","4","1024","2","48000","-16","experiment","2","even","4","665192","667396","1548","95357","NA","664110","665190","1544","98751","632210","669398","666194","670269","17777","669398","Sternberg Task","76","120152","99","yes","1024"
"77","77","1220.87","1220.87","black","no","experiment","legacy","legacy","legacy","0","uniform","1","undefined","1","right","99","99","0","0","0","99","99","0","0","99","99","99","99","0","99","10/02/18 15:13:01","The main experiment item","yes","NA","SternbergTask.osexp","C:/Users/Anabel/Desktop","no","mono","no","18","no","white","no","yes","768","legacy","87","11","C:/Users/Anabel/Desktop/subject-2.csv","legacy","1 6 4 3 9 7","Jazzy James","3.1.9","0","n","0","right","space","space","NA","right","1935","16227","3393","NA","1935","2","legacy","6","1024","2","48000","-16","experiment","2","even","8","671380","673584","1548","95357","NA","664110","671378","1544","98751","670299","675586","672382","677524","17777","675586","Sternberg Task","77","122087","100","yes","1024"
"76.2376237624","76.2376237624","1223.65346535","1223.65346535","black","no","experiment","legacy","legacy","legacy","0","uniform","0","undefined","0","right","100","100","0","0","0","100","100","0","0","100","100","100","100","0","100","10/02/18 15:13:01","The main experiment item","yes","NA","SternbergTask.osexp","C:/Users/Anabel/Desktop","no","mono","no","18","no","white","no","yes","768","legacy","88","11","C:/Users/Anabel/Desktop/subject-2.csv","legacy","7 1","Jazzy James","3.1.9","0","n","0","left","space","space","NA","left","1502","16227","3393","NA","1502","2","legacy","2","1024","2","48000","-16","experiment","2","even","8","678661","680865","1548","95357","NA","677577","678659","1544","98751","670299","682867","679663","684373","17777","682867","Sternberg Task","77","123589","101","yes","1024"
"76.4705882353","76.4705882353","1225.34313725","1225.34313725","black","no","experiment","legacy","legacy","legacy","0","uniform","1","undefined","1","right","101","101","0","0","0","101","101","0","0","101","101","101","101","0","101","10/02/18 15:13:01","The main experiment item","yes","NA","SternbergTask.osexp","C:/Users/Anabel/Desktop","no","mono","no","18","no","white","no","yes","768","legacy","89","11","C:/Users/Anabel/Desktop/subject-2.csv","legacy","3 4 2","Jazzy James","3.1.9","0","n","0","right","space","space","NA","right","1396","16227","3393","NA","1396","2","legacy","3","1024","2","48000","-16","experiment","2","even","5","685539","687744","1548","95357","NA","677577","685537","1544","98751","684460","689746","686542","691146","17777","689746","Sternberg Task","78","124985","102","yes","1024"
"75.7281553398","75.7281553398","1222.55339806","1222.55339806","black","no","experiment","legacy","legacy","legacy","0","uniform","0","undefined","0","left","102","102","0","0","0","102","102","0","0","102","102","102","102","0","102","10/02/18 15:13:01","The main experiment item","yes","NA","SternbergTask.osexp","C:/Users/Anabel/Desktop","no","mono","no","18","no","white","no","yes","768","legacy","90","11","C:/Users/Anabel/Desktop/subject-2.csv","legacy","3 4 9 6 2 9","Jazzy James","3.1.9","5","y","0","right","space","space","NA","right","938","16227","3393","NA","938","2","legacy","6","1024","2","48000","-16","experiment","2","even","2","692278","694482","1548","95357","NA","691199","692276","1544","98751","684460","696484","693280","697426","17777","696484","Sternberg Task","78","125923","103","yes","1024"
"75","75","1224.73076923","1224.73076923","black","no","experiment","legacy","legacy","legacy","0","uniform","0","undefined","0","right","103","103","0","0","0","103","103","0","0","103","103","103","103","0","103","10/02/18 15:13:01","The main experiment item","yes","NA","SternbergTask.osexp","C:/Users/Anabel/Desktop","no","mono","no","18","no","white","no","yes","768","legacy","91","11","C:/Users/Anabel/Desktop/subject-2.csv","legacy","1 7 5 2","Jazzy James","3.1.9","0","n","0","left","space","space","NA","left","1449","16227","3393","NA","1449","2","legacy","4","1024","2","48000","-16","experiment","2","even","3","698556","700760","1548","95357","NA","691199","698554","1544","98751","697477","702762","699558","704213","17777","702762","Sternberg Task","78","127372","104","yes","1024"
"75.2380952381","75.2380952381","1224.1047619","1224.1047619","black","no","experiment","legacy","legacy","legacy","0","uniform","1","undefined","1","left","104","104","0","0","0","104","104","0","0","104","104","104","104","0","104","10/02/18 15:13:01","The main experiment item","yes","NA","SternbergTask.osexp","C:/Users/Anabel/Desktop","no","mono","no","18","no","white","no","yes","768","legacy","92","11","C:/Users/Anabel/Desktop/subject-2.csv","legacy","8 9 5 7 1 6","Jazzy James","3.1.9","4","y","0","left","space","space","NA","left","1159","16227","3393","NA","1159","2","legacy","6","1024","2","48000","-16","experiment","2","even","7","705341","707545","1548","95357","NA","691199","705339","1544","98751","704265","709547","706343","710709","17777","709547","Sternberg Task","79","128531","105","yes","1024"
"75.4716981132","75.4716981132","1221.68867925","1221.68867925","black","no","experiment","legacy","legacy","legacy","0","uniform","1","undefined","1","left","105","105","0","0","0","105","105","0","0","105","105","105","105","0","105","10/02/18 15:13:01","The main experiment item","yes","NA","SternbergTask.osexp","C:/Users/Anabel/Desktop","no","mono","no","18","no","white","no","yes","768","legacy","93","11","C:/Users/Anabel/Desktop/subject-2.csv","legacy","4 9 7 8 5 3","Jazzy James","3.1.9","4","y","0","left","space","space","NA","left","968","16227","3393","NA","968","2","legacy","6","1024","2","48000","-16","experiment","2","even","8","711845","714049","1548","95357","NA","710766","711843","1544","98751","704265","716051","712847","717021","17777","716051","Sternberg Task","80","129499","106","yes","1024"
"75.7009345794","75.7009345794","1216.47663551","1216.47663551","black","no","experiment","legacy","legacy","legacy","0","uniform","1","undefined","1","right","106","106","0","0","0","106","106","0","0","106","106","106","106","0","106","10/02/18 15:13:01","The main experiment item","yes","NA","SternbergTask.osexp","C:/Users/Anabel/Desktop","no","mono","no","18","no","white","no","yes","768","legacy","94","11","C:/Users/Anabel/Desktop/subject-2.csv","legacy","5 2","Jazzy James","3.1.9","0","n","0","right","space","space","NA","right","664","16227","3393","NA","664","2","legacy","2","1024","2","48000","-16","experiment","2","even","7","718151","720355","1548","95357","NA","717077","718149","1544","98751","704265","722357","719153","723026","17777","722357","Sternberg Task","81","130163","107","yes","1024"
"75","75","1211.87962963","1211.87962963","black","no","experiment","legacy","legacy","legacy","0","uniform","0","undefined","0","left","107","107","0","0","0","107","107","0","0","107","107","107","107","0","107","10/02/18 15:13:01","The main experiment item","yes","NA","SternbergTask.osexp","C:/Users/Anabel/Desktop","no","mono","no","18","no","white","no","yes","768","legacy","95","11","C:/Users/Anabel/Desktop/subject-2.csv","legacy","6 1 2","Jazzy James","3.1.9","3","y","0","right","space","space","NA","right","720","16227","3393","NA","720","2","legacy","3","1024","2","48000","-16","experiment","2","even","2","724153","726357","1548","95357","NA","723076","724151","1544","98751","704265","728359","725155","729081","17777","728359","Sternberg Task","81","130883","108","yes","1024"
"75.2293577982","75.2293577982","1206.02752294","1206.02752294","black","no","experiment","legacy","legacy","legacy","0","uniform","1","undefined","1","right","108","108","0","0","0","108","108","0","0","108","108","108","108","0","108","10/02/18 15:13:01","The main experiment item","yes","NA","SternbergTask.osexp","C:/Users/Anabel/Desktop","no","mono","no","18","no","white","no","yes","768","legacy","96","11","C:/Users/Anabel/Desktop/subject-2.csv","legacy","5 9 2 3","Jazzy James","3.1.9","0","n","0","right","space","space","NA","right","574","16227","3393","NA","574","2","legacy","4","1024","2","48000","-16","experiment","2","even","8","730184","732389","1548","95357","NA","723076","730183","1544","98751","729109","734391","731187","734968","17777","734391","Sternberg Task","82","131457","109","yes","1024"
"75.4545454545","75.4545454545","1202.84545455","1202.84545455","black","no","experiment","legacy","legacy","legacy","0","uniform","1","undefined","1","left","109","109","0","0","0","109","109","0","0","109","109","109","109","0","109","10/02/18 15:13:01","The main experiment item","yes","NA","SternbergTask.osexp","C:/Users/Anabel/Desktop","no","mono","no","18","no","white","no","yes","768","legacy","97","11","C:/Users/Anabel/Desktop/subject-2.csv","legacy","4","Jazzy James","3.1.9","1","y","0","left","space","space","NA","left","856","16227","3393","NA","856","2","legacy","1","1024","2","48000","-16","experiment","2","even","4","736082","738286","1548","95357","NA","734999","736080","1544","98751","729109","740288","737084","741147","17777","740288","Sternberg Task","83","132313","110","yes","1024"
"75.6756756757","75.6756756757","1201.01801802","1201.01801802","black","no","experiment","legacy","legacy","legacy","0","uniform","1","undefined","1","left","110","110","0","0","0","110","110","0","0","110","110","110","110","0","110","10/02/18 15:13:01","The main experiment item","yes","NA","SternbergTask.osexp","C:/Users/Anabel/Desktop","no","mono","no","18","no","white","no","yes","768","legacy","98","11","C:/Users/Anabel/Desktop/subject-2.csv","legacy","4 1 8 7 5","Jazzy James","3.1.9","3","y","0","left","space","space","NA","left","1000","16227","3393","NA","1000","2","legacy","5","1024","2","48000","-16","experiment","2","even","8","742285","744490","1548","95357","NA","741199","742283","1544","98751","729109","746492","743288","747495","17777","746492","Sternberg Task","84","133313","111","yes","1024"
"75.8928571429","75.8928571429","1199.875","1199.875","black","no","experiment","legacy","legacy","legacy","0","uniform","1","undefined","1","left","111","111","0","0","0","111","111","0","0","111","111","111","111","0","111","10/02/18 15:13:01","The main experiment item","yes","NA","SternbergTask.osexp","C:/Users/Anabel/Desktop","no","mono","no","18","no","white","no","yes","768","legacy","99","11","C:/Users/Anabel/Desktop/subject-2.csv","legacy","1 4 9 3 2 5","Jazzy James","3.1.9","3","y","0","left","space","space","NA","left","1073","16227","3393","NA","1073","2","legacy","6","1024","2","48000","-16","experiment","2","even","9","748624","750829","1548","95357","NA","747544","748622","1544","98751","729109","752831","749627","753908","17777","752831","Sternberg Task","85","134386","112","yes","1024"
"76.1061946903","76.1061946903","1195.9380531","1195.9380531","black","no","experiment","legacy","legacy","legacy","0","uniform","1","undefined","1","right","112","112","0","0","0","112","112","0","0","112","112","112","112","0","112","10/02/18 15:13:01","The main experiment item","yes","NA","SternbergTask.osexp","C:/Users/Anabel/Desktop","no","mono","no","18","no","white","no","yes","768","legacy","100","11","C:/Users/Anabel/Desktop/subject-2.csv","legacy","8 4 3 5","Jazzy James","3.1.9","0","n","0","right","space","space","NA","right","755","16227","3393","NA","755","2","legacy","4","1024","2","48000","-16","experiment","2","even","6","755039","757243","1548","95357","NA","753955","755037","1544","98751","729109","759245","756041","760005","17777","759245","Sternberg Task","86","135141","113","yes","1024"
"76.3157894737","76.3157894737","1192.34210526","1192.34210526","black","no","experiment","legacy","legacy","legacy","0","uniform","1","undefined","1","right","113","113","0","0","0","113","113","0","0","113","113","113","113","0","113","10/02/18 15:13:01","The main experiment item","yes","NA","SternbergTask.osexp","C:/Users/Anabel/Desktop","no","mono","no","18","no","white","no","yes","768","legacy","101","11","C:/Users/Anabel/Desktop/subject-2.csv","legacy","9 8 2 7 4","Jazzy James","3.1.9","0","n","0","right","space","space","NA","right","786","16227","3393","NA","786","2","legacy","5","1024","2","48000","-16","experiment","2","even","5","761110","763314","1548","95357","NA","760033","761108","1544","98751","729109","765316","762112","766106","17777","765316","Sternberg Task","87","135927","114","yes","1024"
"76.5217391304","76.5217391304","1190.86956522","1190.86956522","black","no","experiment","legacy","legacy","legacy","0","uniform","1","undefined","1","left","114","114","0","0","0","114","114","0","0","114","114","114","114","0","114","10/02/18 15:13:01","The main experiment item","yes","NA","SternbergTask.osexp","C:/Users/Anabel/Desktop","no","mono","no","18","no","white","no","yes","768","legacy","102","11","C:/Users/Anabel/Desktop/subject-2.csv","legacy","8 9 6 1","Jazzy James","3.1.9","2","y","0","left","space","space","NA","left","1023","16227","3393","NA","1023","2","legacy","4","1024","2","48000","-16","experiment","2","even","9","767230","769434","1548","95357","NA","766155","767228","1544","98751","729109","771436","768232","772463","17777","771436","Sternberg Task","88","136950","115","yes","1024"
"76.724137931","76.724137931","1186.6637931","1186.6637931","black","no","experiment","legacy","legacy","legacy","0","uniform","1","undefined","1","right","115","115","0","0","0","115","115","0","0","115","115","115","115","0","115","10/02/18 15:13:01","The main experiment item","yes","NA","SternbergTask.osexp","C:/Users/Anabel/Desktop","no","mono","no","18","no","white","no","yes","768","legacy","103","11","C:/Users/Anabel/Desktop/subject-2.csv","legacy","1 3 2 6 9","Jazzy James","3.1.9","0","n","0","right","space","space","NA","right","703","16227","3393","NA","703","2","legacy","5","1024","2","48000","-16","experiment","2","even","5","773587","775792","1548","95357","NA","772510","773585","1544","98751","729109","777794","774590","778501","17777","777794","Sternberg Task","89","137653","116","yes","1024"
"76.9230769231","76.9230769231","1182.91452991","1182.91452991","black","no","experiment","legacy","legacy","legacy","0","uniform","1","undefined","1","right","116","116","0","0","0","116","116","0","0","116","116","116","116","0","116","10/02/18 15:13:01","The main experiment item","yes","NA","SternbergTask.osexp","C:/Users/Anabel/Desktop","no","mono","no","18","no","white","no","yes","768","legacy","104","11","C:/Users/Anabel/Desktop/subject-2.csv","legacy","3 9 1","Jazzy James","3.1.9","0","n","0","right","space","space","NA","right","748","16227","3393","NA","748","2","legacy","3","1024","2","48000","-16","experiment","2","even","7","779639","781843","1548","95357","NA","778555","779637","1544","98751","729109","783845","780641","784596","17777","783845","Sternberg Task","90","138401","117","yes","1024"
"77.1186440678","77.1186440678","1181.08474576","1181.08474576","black","no","experiment","legacy","legacy","legacy","0","uniform","1","undefined","1","right","117","117","0","0","0","117","117","0","0","117","117","117","117","0","117","10/02/18 15:13:01","The main experiment item","yes","NA","SternbergTask.osexp","C:/Users/Anabel/Desktop","no","mono","no","18","no","white","no","yes","768","legacy","105","11","C:/Users/Anabel/Desktop/subject-2.csv","legacy","6 9 4 5 2","Jazzy James","3.1.9","0","n","0","right","space","space","NA","right","967","16227","3393","NA","967","2","legacy","5","1024","2","48000","-16","experiment","2","even","1","785734","787938","1548","95357","NA","784654","785732","1544","98751","729109","789940","786736","790910","17777","789940","Sternberg Task","91","139368","118","yes","1024"
"77.3109243697","77.3109243697","1180.78991597","1180.78991597","black","no","experiment","legacy","legacy","legacy","0","uniform","1","undefined","1","right","118","118","0","0","0","118","118","0","0","118","118","118","118","0","118","10/02/18 15:13:01","The main experiment item","yes","NA","SternbergTask.osexp","C:/Users/Anabel/Desktop","no","mono","no","18","no","white","no","yes","768","legacy","106","11","C:/Users/Anabel/Desktop/subject-2.csv","legacy","7 6 4 8 1 2","Jazzy James","3.1.9","0","n","0","right","space","space","NA","right","1146","16227","3393","NA","1146","2","legacy","6","1024","2","48000","-16","experiment","2","even","9","792029","794233","1548","95357","NA","790944","792027","1544","98751","729109","796235","793031","797384","17777","796235","Sternberg Task","92","140514","119","yes","1024"
"77.5","77.5","1178.59166667","1178.59166667","black","no","experiment","legacy","legacy","legacy","0","uniform","1","undefined","1","left","119","119","0","0","0","119","119","0","0","119","119","119","119","0","119","10/02/18 15:13:01","The main experiment item","yes","NA","SternbergTask.osexp","C:/Users/Anabel/Desktop","no","mono","no","18","no","white","no","yes","768","legacy","107","11","C:/Users/Anabel/Desktop/subject-2.csv","legacy","7 8 6 3 1","Jazzy James","3.1.9","5","y","0","left","space","space","NA","left","917","16227","3393","NA","917","2","legacy","5","1024","2","48000","-16","experiment","2","even","1","798513","800718","1548","95357","NA","797432","798511","1544","98751","729109","802720","799516","803641","17777","802720","Sternberg Task","93","141431","120","yes","1024"
"77.6859504132","77.6859504132","1177.72727273","1177.72727273","black","no","experiment","legacy","legacy","legacy","0","uniform","1","undefined","1","right","120","120","0","0","0","120","120","0","0","120","120","120","120","0","120","10/02/18 15:13:01","The main experiment item","yes","NA","SternbergTask.osexp","C:/Users/Anabel/Desktop","no","mono","no","18","no","white","no","yes","768","legacy","108","11","C:/Users/Anabel/Desktop/subject-2.csv","legacy","2 5 1 4","Jazzy James","3.1.9","0","n","0","right","space","space","NA","right","1074","16227","3393","NA","1074","2","legacy","4","1024","2","48000","-16","experiment","2","even","6","804763","806967","1548","95357","NA","803688","804761","1544","98751","729109","808969","805765","810045","17777","808969","Sternberg Task","94","142505","121","yes","1024"
"77.868852459","77.868852459","1176.56557377","1176.56557377","black","no","experiment","legacy","legacy","legacy","0","uniform","1","undefined","1","left","121","121","0","0","0","121","121","0","0","121","121","121","121","0","121","10/02/18 15:13:01","The main experiment item","yes","NA","SternbergTask.osexp","C:/Users/Anabel/Desktop","no","mono","no","18","no","white","no","yes","768","legacy","109","11","C:/Users/Anabel/Desktop/subject-2.csv","legacy","7 8 4 6 9 5","Jazzy James","3.1.9","4","y","0","left","space","space","NA","left","1036","16227","3393","NA","1036","2","legacy","6","1024","2","48000","-16","experiment","2","even","6","811227","813431","1548","95357","NA","810139","811225","1544","98751","729109","815433","812229","816473","17777","815433","Sternberg Task","95","143541","122","yes","1024"
