"acc","accuracy","average_response_time","avg_rt","background","block","canvas_backend","clock_backend","color_backend","compensation","coordinates","correct","correct_instruction1","correct_keyboard_response","correct_response","count_ISI","count_correctFeedback","count_expSequence","count_experiment","count_experimentLoop","count_fixation","count_incorrectFeedback","count_instruction1","count_instruction2","count_keyboard_response","count_logger","count_memorySet","count_practiceLoop","count_probe","count_thankYou","datetime","description","disable_garbage_collection","experiment_file","experiment_path","font_bold","font_family","font_italic","font_size","font_underline","foreground","form_clicks","fullscreen","height","keyboard_backend","live_row","live_row_practiceLoop","logfile","mouse_backend","numberSet","opensesame_codename","opensesame_version","posInSet","present","repeat_cycle","response","response_instruction1","response_instruction2","response_keyboard_response","response_thankYou","response_time","response_time_instruction1","response_time_instruction2","response_time_keyboard_response","response_time_thankYou","round_decimals","sampler_backend","setSize","sound_buf_size","sound_channels","sound_freq","sound_sample_size","start","subject_nr","subject_parity","target","time_ISI","time_correctFeedback","time_expSequence","time_experiment","time_experimentLoop","time_fixation","time_incorrectFeedback","time_instruction1","time_instruction2","time_keyboard_response","time_logger","time_memorySet","time_practiceLoop","time_probe","time_thankYou","title","total_correct","total_response_time","total_responses","uniform_coordinates","width"
"0","0","8","8","black","practice","legacy","legacy","legacy","0","uniform","0","undefined","0","right","0","0","0","0","0","0","0","0","0","0","0","0","0","0","0","10/07/18 17:53:30","The main experiment item","yes","Sternbergtask.osexp","C:/Users/I. Edwards/Desktop","no","mono","no","18","no","white","no","yes","768","legacy","0","0","C:/Users/I. Edwards/Desktop/kg-subject-2.csv","legacy","2 1","Kafkaesque Koffka","3.2.5","0","n","0","left","right","NA","left","NA","8","41786","NA","8","NA","2","legacy","2","1024","2","48000","-16","experiment","2","even","5","48240","NA","46010","2667","NA","46016","NA","2677","NA","50252","50262","47028","44465","50251","NA","Sternberg task","0","8","1","yes","1024"
"0","0","342","342","black","practice","legacy","legacy","legacy","0","uniform","0","undefined","0","left","1","1","1","0","0","1","1","0","0","1","1","1","0","1","0","10/07/18 17:53:30","The main experiment item","yes","Sternbergtask.osexp","C:/Users/I. Edwards/Desktop","no","mono","no","18","no","white","no","yes","768","legacy","1","1","C:/Users/I. Edwards/Desktop/kg-subject-2.csv","legacy","1 5 2 9","Kafkaesque Koffka","3.2.5","2","y","0","right","right","NA","right","NA","676","41786","NA","676","NA","2","legacy","4","1024","2","48000","-16","experiment","2","even","5","53916","NA","51687","2667","NA","51691","50448","2677","NA","55931","56608","52703","44465","55927","NA","Sternberg task","0","684","2","yes","1024"
"0","0","520.333333333","520.333333333","black","practice","legacy","legacy","legacy","0","uniform","0","undefined","0","left","2","2","2","0","0","2","2","0","0","2","2","2","0","2","0","10/07/18 17:53:30","The main experiment item","yes","Sternbergtask.osexp","C:/Users/I. Edwards/Desktop","no","mono","no","18","no","white","no","yes","768","legacy","2","2","C:/Users/I. Edwards/Desktop/kg-subject-2.csv","legacy","1 7 9 8 5","Kafkaesque Koffka","3.2.5","4","y","0","right","right","NA","right","NA","877","41786","NA","877","NA","2","legacy","5","1024","2","48000","-16","experiment","2","even","8","60107","NA","57879","2667","NA","57883","56619","2677","NA","62119","62997","58895","44465","62119","NA","Sternberg task","0","1561","3","yes","1024"
"0","0","557.5","557.5","black","practice","legacy","legacy","legacy","0","uniform","0","undefined","0","left","3","3","3","0","0","3","3","0","0","3","3","3","0","3","0","10/07/18 17:53:30","The main experiment item","yes","Sternbergtask.osexp","C:/Users/I. Edwards/Desktop","no","mono","no","18","no","white","no","yes","768","legacy","3","3","C:/Users/I. Edwards/Desktop/kg-subject-2.csv","legacy","2 9 4","Kafkaesque Koffka","3.2.5","3","y","0","right","right","NA","right","NA","669","41786","NA","669","NA","2","legacy","3","1024","2","48000","-16","experiment","2","even","4","66486","NA","64258","2667","NA","64262","63007","2677","NA","68499","69169","65273","44465","68498","NA","Sternberg task","0","2230","4","yes","1024"
"20","20","560.8","560.8","black","practice","legacy","legacy","legacy","0","uniform","1","undefined","1","left","4","4","4","0","0","4","4","0","0","4","4","4","0","4","0","10/07/18 17:53:30","The main experiment item","yes","Sternbergtask.osexp","C:/Users/I. Edwards/Desktop","no","mono","no","18","no","white","no","yes","768","legacy","4","4","C:/Users/I. Edwards/Desktop/kg-subject-2.csv","legacy","6","Kafkaesque Koffka","3.2.5","1","y","0","left","right","NA","left","NA","574","41786","NA","574","NA","2","legacy","1","1024","2","48000","-16","experiment","2","even","6","72664","NA","70435","2667","NA","70440","69181","2677","NA","74679","75254","71452","44465","74675","NA","Sternberg task","1","2804","5","yes","1024"
"16.6666666667","16.6666666667","535.666666667","535.666666667","black","practice","legacy","legacy","legacy","0","uniform","0","undefined","0","right","5","5","5","0","0","5","5","0","0","5","5","5","0","5","0","10/07/18 17:53:30","The main experiment item","yes","Sternbergtask.osexp","C:/Users/I. Edwards/Desktop","no","mono","no","18","no","white","no","yes","768","legacy","5","5","C:/Users/I. Edwards/Desktop/kg-subject-2.csv","legacy","5 7 8 4 1 2","Kafkaesque Koffka","3.2.5","0","n","0","left","right","NA","left","NA","410","41786","NA","410","NA","2","legacy","6","1024","2","48000","-16","experiment","2","even","6","78741","75265","76512","2667","NA","76517","69181","2677","NA","80753","81164","77528","44465","80753","NA","Sternberg task","1","3214","6","yes","1024"
"28.5714285714","28.5714285714","538.428571429","538.428571429","black","practice","legacy","legacy","legacy","0","uniform","1","undefined","1","right","6","6","6","0","0","6","6","0","0","6","6","6","0","6","0","10/07/18 17:53:30","The main experiment item","yes","Sternbergtask.osexp","C:/Users/I. Edwards/Desktop","no","mono","no","18","no","white","no","yes","768","legacy","6","6","C:/Users/I. Edwards/Desktop/kg-subject-2.csv","legacy","9 6 7 4 5","Kafkaesque Koffka","3.2.5","0","n","0","right","right","NA","right","NA","555","41786","NA","555","NA","2","legacy","5","1024","2","48000","-16","experiment","2","even","3","84656","75265","82426","2667","NA","82431","81175","2677","NA","86668","87224","83444","44465","86667","NA","Sternberg task","2","3769","7","yes","1024"
"25","25","519.375","519.375","black","practice","legacy","legacy","legacy","0","uniform","0","undefined","0","left","7","7","7","0","0","7","7","0","0","7","7","7","0","7","0","10/07/18 17:53:30","The main experiment item","yes","Sternbergtask.osexp","C:/Users/I. Edwards/Desktop","no","mono","no","18","no","white","no","yes","768","legacy","7","7","C:/Users/I. Edwards/Desktop/kg-subject-2.csv","legacy","4 8","Kafkaesque Koffka","3.2.5","1","y","0","right","right","NA","right","NA","386","41786","NA","386","NA","2","legacy","2","1024","2","48000","-16","experiment","2","even","4","90715","87235","88486","2667","NA","88491","81175","2677","NA","92733","93120","89503","44465","92727","NA","Sternberg task","2","4155","8","yes","1024"
"33.3333333333","33.3333333333","504.555555556","504.555555556","black","practice","legacy","legacy","legacy","0","uniform","1","undefined","1","left","8","8","8","0","0","8","8","0","0","8","8","8","0","8","0","10/07/18 17:53:30","The main experiment item","yes","Sternbergtask.osexp","C:/Users/I. Edwards/Desktop","no","mono","no","18","no","white","no","yes","768","legacy","8","8","C:/Users/I. Edwards/Desktop/kg-subject-2.csv","legacy","4 3 1 7 9 8","Kafkaesque Koffka","3.2.5","1","y","0","left","right","NA","left","NA","386","41786","NA","386","NA","2","legacy","6","1024","2","48000","-16","experiment","2","even","4","96620","87235","94391","2667","NA","94395","93131","2677","NA","98632","99020","95407","44465","98632","NA","Sternberg task","3","4541","9","yes","1024"
"30","30","654.1","654.1","black","practice","legacy","legacy","legacy","0","uniform","0","undefined","0","right","9","9","9","0","0","9","9","0","0","9","9","9","0","9","0","10/07/18 17:53:30","The main experiment item","yes","Sternbergtask.osexp","C:/Users/I. Edwards/Desktop","no","mono","no","18","no","white","no","yes","768","legacy","9","9","C:/Users/I. Edwards/Desktop/kg-subject-2.csv","legacy","5","Kafkaesque Koffka","3.2.5","0","n","0","None","right","NA","None","NA","2000","41786","NA","2000","NA","2","legacy","1","1024","2","48000","-16","experiment","2","even","3","102509","99031","100282","2667","NA","100286","93131","2677","NA","104522","106523","101298","44465","104522","NA","Sternberg task","3","6541","10","yes","1024"
"36.3636363636","36.3636363636","713.272727273","713.272727273","black","practice","legacy","legacy","legacy","0","uniform","1","undefined","1","right","10","10","10","0","0","10","10","0","0","10","10","10","0","10","0","10/07/18 17:53:30","The main experiment item","yes","Sternbergtask.osexp","C:/Users/I. Edwards/Desktop","no","mono","no","18","no","white","no","yes","768","legacy","10","10","C:/Users/I. Edwards/Desktop/kg-subject-2.csv","legacy","3 1 9 4","Kafkaesque Koffka","3.2.5","0","n","0","right","right","NA","right","NA","1305","41786","NA","1305","NA","2","legacy","4","1024","2","48000","-16","experiment","2","even","6","110022","99031","107794","2667","NA","107798","106533","2677","NA","112034","113341","108810","44465","112034","NA","Sternberg task","4","7846","11","yes","1024"
"41.6666666667","41.6666666667","699.083333333","699.083333333","black","practice","legacy","legacy","legacy","0","uniform","1","undefined","1","right","11","11","11","0","0","11","11","0","0","11","11","11","0","11","0","10/07/18 17:53:30","The main experiment item","yes","Sternbergtask.osexp","C:/Users/I. Edwards/Desktop","no","mono","no","18","no","white","no","yes","768","legacy","11","11","C:/Users/I. Edwards/Desktop/kg-subject-2.csv","legacy","4 1 5","Kafkaesque Koffka","3.2.5","0","n","0","right","right","NA","right","NA","543","41786","NA","543","NA","2","legacy","3","1024","2","48000","-16","experiment","2","even","2","116830","113351","114608","2667","NA","114612","106533","2677","NA","118843","119387","115619","44465","118842","NA","Sternberg task","5","8389","12","yes","1024"
"46.1538461538","46.1538461538","710.692307692","710.692307692","black","experiment","legacy","legacy","legacy","0","uniform","1","undefined","1","left","12","12","12","0","0","12","12","0","0","12","12","12","0","12","0","10/07/18 17:53:30","The main experiment item","yes","Sternbergtask.osexp","C:/Users/I. Edwards/Desktop","no","mono","no","18","no","white","no","yes","768","legacy","0","11","C:/Users/I. Edwards/Desktop/kg-subject-2.csv","legacy","6 9 7 4 5 1","Kafkaesque Koffka","3.2.5","2","y","0","left","right","right","left","NA","850","41786","9005","850","NA","2","legacy","6","1024","2","48000","-16","experiment","2","even","9","132031","119397","129802","2667","129475","129806","106533","2677","120468","134043","134895","130819","44465","134042","NA","Sternberg task","6","9239","13","yes","1024"
"42.8571428571","42.8571428571","716.285714286","716.285714286","black","experiment","legacy","legacy","legacy","0","uniform","0","undefined","0","right","13","13","13","0","0","13","13","0","0","13","13","13","0","13","0","10/07/18 17:53:30","The main experiment item","yes","Sternbergtask.osexp","C:/Users/I. Edwards/Desktop","no","mono","no","18","no","white","no","yes","768","legacy","1","11","C:/Users/I. Edwards/Desktop/kg-subject-2.csv","legacy","1 8 7","Kafkaesque Koffka","3.2.5","0","n","0","left","right","right","left","NA","789","41786","9005","789","NA","2","legacy","3","1024","2","48000","-16","experiment","2","even","4","138400","134905","136172","2667","129475","136176","106533","2677","120468","140412","141203","137188","44465","140411","NA","Sternberg task","6","10028","14","yes","1024"
"46.6666666667","46.6666666667","730.333333333","730.333333333","black","experiment","legacy","legacy","legacy","0","uniform","1","undefined","1","left","14","14","14","0","0","14","14","0","0","14","14","14","0","14","0","10/07/18 17:53:30","The main experiment item","yes","Sternbergtask.osexp","C:/Users/I. Edwards/Desktop","no","mono","no","18","no","white","no","yes","768","legacy","2","11","C:/Users/I. Edwards/Desktop/kg-subject-2.csv","legacy","2 4 6 9","Kafkaesque Koffka","3.2.5","3","y","0","left","right","right","left","NA","927","41786","9005","927","NA","2","legacy","4","1024","2","48000","-16","experiment","2","even","6","144695","134905","142466","2667","129475","142471","141213","2677","120468","146708","147637","143482","44465","146707","NA","Sternberg task","7","10955","15","yes","1024"
"50","50","727.5625","727.5625","black","experiment","legacy","legacy","legacy","0","uniform","1","undefined","1","right","15","15","15","0","0","15","15","0","0","15","15","15","0","15","0","10/07/18 17:53:30","The main experiment item","yes","Sternbergtask.osexp","C:/Users/I. Edwards/Desktop","no","mono","no","18","no","white","no","yes","768","legacy","3","11","C:/Users/I. Edwards/Desktop/kg-subject-2.csv","legacy","2 8 9 4 1","Kafkaesque Koffka","3.2.5","0","n","0","right","right","right","right","NA","686","41786","9005","686","NA","2","legacy","5","1024","2","48000","-16","experiment","2","even","5","151132","147647","148904","2667","129475","148908","141213","2677","120468","153144","153832","149919","44465","153144","NA","Sternberg task","8","11641","16","yes","1024"
"52.9411764706","52.9411764706","727.647058824","727.647058824","black","experiment","legacy","legacy","legacy","0","uniform","1","undefined","1","left","16","16","16","0","0","16","16","0","0","16","16","16","0","16","0","10/07/18 17:53:30","The main experiment item","yes","Sternbergtask.osexp","C:/Users/I. Edwards/Desktop","no","mono","no","18","no","white","no","yes","768","legacy","4","11","C:/Users/I. Edwards/Desktop/kg-subject-2.csv","legacy","8 5 4 7 3 1","Kafkaesque Koffka","3.2.5","2","y","0","left","right","right","left","NA","729","41786","9005","729","NA","2","legacy","6","1024","2","48000","-16","experiment","2","even","5","157326","153842","155097","2667","129475","155101","141213","2677","120468","159338","160068","156113","44465","159338","NA","Sternberg task","9","12370","17","yes","1024"
"55.5555555556","55.5555555556","726.944444444","726.944444444","black","experiment","legacy","legacy","legacy","0","uniform","1","undefined","1","right","17","17","17","0","0","17","17","0","0","17","17","17","0","17","0","10/07/18 17:53:30","The main experiment item","yes","Sternbergtask.osexp","C:/Users/I. Edwards/Desktop","no","mono","no","18","no","white","no","yes","768","legacy","5","11","C:/Users/I. Edwards/Desktop/kg-subject-2.csv","legacy","4 8 1 2","Kafkaesque Koffka","3.2.5","0","n","0","right","right","right","right","NA","715","41786","9005","715","NA","2","legacy","4","1024","2","48000","-16","experiment","2","even","7","163573","160079","161344","2667","129475","161348","141213","2677","120468","165585","166302","162361","44465","165585","NA","Sternberg task","10","13085","18","yes","1024"
"57.8947368421","57.8947368421","756.052631579","756.052631579","black","experiment","legacy","legacy","legacy","0","uniform","1","undefined","1","left","18","18","18","0","0","18","18","0","0","18","18","18","0","18","0","10/07/18 17:53:30","The main experiment item","yes","Sternbergtask.osexp","C:/Users/I. Edwards/Desktop","no","mono","no","18","no","white","no","yes","768","legacy","6","11","C:/Users/I. Edwards/Desktop/kg-subject-2.csv","legacy","2 4 8 5 1 3","Kafkaesque Koffka","3.2.5","1","y","0","left","right","right","left","NA","1280","41786","9005","1280","NA","2","legacy","6","1024","2","48000","-16","experiment","2","even","2","169803","166314","167576","2667","129475","167580","141213","2677","120468","171819","173101","168593","44465","171816","NA","Sternberg task","11","14365","19","yes","1024"
"60","60","777.45","777.45","black","experiment","legacy","legacy","legacy","0","uniform","1","undefined","1","left","19","19","19","0","0","19","19","0","0","19","19","19","0","19","0","10/07/18 17:53:30","The main experiment item","yes","Sternbergtask.osexp","C:/Users/I. Edwards/Desktop","no","mono","no","18","no","white","no","yes","768","legacy","7","11","C:/Users/I. Edwards/Desktop/kg-subject-2.csv","legacy","7 8 4 6 9 5","Kafkaesque Koffka","3.2.5","4","y","0","left","right","right","left","NA","1184","41786","9005","1184","NA","2","legacy","6","1024","2","48000","-16","experiment","2","even","6","176586","173112","174357","2667","129475","174362","141213","2677","120468","178598","179784","175374","44465","178598","NA","Sternberg task","12","15549","20","yes","1024"
"61.9047619048","61.9047619048","778.047619048","778.047619048","black","experiment","legacy","legacy","legacy","0","uniform","1","undefined","1","left","20","20","20","0","0","20","20","0","0","20","20","20","0","20","0","10/07/18 17:53:30","The main experiment item","yes","Sternbergtask.osexp","C:/Users/I. Edwards/Desktop","no","mono","no","18","no","white","no","yes","768","legacy","8","11","C:/Users/I. Edwards/Desktop/kg-subject-2.csv","legacy","8 7 3","Kafkaesque Koffka","3.2.5","1","y","0","left","right","right","left","NA","790","41786","9005","790","NA","2","legacy","3","1024","2","48000","-16","experiment","2","even","8","183274","179794","181046","2667","129475","181050","141213","2677","120468","185286","186078","182062","44465","185286","NA","Sternberg task","13","16339","21","yes","1024"
"63.6363636364","63.6363636364","798.363636364","798.363636364","black","experiment","legacy","legacy","legacy","0","uniform","1","undefined","1","right","21","21","21","0","0","21","21","0","0","21","21","21","0","21","0","10/07/18 17:53:30","The main experiment item","yes","Sternbergtask.osexp","C:/Users/I. Edwards/Desktop","no","mono","no","18","no","white","no","yes","768","legacy","9","11","C:/Users/I. Edwards/Desktop/kg-subject-2.csv","legacy","1 5 3 2 8","Kafkaesque Koffka","3.2.5","0","n","0","right","right","right","right","NA","1225","41786","9005","1225","NA","2","legacy","5","1024","2","48000","-16","experiment","2","even","4","189575","186089","187346","2667","129475","187351","141213","2677","120468","191587","192814","188363","44465","191587","NA","Sternberg task","14","17564","22","yes","1024"
"65.2173913043","65.2173913043","817.826086957","817.826086957","black","experiment","legacy","legacy","legacy","0","uniform","1","undefined","1","right","22","22","22","0","0","22","22","0","0","22","22","22","0","22","0","10/07/18 17:53:30","The main experiment item","yes","Sternbergtask.osexp","C:/Users/I. Edwards/Desktop","no","mono","no","18","no","white","no","yes","768","legacy","10","11","C:/Users/I. Edwards/Desktop/kg-subject-2.csv","legacy","5 9 2 3","Kafkaesque Koffka","3.2.5","0","n","0","right","right","right","right","NA","1246","41786","9005","1246","NA","2","legacy","4","1024","2","48000","-16","experiment","2","even","8","196288","192824","194060","2667","129475","194064","141213","2677","120468","198300","199548","195076","44465","198300","NA","Sternberg task","15","18810","23","yes","1024"
"62.5","62.5","867.083333333","867.083333333","black","experiment","legacy","legacy","legacy","0","uniform","0","undefined","0","left","23","23","23","0","0","23","23","0","0","23","23","23","0","23","0","10/07/18 17:53:30","The main experiment item","yes","Sternbergtask.osexp","C:/Users/I. Edwards/Desktop","no","mono","no","18","no","white","no","yes","768","legacy","11","11","C:/Users/I. Edwards/Desktop/kg-subject-2.csv","legacy","8 3","Kafkaesque Koffka","3.2.5","2","y","0","None","right","right","None","NA","2000","41786","9005","2000","NA","2","legacy","2","1024","2","48000","-16","experiment","2","even","3","203037","199558","200808","2667","129475","200812","141213","2677","120468","205049","207050","201825","44465","205049","NA","Sternberg task","15","20810","24","yes","1024"
"64","64","867.88","867.88","black","experiment","legacy","legacy","legacy","0","uniform","1","undefined","1","left","24","24","24","0","0","24","24","0","0","24","24","24","0","24","0","10/07/18 17:53:30","The main experiment item","yes","Sternbergtask.osexp","C:/Users/I. Edwards/Desktop","no","mono","no","18","no","white","no","yes","768","legacy","12","11","C:/Users/I. Edwards/Desktop/kg-subject-2.csv","legacy","9 3 8 2 1 4","Kafkaesque Koffka","3.2.5","3","y","0","left","right","right","left","NA","887","41786","9005","887","NA","2","legacy","6","1024","2","48000","-16","experiment","2","even","8","210525","199558","208296","2667","129475","208301","207060","2677","120468","212537","213426","209313","44465","212537","NA","Sternberg task","16","21697","25","yes","1024"
"65.3846153846","65.3846153846","874.153846154","874.153846154","black","experiment","legacy","legacy","legacy","0","uniform","1","undefined","1","right","25","25","25","0","0","25","25","0","0","25","25","25","0","25","0","10/07/18 17:53:30","The main experiment item","yes","Sternbergtask.osexp","C:/Users/I. Edwards/Desktop","no","mono","no","18","no","white","no","yes","768","legacy","13","11","C:/Users/I. Edwards/Desktop/kg-subject-2.csv","legacy","1 3 2 6 9","Kafkaesque Koffka","3.2.5","0","n","0","right","right","right","right","NA","1031","41786","9005","1031","NA","2","legacy","5","1024","2","48000","-16","experiment","2","even","5","216924","213437","214695","2667","129475","214700","207060","2677","120468","218937","219970","215712","44465","218936","NA","Sternberg task","17","22728","26","yes","1024"
"66.6666666667","66.6666666667","884.111111111","884.111111111","black","experiment","legacy","legacy","legacy","0","uniform","1","undefined","1","right","26","26","26","0","0","26","26","0","0","26","26","26","0","26","0","10/07/18 17:53:30","The main experiment item","yes","Sternbergtask.osexp","C:/Users/I. Edwards/Desktop","no","mono","no","18","no","white","no","yes","768","legacy","14","11","C:/Users/I. Edwards/Desktop/kg-subject-2.csv","legacy","5 3 2 6 9 8","Kafkaesque Koffka","3.2.5","0","n","0","right","right","right","right","NA","1143","41786","9005","1143","NA","2","legacy","6","1024","2","48000","-16","experiment","2","even","4","223458","219981","221230","2667","129475","221234","207060","2677","120468","225470","226615","222245","44465","225470","NA","Sternberg task","18","23871","27","yes","1024"
"64.2857142857","64.2857142857","924","924","black","experiment","legacy","legacy","legacy","0","uniform","0","undefined","0","right","27","27","27","0","0","27","27","0","0","27","27","27","0","27","0","10/07/18 17:53:30","The main experiment item","yes","Sternbergtask.osexp","C:/Users/I. Edwards/Desktop","no","mono","no","18","no","white","no","yes","768","legacy","15","11","C:/Users/I. Edwards/Desktop/kg-subject-2.csv","legacy","1 7 5 2","Kafkaesque Koffka","3.2.5","0","n","0","None","right","right","None","NA","2001","41786","9005","2001","NA","2","legacy","4","1024","2","48000","-16","experiment","2","even","3","230107","226627","227878","2667","129475","227883","207060","2677","120468","232119","234121","228895","44465","232119","NA","Sternberg task","18","25872","28","yes","1024"
"65.5172413793","65.5172413793","921.103448276","921.103448276","black","experiment","legacy","legacy","legacy","0","uniform","1","undefined","1","right","28","28","28","0","0","28","28","0","0","28","28","28","0","28","0","10/07/18 17:53:30","The main experiment item","yes","Sternbergtask.osexp","C:/Users/I. Edwards/Desktop","no","mono","no","18","no","white","no","yes","768","legacy","16","11","C:/Users/I. Edwards/Desktop/kg-subject-2.csv","legacy","5 2","Kafkaesque Koffka","3.2.5","0","n","0","right","right","right","right","NA","840","41786","9005","840","NA","2","legacy","2","1024","2","48000","-16","experiment","2","even","7","237614","226627","235386","2667","129475","235390","234132","2677","120468","239627","240469","236401","44465","239627","NA","Sternberg task","19","26712","29","yes","1024"
"66.6666666667","66.6666666667","918.633333333","918.633333333","black","experiment","legacy","legacy","legacy","0","uniform","1","undefined","1","right","29","29","29","0","0","29","29","0","0","29","29","29","0","29","0","10/07/18 17:53:30","The main experiment item","yes","Sternbergtask.osexp","C:/Users/I. Edwards/Desktop","no","mono","no","18","no","white","no","yes","768","legacy","17","11","C:/Users/I. Edwards/Desktop/kg-subject-2.csv","legacy","1 4 9 3","Kafkaesque Koffka","3.2.5","0","n","0","right","right","right","right","NA","847","41786","9005","847","NA","2","legacy","4","1024","2","48000","-16","experiment","2","even","5","243962","240479","241734","2667","129475","241738","234132","2677","120468","245975","246823","242750","44465","245975","NA","Sternberg task","20","27559","30","yes","1024"
"67.7419354839","67.7419354839","914.741935484","914.741935484","black","experiment","legacy","legacy","legacy","0","uniform","1","undefined","1","right","30","30","30","0","0","30","30","0","0","30","30","30","0","30","0","10/07/18 17:53:30","The main experiment item","yes","Sternbergtask.osexp","C:/Users/I. Edwards/Desktop","no","mono","no","18","no","white","no","yes","768","legacy","18","11","C:/Users/I. Edwards/Desktop/kg-subject-2.csv","legacy","1 4 9 2 5","Kafkaesque Koffka","3.2.5","0","n","0","right","right","right","right","NA","798","41786","9005","798","NA","2","legacy","5","1024","2","48000","-16","experiment","2","even","7","250318","246834","248090","2667","129475","248094","234132","2677","120468","252330","253130","249106","44465","252329","NA","Sternberg task","21","28357","31","yes","1024"
"68.75","68.75","915.03125","915.03125","black","experiment","legacy","legacy","legacy","0","uniform","1","undefined","1","left","31","31","31","0","0","31","31","0","0","31","31","31","0","31","0","10/07/18 17:53:30","The main experiment item","yes","Sternbergtask.osexp","C:/Users/I. Edwards/Desktop","no","mono","no","18","no","white","no","yes","768","legacy","19","11","C:/Users/I. Edwards/Desktop/kg-subject-2.csv","legacy","4 6 5 8","Kafkaesque Koffka","3.2.5","1","y","0","left","right","right","left","NA","924","41786","9005","924","NA","2","legacy","4","1024","2","48000","-16","experiment","2","even","4","256612","253141","254383","2667","129475","254388","234132","2677","120468","258624","259550","255399","44465","258623","NA","Sternberg task","22","29281","32","yes","1024"
"69.696969697","69.696969697","919.181818182","919.181818182","black","experiment","legacy","legacy","legacy","0","uniform","1","undefined","1","right","32","32","32","0","0","32","32","0","0","32","32","32","0","32","0","10/07/18 17:53:30","The main experiment item","yes","Sternbergtask.osexp","C:/Users/I. Edwards/Desktop","no","mono","no","18","no","white","no","yes","768","legacy","20","11","C:/Users/I. Edwards/Desktop/kg-subject-2.csv","legacy","7 9","Kafkaesque Koffka","3.2.5","0","n","0","right","right","right","right","NA","1052","41786","9005","1052","NA","2","legacy","2","1024","2","48000","-16","experiment","2","even","1","263027","259560","260798","2667","129475","260803","234132","2677","120468","265039","266094","261814","44465","265039","NA","Sternberg task","23","30333","33","yes","1024"
"70.5882352941","70.5882352941","923.852941176","923.852941176","black","experiment","legacy","legacy","legacy","0","uniform","1","undefined","1","left","33","33","33","0","0","33","33","0","0","33","33","33","0","33","0","10/07/18 17:53:30","The main experiment item","yes","Sternbergtask.osexp","C:/Users/I. Edwards/Desktop","no","mono","no","18","no","white","no","yes","768","legacy","21","11","C:/Users/I. Edwards/Desktop/kg-subject-2.csv","legacy","6 2","Kafkaesque Koffka","3.2.5","1","y","0","left","right","right","left","NA","1078","41786","9005","1078","NA","2","legacy","2","1024","2","48000","-16","experiment","2","even","6","269583","266104","267355","2667","129475","267359","234132","2677","120468","271595","272675","268371","44465","271595","NA","Sternberg task","24","31411","34","yes","1024"
"71.4285714286","71.4285714286","929.857142857","929.857142857","black","experiment","legacy","legacy","legacy","0","uniform","1","undefined","1","right","34","34","34","0","0","34","34","0","0","34","34","34","0","34","0","10/07/18 17:53:30","The main experiment item","yes","Sternbergtask.osexp","C:/Users/I. Edwards/Desktop","no","mono","no","18","no","white","no","yes","768","legacy","22","11","C:/Users/I. Edwards/Desktop/kg-subject-2.csv","legacy","4 2 6 9","Kafkaesque Koffka","3.2.5","0","n","0","right","right","right","right","NA","1134","41786","9005","1134","NA","2","legacy","4","1024","2","48000","-16","experiment","2","even","7","276172","272686","273944","2667","129475","273948","234132","2677","120468","278184","279320","274960","44465","278184","NA","Sternberg task","25","32545","35","yes","1024"
"72.2222222222","72.2222222222","924.861111111","924.861111111","black","experiment","legacy","legacy","legacy","0","uniform","1","undefined","1","right","35","35","35","0","0","35","35","0","0","35","35","35","0","35","0","10/07/18 17:53:30","The main experiment item","yes","Sternbergtask.osexp","C:/Users/I. Edwards/Desktop","no","mono","no","18","no","white","no","yes","768","legacy","23","11","C:/Users/I. Edwards/Desktop/kg-subject-2.csv","legacy","6 8","Kafkaesque Koffka","3.2.5","0","n","0","right","right","right","right","NA","750","41786","9005","750","NA","2","legacy","2","1024","2","48000","-16","experiment","2","even","9","282812","279330","280584","2667","129475","280588","234132","2677","120468","284824","285576","281600","44465","284824","NA","Sternberg task","26","33295","36","yes","1024"
"72.972972973","72.972972973","947.783783784","947.783783784","black","experiment","legacy","legacy","legacy","0","uniform","1","undefined","1","right","36","36","36","0","0","36","36","0","0","36","36","36","0","36","0","10/07/18 17:53:30","The main experiment item","yes","Sternbergtask.osexp","C:/Users/I. Edwards/Desktop","no","mono","no","18","no","white","no","yes","768","legacy","24","11","C:/Users/I. Edwards/Desktop/kg-subject-2.csv","legacy","3 4 2","Kafkaesque Koffka","3.2.5","0","n","0","right","right","right","right","NA","1773","41786","9005","1773","NA","2","legacy","3","1024","2","48000","-16","experiment","2","even","5","289071","285587","286842","2667","129475","286847","234132","2677","120468","291083","292858","287858","44465","291083","NA","Sternberg task","27","35068","37","yes","1024"
"73.6842105263","73.6842105263","940.526315789","940.526315789","black","experiment","legacy","legacy","legacy","0","uniform","1","undefined","1","right","37","37","37","0","0","37","37","0","0","37","37","37","0","37","0","10/07/18 17:53:30","The main experiment item","yes","Sternbergtask.osexp","C:/Users/I. Edwards/Desktop","no","mono","no","18","no","white","no","yes","768","legacy","25","11","C:/Users/I. Edwards/Desktop/kg-subject-2.csv","legacy","2 6 4 3 9","Kafkaesque Koffka","3.2.5","0","n","0","right","right","right","right","NA","672","41786","9005","672","NA","2","legacy","5","1024","2","48000","-16","experiment","2","even","1","296348","292869","294120","2667","129475","294124","234132","2677","120468","298353","299028","295137","44465","298353","NA","Sternberg task","28","35740","38","yes","1024"
"74.358974359","74.358974359","944.564102564","944.564102564","black","experiment","legacy","legacy","legacy","0","uniform","1","undefined","1","left","38","38","38","0","0","38","38","0","0","38","38","38","0","38","0","10/07/18 17:53:30","The main experiment item","yes","Sternbergtask.osexp","C:/Users/I. Edwards/Desktop","no","mono","no","18","no","white","no","yes","768","legacy","26","11","C:/Users/I. Edwards/Desktop/kg-subject-2.csv","legacy","4 7 6 8 2 3","Kafkaesque Koffka","3.2.5","6","y","0","left","right","right","left","NA","1098","41786","9005","1098","NA","2","legacy","6","1024","2","48000","-16","experiment","2","even","3","302521","299038","300293","2667","129475","300297","234132","2677","120468","304533","305634","301309","44465","304532","NA","Sternberg task","29","36838","39","yes","1024"
"75","75","940.35","940.35","black","experiment","legacy","legacy","legacy","0","uniform","1","undefined","1","left","39","39","39","0","0","39","39","0","0","39","39","39","0","39","0","10/07/18 17:53:30","The main experiment item","yes","Sternbergtask.osexp","C:/Users/I. Edwards/Desktop","no","mono","no","18","no","white","no","yes","768","legacy","27","11","C:/Users/I. Edwards/Desktop/kg-subject-2.csv","legacy","9 1 6 7 8","Kafkaesque Koffka","3.2.5","1","y","0","left","right","right","left","NA","776","41786","9005","776","NA","2","legacy","5","1024","2","48000","-16","experiment","2","even","9","309123","305644","306895","2667","129475","306899","234132","2677","120468","311136","311914","307911","44465","311135","NA","Sternberg task","30","37614","40","yes","1024"
"75.6097560976","75.6097560976","948.707317073","948.707317073","black","experiment","legacy","legacy","legacy","0","uniform","1","undefined","1","left","40","40","40","0","0","40","40","0","0","40","40","40","0","40","0","10/07/18 17:53:30","The main experiment item","yes","Sternbergtask.osexp","C:/Users/I. Edwards/Desktop","no","mono","no","18","no","white","no","yes","768","legacy","28","11","C:/Users/I. Edwards/Desktop/kg-subject-2.csv","legacy","2 6 1 7 4","Kafkaesque Koffka","3.2.5","2","y","0","left","right","right","left","NA","1283","41786","9005","1283","NA","2","legacy","5","1024","2","48000","-16","experiment","2","even","6","315400","311925","313172","2667","129475","313176","234132","2677","120468","317412","318697","314187","44465","317411","NA","Sternberg task","31","38897","41","yes","1024"
"76.1904761905","76.1904761905","942.428571429","942.428571429","black","experiment","legacy","legacy","legacy","0","uniform","1","undefined","1","left","41","41","41","0","0","41","41","0","0","41","41","41","0","41","0","10/07/18 17:53:30","The main experiment item","yes","Sternbergtask.osexp","C:/Users/I. Edwards/Desktop","no","mono","no","18","no","white","no","yes","768","legacy","29","11","C:/Users/I. Edwards/Desktop/kg-subject-2.csv","legacy","8 1 6","Kafkaesque Koffka","3.2.5","3","y","0","left","right","right","left","NA","685","41786","9005","685","NA","2","legacy","3","1024","2","48000","-16","experiment","2","even","6","322192","318708","319964","2667","129475","319968","234132","2677","120468","324205","324892","320979","44465","324204","NA","Sternberg task","32","39582","42","yes","1024"
"76.7441860465","76.7441860465","935.139534884","935.139534884","black","experiment","legacy","legacy","legacy","0","uniform","1","undefined","1","left","42","42","42","0","0","42","42","0","0","42","42","42","0","42","0","10/07/18 17:53:30","The main experiment item","yes","Sternbergtask.osexp","C:/Users/I. Edwards/Desktop","no","mono","no","18","no","white","no","yes","768","legacy","30","11","C:/Users/I. Edwards/Desktop/kg-subject-2.csv","legacy","2 3 7 4","Kafkaesque Koffka","3.2.5","1","y","0","left","right","right","left","NA","629","41786","9005","629","NA","2","legacy","4","1024","2","48000","-16","experiment","2","even","2","328392","324903","326158","2667","129475","326162","234132","2677","120468","330405","331037","327173","44465","330405","NA","Sternberg task","33","40211","43","yes","1024"
"77.2727272727","77.2727272727","933.909090909","933.909090909","black","experiment","legacy","legacy","legacy","0","uniform","1","undefined","1","left","43","43","43","0","0","43","43","0","0","43","43","43","0","43","0","10/07/18 17:53:30","The main experiment item","yes","Sternbergtask.osexp","C:/Users/I. Edwards/Desktop","no","mono","no","18","no","white","no","yes","768","legacy","31","11","C:/Users/I. Edwards/Desktop/kg-subject-2.csv","legacy","3 2 1 4 7","Kafkaesque Koffka","3.2.5","2","y","0","left","right","right","left","NA","881","41786","9005","881","NA","2","legacy","5","1024","2","48000","-16","experiment","2","even","2","334524","331047","332304","2667","129475","332308","234132","2677","120468","336536","337419","333320","44465","336536","NA","Sternberg task","34","41092","44","yes","1024"
"77.7777777778","77.7777777778","928.266666667","928.266666667","black","experiment","legacy","legacy","legacy","0","uniform","1","undefined","1","right","44","44","44","0","0","44","44","0","0","44","44","44","0","44","0","10/07/18 17:53:30","The main experiment item","yes","Sternbergtask.osexp","C:/Users/I. Edwards/Desktop","no","mono","no","18","no","white","no","yes","768","legacy","32","11","C:/Users/I. Edwards/Desktop/kg-subject-2.csv","legacy","2 8 6 3 1","Kafkaesque Koffka","3.2.5","0","n","0","right","right","right","right","NA","680","41786","9005","680","NA","2","legacy","5","1024","2","48000","-16","experiment","2","even","7","340906","337429","338677","2667","129475","338681","234132","2677","120468","342918","343601","339694","44465","342918","NA","Sternberg task","35","41772","45","yes","1024"
"76.0869565217","76.0869565217","928.586956522","928.586956522","black","experiment","legacy","legacy","legacy","0","uniform","0","undefined","0","left","45","45","45","0","0","45","45","0","0","45","45","45","0","45","0","10/07/18 17:53:30","The main experiment item","yes","Sternbergtask.osexp","C:/Users/I. Edwards/Desktop","no","mono","no","18","no","white","no","yes","768","legacy","33","11","C:/Users/I. Edwards/Desktop/kg-subject-2.csv","legacy","4 6 2 5 1","Kafkaesque Koffka","3.2.5","5","y","0","right","right","right","right","NA","943","41786","9005","943","NA","2","legacy","5","1024","2","48000","-16","experiment","2","even","1","347088","343611","344860","2667","129475","344864","234132","2677","120468","349100","350046","345876","44465","349100","NA","Sternberg task","35","42715","46","yes","1024"
"76.5957446809","76.5957446809","930.680851064","930.680851064","black","experiment","legacy","legacy","legacy","0","uniform","1","undefined","1","right","46","46","46","0","0","46","46","0","0","46","46","46","0","46","0","10/07/18 17:53:30","The main experiment item","yes","Sternbergtask.osexp","C:/Users/I. Edwards/Desktop","no","mono","no","18","no","white","no","yes","768","legacy","34","11","C:/Users/I. Edwards/Desktop/kg-subject-2.csv","legacy","6 9 5","Kafkaesque Koffka","3.2.5","0","n","0","right","right","right","right","NA","1027","41786","9005","1027","NA","2","legacy","3","1024","2","48000","-16","experiment","2","even","8","353536","343611","351307","2667","129475","351311","350056","2677","120468","355548","356578","352323","44465","355548","NA","Sternberg task","36","43742","47","yes","1024"
"77.0833333333","77.0833333333","928","928","black","experiment","legacy","legacy","legacy","0","uniform","1","undefined","1","right","47","47","47","0","0","47","47","0","0","47","47","47","0","47","0","10/07/18 17:53:30","The main experiment item","yes","Sternbergtask.osexp","C:/Users/I. Edwards/Desktop","no","mono","no","18","no","white","no","yes","768","legacy","35","11","C:/Users/I. Edwards/Desktop/kg-subject-2.csv","legacy","1 7 5 2 9","Kafkaesque Koffka","3.2.5","0","n","0","right","right","right","right","NA","802","41786","9005","802","NA","2","legacy","5","1024","2","48000","-16","experiment","2","even","3","360066","356588","357839","2667","129475","357843","350056","2677","120468","362079","362884","358855","44465","362079","NA","Sternberg task","37","44544","48","yes","1024"
"77.5510204082","77.5510204082","945.816326531","945.816326531","black","experiment","legacy","legacy","legacy","0","uniform","1","undefined","1","right","48","48","48","0","0","48","48","0","0","48","48","48","0","48","0","10/07/18 17:53:30","The main experiment item","yes","Sternbergtask.osexp","C:/Users/I. Edwards/Desktop","no","mono","no","18","no","white","no","yes","768","legacy","36","11","C:/Users/I. Edwards/Desktop/kg-subject-2.csv","legacy","6 9 7 3 8 2","Kafkaesque Koffka","3.2.5","0","n","0","right","right","right","right","NA","1801","41786","9005","1801","NA","2","legacy","6","1024","2","48000","-16","experiment","2","even","5","366377","362895","364148","2667","129475","364153","350056","2677","120468","368389","370193","365165","44465","368389","NA","Sternberg task","38","46345","49","yes","1024"
"78","78","946.3","946.3","black","experiment","legacy","legacy","legacy","0","uniform","1","undefined","1","right","49","49","49","0","0","49","49","0","0","49","49","49","0","49","0","10/07/18 17:53:30","The main experiment item","yes","Sternbergtask.osexp","C:/Users/I. Edwards/Desktop","no","mono","no","18","no","white","no","yes","768","legacy","37","11","C:/Users/I. Edwards/Desktop/kg-subject-2.csv","legacy","9 5 3 2 8 6","Kafkaesque Koffka","3.2.5","0","n","0","right","right","right","right","NA","970","41786","9005","970","NA","2","legacy","6","1024","2","48000","-16","experiment","2","even","7","373694","370203","371466","2667","129475","371470","350056","2677","120468","375706","376678","372482","44465","375706","NA","Sternberg task","39","47315","50","yes","1024"
"78.431372549","78.431372549","961.980392157","961.980392157","black","experiment","legacy","legacy","legacy","0","uniform","1","undefined","1","left","50","50","50","0","0","50","50","0","0","50","50","50","0","50","0","10/07/18 17:53:30","The main experiment item","yes","Sternbergtask.osexp","C:/Users/I. Edwards/Desktop","no","mono","no","18","no","white","no","yes","768","legacy","38","11","C:/Users/I. Edwards/Desktop/kg-subject-2.csv","legacy","3 4 9 6 2 9","Kafkaesque Koffka","3.2.5","5","y","0","left","right","right","left","NA","1746","41786","9005","1746","NA","2","legacy","6","1024","2","48000","-16","experiment","2","even","2","380162","376689","377934","2667","129475","377938","350056","2677","120468","382175","383924","378951","44465","382175","NA","Sternberg task","40","49061","51","yes","1024"
"78.8461538462","78.8461538462","968.788461538","968.788461538","black","experiment","legacy","legacy","legacy","0","uniform","1","undefined","1","left","51","51","51","0","0","51","51","0","0","51","51","51","0","51","0","10/07/18 17:53:30","The main experiment item","yes","Sternbergtask.osexp","C:/Users/I. Edwards/Desktop","no","mono","no","18","no","white","no","yes","768","legacy","39","11","C:/Users/I. Edwards/Desktop/kg-subject-2.csv","legacy","5 7 8 2 3 8","Kafkaesque Koffka","3.2.5","5","y","0","left","right","right","left","NA","1316","41786","9005","1316","NA","2","legacy","6","1024","2","48000","-16","experiment","2","even","3","387413","383935","385192","2667","129475","385197","350056","2677","120468","389426","390744","386210","44465","389426","NA","Sternberg task","41","50377","52","yes","1024"
"79.2452830189","79.2452830189","963.58490566","963.58490566","black","experiment","legacy","legacy","legacy","0","uniform","1","undefined","1","right","52","52","52","0","0","52","52","0","0","52","52","52","0","52","0","10/07/18 17:53:30","The main experiment item","yes","Sternbergtask.osexp","C:/Users/I. Edwards/Desktop","no","mono","no","18","no","white","no","yes","768","legacy","40","11","C:/Users/I. Edwards/Desktop/kg-subject-2.csv","legacy","3 9 1","Kafkaesque Koffka","3.2.5","0","n","0","right","right","right","right","NA","693","41786","9005","693","NA","2","legacy","3","1024","2","48000","-16","experiment","2","even","7","394230","390754","392002","2667","129475","392006","350056","2677","120468","396242","396938","393018","44465","396241","NA","Sternberg task","42","51070","53","yes","1024"
"79.6296296296","79.6296296296","962.185185185","962.185185185","black","experiment","legacy","legacy","legacy","0","uniform","1","undefined","1","right","53","53","53","0","0","53","53","0","0","53","53","53","0","53","0","10/07/18 17:53:30","The main experiment item","yes","Sternbergtask.osexp","C:/Users/I. Edwards/Desktop","no","mono","no","18","no","white","no","yes","768","legacy","41","11","C:/Users/I. Edwards/Desktop/kg-subject-2.csv","legacy","2 5 1 4","Kafkaesque Koffka","3.2.5","0","n","0","right","right","right","right","NA","888","41786","9005","888","NA","2","legacy","4","1024","2","48000","-16","experiment","2","even","6","400428","396948","398200","2667","129475","398204","350056","2677","120468","402440","403331","399215","44465","402440","NA","Sternberg task","43","51958","54","yes","1024"
"80","80","974.4","974.4","black","experiment","legacy","legacy","legacy","0","uniform","1","undefined","1","left","54","54","54","0","0","54","54","0","0","54","54","54","0","54","0","10/07/18 17:53:30","The main experiment item","yes","Sternbergtask.osexp","C:/Users/I. Edwards/Desktop","no","mono","no","18","no","white","no","yes","768","legacy","42","11","C:/Users/I. Edwards/Desktop/kg-subject-2.csv","legacy","3 9 6 2","Kafkaesque Koffka","3.2.5","4","y","0","left","right","right","left","NA","1634","41786","9005","1634","NA","2","legacy","4","1024","2","48000","-16","experiment","2","even","2","406816","403341","404587","2667","129475","404591","350056","2677","120468","408829","410466","405603","44465","408829","NA","Sternberg task","44","53592","55","yes","1024"
"80.3571428571","80.3571428571","974.964285714","974.964285714","black","experiment","legacy","legacy","legacy","0","uniform","1","undefined","1","right","55","55","55","0","0","55","55","0","0","55","55","55","0","55","0","10/07/18 17:53:30","The main experiment item","yes","Sternbergtask.osexp","C:/Users/I. Edwards/Desktop","no","mono","no","18","no","white","no","yes","768","legacy","43","11","C:/Users/I. Edwards/Desktop/kg-subject-2.csv","legacy","8 2 1 4 5 9","Kafkaesque Koffka","3.2.5","0","n","0","right","right","right","right","NA","1006","41786","9005","1006","NA","2","legacy","6","1024","2","48000","-16","experiment","2","even","7","413965","410476","411736","2667","129475","411740","350056","2677","120468","415977","416986","412752","44465","415976","NA","Sternberg task","45","54598","56","yes","1024"
"80.701754386","80.701754386","985.210526316","985.210526316","black","experiment","legacy","legacy","legacy","0","uniform","1","undefined","1","left","56","56","56","0","0","56","56","0","0","56","56","56","0","56","0","10/07/18 17:53:30","The main experiment item","yes","Sternbergtask.osexp","C:/Users/I. Edwards/Desktop","no","mono","no","18","no","white","no","yes","768","legacy","44","11","C:/Users/I. Edwards/Desktop/kg-subject-2.csv","legacy","7 1 3","Kafkaesque Koffka","3.2.5","2","y","0","left","right","right","left","NA","1559","41786","9005","1559","NA","2","legacy","3","1024","2","48000","-16","experiment","2","even","1","420485","416997","418255","2667","129475","418260","350056","2677","120468","422497","424058","419272","44465","422497","NA","Sternberg task","46","56157","57","yes","1024"
"81.0344827586","81.0344827586","991.206896552","991.206896552","black","experiment","legacy","legacy","legacy","0","uniform","1","undefined","1","right","57","57","57","0","0","57","57","0","0","57","57","57","0","57","0","10/07/18 17:53:30","The main experiment item","yes","Sternbergtask.osexp","C:/Users/I. Edwards/Desktop","no","mono","no","18","no","white","no","yes","768","legacy","45","11","C:/Users/I. Edwards/Desktop/kg-subject-2.csv","legacy","3 4 9 6 7 8","Kafkaesque Koffka","3.2.5","0","n","0","right","right","right","right","NA","1333","41786","9005","1333","NA","2","legacy","6","1024","2","48000","-16","experiment","2","even","2","427555","424069","425328","2667","129475","425333","350056","2677","120468","429567","430903","426343","44465","429566","NA","Sternberg task","47","57490","58","yes","1024"
"81.3559322034","81.3559322034","1002.6779661","1002.6779661","black","experiment","legacy","legacy","legacy","0","uniform","1","undefined","1","right","58","58","58","0","0","58","58","0","0","58","58","58","0","58","0","10/07/18 17:53:30","The main experiment item","yes","Sternbergtask.osexp","C:/Users/I. Edwards/Desktop","no","mono","no","18","no","white","no","yes","768","legacy","46","11","C:/Users/I. Edwards/Desktop/kg-subject-2.csv","legacy","4 2 7 6 1 3","Kafkaesque Koffka","3.2.5","0","n","0","right","right","right","right","NA","1668","41786","9005","1668","NA","2","legacy","6","1024","2","48000","-16","experiment","2","even","8","434403","430913","432175","2667","129475","432179","350056","2677","120468","436407","438078","433191","44465","436406","NA","Sternberg task","48","59158","59","yes","1024"
"81.6666666667","81.6666666667","1000.95","1000.95","black","experiment","legacy","legacy","legacy","0","uniform","1","undefined","1","left","59","59","59","0","0","59","59","0","0","59","59","59","0","59","0","10/07/18 17:53:30","The main experiment item","yes","Sternbergtask.osexp","C:/Users/I. Edwards/Desktop","no","mono","no","18","no","white","no","yes","768","legacy","47","11","C:/Users/I. Edwards/Desktop/kg-subject-2.csv","legacy","9 5 3 8 4","Kafkaesque Koffka","3.2.5","1","y","0","left","right","right","left","NA","899","41786","9005","899","NA","2","legacy","5","1024","2","48000","-16","experiment","2","even","9","441573","438088","439345","2667","129475","439349","350056","2677","120468","443585","444486","440361","44465","443584","NA","Sternberg task","49","60057","60","yes","1024"
"81.9672131148","81.9672131148","995.163934426","995.163934426","black","experiment","legacy","legacy","legacy","0","uniform","1","undefined","1","right","60","60","60","0","0","60","60","0","0","60","60","60","0","60","0","10/07/18 17:53:30","The main experiment item","yes","Sternbergtask.osexp","C:/Users/I. Edwards/Desktop","no","mono","no","18","no","white","no","yes","768","legacy","48","11","C:/Users/I. Edwards/Desktop/kg-subject-2.csv","legacy","4 1","Kafkaesque Koffka","3.2.5","0","n","0","right","right","right","right","NA","648","41786","9005","648","NA","2","legacy","2","1024","2","48000","-16","experiment","2","even","6","447992","444501","445771","2667","129475","445775","350056","2677","120468","450005","450656","446787","44465","450004","NA","Sternberg task","50","60705","61","yes","1024"
"82.2580645161","82.2580645161","1004.37096774","1004.37096774","black","experiment","legacy","legacy","legacy","0","uniform","1","undefined","1","left","61","61","61","0","0","61","61","0","0","61","61","61","0","61","0","10/07/18 17:53:30","The main experiment item","yes","Sternbergtask.osexp","C:/Users/I. Edwards/Desktop","no","mono","no","18","no","white","no","yes","768","legacy","49","11","C:/Users/I. Edwards/Desktop/kg-subject-2.csv","legacy","7 2 3","Kafkaesque Koffka","3.2.5","3","y","0","left","right","right","left","NA","1566","41786","9005","1566","NA","2","legacy","3","1024","2","48000","-16","experiment","2","even","3","454141","450667","451918","2667","129475","451922","350056","2677","120468","456157","457727","452934","44465","456153","NA","Sternberg task","51","62271","62","yes","1024"
"82.5396825397","82.5396825397","1003.01587302","1003.01587302","black","experiment","legacy","legacy","legacy","0","uniform","1","undefined","1","right","62","62","62","0","0","62","62","0","0","62","62","62","0","62","0","10/07/18 17:53:30","The main experiment item","yes","Sternbergtask.osexp","C:/Users/I. Edwards/Desktop","no","mono","no","18","no","white","no","yes","768","legacy","50","11","C:/Users/I. Edwards/Desktop/kg-subject-2.csv","legacy","6 2 9 3 8 4","Kafkaesque Koffka","3.2.5","0","n","0","right","right","right","right","NA","919","41786","9005","919","NA","2","legacy","6","1024","2","48000","-16","experiment","2","even","1","461203","457737","458975","2667","129475","458979","350056","2677","120468","463216","464138","459991","44465","463216","NA","Sternberg task","52","63190","63","yes","1024"
"82.8125","82.8125","1010.96875","1010.96875","black","experiment","legacy","legacy","legacy","0","uniform","1","undefined","1","right","63","63","63","0","0","63","63","0","0","63","63","63","0","63","0","10/07/18 17:53:30","The main experiment item","yes","Sternbergtask.osexp","C:/Users/I. Edwards/Desktop","no","mono","no","18","no","white","no","yes","768","legacy","51","11","C:/Users/I. Edwards/Desktop/kg-subject-2.csv","legacy","7 1","Kafkaesque Koffka","3.2.5","0","n","0","right","right","right","right","NA","1512","41786","9005","1512","NA","2","legacy","2","1024","2","48000","-16","experiment","2","even","8","467631","464148","465401","2667","129475","465406","350056","2677","120468","469643","471159","466418","44465","469643","NA","Sternberg task","53","64702","64","yes","1024"
"83.0769230769","83.0769230769","1010.27692308","1010.27692308","black","experiment","legacy","legacy","legacy","0","uniform","1","undefined","1","left","64","64","64","0","0","64","64","0","0","64","64","64","0","64","0","10/07/18 17:53:30","The main experiment item","yes","Sternbergtask.osexp","C:/Users/I. Edwards/Desktop","no","mono","no","18","no","white","no","yes","768","legacy","52","11","C:/Users/I. Edwards/Desktop/kg-subject-2.csv","legacy","3 5 9 6 2 4","Kafkaesque Koffka","3.2.5","1","y","0","left","right","right","left","NA","966","41786","9005","966","NA","2","legacy","6","1024","2","48000","-16","experiment","2","even","3","474648","471169","472420","2667","129475","472424","350056","2677","120468","476660","477629","473436","44465","476660","NA","Sternberg task","54","65668","65","yes","1024"
"83.3333333333","83.3333333333","1007.12121212","1007.12121212","black","experiment","legacy","legacy","legacy","0","uniform","1","undefined","1","right","65","65","65","0","0","65","65","0","0","65","65","65","0","65","0","10/07/18 17:53:30","The main experiment item","yes","Sternbergtask.osexp","C:/Users/I. Edwards/Desktop","no","mono","no","18","no","white","no","yes","768","legacy","53","11","C:/Users/I. Edwards/Desktop/kg-subject-2.csv","legacy","1 6 4","Kafkaesque Koffka","3.2.5","0","n","0","right","right","right","right","NA","802","41786","9005","802","NA","2","legacy","3","1024","2","48000","-16","experiment","2","even","7","481131","477640","478902","2667","129475","478906","350056","2677","120468","483143","483949","479919","44465","483143","NA","Sternberg task","55","66470","66","yes","1024"
"82.0895522388","82.0895522388","1004.01492537","1004.01492537","black","experiment","legacy","legacy","legacy","0","uniform","0","undefined","0","right","66","66","66","0","0","66","66","0","0","66","66","66","0","66","0","10/07/18 17:53:30","The main experiment item","yes","Sternbergtask.osexp","C:/Users/I. Edwards/Desktop","no","mono","no","18","no","white","no","yes","768","legacy","54","11","C:/Users/I. Edwards/Desktop/kg-subject-2.csv","legacy","8 5 4 2 9 6","Kafkaesque Koffka","3.2.5","0","n","0","left","right","right","left","NA","799","41786","9005","799","NA","2","legacy","6","1024","2","48000","-16","experiment","2","even","3","487442","483959","485213","2667","129475","485217","350056","2677","120468","489454","490256","486230","44465","489454","NA","Sternberg task","55","67269","67","yes","1024"
"82.3529411765","82.3529411765","1002.77941176","1002.77941176","black","experiment","legacy","legacy","legacy","0","uniform","1","undefined","1","right","67","67","67","0","0","67","67","0","0","67","67","67","0","67","0","10/07/18 17:53:30","The main experiment item","yes","Sternbergtask.osexp","C:/Users/I. Edwards/Desktop","no","mono","no","18","no","white","no","yes","768","legacy","55","11","C:/Users/I. Edwards/Desktop/kg-subject-2.csv","legacy","2 3 8 5 6 7","Kafkaesque Koffka","3.2.5","0","n","0","right","right","right","right","NA","920","41786","9005","920","NA","2","legacy","6","1024","2","48000","-16","experiment","2","even","1","493741","483959","491514","2667","129475","491518","490266","2677","120468","495754","496678","492530","44465","495754","NA","Sternberg task","56","68189","68","yes","1024"
"82.6086956522","82.6086956522","1001.14492754","1001.14492754","black","experiment","legacy","legacy","legacy","0","uniform","1","undefined","1","right","68","68","68","0","0","68","68","0","0","68","68","68","0","68","0","10/07/18 17:53:30","The main experiment item","yes","Sternbergtask.osexp","C:/Users/I. Edwards/Desktop","no","mono","no","18","no","white","no","yes","768","legacy","56","11","C:/Users/I. Edwards/Desktop/kg-subject-2.csv","legacy","8 5 7 3 6","Kafkaesque Koffka","3.2.5","0","n","0","right","right","right","right","NA","890","41786","9005","890","NA","2","legacy","5","1024","2","48000","-16","experiment","2","even","9","500168","496688","497939","2667","129475","497944","490266","2677","120468","502181","503074","498956","44465","502180","NA","Sternberg task","57","69079","69","yes","1024"
"82.8571428571","82.8571428571","995.642857143","995.642857143","black","experiment","legacy","legacy","legacy","0","uniform","1","undefined","1","right","69","69","69","0","0","69","69","0","0","69","69","69","0","69","0","10/07/18 17:53:30","The main experiment item","yes","Sternbergtask.osexp","C:/Users/I. Edwards/Desktop","no","mono","no","18","no","white","no","yes","768","legacy","57","11","C:/Users/I. Edwards/Desktop/kg-subject-2.csv","legacy","1","Kafkaesque Koffka","3.2.5","0","n","0","right","right","right","right","NA","616","41786","9005","616","NA","2","legacy","1","1024","2","48000","-16","experiment","2","even","7","506563","503084","504336","2667","129475","504340","490266","2677","120468","508575","509194","505353","44465","508575","NA","Sternberg task","58","69695","70","yes","1024"
"83.0985915493","83.0985915493","990.887323944","990.887323944","black","experiment","legacy","legacy","legacy","0","uniform","1","undefined","1","right","70","70","70","0","0","70","70","0","0","70","70","70","0","70","0","10/07/18 17:53:30","The main experiment item","yes","Sternbergtask.osexp","C:/Users/I. Edwards/Desktop","no","mono","no","18","no","white","no","yes","768","legacy","58","11","C:/Users/I. Edwards/Desktop/kg-subject-2.csv","legacy","5 7 3","Kafkaesque Koffka","3.2.5","0","n","0","right","right","right","right","NA","658","41786","9005","658","NA","2","legacy","3","1024","2","48000","-16","experiment","2","even","9","512678","509205","510449","2667","129475","510454","490266","2677","120468","514690","515352","511465","44465","514689","NA","Sternberg task","59","70353","71","yes","1024"
"83.3333333333","83.3333333333","1002.90277778","1002.90277778","black","experiment","legacy","legacy","legacy","0","uniform","1","undefined","1","left","71","71","71","0","0","71","71","0","0","71","71","71","0","71","0","10/07/18 17:53:30","The main experiment item","yes","Sternbergtask.osexp","C:/Users/I. Edwards/Desktop","no","mono","no","18","no","white","no","yes","768","legacy","59","11","C:/Users/I. Edwards/Desktop/kg-subject-2.csv","legacy","8 5 1 3 9","Kafkaesque Koffka","3.2.5","4","y","0","left","right","right","left","NA","1856","41786","9005","1856","NA","2","legacy","5","1024","2","48000","-16","experiment","2","even","3","518838","515362","516615","2667","129475","516620","490266","2677","120468","520851","522711","517632","44465","520851","NA","Sternberg task","60","72209","72","yes","1024"
"83.5616438356","83.5616438356","999.616438356","999.616438356","black","experiment","legacy","legacy","legacy","0","uniform","1","undefined","1","right","72","72","72","0","0","72","72","0","0","72","72","72","0","72","0","10/07/18 17:53:30","The main experiment item","yes","Sternbergtask.osexp","C:/Users/I. Edwards/Desktop","no","mono","no","18","no","white","no","yes","768","legacy","60","11","C:/Users/I. Edwards/Desktop/kg-subject-2.csv","legacy","9 8 2 7 4","Kafkaesque Koffka","3.2.5","0","n","0","right","right","right","right","NA","763","41786","9005","763","NA","2","legacy","5","1024","2","48000","-16","experiment","2","even","5","526201","522721","523974","2667","129475","523978","490266","2677","120468","528214","528980","524990","44465","528214","NA","Sternberg task","61","72972","73","yes","1024"
"83.7837837838","83.7837837838","1009.09459459","1009.09459459","black","experiment","legacy","legacy","legacy","0","uniform","1","undefined","1","right","73","73","73","0","0","73","73","0","0","73","73","73","0","73","0","10/07/18 17:53:30","The main experiment item","yes","Sternbergtask.osexp","C:/Users/I. Edwards/Desktop","no","mono","no","18","no","white","no","yes","768","legacy","61","11","C:/Users/I. Edwards/Desktop/kg-subject-2.csv","legacy","6 7 5 9","Kafkaesque Koffka","3.2.5","0","n","0","right","right","right","right","NA","1701","41786","9005","1701","NA","2","legacy","4","1024","2","48000","-16","experiment","2","even","2","532475","528990","530245","2667","129475","530250","490266","2677","120468","534487","536192","531263","44465","534487","NA","Sternberg task","62","74673","74","yes","1024"
"84","84","1014.17333333","1014.17333333","black","experiment","legacy","legacy","legacy","0","uniform","1","undefined","1","left","74","74","74","0","0","74","74","0","0","74","74","74","0","74","0","10/07/18 17:53:30","The main experiment item","yes","Sternbergtask.osexp","C:/Users/I. Edwards/Desktop","no","mono","no","18","no","white","no","yes","768","legacy","62","11","C:/Users/I. Edwards/Desktop/kg-subject-2.csv","legacy","4","Kafkaesque Koffka","3.2.5","1","y","0","left","right","right","left","NA","1390","41786","9005","1390","NA","2","legacy","1","1024","2","48000","-16","experiment","2","even","4","539682","536202","537454","2667","129475","537458","490266","2677","120468","541694","543088","538470","44465","541693","NA","Sternberg task","63","76063","75","yes","1024"
"84.2105263158","84.2105263158","1012.26315789","1012.26315789","black","experiment","legacy","legacy","legacy","0","uniform","1","undefined","1","left","75","75","75","0","0","75","75","0","0","75","75","75","0","75","0","10/07/18 17:53:30","The main experiment item","yes","Sternbergtask.osexp","C:/Users/I. Edwards/Desktop","no","mono","no","18","no","white","no","yes","768","legacy","63","11","C:/Users/I. Edwards/Desktop/kg-subject-2.csv","legacy","9 5 8 1","Kafkaesque Koffka","3.2.5","2","y","0","left","right","right","left","NA","869","41786","9005","869","NA","2","legacy","4","1024","2","48000","-16","experiment","2","even","5","546587","543098","544358","2667","129475","544363","490266","2677","120468","548599","549471","545375","44465","548599","NA","Sternberg task","64","76932","76","yes","1024"
"84.4155844156","84.4155844156","1014.63636364","1014.63636364","black","experiment","legacy","legacy","legacy","0","uniform","1","undefined","1","left","76","76","76","0","0","76","76","0","0","76","76","76","0","76","0","10/07/18 17:53:30","The main experiment item","yes","Sternbergtask.osexp","C:/Users/I. Edwards/Desktop","no","mono","no","18","no","white","no","yes","768","legacy","64","11","C:/Users/I. Edwards/Desktop/kg-subject-2.csv","legacy","4 3 2 5 8","Kafkaesque Koffka","3.2.5","2","y","0","left","right","right","left","NA","1195","41786","9005","1195","NA","2","legacy","5","1024","2","48000","-16","experiment","2","even","3","552965","549482","550735","2667","129475","550740","490266","2677","120468","554969","556167","551753","44465","554968","NA","Sternberg task","65","78127","77","yes","1024"
"84.6153846154","84.6153846154","1011.73076923","1011.73076923","black","experiment","legacy","legacy","legacy","0","uniform","1","undefined","1","right","77","77","77","0","0","77","77","0","0","77","77","77","0","77","0","10/07/18 17:53:30","The main experiment item","yes","Sternbergtask.osexp","C:/Users/I. Edwards/Desktop","no","mono","no","18","no","white","no","yes","768","legacy","65","11","C:/Users/I. Edwards/Desktop/kg-subject-2.csv","legacy","7 6 4 8 1 2","Kafkaesque Koffka","3.2.5","0","n","0","right","right","right","right","NA","788","41786","9005","788","NA","2","legacy","6","1024","2","48000","-16","experiment","2","even","9","559668","556178","557440","2667","129475","557444","490266","2677","120468","561673","562464","558457","44465","561673","NA","Sternberg task","66","78915","78","yes","1024"
"84.8101265823","84.8101265823","1011.74683544","1011.74683544","black","experiment","legacy","legacy","legacy","0","uniform","1","undefined","1","left","78","78","78","0","0","78","78","0","0","78","78","78","0","78","0","10/07/18 17:53:30","The main experiment item","yes","Sternbergtask.osexp","C:/Users/I. Edwards/Desktop","no","mono","no","18","no","white","no","yes","768","legacy","66","11","C:/Users/I. Edwards/Desktop/kg-subject-2.csv","legacy","8","Kafkaesque Koffka","3.2.5","1","y","0","left","right","right","left","NA","1013","41786","9005","1013","NA","2","legacy","1","1024","2","48000","-16","experiment","2","even","8","565955","562474","563726","2667","129475","563731","490266","2677","120468","567967","568984","564742","44465","567967","NA","Sternberg task","67","79928","79","yes","1024"
"85","85","1017.85","1017.85","black","experiment","legacy","legacy","legacy","0","uniform","1","undefined","1","right","79","79","79","0","0","79","79","0","0","79","79","79","0","79","0","10/07/18 17:53:30","The main experiment item","yes","Sternbergtask.osexp","C:/Users/I. Edwards/Desktop","no","mono","no","18","no","white","no","yes","768","legacy","67","11","C:/Users/I. Edwards/Desktop/kg-subject-2.csv","legacy","6 9 4 5 3 2","Kafkaesque Koffka","3.2.5","0","n","0","right","right","right","right","NA","1500","41786","9005","1500","NA","2","legacy","6","1024","2","48000","-16","experiment","2","even","8","572476","568995","570248","2667","129475","570252","490266","2677","120468","574489","575993","571264","44465","574489","NA","Sternberg task","68","81428","80","yes","1024"
"85.1851851852","85.1851851852","1029.22222222","1029.22222222","black","experiment","legacy","legacy","legacy","0","uniform","1","undefined","1","left","80","80","80","0","0","80","80","0","0","80","80","80","0","80","0","10/07/18 17:53:30","The main experiment item","yes","Sternbergtask.osexp","C:/Users/I. Edwards/Desktop","no","mono","no","18","no","white","no","yes","768","legacy","68","11","C:/Users/I. Edwards/Desktop/kg-subject-2.csv","legacy","7 6","Kafkaesque Koffka","3.2.5","2","y","0","left","right","right","left","NA","1939","41786","9005","1939","NA","2","legacy","2","1024","2","48000","-16","experiment","2","even","6","579485","576004","577257","2667","129475","577261","490266","2677","120468","581497","583439","578273","44465","581496","NA","Sternberg task","69","83367","81","yes","1024"
"84.1463414634","84.1463414634","1033.67073171","1033.67073171","black","experiment","legacy","legacy","legacy","0","uniform","0","undefined","0","left","81","81","81","0","0","81","81","0","0","81","81","81","0","81","0","10/07/18 17:53:30","The main experiment item","yes","Sternbergtask.osexp","C:/Users/I. Edwards/Desktop","no","mono","no","18","no","white","no","yes","768","legacy","69","11","C:/Users/I. Edwards/Desktop/kg-subject-2.csv","legacy","6 1 2","Kafkaesque Koffka","3.2.5","3","y","0","right","right","right","right","NA","1394","41786","9005","1394","NA","2","legacy","3","1024","2","48000","-16","experiment","2","even","2","586928","583450","584698","2667","129475","584703","490266","2677","120468","588939","590337","585715","44465","588939","NA","Sternberg task","69","84761","82","yes","1024"
"83.1325301205","83.1325301205","1036.30120482","1036.30120482","black","experiment","legacy","legacy","legacy","0","uniform","0","undefined","0","right","82","82","82","0","0","82","82","0","0","82","82","82","0","82","0","10/07/18 17:53:30","The main experiment item","yes","Sternbergtask.osexp","C:/Users/I. Edwards/Desktop","no","mono","no","18","no","white","no","yes","768","legacy","70","11","C:/Users/I. Edwards/Desktop/kg-subject-2.csv","legacy","7 1 8 4 9 3","Kafkaesque Koffka","3.2.5","0","n","0","left","right","right","left","NA","1252","41786","9005","1252","NA","2","legacy","6","1024","2","48000","-16","experiment","2","even","6","593827","583450","591599","2667","129475","591604","590347","2677","120468","595839","597095","592614","44465","595839","NA","Sternberg task","69","86013","83","yes","1024"
"83.3333333333","83.3333333333","1041.44047619","1041.44047619","black","experiment","legacy","legacy","legacy","0","uniform","1","undefined","1","left","83","83","83","0","0","83","83","0","0","83","83","83","0","83","0","10/07/18 17:53:30","The main experiment item","yes","Sternbergtask.osexp","C:/Users/I. Edwards/Desktop","no","mono","no","18","no","white","no","yes","768","legacy","71","11","C:/Users/I. Edwards/Desktop/kg-subject-2.csv","legacy","6 7 8 5","Kafkaesque Koffka","3.2.5","3","y","0","left","right","right","left","NA","1468","41786","9005","1468","NA","2","legacy","4","1024","2","48000","-16","experiment","2","even","8","600594","583450","598365","2667","129475","598369","597106","2677","120468","602606","604078","599382","44465","602605","NA","Sternberg task","70","87481","84","yes","1024"
"83.5294117647","83.5294117647","1040.74117647","1040.74117647","black","experiment","legacy","legacy","legacy","0","uniform","1","undefined","1","left","84","84","84","0","0","84","84","0","0","84","84","84","0","84","0","10/07/18 17:53:30","The main experiment item","yes","Sternbergtask.osexp","C:/Users/I. Edwards/Desktop","no","mono","no","18","no","white","no","yes","768","legacy","72","11","C:/Users/I. Edwards/Desktop/kg-subject-2.csv","legacy","3 5 7 1","Kafkaesque Koffka","3.2.5","3","y","0","left","right","right","left","NA","982","41786","9005","982","NA","2","legacy","4","1024","2","48000","-16","experiment","2","even","7","607564","604089","605336","2667","129475","605340","597106","2677","120468","609576","610562","606352","44465","609575","NA","Sternberg task","71","88463","85","yes","1024"
"83.7209302326","83.7209302326","1036.45348837","1036.45348837","black","experiment","legacy","legacy","legacy","0","uniform","1","undefined","1","left","85","85","85","0","0","85","85","0","0","85","85","85","0","85","0","10/07/18 17:53:30","The main experiment item","yes","Sternbergtask.osexp","C:/Users/I. Edwards/Desktop","no","mono","no","18","no","white","no","yes","768","legacy","73","11","C:/Users/I. Edwards/Desktop/kg-subject-2.csv","legacy","2 3","Kafkaesque Koffka","3.2.5","1","y","0","left","right","right","left","NA","672","41786","9005","672","NA","2","legacy","2","1024","2","48000","-16","experiment","2","even","2","614058","610573","611829","2667","129475","611833","597106","2677","120468","616071","616747","612845","44465","616071","NA","Sternberg task","72","89135","86","yes","1024"
"83.908045977","83.908045977","1035.59770115","1035.59770115","black","experiment","legacy","legacy","legacy","0","uniform","1","undefined","1","right","86","86","86","0","0","86","86","0","0","86","86","86","0","86","0","10/07/18 17:53:30","The main experiment item","yes","Sternbergtask.osexp","C:/Users/I. Edwards/Desktop","no","mono","no","18","no","white","no","yes","768","legacy","74","11","C:/Users/I. Edwards/Desktop/kg-subject-2.csv","legacy","8 9","Kafkaesque Koffka","3.2.5","0","n","0","right","right","right","right","NA","962","41786","9005","962","NA","2","legacy","2","1024","2","48000","-16","experiment","2","even","5","620253","616757","618024","2667","129475","618028","597106","2677","120468","622265","623231","619041","44465","622264","NA","Sternberg task","73","90097","87","yes","1024"
"82.9545454545","82.9545454545","1032.69318182","1032.69318182","black","experiment","legacy","legacy","legacy","0","uniform","0","undefined","0","left","87","87","87","0","0","87","87","0","0","87","87","87","0","87","0","10/07/18 17:53:30","The main experiment item","yes","Sternbergtask.osexp","C:/Users/I. Edwards/Desktop","no","mono","no","18","no","white","no","yes","768","legacy","75","11","C:/Users/I. Edwards/Desktop/kg-subject-2.csv","legacy","5 2 9 6 1 7","Kafkaesque Koffka","3.2.5","3","y","0","right","right","right","right","NA","780","41786","9005","780","NA","2","legacy","6","1024","2","48000","-16","experiment","2","even","9","626730","623242","624501","2667","129475","624506","597106","2677","120468","628743","629527","625519","44465","628742","NA","Sternberg task","73","90877","88","yes","1024"
"82.0224719101","82.0224719101","1043.56179775","1043.56179775","black","experiment","legacy","legacy","legacy","0","uniform","0","undefined","0","right","88","88","88","0","0","88","88","0","0","88","88","88","0","88","0","10/07/18 17:53:30","The main experiment item","yes","Sternbergtask.osexp","C:/Users/I. Edwards/Desktop","no","mono","no","18","no","white","no","yes","768","legacy","76","11","C:/Users/I. Edwards/Desktop/kg-subject-2.csv","legacy","9 7 4 5 8","Kafkaesque Koffka","3.2.5","0","n","0","None","right","right","None","NA","2000","41786","9005","2000","NA","2","legacy","5","1024","2","48000","-16","experiment","2","even","6","633025","623242","630796","2667","129475","630801","629537","2677","120468","635036","637039","631813","44465","635035","NA","Sternberg task","73","92877","89","yes","1024"
"82.2222222222","82.2222222222","1041.02222222","1041.02222222","black","experiment","legacy","legacy","legacy","0","uniform","1","undefined","1","left","89","89","89","0","0","89","89","0","0","89","89","89","0","89","0","10/07/18 17:53:30","The main experiment item","yes","Sternbergtask.osexp","C:/Users/I. Edwards/Desktop","no","mono","no","18","no","white","no","yes","768","legacy","77","11","C:/Users/I. Edwards/Desktop/kg-subject-2.csv","legacy","3 5 4 7","Kafkaesque Koffka","3.2.5","1","y","0","left","right","right","left","NA","815","41786","9005","815","NA","2","legacy","4","1024","2","48000","-16","experiment","2","even","3","640527","623242","638306","2667","129475","638311","637049","2677","120468","642539","643358","639314","44465","642538","NA","Sternberg task","74","93692","90","yes","1024"
"82.4175824176","82.4175824176","1037.71428571","1037.71428571","black","experiment","legacy","legacy","legacy","0","uniform","1","undefined","1","left","90","90","90","0","0","90","90","0","0","90","90","90","0","90","0","10/07/18 17:53:30","The main experiment item","yes","Sternbergtask.osexp","C:/Users/I. Edwards/Desktop","no","mono","no","18","no","white","no","yes","768","legacy","78","11","C:/Users/I. Edwards/Desktop/kg-subject-2.csv","legacy","9 8 4","Kafkaesque Koffka","3.2.5","1","y","0","left","right","right","left","NA","740","41786","9005","740","NA","2","legacy","3","1024","2","48000","-16","experiment","2","even","9","646860","643369","644631","2667","129475","644636","637049","2677","120468","648872","649616","645648","44465","648871","NA","Sternberg task","75","94432","91","yes","1024"
"82.6086956522","82.6086956522","1036.57608696","1036.57608696","black","experiment","legacy","legacy","legacy","0","uniform","1","undefined","1","left","91","91","91","0","0","91","91","0","0","91","91","91","0","91","0","10/07/18 17:53:30","The main experiment item","yes","Sternbergtask.osexp","C:/Users/I. Edwards/Desktop","no","mono","no","18","no","white","no","yes","768","legacy","79","11","C:/Users/I. Edwards/Desktop/kg-subject-2.csv","legacy","6 5","Kafkaesque Koffka","3.2.5","2","y","0","left","right","right","left","NA","933","41786","9005","933","NA","2","legacy","2","1024","2","48000","-16","experiment","2","even","5","653101","649627","650873","2667","129475","650877","637049","2677","120468","655113","656050","651889","44465","655112","NA","Sternberg task","76","95365","92","yes","1024"
"82.7956989247","82.7956989247","1033.04301075","1033.04301075","black","experiment","legacy","legacy","legacy","0","uniform","1","undefined","1","left","92","92","92","0","0","92","92","0","0","92","92","92","0","92","0","10/07/18 17:53:30","The main experiment item","yes","Sternbergtask.osexp","C:/Users/I. Edwards/Desktop","no","mono","no","18","no","white","no","yes","768","legacy","80","11","C:/Users/I. Edwards/Desktop/kg-subject-2.csv","legacy","9 3 1 2 5","Kafkaesque Koffka","3.2.5","4","y","0","left","right","right","left","NA","708","41786","9005","708","NA","2","legacy","5","1024","2","48000","-16","experiment","2","even","2","659523","656060","657294","2667","129475","657299","637049","2677","120468","661535","662247","658311","44465","661534","NA","Sternberg task","77","96073","93","yes","1024"
"82.9787234043","82.9787234043","1029.44680851","1029.44680851","black","experiment","legacy","legacy","legacy","0","uniform","1","undefined","1","right","93","93","93","0","0","93","93","0","0","93","93","93","0","93","0","10/07/18 17:53:30","The main experiment item","yes","Sternbergtask.osexp","C:/Users/I. Edwards/Desktop","no","mono","no","18","no","white","no","yes","768","legacy","81","11","C:/Users/I. Edwards/Desktop/kg-subject-2.csv","legacy","5","Kafkaesque Koffka","3.2.5","0","n","0","right","right","right","right","NA","695","41786","9005","695","NA","2","legacy","1","1024","2","48000","-16","experiment","2","even","8","665732","662258","663504","2667","129475","663508","637049","2677","120468","667744","668443","664520","44465","667743","NA","Sternberg task","78","96768","94","yes","1024"
"83.1578947368","83.1578947368","1031.41052632","1031.41052632","black","experiment","legacy","legacy","legacy","0","uniform","1","undefined","1","left","94","94","94","0","0","94","94","0","0","94","94","94","0","94","0","10/07/18 17:53:30","The main experiment item","yes","Sternbergtask.osexp","C:/Users/I. Edwards/Desktop","no","mono","no","18","no","white","no","yes","768","legacy","82","11","C:/Users/I. Edwards/Desktop/kg-subject-2.csv","legacy","7 8 6 3 1","Kafkaesque Koffka","3.2.5","5","y","0","left","right","right","left","NA","1216","41786","9005","1216","NA","2","legacy","5","1024","2","48000","-16","experiment","2","even","1","671934","668453","669705","2667","129475","669710","637049","2677","120468","673946","675166","670722","44465","673945","NA","Sternberg task","79","97984","95","yes","1024"
"83.3333333333","83.3333333333","1032.47916667","1032.47916667","black","experiment","legacy","legacy","legacy","0","uniform","1","undefined","1","left","95","95","95","0","0","95","95","0","0","95","95","95","0","95","0","10/07/18 17:53:30","The main experiment item","yes","Sternbergtask.osexp","C:/Users/I. Edwards/Desktop","no","mono","no","18","no","white","no","yes","768","legacy","83","11","C:/Users/I. Edwards/Desktop/kg-subject-2.csv","legacy","5 2 6","Kafkaesque Koffka","3.2.5","2","y","0","left","right","right","left","NA","1134","41786","9005","1134","NA","2","legacy","3","1024","2","48000","-16","experiment","2","even","2","678662","675176","676433","2667","129475","676437","637049","2677","120468","680674","681812","677449","44465","680673","NA","Sternberg task","80","99118","96","yes","1024"
"83.5051546392","83.5051546392","1030.95876289","1030.95876289","black","experiment","legacy","legacy","legacy","0","uniform","1","undefined","1","right","96","96","96","0","0","96","96","0","0","96","96","96","0","96","0","10/07/18 17:53:30","The main experiment item","yes","Sternbergtask.osexp","C:/Users/I. Edwards/Desktop","no","mono","no","18","no","white","no","yes","768","legacy","84","11","C:/Users/I. Edwards/Desktop/kg-subject-2.csv","legacy","7 4 2 8 1 9","Kafkaesque Koffka","3.2.5","0","n","0","right","right","right","right","NA","885","41786","9005","885","NA","2","legacy","6","1024","2","48000","-16","experiment","2","even","5","685308","681822","683079","2667","129475","683083","637049","2677","120468","687320","688209","684095","44465","687320","NA","Sternberg task","81","100003","97","yes","1024"
"83.6734693878","83.6734693878","1037.10204082","1037.10204082","black","experiment","legacy","legacy","legacy","0","uniform","1","undefined","1","right","97","97","97","0","0","97","97","0","0","97","97","97","0","97","0","10/07/18 17:53:30","The main experiment item","yes","Sternbergtask.osexp","C:/Users/I. Edwards/Desktop","no","mono","no","18","no","white","no","yes","768","legacy","85","11","C:/Users/I. Edwards/Desktop/kg-subject-2.csv","legacy","8 6 3 4 7","Kafkaesque Koffka","3.2.5","0","n","0","right","right","right","right","NA","1633","41786","9005","1633","NA","2","legacy","5","1024","2","48000","-16","experiment","2","even","1","691707","688220","689478","2667","129475","689482","637049","2677","120468","693719","695357","690495","44465","693719","NA","Sternberg task","82","101636","98","yes","1024"
"83.8383838384","83.8383838384","1033.96969697","1033.96969697","black","experiment","legacy","legacy","legacy","0","uniform","1","undefined","1","right","98","98","98","0","0","98","98","0","0","98","98","98","0","98","0","10/07/18 17:53:30","The main experiment item","yes","Sternbergtask.osexp","C:/Users/I. Edwards/Desktop","no","mono","no","18","no","white","no","yes","768","legacy","86","11","C:/Users/I. Edwards/Desktop/kg-subject-2.csv","legacy","7 9 1 6","Kafkaesque Koffka","3.2.5","0","n","0","right","right","right","right","NA","727","41786","9005","727","NA","2","legacy","4","1024","2","48000","-16","experiment","2","even","4","698848","695367","696619","2667","129475","696623","637049","2677","120468","700860","701591","697636","44465","700860","NA","Sternberg task","83","102363","99","yes","1024"
"84","84","1035.99","1035.99","black","experiment","legacy","legacy","legacy","0","uniform","1","undefined","1","right","99","99","99","0","0","99","99","0","0","99","99","99","0","99","0","10/07/18 17:53:30","The main experiment item","yes","Sternbergtask.osexp","C:/Users/I. Edwards/Desktop","no","mono","no","18","no","white","no","yes","768","legacy","87","11","C:/Users/I. Edwards/Desktop/kg-subject-2.csv","legacy","6 8 4","Kafkaesque Koffka","3.2.5","0","n","0","right","right","right","right","NA","1236","41786","9005","1236","NA","2","legacy","3","1024","2","48000","-16","experiment","2","even","1","705085","701602","702857","2667","129475","702861","637049","2677","120468","707098","708338","703874","44465","707098","NA","Sternberg task","84","103599","100","yes","1024"
"84.1584158416","84.1584158416","1042.45544554","1042.45544554","black","experiment","legacy","legacy","legacy","0","uniform","1","undefined","1","right","100","100","100","0","0","100","100","0","0","100","100","100","0","100","0","10/07/18 17:53:30","The main experiment item","yes","Sternbergtask.osexp","C:/Users/I. Edwards/Desktop","no","mono","no","18","no","white","no","yes","768","legacy","88","11","C:/Users/I. Edwards/Desktop/kg-subject-2.csv","legacy","8 4 3 9","Kafkaesque Koffka","3.2.5","0","n","0","right","right","right","right","NA","1689","41786","9005","1689","NA","2","legacy","4","1024","2","48000","-16","experiment","2","even","5","711843","708349","709616","2667","129475","709620","637049","2677","120468","713856","715549","710632","44465","713856","NA","Sternberg task","85","105288","101","yes","1024"
"84.3137254902","84.3137254902","1048.29411765","1048.29411765","black","experiment","legacy","legacy","legacy","0","uniform","1","undefined","1","left","101","101","101","0","0","101","101","0","0","101","101","101","0","101","0","10/07/18 17:53:30","The main experiment item","yes","Sternbergtask.osexp","C:/Users/I. Edwards/Desktop","no","mono","no","18","no","white","no","yes","768","legacy","89","11","C:/Users/I. Edwards/Desktop/kg-subject-2.csv","legacy","9 6 2 4 1","Kafkaesque Koffka","3.2.5","4","y","0","left","right","right","left","NA","1638","41786","9005","1638","NA","2","legacy","5","1024","2","48000","-16","experiment","2","even","4","719043","715559","716815","2667","129475","716819","637049","2677","120468","721055","722697","717831","44465","721055","NA","Sternberg task","86","106926","102","yes","1024"
"84.4660194175","84.4660194175","1045.49514563","1045.49514563","black","experiment","legacy","legacy","legacy","0","uniform","1","undefined","1","left","102","102","102","0","0","102","102","0","0","102","102","102","0","102","0","10/07/18 17:53:30","The main experiment item","yes","Sternbergtask.osexp","C:/Users/I. Edwards/Desktop","no","mono","no","18","no","white","no","yes","768","legacy","90","11","C:/Users/I. Edwards/Desktop/kg-subject-2.csv","legacy","8 9 5 7 1 6","Kafkaesque Koffka","3.2.5","4","y","0","left","right","right","left","NA","760","41786","9005","760","NA","2","legacy","6","1024","2","48000","-16","experiment","2","even","7","726193","722708","723964","2667","129475","723968","637049","2677","120468","728205","728969","724981","44465","728205","NA","Sternberg task","87","107686","103","yes","1024"
"84.6153846154","84.6153846154","1041.00961538","1041.00961538","black","experiment","legacy","legacy","legacy","0","uniform","1","undefined","1","left","103","103","103","0","0","103","103","0","0","103","103","103","0","103","0","10/07/18 17:53:30","The main experiment item","yes","Sternbergtask.osexp","C:/Users/I. Edwards/Desktop","no","mono","no","18","no","white","no","yes","768","legacy","91","11","C:/Users/I. Edwards/Desktop/kg-subject-2.csv","legacy","3 4","Kafkaesque Koffka","3.2.5","1","y","0","left","right","right","left","NA","579","41786","9005","579","NA","2","legacy","2","1024","2","48000","-16","experiment","2","even","3","732458","728979","730229","2667","129475","730234","637049","2677","120468","734470","735053","731246","44465","734470","NA","Sternberg task","88","108265","104","yes","1024"
"84.7619047619","84.7619047619","1044.16190476","1044.16190476","black","experiment","legacy","legacy","legacy","0","uniform","1","undefined","1","left","104","104","104","0","0","104","104","0","0","104","104","104","0","104","0","10/07/18 17:53:30","The main experiment item","yes","Sternbergtask.osexp","C:/Users/I. Edwards/Desktop","no","mono","no","18","no","white","no","yes","768","legacy","92","11","C:/Users/I. Edwards/Desktop/kg-subject-2.csv","legacy","7 4 2 6 3 5","Kafkaesque Koffka","3.2.5","6","y","0","left","right","right","left","NA","1372","41786","9005","1372","NA","2","legacy","6","1024","2","48000","-16","experiment","2","even","5","738537","735064","736317","2667","129475","736321","637049","2677","120468","740550","741926","737325","44465","740550","NA","Sternberg task","89","109637","105","yes","1024"
"84.9056603774","84.9056603774","1040.3490566","1040.3490566","black","experiment","legacy","legacy","legacy","0","uniform","1","undefined","1","left","105","105","105","0","0","105","105","0","0","105","105","105","0","105","0","10/07/18 17:53:30","The main experiment item","yes","Sternbergtask.osexp","C:/Users/I. Edwards/Desktop","no","mono","no","18","no","white","no","yes","768","legacy","93","11","C:/Users/I. Edwards/Desktop/kg-subject-2.csv","legacy","9 1 7 2","Kafkaesque Koffka","3.2.5","2","y","0","left","right","right","left","NA","640","41786","9005","640","NA","2","legacy","4","1024","2","48000","-16","experiment","2","even","1","745417","741937","743190","2667","129475","743194","637049","2677","120468","747430","748074","744206","44465","747430","NA","Sternberg task","90","110277","106","yes","1024"
"85.046728972","85.046728972","1038.36448598","1038.36448598","black","experiment","legacy","legacy","legacy","0","uniform","1","undefined","1","left","106","106","106","0","0","106","106","0","0","106","106","106","0","106","0","10/07/18 17:53:30","The main experiment item","yes","Sternbergtask.osexp","C:/Users/I. Edwards/Desktop","no","mono","no","18","no","white","no","yes","768","legacy","94","11","C:/Users/I. Edwards/Desktop/kg-subject-2.csv","legacy","7","Kafkaesque Koffka","3.2.5","1","y","0","left","right","right","left","NA","828","41786","9005","828","NA","2","legacy","1","1024","2","48000","-16","experiment","2","even","7","751565","748085","749336","2667","129475","749341","637049","2677","120468","753577","754409","750352","44465","753577","NA","Sternberg task","91","111105","107","yes","1024"
"85.1851851852","85.1851851852","1033.78703704","1033.78703704","black","experiment","legacy","legacy","legacy","0","uniform","1","undefined","1","left","107","107","107","0","0","107","107","0","0","107","107","107","0","107","0","10/07/18 17:53:30","The main experiment item","yes","Sternbergtask.osexp","C:/Users/I. Edwards/Desktop","no","mono","no","18","no","white","no","yes","768","legacy","95","11","C:/Users/I. Edwards/Desktop/kg-subject-2.csv","legacy","4 1 8 7 5","Kafkaesque Koffka","3.2.5","3","y","0","left","right","right","left","NA","544","41786","9005","544","NA","2","legacy","5","1024","2","48000","-16","experiment","2","even","8","757907","754420","755679","2667","129475","755683","637049","2677","120468","759919","760468","756695","44465","759919","NA","Sternberg task","92","111649","108","yes","1024"
"85.3211009174","85.3211009174","1028.48623853","1028.48623853","black","experiment","legacy","legacy","legacy","0","uniform","1","undefined","1","left","108","108","108","0","0","108","108","0","0","108","108","108","0","108","0","10/07/18 17:53:30","The main experiment item","yes","Sternbergtask.osexp","C:/Users/I. Edwards/Desktop","no","mono","no","18","no","white","no","yes","768","legacy","96","11","C:/Users/I. Edwards/Desktop/kg-subject-2.csv","legacy","6 7 9 3 1 2","Kafkaesque Koffka","3.2.5","1","y","0","left","right","right","left","NA","456","41786","9005","456","NA","2","legacy","6","1024","2","48000","-16","experiment","2","even","6","763958","760478","761728","2667","129475","761733","637049","2677","120468","765970","766430","762746","44465","765970","NA","Sternberg task","93","112105","109","yes","1024"
"84.5454545455","84.5454545455","1033.29090909","1033.29090909","black","experiment","legacy","legacy","legacy","0","uniform","0","undefined","0","left","109","109","109","0","0","109","109","0","0","109","109","109","0","109","0","10/07/18 17:53:30","The main experiment item","yes","Sternbergtask.osexp","C:/Users/I. Edwards/Desktop","no","mono","no","18","no","white","no","yes","768","legacy","97","11","C:/Users/I. Edwards/Desktop/kg-subject-2.csv","legacy","8 5 3 7 4 6","Kafkaesque Koffka","3.2.5","6","y","0","right","right","right","right","NA","1557","41786","9005","1557","NA","2","legacy","6","1024","2","48000","-16","experiment","2","even","6","769916","766441","767688","2667","129475","767693","637049","2677","120468","771929","773491","768705","44465","771929","NA","Sternberg task","93","113662","110","yes","1024"
"84.6846846847","84.6846846847","1033.10810811","1033.10810811","black","experiment","legacy","legacy","legacy","0","uniform","1","undefined","1","left","110","110","110","0","0","110","110","0","0","110","110","110","0","110","0","10/07/18 17:53:30","The main experiment item","yes","Sternbergtask.osexp","C:/Users/I. Edwards/Desktop","no","mono","no","18","no","white","no","yes","768","legacy","98","11","C:/Users/I. Edwards/Desktop/kg-subject-2.csv","legacy","5 7 3 6 2","Kafkaesque Koffka","3.2.5","5","y","0","left","right","right","left","NA","1013","41786","9005","1013","NA","2","legacy","5","1024","2","48000","-16","experiment","2","even","2","776985","766441","774757","2667","129475","774761","773501","2677","120468","778997","780015","775773","44465","778997","NA","Sternberg task","94","114675","111","yes","1024"
"84.8214285714","84.8214285714","1032.77678571","1032.77678571","black","experiment","legacy","legacy","legacy","0","uniform","1","undefined","1","right","111","111","111","0","0","111","111","0","0","111","111","111","0","111","0","10/07/18 17:53:30","The main experiment item","yes","Sternbergtask.osexp","C:/Users/I. Edwards/Desktop","no","mono","no","18","no","white","no","yes","768","legacy","99","11","C:/Users/I. Edwards/Desktop/kg-subject-2.csv","legacy","7 8 6 1","Kafkaesque Koffka","3.2.5","0","n","0","right","right","right","right","NA","996","41786","9005","996","NA","2","legacy","4","1024","2","48000","-16","experiment","2","even","3","783511","780025","781283","2667","129475","781287","773501","2677","120468","785524","786525","782300","44465","785524","NA","Sternberg task","95","115671","112","yes","1024"
"84.9557522124","84.9557522124","1031.95575221","1031.95575221","black","experiment","legacy","legacy","legacy","0","uniform","1","undefined","1","left","112","112","112","0","0","112","112","0","0","112","112","112","0","112","0","10/07/18 17:53:30","The main experiment item","yes","Sternbergtask.osexp","C:/Users/I. Edwards/Desktop","no","mono","no","18","no","white","no","yes","768","legacy","100","11","C:/Users/I. Edwards/Desktop/kg-subject-2.csv","legacy","2 8 5 1","Kafkaesque Koffka","3.2.5","4","y","0","left","right","right","left","NA","940","41786","9005","940","NA","2","legacy","4","1024","2","48000","-16","experiment","2","even","1","790016","786535","787789","2667","129475","787793","773501","2677","120468","792029","792973","788805","44465","792029","NA","Sternberg task","96","116611","113","yes","1024"
"85.0877192982","85.0877192982","1028.68421053","1028.68421053","black","experiment","legacy","legacy","legacy","0","uniform","1","undefined","1","left","113","113","113","0","0","113","113","0","0","113","113","113","0","113","0","10/07/18 17:53:30","The main experiment item","yes","Sternbergtask.osexp","C:/Users/I. Edwards/Desktop","no","mono","no","18","no","white","no","yes","768","legacy","101","11","C:/Users/I. Edwards/Desktop/kg-subject-2.csv","legacy","4 1 5","Kafkaesque Koffka","3.2.5","2","y","0","left","right","right","left","NA","659","41786","9005","659","NA","2","legacy","3","1024","2","48000","-16","experiment","2","even","1","796469","792984","794241","2667","129475","794246","773501","2677","120468","798482","799146","795258","44465","798482","NA","Sternberg task","97","117270","114","yes","1024"
"85.2173913043","85.2173913043","1029.96521739","1029.96521739","black","experiment","legacy","legacy","legacy","0","uniform","1","undefined","1","right","114","114","114","0","0","114","114","0","0","114","114","114","0","114","0","10/07/18 17:53:30","The main experiment item","yes","Sternbergtask.osexp","C:/Users/I. Edwards/Desktop","no","mono","no","18","no","white","no","yes","768","legacy","102","11","C:/Users/I. Edwards/Desktop/kg-subject-2.csv","legacy","2 8 9","Kafkaesque Koffka","3.2.5","0","n","0","right","right","right","right","NA","1176","41786","9005","1176","NA","2","legacy","3","1024","2","48000","-16","experiment","2","even","6","802625","799156","800397","2667","129475","800401","773501","2677","120468","804638","805819","801414","44465","804638","NA","Sternberg task","98","118446","115","yes","1024"
"85.3448275862","85.3448275862","1029.35344828","1029.35344828","black","experiment","legacy","legacy","legacy","0","uniform","1","undefined","1","right","115","115","115","0","0","115","115","0","0","115","115","115","0","115","0","10/07/18 17:53:30","The main experiment item","yes","Sternbergtask.osexp","C:/Users/I. Edwards/Desktop","no","mono","no","18","no","white","no","yes","768","legacy","103","11","C:/Users/I. Edwards/Desktop/kg-subject-2.csv","legacy","6 3 1 7 9 8","Kafkaesque Koffka","3.2.5","0","n","0","right","right","right","right","NA","959","41786","9005","959","NA","2","legacy","6","1024","2","48000","-16","experiment","2","even","4","809303","805830","807076","2667","129475","807080","773501","2677","120468","811316","812279","808092","44465","811315","NA","Sternberg task","99","119405","116","yes","1024"
"85.4700854701","85.4700854701","1030.86324786","1030.86324786","black","experiment","legacy","legacy","legacy","0","uniform","1","undefined","1","left","116","116","116","0","0","116","116","0","0","116","116","116","0","116","0","10/07/18 17:53:30","The main experiment item","yes","Sternbergtask.osexp","C:/Users/I. Edwards/Desktop","no","mono","no","18","no","white","no","yes","768","legacy","104","11","C:/Users/I. Edwards/Desktop/kg-subject-2.csv","legacy","7 1 8 5 6 2","Kafkaesque Koffka","3.2.5","2","y","0","left","right","right","left","NA","1206","41786","9005","1206","NA","2","legacy","6","1024","2","48000","-16","experiment","2","even","1","815768","812290","813538","2667","129475","813543","773501","2677","120468","817781","818992","814555","44465","817780","NA","Sternberg task","100","120611","117","yes","1024"
"85.593220339","85.593220339","1028.94067797","1028.94067797","black","experiment","legacy","legacy","legacy","0","uniform","1","undefined","1","right","117","117","117","0","0","117","117","0","0","117","117","117","0","117","0","10/07/18 17:53:30","The main experiment item","yes","Sternbergtask.osexp","C:/Users/I. Edwards/Desktop","no","mono","no","18","no","white","no","yes","768","legacy","105","11","C:/Users/I. Edwards/Desktop/kg-subject-2.csv","legacy","1 6 4 3 9 7","Kafkaesque Koffka","3.2.5","0","n","0","right","right","right","right","NA","804","41786","9005","804","NA","2","legacy","6","1024","2","48000","-16","experiment","2","even","8","822484","819002","820255","2667","129475","820260","773501","2677","120468","824496","825304","821271","44465","824495","NA","Sternberg task","101","121415","118","yes","1024"
"84.8739495798","84.8739495798","1037.10084034","1037.10084034","black","experiment","legacy","legacy","legacy","0","uniform","0","undefined","0","right","118","118","118","0","0","118","118","0","0","118","118","118","0","118","0","10/07/18 17:53:30","The main experiment item","yes","Sternbergtask.osexp","C:/Users/I. Edwards/Desktop","no","mono","no","18","no","white","no","yes","768","legacy","106","11","C:/Users/I. Edwards/Desktop/kg-subject-2.csv","legacy","2 8 7 9 5 3","Kafkaesque Koffka","3.2.5","0","n","0","None","right","right","None","NA","2000","41786","9005","2000","NA","2","legacy","6","1024","2","48000","-16","experiment","2","even","6","828793","825315","826564","2667","129475","826568","773501","2677","120468","830806","832810","827581","44465","830806","NA","Sternberg task","101","123415","119","yes","1024"
"85","85","1035.13333333","1035.13333333","black","experiment","legacy","legacy","legacy","0","uniform","1","undefined","1","left","119","119","119","0","0","119","119","0","0","119","119","119","0","119","0","10/07/18 17:53:30","The main experiment item","yes","Sternbergtask.osexp","C:/Users/I. Edwards/Desktop","no","mono","no","18","no","white","no","yes","768","legacy","107","11","C:/Users/I. Edwards/Desktop/kg-subject-2.csv","legacy","4 9 7 8 5 3","Kafkaesque Koffka","3.2.5","4","y","0","left","right","right","left","NA","801","41786","9005","801","NA","2","legacy","6","1024","2","48000","-16","experiment","2","even","8","836312","825315","834083","2667","129475","834088","832821","2677","120468","838324","839130","835100","44465","838323","NA","Sternberg task","102","124216","120","yes","1024"
"85.1239669421","85.1239669421","1033.16528926","1033.16528926","black","experiment","legacy","legacy","legacy","0","uniform","1","undefined","1","left","120","120","120","0","0","120","120","0","0","120","120","120","0","120","0","10/07/18 17:53:30","The main experiment item","yes","Sternbergtask.osexp","C:/Users/I. Edwards/Desktop","no","mono","no","18","no","white","no","yes","768","legacy","108","11","C:/Users/I. Edwards/Desktop/kg-subject-2.csv","legacy","1 4 9 3 2 5","Kafkaesque Koffka","3.2.5","3","y","0","left","right","right","left","NA","797","41786","9005","797","NA","2","legacy","6","1024","2","48000","-16","experiment","2","even","9","842616","839141","840387","2667","129475","840391","832821","2677","120468","844628","845430","841403","44465","844628","NA","Sternberg task","103","125013","121","yes","1024"
