"acc","accuracy","average_response_time","avg_rt","background","bidi","block","canvas_backend","clock_backend","color_backend","compensation","coordinates","correct","correct_instruction1","correct_keyboard_response","correct_response","count_ISI","count_correctFeedback","count_expSequence","count_experiment","count_experimentLoop","count_fixation","count_incorrectFeedback","count_instruction1","count_instructions2","count_keyboard_response","count_logger","count_memorySet","count_practiceLoop","count_probe","count_thankYou","datetime","description","disable_garbage_collection","empty_column","experiment_file","experiment_path","font_bold","font_family","font_italic","font_size","font_underline","foreground","form_clicks","fullscreen","height","keyboard_backend","live_row","live_row_practiceLoop","logfile","mouse_backend","numberSet","opensesame_codename","opensesame_version","posInSet","present","repeat_cycle","response","response_instruction1","response_instructions2","response_keyboard_response","response_thankYou","response_time","response_time_instruction1","response_time_instructions2","response_time_keyboard_response","response_time_thankYou","round_decimals","sampler_backend","setSize","sound_buf_size","sound_channels","sound_freq","sound_sample_size","start","subject_nr","subject_parity","target","time_ISI","time_correctFeedback","time_expSequence","time_experiment","time_experimentLoop","time_fixation","time_incorrectFeedback","time_instruction1","time_instructions2","time_keyboard_response","time_logger","time_memorySet","time_practiceLoop","time_probe","time_thankYou","title","total_correct","total_response_time","total_responses","uniform_coordinates","width"
"0","0","2000","2000","black","no","practice","legacy","legacy","legacy","0","uniform","0","undefined","0","right","0","0","0","0","0","0","0","0","0","0","0","0","0","0","0","10/06/18 20:57:04","The main experiment item","yes","NA","Sternbergtask.osexp","C:\Users\Knitwitty\Desktop","no","mono","no","18","no","white","no","yes","768","legacy","0","0","C:/Users/Knitwitty/Documents/KBsubject3.csv","legacy","5 7 8 4 1 2","Jazzy James","3.1.9","0","n","0","None","right","NA","None","NA","2000","38991","NA","2000","NA","2","legacy","6","1024","2","48000","-16","experiment","3","odd","6","51074","NA","48859","2907","NA","48863","NA","2913","NA","53080","55081","49869","41905","53079","NA","Sternberg task","0","2000","1","yes","1024"
"0","0","1354.5","1354.5","black","no","practice","legacy","legacy","legacy","0","uniform","0","undefined","0","left","1","1","1","0","0","1","1","0","0","1","1","1","0","1","0","10/06/18 20:57:04","The main experiment item","yes","NA","Sternbergtask.osexp","C:\Users\Knitwitty\Desktop","no","mono","no","18","no","white","no","yes","768","legacy","1","1","C:/Users/Knitwitty/Documents/KBsubject3.csv","legacy","1 7 9 8 5","Jazzy James","3.1.9","4","y","0","right","right","NA","right","NA","709","38991","NA","709","NA","2","legacy","5","1024","2","48000","-16","experiment","3","odd","8","58525","NA","56308","2907","NA","56312","55117","2913","NA","60530","61240","57318","41905","60530","NA","Sternberg task","0","2709","2","yes","1024"
"33.3333333333","33.3333333333","1086.66666667","1086.66666667","black","no","practice","legacy","legacy","legacy","0","uniform","1","undefined","1","left","2","2","2","0","0","2","2","0","0","2","2","2","0","2","0","10/06/18 20:57:04","The main experiment item","yes","NA","Sternbergtask.osexp","C:\Users\Knitwitty\Desktop","no","mono","no","18","no","white","no","yes","768","legacy","2","2","C:/Users/Knitwitty/Documents/KBsubject3.csv","legacy","4 3 1 7 9 8","Jazzy James","3.1.9","1","y","0","left","right","NA","left","NA","551","38991","NA","551","NA","2","legacy","6","1024","2","48000","-16","experiment","3","odd","4","64649","NA","62434","2907","NA","62438","61256","2913","NA","66656","67209","63443","41905","66655","NA","Sternberg task","1","3260","3","yes","1024"
"50","50","1018.25","1018.25","black","no","practice","legacy","legacy","legacy","0","uniform","1","undefined","1","right","3","3","3","0","0","3","3","0","0","3","3","3","0","3","0","10/06/18 20:57:04","The main experiment item","yes","NA","Sternbergtask.osexp","C:\Users\Knitwitty\Desktop","no","mono","no","18","no","white","no","yes","768","legacy","3","3","C:/Users/Knitwitty/Documents/KBsubject3.csv","legacy","4 1 5","Jazzy James","3.1.9","0","n","0","right","right","NA","right","NA","813","38991","NA","813","NA","2","legacy","3","1024","2","48000","-16","experiment","3","odd","2","70620","67224","68404","2907","NA","68408","61256","2913","NA","72626","73440","69414","41905","72626","NA","Sternberg task","2","4073","4","yes","1024"
"60","60","962.2","962.2","black","no","practice","legacy","legacy","legacy","0","uniform","1","undefined","1","left","4","4","4","0","0","4","4","0","0","4","4","4","0","4","0","10/06/18 20:57:04","The main experiment item","yes","NA","Sternbergtask.osexp","C:\Users\Knitwitty\Desktop","no","mono","no","18","no","white","no","yes","768","legacy","4","4","C:/Users/Knitwitty/Documents/KBsubject3.csv","legacy","2 9 4","Jazzy James","3.1.9","3","y","0","left","right","NA","left","NA","738","38991","NA","738","NA","2","legacy","3","1024","2","48000","-16","experiment","3","odd","4","76855","73461","74639","2907","NA","74643","61256","2913","NA","78861","79601","75649","41905","78861","NA","Sternberg task","3","4811","5","yes","1024"
"66.6666666667","66.6666666667","904","904","black","no","practice","legacy","legacy","legacy","0","uniform","1","undefined","1","left","5","5","5","0","0","5","5","0","0","5","5","5","0","5","0","10/06/18 20:57:04","The main experiment item","yes","NA","Sternbergtask.osexp","C:\Users\Knitwitty\Desktop","no","mono","no","18","no","white","no","yes","768","legacy","5","5","C:/Users/Knitwitty/Documents/KBsubject3.csv","legacy","6","Jazzy James","3.1.9","1","y","0","left","right","NA","left","NA","613","38991","NA","613","NA","2","legacy","1","1024","2","48000","-16","experiment","3","odd","6","82995","79616","80783","2907","NA","80787","61256","2913","NA","85002","85616","81790","41905","85001","NA","Sternberg task","4","5424","6","yes","1024"
"71.4285714286","71.4285714286","877","877","black","no","practice","legacy","legacy","legacy","0","uniform","1","undefined","1","left","6","6","6","0","0","6","6","0","0","6","6","6","0","6","0","10/06/18 20:57:04","The main experiment item","yes","NA","Sternbergtask.osexp","C:\Users\Knitwitty\Desktop","no","mono","no","18","no","white","no","yes","768","legacy","6","6","C:/Users/Knitwitty/Documents/KBsubject3.csv","legacy","1 5 2 9","Jazzy James","3.1.9","2","y","0","left","right","NA","left","NA","715","38991","NA","715","NA","2","legacy","4","1024","2","48000","-16","experiment","3","odd","5","89021","85632","86806","2907","NA","86810","61256","2913","NA","91028","91745","87815","41905","91027","NA","Sternberg task","5","6139","7","yes","1024"
"75","75","844.125","844.125","black","no","practice","legacy","legacy","legacy","0","uniform","1","undefined","1","right","7","7","7","0","0","7","7","0","0","7","7","7","0","7","0","10/06/18 20:57:04","The main experiment item","yes","NA","Sternbergtask.osexp","C:\Users\Knitwitty\Desktop","no","mono","no","18","no","white","no","yes","768","legacy","7","7","C:/Users/Knitwitty/Documents/KBsubject3.csv","legacy","9 6 7 4 5","Jazzy James","3.1.9","0","n","0","right","right","NA","right","NA","614","38991","NA","614","NA","2","legacy","5","1024","2","48000","-16","experiment","3","odd","3","95187","91761","92972","2907","NA","92976","61256","2913","NA","97193","97808","93982","41905","97192","NA","Sternberg task","6","6753","8","yes","1024"
"77.7777777778","77.7777777778","840.222222222","840.222222222","black","no","practice","legacy","legacy","legacy","0","uniform","1","undefined","1","right","8","8","8","0","0","8","8","0","0","8","8","8","0","8","0","10/06/18 20:57:04","The main experiment item","yes","NA","Sternbergtask.osexp","C:\Users\Knitwitty\Desktop","no","mono","no","18","no","white","no","yes","768","legacy","8","8","C:/Users/Knitwitty/Documents/KBsubject3.csv","legacy","2 1","Jazzy James","3.1.9","0","n","0","right","right","NA","right","NA","809","38991","NA","809","NA","2","legacy","2","1024","2","48000","-16","experiment","3","odd","5","101216","97825","99000","2907","NA","99005","61256","2913","NA","103222","104032","100010","41905","103221","NA","Sternberg task","7","7562","9","yes","1024"
"80","80","817.1","817.1","black","no","practice","legacy","legacy","legacy","0","uniform","1","undefined","1","left","9","9","9","0","0","9","9","0","0","9","9","9","0","9","0","10/06/18 20:57:04","The main experiment item","yes","NA","Sternbergtask.osexp","C:\Users\Knitwitty\Desktop","no","mono","no","18","no","white","no","yes","768","legacy","9","9","C:/Users/Knitwitty/Documents/KBsubject3.csv","legacy","4 8","Jazzy James","3.1.9","1","y","0","left","right","NA","left","NA","609","38991","NA","609","NA","2","legacy","2","1024","2","48000","-16","experiment","3","odd","4","107448","104048","105234","2907","NA","105239","61256","2913","NA","109454","110065","106244","41905","109453","NA","Sternberg task","8","8171","10","yes","1024"
"81.8181818182","81.8181818182","798.090909091","798.090909091","black","no","practice","legacy","legacy","legacy","0","uniform","1","undefined","1","right","10","10","10","0","0","10","10","0","0","10","10","10","0","10","0","10/06/18 20:57:04","The main experiment item","yes","NA","Sternbergtask.osexp","C:\Users\Knitwitty\Desktop","no","mono","no","18","no","white","no","yes","768","legacy","10","10","C:/Users/Knitwitty/Documents/KBsubject3.csv","legacy","3 1 9 4","Jazzy James","3.1.9","0","n","0","right","right","NA","right","NA","608","38991","NA","608","NA","2","legacy","4","1024","2","48000","-16","experiment","3","odd","6","113481","110081","111265","2907","NA","111269","61256","2913","NA","115487","116097","112275","41905","115487","NA","Sternberg task","9","8779","11","yes","1024"
"83.3333333333","83.3333333333","769.75","769.75","black","no","practice","legacy","legacy","legacy","0","uniform","1","undefined","1","right","11","11","11","0","0","11","11","0","0","11","11","11","0","11","0","10/06/18 20:57:04","The main experiment item","yes","NA","Sternbergtask.osexp","C:\Users\Knitwitty\Desktop","no","mono","no","18","no","white","no","yes","768","legacy","11","11","C:/Users/Knitwitty/Documents/KBsubject3.csv","legacy","5","Jazzy James","3.1.9","0","n","0","right","right","NA","right","NA","458","38991","NA","458","NA","2","legacy","1","1024","2","48000","-16","experiment","3","odd","3","119510","116113","117296","2907","NA","117300","61256","2913","NA","121517","121977","118305","41905","121516","NA","Sternberg task","10","9237","12","yes","1024"
"84.6153846154","84.6153846154","762","762","black","no","experiment","legacy","legacy","legacy","0","uniform","1","undefined","1","right","12","12","12","0","0","12","12","0","0","12","12","12","0","12","0","10/06/18 20:57:04","The main experiment item","yes","NA","Sternbergtask.osexp","C:\Users\Knitwitty\Desktop","no","mono","no","18","no","white","no","yes","768","legacy","0","11","C:/Users/Knitwitty/Documents/KBsubject3.csv","legacy","2 8 9 4 1","Jazzy James","3.1.9","0","n","0","right","right","right","right","NA","669","38991","7412","669","NA","2","legacy","5","1024","2","48000","-16","experiment","3","odd","5","133004","121993","130790","2907","130473","130793","61256","2913","123060","135010","135681","131798","41905","135009","NA","Sternberg task","11","9906","13","yes","1024"
"85.7142857143","85.7142857143","761.357142857","761.357142857","black","no","experiment","legacy","legacy","legacy","0","uniform","1","undefined","1","right","13","13","13","0","0","13","13","0","0","13","13","13","0","13","0","10/06/18 20:57:04","The main experiment item","yes","NA","Sternbergtask.osexp","C:\Users\Knitwitty\Desktop","no","mono","no","18","no","white","no","yes","768","legacy","1","11","C:/Users/Knitwitty/Documents/KBsubject3.csv","legacy","1 4 9 3","Jazzy James","3.1.9","0","n","0","right","right","right","right","NA","753","38991","7412","753","NA","2","legacy","4","1024","2","48000","-16","experiment","3","odd","5","139095","135697","136879","2907","130473","136884","61256","2913","123060","141102","141857","137889","41905","141101","NA","Sternberg task","12","10659","14","yes","1024"
"86.6666666667","86.6666666667","750.666666667","750.666666667","black","no","experiment","legacy","legacy","legacy","0","uniform","1","undefined","1","left","14","14","14","0","0","14","14","0","0","14","14","14","0","14","0","10/06/18 20:57:04","The main experiment item","yes","NA","Sternbergtask.osexp","C:\Users\Knitwitty\Desktop","no","mono","no","18","no","white","no","yes","768","legacy","2","11","C:/Users/Knitwitty/Documents/KBsubject3.csv","legacy","4 9 7 8 5 3","Jazzy James","3.1.9","4","y","0","left","right","right","left","NA","601","38991","7412","601","NA","2","legacy","6","1024","2","48000","-16","experiment","3","odd","8","145263","141873","143048","2907","130473","143052","61256","2913","123060","147270","147872","144057","41905","147269","NA","Sternberg task","13","11260","15","yes","1024"
"87.5","87.5","738.8125","738.8125","black","no","experiment","legacy","legacy","legacy","0","uniform","1","undefined","1","right","15","15","15","0","0","15","15","0","0","15","15","15","0","15","0","10/06/18 20:57:04","The main experiment item","yes","NA","Sternbergtask.osexp","C:\Users\Knitwitty\Desktop","no","mono","no","18","no","white","no","yes","768","legacy","3","11","C:/Users/Knitwitty/Documents/KBsubject3.csv","legacy","1 7 5 2","Jazzy James","3.1.9","0","n","0","right","right","right","right","NA","561","38991","7412","561","NA","2","legacy","4","1024","2","48000","-16","experiment","3","odd","3","151281","147887","149065","2907","130473","149069","61256","2913","123060","153287","153849","150075","41905","153287","NA","Sternberg task","14","11821","16","yes","1024"
"88.2352941176","88.2352941176","743.529411765","743.529411765","black","no","experiment","legacy","legacy","legacy","0","uniform","1","undefined","1","left","16","16","16","0","0","16","16","0","0","16","16","16","0","16","0","10/06/18 20:57:04","The main experiment item","yes","NA","Sternbergtask.osexp","C:\Users\Knitwitty\Desktop","no","mono","no","18","no","white","no","yes","768","legacy","4","11","C:/Users/Knitwitty/Documents/KBsubject3.csv","legacy","3 9 7 6 4","Jazzy James","3.1.9","3","y","0","left","right","right","left","NA","819","38991","7412","819","NA","2","legacy","5","1024","2","48000","-16","experiment","3","odd","7","157256","153864","155041","2907","130473","155045","61256","2913","123060","159261","160082","156050","41905","159261","NA","Sternberg task","15","12640","17","yes","1024"
"88.8888888889","88.8888888889","741.888888889","741.888888889","black","no","experiment","legacy","legacy","legacy","0","uniform","1","undefined","1","left","17","17","17","0","0","17","17","0","0","17","17","17","0","17","0","10/06/18 20:57:04","The main experiment item","yes","NA","Sternbergtask.osexp","C:\Users\Knitwitty\Desktop","no","mono","no","18","no","white","no","yes","768","legacy","5","11","C:/Users/Knitwitty/Documents/KBsubject3.csv","legacy","2 4 6 9","Jazzy James","3.1.9","3","y","0","left","right","right","left","NA","714","38991","7412","714","NA","2","legacy","4","1024","2","48000","-16","experiment","3","odd","6","163496","160097","161280","2907","130473","161285","61256","2913","123060","165501","166217","162290","41905","165501","NA","Sternberg task","16","13354","18","yes","1024"
"89.4736842105","89.4736842105","734.894736842","734.894736842","black","no","experiment","legacy","legacy","legacy","0","uniform","1","undefined","1","right","18","18","18","0","0","18","18","0","0","18","18","18","0","18","0","10/06/18 20:57:04","The main experiment item","yes","NA","Sternbergtask.osexp","C:\Users\Knitwitty\Desktop","no","mono","no","18","no","white","no","yes","768","legacy","6","11","C:/Users/Knitwitty/Documents/KBsubject3.csv","legacy","8 9","Jazzy James","3.1.9","0","n","0","right","right","right","right","NA","609","38991","7412","609","NA","2","legacy","2","1024","2","48000","-16","experiment","3","odd","5","169623","166232","167408","2907","130473","167412","61256","2913","123060","171630","172241","168417","41905","171629","NA","Sternberg task","17","13963","19","yes","1024"
"90","90","740.25","740.25","black","no","experiment","legacy","legacy","legacy","0","uniform","1","undefined","1","left","19","19","19","0","0","19","19","0","0","19","19","19","0","19","0","10/06/18 20:57:04","The main experiment item","yes","NA","Sternbergtask.osexp","C:\Users\Knitwitty\Desktop","no","mono","no","18","no","white","no","yes","768","legacy","7","11","C:/Users/Knitwitty/Documents/KBsubject3.csv","legacy","2 5 4 8 7","Jazzy James","3.1.9","3","y","0","left","right","right","left","NA","842","38991","7412","842","NA","2","legacy","5","1024","2","48000","-16","experiment","3","odd","4","175656","172257","173440","2907","130473","173444","61256","2913","123060","177662","178506","174450","41905","177661","NA","Sternberg task","18","14805","20","yes","1024"
"90.4761904762","90.4761904762","726.571428571","726.571428571","black","no","experiment","legacy","legacy","legacy","0","uniform","1","undefined","1","left","20","20","20","0","0","20","20","0","0","20","20","20","0","20","0","10/06/18 20:57:04","The main experiment item","yes","NA","Sternbergtask.osexp","C:\Users\Knitwitty\Desktop","no","mono","no","18","no","white","no","yes","768","legacy","8","11","C:/Users/Knitwitty/Documents/KBsubject3.csv","legacy","9 6 2 4 1","Jazzy James","3.1.9","4","y","0","left","right","right","left","NA","453","38991","7412","453","NA","2","legacy","5","1024","2","48000","-16","experiment","3","odd","4","181908","178521","179693","2907","130473","179697","61256","2913","123060","183914","184369","180702","41905","183914","NA","Sternberg task","19","15258","21","yes","1024"
"90.9090909091","90.9090909091","723.772727273","723.772727273","black","no","experiment","legacy","legacy","legacy","0","uniform","1","undefined","1","right","21","21","21","0","0","21","21","0","0","21","21","21","0","21","0","10/06/18 20:57:04","The main experiment item","yes","NA","Sternbergtask.osexp","C:\Users\Knitwitty\Desktop","no","mono","no","18","no","white","no","yes","768","legacy","9","11","C:/Users/Knitwitty/Documents/KBsubject3.csv","legacy","5 9 2 3","Jazzy James","3.1.9","0","n","0","right","right","right","right","NA","665","38991","7412","665","NA","2","legacy","4","1024","2","48000","-16","experiment","3","odd","8","187792","184385","185578","2907","130473","185582","61256","2913","123060","189798","190465","186587","41905","189798","NA","Sternberg task","20","15923","22","yes","1024"
"91.3043478261","91.3043478261","712.217391304","712.217391304","black","no","experiment","legacy","legacy","legacy","0","uniform","1","undefined","1","left","22","22","22","0","0","22","22","0","0","22","22","22","0","22","0","10/06/18 20:57:04","The main experiment item","yes","NA","Sternbergtask.osexp","C:\Users\Knitwitty\Desktop","no","mono","no","18","no","white","no","yes","768","legacy","10","11","C:/Users/Knitwitty/Documents/KBsubject3.csv","legacy","3 4","Jazzy James","3.1.9","1","y","0","left","right","right","left","NA","458","38991","7412","458","NA","2","legacy","2","1024","2","48000","-16","experiment","3","odd","3","193879","190481","191664","2907","130473","191668","61256","2913","123060","195885","196345","192673","41905","195884","NA","Sternberg task","21","16381","23","yes","1024"
"91.6666666667","91.6666666667","699.125","699.125","black","no","experiment","legacy","legacy","legacy","0","uniform","1","undefined","1","left","23","23","23","0","0","23","23","0","0","23","23","23","0","23","0","10/06/18 20:57:04","The main experiment item","yes","NA","Sternbergtask.osexp","C:\Users\Knitwitty\Desktop","no","mono","no","18","no","white","no","yes","768","legacy","11","11","C:/Users/Knitwitty/Documents/KBsubject3.csv","legacy","7 8 4 6 9 5","Jazzy James","3.1.9","4","y","0","left","right","right","left","NA","398","38991","7412","398","NA","2","legacy","6","1024","2","48000","-16","experiment","3","odd","6","199763","196360","197548","2907","130473","197552","61256","2913","123060","201770","202170","198557","41905","201769","NA","Sternberg task","22","16779","24","yes","1024"
"92","92","693.64","693.64","black","no","experiment","legacy","legacy","legacy","0","uniform","1","undefined","1","right","24","24","24","0","0","24","24","0","0","24","24","24","0","24","0","10/06/18 20:57:04","The main experiment item","yes","NA","Sternbergtask.osexp","C:\Users\Knitwitty\Desktop","no","mono","no","18","no","white","no","yes","768","legacy","12","11","C:/Users/Knitwitty/Documents/KBsubject3.csv","legacy","6 9 7 3 8 2","Jazzy James","3.1.9","0","n","0","right","right","right","right","NA","562","38991","7412","562","NA","2","legacy","6","1024","2","48000","-16","experiment","3","odd","5","205574","202184","203359","2907","130473","203363","61256","2913","123060","207581","208146","204368","41905","207580","NA","Sternberg task","23","17341","25","yes","1024"
"88.4615384615","88.4615384615","696.346153846","696.346153846","black","no","experiment","legacy","legacy","legacy","0","uniform","0","undefined","0","right","25","25","25","0","0","25","25","0","0","25","25","25","0","25","0","10/06/18 20:57:04","The main experiment item","yes","NA","Sternbergtask.osexp","C:\Users\Knitwitty\Desktop","no","mono","no","18","no","white","no","yes","768","legacy","13","11","C:/Users/Knitwitty/Documents/KBsubject3.csv","legacy","7 4 2 8 1 9","Jazzy James","3.1.9","0","n","0","left","right","right","left","NA","764","38991","7412","764","NA","2","legacy","6","1024","2","48000","-16","experiment","3","odd","5","211557","208162","209341","2907","130473","209345","61256","2913","123060","213563","214329","210350","41905","213562","NA","Sternberg task","23","18105","26","yes","1024"
"88.8888888889","88.8888888889","702.222222222","702.222222222","black","no","experiment","legacy","legacy","legacy","0","uniform","1","undefined","1","right","26","26","26","0","0","26","26","0","0","26","26","26","0","26","0","10/06/18 20:57:04","The main experiment item","yes","NA","Sternbergtask.osexp","C:\Users\Knitwitty\Desktop","no","mono","no","18","no","white","no","yes","768","legacy","14","11","C:/Users/Knitwitty/Documents/KBsubject3.csv","legacy","7 3 2 8","Jazzy James","3.1.9","0","n","0","right","right","right","right","NA","855","38991","7412","855","NA","2","legacy","4","1024","2","48000","-16","experiment","3","odd","4","217736","208162","215521","2907","130473","215525","214344","2913","123060","219744","220602","216530","41905","219743","NA","Sternberg task","24","18960","27","yes","1024"
"89.2857142857","89.2857142857","701.714285714","701.714285714","black","no","experiment","legacy","legacy","legacy","0","uniform","1","undefined","1","left","27","27","27","0","0","27","27","0","0","27","27","27","0","27","0","10/06/18 20:57:04","The main experiment item","yes","NA","Sternbergtask.osexp","C:\Users\Knitwitty\Desktop","no","mono","no","18","no","white","no","yes","768","legacy","15","11","C:/Users/Knitwitty/Documents/KBsubject3.csv","legacy","2 8 5 1","Jazzy James","3.1.9","4","y","0","left","right","right","left","NA","688","38991","7412","688","NA","2","legacy","4","1024","2","48000","-16","experiment","3","odd","1","224024","220617","221809","2907","130473","221814","214344","2913","123060","226031","226721","222819","41905","226030","NA","Sternberg task","25","19648","28","yes","1024"
"89.6551724138","89.6551724138","691","691","black","no","experiment","legacy","legacy","legacy","0","uniform","1","undefined","1","left","28","28","28","0","0","28","28","0","0","28","28","28","0","28","0","10/06/18 20:57:04","The main experiment item","yes","NA","Sternbergtask.osexp","C:\Users\Knitwitty\Desktop","no","mono","no","18","no","white","no","yes","768","legacy","16","11","C:/Users/Knitwitty/Documents/KBsubject3.csv","legacy","4 7 6 8 2 3","Jazzy James","3.1.9","6","y","0","left","right","right","left","NA","391","38991","7412","391","NA","2","legacy","6","1024","2","48000","-16","experiment","3","odd","3","230130","226737","227913","2907","130473","227917","214344","2913","123060","232136","232529","228923","41905","232136","NA","Sternberg task","26","20039","29","yes","1024"
"90","90","681.7","681.7","black","no","experiment","legacy","legacy","legacy","0","uniform","1","undefined","1","left","29","29","29","0","0","29","29","0","0","29","29","29","0","29","0","10/06/18 20:57:04","The main experiment item","yes","NA","Sternbergtask.osexp","C:\Users\Knitwitty\Desktop","no","mono","no","18","no","white","no","yes","768","legacy","17","11","C:/Users/Knitwitty/Documents/KBsubject3.csv","legacy","4 6 2 5 1","Jazzy James","3.1.9","5","y","0","left","right","right","left","NA","412","38991","7412","412","NA","2","legacy","5","1024","2","48000","-16","experiment","3","odd","1","235940","232544","233725","2907","130473","233729","214344","2913","123060","237947","238362","234735","41905","237946","NA","Sternberg task","27","20451","30","yes","1024"
"90.3225806452","90.3225806452","682.322580645","682.322580645","black","no","experiment","legacy","legacy","legacy","0","uniform","1","undefined","1","left","30","30","30","0","0","30","30","0","0","30","30","30","0","30","0","10/06/18 20:57:04","The main experiment item","yes","NA","Sternbergtask.osexp","C:\Users\Knitwitty\Desktop","no","mono","no","18","no","white","no","yes","768","legacy","18","11","C:/Users/Knitwitty/Documents/KBsubject3.csv","legacy","8 9 5 6 7","Jazzy James","3.1.9","1","y","0","left","right","right","left","NA","701","38991","7412","701","NA","2","legacy","5","1024","2","48000","-16","experiment","3","odd","8","241772","238378","239556","2907","130473","239561","214344","2913","123060","243778","244481","240566","41905","243778","NA","Sternberg task","28","21152","31","yes","1024"
"90.625","90.625","678.90625","678.90625","black","no","experiment","legacy","legacy","legacy","0","uniform","1","undefined","1","right","31","31","31","0","0","31","31","0","0","31","31","31","0","31","0","10/06/18 20:57:04","The main experiment item","yes","NA","Sternbergtask.osexp","C:\Users\Knitwitty\Desktop","no","mono","no","18","no","white","no","yes","768","legacy","19","11","C:/Users/Knitwitty/Documents/KBsubject3.csv","legacy","5","Jazzy James","3.1.9","0","n","0","right","right","right","right","NA","573","38991","7412","573","NA","2","legacy","1","1024","2","48000","-16","experiment","3","odd","8","247885","244497","245669","2907","130473","245674","214344","2913","123060","249890","250466","246679","41905","249890","NA","Sternberg task","29","21725","32","yes","1024"
"90.9090909091","90.9090909091","679.060606061","679.060606061","black","no","experiment","legacy","legacy","legacy","0","uniform","1","undefined","1","right","32","32","32","0","0","32","32","0","0","32","32","32","0","32","0","10/06/18 20:57:04","The main experiment item","yes","NA","Sternbergtask.osexp","C:\Users\Knitwitty\Desktop","no","mono","no","18","no","white","no","yes","768","legacy","20","11","C:/Users/Knitwitty/Documents/KBsubject3.csv","legacy","1 7 8 3 9","Jazzy James","3.1.9","0","n","0","right","right","right","right","NA","684","38991","7412","684","NA","2","legacy","5","1024","2","48000","-16","experiment","3","odd","2","253876","250482","251661","2907","130473","251665","214344","2913","123060","255883","256569","252670","41905","255882","NA","Sternberg task","30","22409","33","yes","1024"
"91.1764705882","91.1764705882","685.5","685.5","black","no","experiment","legacy","legacy","legacy","0","uniform","1","undefined","1","right","33","33","33","0","0","33","33","0","0","33","33","33","0","33","0","10/06/18 20:57:04","The main experiment item","yes","NA","Sternbergtask.osexp","C:\Users\Knitwitty\Desktop","no","mono","no","18","no","white","no","yes","768","legacy","21","11","C:/Users/Knitwitty/Documents/KBsubject3.csv","legacy","7 1 5 6 3","Jazzy James","3.1.9","0","n","0","right","right","right","right","NA","898","38991","7412","898","NA","2","legacy","5","1024","2","48000","-16","experiment","3","odd","8","259974","256584","257759","2907","130473","257763","214344","2913","123060","261981","262881","258768","41905","261980","NA","Sternberg task","31","23307","34","yes","1024"
"91.4285714286","91.4285714286","687.257142857","687.257142857","black","no","experiment","legacy","legacy","legacy","0","uniform","1","undefined","1","right","34","34","34","0","0","34","34","0","0","34","34","34","0","34","0","10/06/18 20:57:04","The main experiment item","yes","NA","Sternbergtask.osexp","C:\Users\Knitwitty\Desktop","no","mono","no","18","no","white","no","yes","768","legacy","22","11","C:/Users/Knitwitty/Documents/KBsubject3.csv","legacy","7 9 1 6","Jazzy James","3.1.9","0","n","0","right","right","right","right","NA","747","38991","7412","747","NA","2","legacy","4","1024","2","48000","-16","experiment","3","odd","4","266285","262897","264069","2907","130473","264073","214344","2913","123060","268292","269042","265079","41905","268291","NA","Sternberg task","32","24054","35","yes","1024"
"91.6666666667","91.6666666667","681.333333333","681.333333333","black","no","experiment","legacy","legacy","legacy","0","uniform","1","undefined","1","left","35","35","35","0","0","35","35","0","0","35","35","35","0","35","0","10/06/18 20:57:04","The main experiment item","yes","NA","Sternbergtask.osexp","C:\Users\Knitwitty\Desktop","no","mono","no","18","no","white","no","yes","768","legacy","23","11","C:/Users/Knitwitty/Documents/KBsubject3.csv","legacy","6 7 9 3 1 2","Jazzy James","3.1.9","1","y","0","left","right","right","left","NA","474","38991","7412","474","NA","2","legacy","6","1024","2","48000","-16","experiment","3","odd","6","272447","269057","270231","2907","130473","270235","214344","2913","123060","274453","274929","271242","41905","274452","NA","Sternberg task","33","24528","36","yes","1024"
"91.8918918919","91.8918918919","679.702702703","679.702702703","black","no","experiment","legacy","legacy","legacy","0","uniform","1","undefined","1","left","36","36","36","0","0","36","36","0","0","36","36","36","0","36","0","10/06/18 20:57:04","The main experiment item","yes","NA","Sternbergtask.osexp","C:\Users\Knitwitty\Desktop","no","mono","no","18","no","white","no","yes","768","legacy","24","11","C:/Users/Knitwitty/Documents/KBsubject3.csv","legacy","8 9 5 7 1 6","Jazzy James","3.1.9","4","y","0","left","right","right","left","NA","621","38991","7412","621","NA","2","legacy","6","1024","2","48000","-16","experiment","3","odd","7","278339","274945","276123","2907","130473","276127","214344","2913","123060","280346","280970","277134","41905","280346","NA","Sternberg task","34","25149","37","yes","1024"
"92.1052631579","92.1052631579","686.342105263","686.342105263","black","no","experiment","legacy","legacy","legacy","0","uniform","1","undefined","1","right","37","37","37","0","0","37","37","0","0","37","37","37","0","37","0","10/06/18 20:57:04","The main experiment item","yes","NA","Sternbergtask.osexp","C:\Users\Knitwitty\Desktop","no","mono","no","18","no","white","no","yes","768","legacy","25","11","C:/Users/Knitwitty/Documents/KBsubject3.csv","legacy","2 5 1 4","Jazzy James","3.1.9","0","n","0","right","right","right","right","NA","932","38991","7412","932","NA","2","legacy","4","1024","2","48000","-16","experiment","3","odd","6","284380","280986","282165","2907","130473","282169","214344","2913","123060","286387","287322","283175","41905","286386","NA","Sternberg task","35","26081","38","yes","1024"
"89.7435897436","89.7435897436","688.051282051","688.051282051","black","no","experiment","legacy","legacy","legacy","0","uniform","0","undefined","0","right","38","38","38","0","0","38","38","0","0","38","38","38","0","38","0","10/06/18 20:57:04","The main experiment item","yes","NA","Sternbergtask.osexp","C:\Users\Knitwitty\Desktop","no","mono","no","18","no","white","no","yes","768","legacy","26","11","C:/Users/Knitwitty/Documents/KBsubject3.csv","legacy","1 5 3 2 8","Jazzy James","3.1.9","0","n","0","left","right","right","left","NA","753","38991","7412","753","NA","2","legacy","5","1024","2","48000","-16","experiment","3","odd","4","290735","287337","288520","2907","130473","288524","214344","2913","123060","292742","293498","289529","41905","292741","NA","Sternberg task","35","26834","39","yes","1024"
"87.5","87.5","683.45","683.45","black","no","experiment","legacy","legacy","legacy","0","uniform","0","undefined","0","right","39","39","39","0","0","39","39","0","0","39","39","39","0","39","0","10/06/18 20:57:04","The main experiment item","yes","NA","Sternbergtask.osexp","C:\Users\Knitwitty\Desktop","no","mono","no","18","no","white","no","yes","768","legacy","27","11","C:/Users/Knitwitty/Documents/KBsubject3.csv","legacy","2 8 9","Jazzy James","3.1.9","0","n","0","left","right","right","left","NA","504","38991","7412","504","NA","2","legacy","3","1024","2","48000","-16","experiment","3","odd","6","296905","287337","294690","2907","130473","294694","293514","2913","123060","298911","299418","295699","41905","298910","NA","Sternberg task","35","27338","40","yes","1024"
"87.8048780488","87.8048780488","681.804878049","681.804878049","black","no","experiment","legacy","legacy","legacy","0","uniform","1","undefined","1","right","40","40","40","0","0","40","40","0","0","40","40","40","0","40","0","10/06/18 20:57:04","The main experiment item","yes","NA","Sternbergtask.osexp","C:\Users\Knitwitty\Desktop","no","mono","no","18","no","white","no","yes","768","legacy","28","11","C:/Users/Knitwitty/Documents/KBsubject3.csv","legacy","1 3 2 6 9","Jazzy James","3.1.9","0","n","0","right","right","right","right","NA","616","38991","7412","616","NA","2","legacy","5","1024","2","48000","-16","experiment","3","odd","5","302856","287337","300641","2907","130473","300645","299434","2913","123060","304863","305482","301651","41905","304862","NA","Sternberg task","36","27954","41","yes","1024"
"85.7142857143","85.7142857143","681.904761905","681.904761905","black","no","experiment","legacy","legacy","legacy","0","uniform","0","undefined","0","right","41","41","41","0","0","41","41","0","0","41","41","41","0","41","0","10/06/18 20:57:04","The main experiment item","yes","NA","Sternbergtask.osexp","C:\Users\Knitwitty\Desktop","no","mono","no","18","no","white","no","yes","768","legacy","29","11","C:/Users/Knitwitty/Documents/KBsubject3.csv","legacy","9 8 2 7 4","Jazzy James","3.1.9","0","n","0","left","right","right","left","NA","686","38991","7412","686","NA","2","legacy","5","1024","2","48000","-16","experiment","3","odd","5","308899","305497","306683","2907","130473","306688","299434","2913","123060","310905","311594","307693","41905","310904","NA","Sternberg task","36","28640","42","yes","1024"
"86.0465116279","86.0465116279","679.604651163","679.604651163","black","no","experiment","legacy","legacy","legacy","0","uniform","1","undefined","1","right","42","42","42","0","0","42","42","0","0","42","42","42","0","42","0","10/06/18 20:57:04","The main experiment item","yes","NA","Sternbergtask.osexp","C:\Users\Knitwitty\Desktop","no","mono","no","18","no","white","no","yes","768","legacy","30","11","C:/Users/Knitwitty/Documents/KBsubject3.csv","legacy","2 7 5","Jazzy James","3.1.9","0","n","0","right","right","right","right","NA","583","38991","7412","583","NA","2","legacy","3","1024","2","48000","-16","experiment","3","odd","8","315001","305497","312787","2907","130473","312791","311610","2913","123060","317008","317594","313797","41905","317007","NA","Sternberg task","37","29223","43","yes","1024"
"86.3636363636","86.3636363636","679.272727273","679.272727273","black","no","experiment","legacy","legacy","legacy","0","uniform","1","undefined","1","left","43","43","43","0","0","43","43","0","0","43","43","43","0","43","0","10/06/18 20:57:04","The main experiment item","yes","NA","Sternbergtask.osexp","C:\Users\Knitwitty\Desktop","no","mono","no","18","no","white","no","yes","768","legacy","31","11","C:/Users/Knitwitty/Documents/KBsubject3.csv","legacy","3 5 7 1","Jazzy James","3.1.9","3","y","0","left","right","right","left","NA","665","38991","7412","665","NA","2","legacy","4","1024","2","48000","-16","experiment","3","odd","7","321000","317609","318783","2907","130473","318787","311610","2913","123060","323006","323674","319794","41905","323006","NA","Sternberg task","38","29888","44","yes","1024"
"86.6666666667","86.6666666667","685.533333333","685.533333333","black","no","experiment","legacy","legacy","legacy","0","uniform","1","undefined","1","right","44","44","44","0","0","44","44","0","0","44","44","44","0","44","0","10/06/18 20:57:04","The main experiment item","yes","NA","Sternbergtask.osexp","C:\Users\Knitwitty\Desktop","no","mono","no","18","no","white","no","yes","768","legacy","32","11","C:/Users/Knitwitty/Documents/KBsubject3.csv","legacy","1 7 5 2 9","Jazzy James","3.1.9","0","n","0","right","right","right","right","NA","961","38991","7412","961","NA","2","legacy","5","1024","2","48000","-16","experiment","3","odd","3","327072","323689","324857","2907","130473","324861","311610","2913","123060","329078","330042","325866","41905","329078","NA","Sternberg task","39","30849","45","yes","1024"
"86.9565217391","86.9565217391","686.826086957","686.826086957","black","no","experiment","legacy","legacy","legacy","0","uniform","1","undefined","1","left","45","45","45","0","0","45","45","0","0","45","45","45","0","45","0","10/06/18 20:57:04","The main experiment item","yes","NA","Sternbergtask.osexp","C:\Users\Knitwitty\Desktop","no","mono","no","18","no","white","no","yes","768","legacy","33","11","C:/Users/Knitwitty/Documents/KBsubject3.csv","legacy","6 9 7 4 5 1","Jazzy James","3.1.9","2","y","0","left","right","right","left","NA","745","38991","7412","745","NA","2","legacy","6","1024","2","48000","-16","experiment","3","odd","9","333447","330057","331232","2907","130473","331236","311610","2913","123060","335454","336203","332241","41905","335453","NA","Sternberg task","40","31594","46","yes","1024"
"87.2340425532","87.2340425532","682.553191489","682.553191489","black","no","experiment","legacy","legacy","legacy","0","uniform","1","undefined","1","left","46","46","46","0","0","46","46","0","0","46","46","46","0","46","0","10/06/18 20:57:04","The main experiment item","yes","NA","Sternbergtask.osexp","C:\Users\Knitwitty\Desktop","no","mono","no","18","no","white","no","yes","768","legacy","34","11","C:/Users/Knitwitty/Documents/KBsubject3.csv","legacy","3 5 4 7","Jazzy James","3.1.9","1","y","0","left","right","right","left","NA","486","38991","7412","486","NA","2","legacy","4","1024","2","48000","-16","experiment","3","odd","3","339611","336218","337395","2907","130473","337399","311610","2913","123060","341617","342105","338405","41905","341616","NA","Sternberg task","41","32080","47","yes","1024"
"87.5","87.5","681.875","681.875","black","no","experiment","legacy","legacy","legacy","0","uniform","1","undefined","1","left","47","47","47","0","0","47","47","0","0","47","47","47","0","47","0","10/06/18 20:57:04","The main experiment item","yes","NA","Sternbergtask.osexp","C:\Users\Knitwitty\Desktop","no","mono","no","18","no","white","no","yes","768","legacy","35","11","C:/Users/Knitwitty/Documents/KBsubject3.csv","legacy","6 8 9 3 4 9","Jazzy James","3.1.9","5","y","0","left","right","right","left","NA","650","38991","7412","650","NA","2","legacy","6","1024","2","48000","-16","experiment","3","odd","4","345519","342120","343302","2907","130473","343307","311610","2913","123060","347526","348179","344313","41905","347525","NA","Sternberg task","42","32730","48","yes","1024"
"87.7551020408","87.7551020408","678.489795918","678.489795918","black","no","experiment","legacy","legacy","legacy","0","uniform","1","undefined","1","left","48","48","48","0","0","48","48","0","0","48","48","48","0","48","0","10/06/18 20:57:04","The main experiment item","yes","NA","Sternbergtask.osexp","C:\Users\Knitwitty\Desktop","no","mono","no","18","no","white","no","yes","768","legacy","36","11","C:/Users/Knitwitty/Documents/KBsubject3.csv","legacy","6 5","Jazzy James","3.1.9","2","y","0","left","right","right","left","NA","516","38991","7412","516","NA","2","legacy","2","1024","2","48000","-16","experiment","3","odd","5","351590","348194","349374","2907","130473","349379","311610","2913","123060","353595","354114","350384","41905","353595","NA","Sternberg task","43","33246","49","yes","1024"
"88","88","674.48","674.48","black","no","experiment","legacy","legacy","legacy","0","uniform","1","undefined","1","left","49","49","49","0","0","49","49","0","0","49","49","49","0","49","0","10/06/18 20:57:04","The main experiment item","yes","NA","Sternbergtask.osexp","C:\Users\Knitwitty\Desktop","no","mono","no","18","no","white","no","yes","768","legacy","37","11","C:/Users/Knitwitty/Documents/KBsubject3.csv","legacy","4","Jazzy James","3.1.9","1","y","0","left","right","right","left","NA","478","38991","7412","478","NA","2","legacy","1","1024","2","48000","-16","experiment","3","odd","4","357514","354126","355298","2907","130473","355303","311610","2913","123060","359521","360002","356309","41905","359520","NA","Sternberg task","44","33724","50","yes","1024"
"88.2352941176","88.2352941176","671.078431373","671.078431373","black","no","experiment","legacy","legacy","legacy","0","uniform","1","undefined","1","left","50","50","50","0","0","50","50","0","0","50","50","50","0","50","0","10/06/18 20:57:04","The main experiment item","yes","NA","Sternbergtask.osexp","C:\Users\Knitwitty\Desktop","no","mono","no","18","no","white","no","yes","768","legacy","38","11","C:/Users/Knitwitty/Documents/KBsubject3.csv","legacy","2 6 1 7 4","Jazzy James","3.1.9","2","y","0","left","right","right","left","NA","501","38991","7412","501","NA","2","legacy","5","1024","2","48000","-16","experiment","3","odd","6","363412","360015","361197","2907","130473","361201","311610","2913","123060","365418","365923","362206","41905","365418","NA","Sternberg task","45","34225","51","yes","1024"
"88.4615384615","88.4615384615","672.076923077","672.076923077","black","no","experiment","legacy","legacy","legacy","0","uniform","1","undefined","1","right","51","51","51","0","0","51","51","0","0","51","51","51","0","51","0","10/06/18 20:57:04","The main experiment item","yes","NA","Sternbergtask.osexp","C:\Users\Knitwitty\Desktop","no","mono","no","18","no","white","no","yes","768","legacy","39","11","C:/Users/Knitwitty/Documents/KBsubject3.csv","legacy","6 8","Jazzy James","3.1.9","0","n","0","right","right","right","right","NA","723","38991","7412","723","NA","2","legacy","2","1024","2","48000","-16","experiment","3","odd","9","369445","366041","367229","2907","130473","367233","311610","2913","123060","371452","372179","368240","41905","371451","NA","Sternberg task","46","34948","52","yes","1024"
"88.679245283","88.679245283","675.754716981","675.754716981","black","no","experiment","legacy","legacy","legacy","0","uniform","1","undefined","1","left","52","52","52","0","0","52","52","0","0","52","52","52","0","52","0","10/06/18 20:57:04","The main experiment item","yes","NA","Sternbergtask.osexp","C:\Users\Knitwitty\Desktop","no","mono","no","18","no","white","no","yes","768","legacy","40","11","C:/Users/Knitwitty/Documents/KBsubject3.csv","legacy","4 3 2 5 8","Jazzy James","3.1.9","2","y","0","left","right","right","left","NA","867","38991","7412","867","NA","2","legacy","5","1024","2","48000","-16","experiment","3","odd","3","375590","372192","373374","2907","130473","373379","311610","2913","123060","377596","378467","374384","41905","377596","NA","Sternberg task","47","35815","53","yes","1024"
"88.8888888889","88.8888888889","683.259259259","683.259259259","black","no","experiment","legacy","legacy","legacy","0","uniform","1","undefined","1","right","53","53","53","0","0","53","53","0","0","53","53","53","0","53","0","10/06/18 20:57:04","The main experiment item","yes","NA","Sternbergtask.osexp","C:\Users\Knitwitty\Desktop","no","mono","no","18","no","white","no","yes","768","legacy","41","11","C:/Users/Knitwitty/Documents/KBsubject3.csv","legacy","5 3 2 6 9 8","Jazzy James","3.1.9","0","n","0","right","right","right","right","NA","1081","38991","7412","1081","NA","2","legacy","6","1024","2","48000","-16","experiment","3","odd","4","381880","378480","379665","2907","130473","379669","311610","2913","123060","383886","384970","380675","41905","383886","NA","Sternberg task","48","36896","54","yes","1024"
"89.0909090909","89.0909090909","678.036363636","678.036363636","black","no","experiment","legacy","legacy","legacy","0","uniform","1","undefined","1","left","54","54","54","0","0","54","54","0","0","54","54","54","0","54","0","10/06/18 20:57:04","The main experiment item","yes","NA","Sternbergtask.osexp","C:\Users\Knitwitty\Desktop","no","mono","no","18","no","white","no","yes","768","legacy","42","11","C:/Users/Knitwitty/Documents/KBsubject3.csv","legacy","2 3","Jazzy James","3.1.9","1","y","0","left","right","right","left","NA","396","38991","7412","396","NA","2","legacy","2","1024","2","48000","-16","experiment","3","odd","2","388374","384983","386159","2907","130473","386163","311610","2913","123060","390379","390779","387168","41905","390379","NA","Sternberg task","49","37292","55","yes","1024"
"87.5","87.5","681.071428571","681.071428571","black","no","experiment","legacy","legacy","legacy","0","uniform","0","undefined","0","right","55","55","55","0","0","55","55","0","0","55","55","55","0","55","0","10/06/18 20:57:04","The main experiment item","yes","NA","Sternbergtask.osexp","C:\Users\Knitwitty\Desktop","no","mono","no","18","no","white","no","yes","768","legacy","43","11","C:/Users/Knitwitty/Documents/KBsubject3.csv","legacy","2 6 4 3 9","Jazzy James","3.1.9","0","n","0","left","right","right","left","NA","848","38991","7412","848","NA","2","legacy","5","1024","2","48000","-16","experiment","3","odd","1","394184","390792","391968","2907","130473","391973","311610","2913","123060","396191","397043","392978","41905","396190","NA","Sternberg task","49","38140","56","yes","1024"
"85.9649122807","85.9649122807","681.614035088","681.614035088","black","no","experiment","legacy","legacy","legacy","0","uniform","0","undefined","0","left","56","56","56","0","0","56","56","0","0","56","56","56","0","56","0","10/06/18 20:57:04","The main experiment item","yes","NA","Sternbergtask.osexp","C:\Users\Knitwitty\Desktop","no","mono","no","18","no","white","no","yes","768","legacy","44","11","C:/Users/Knitwitty/Documents/KBsubject3.csv","legacy","4 1 8 7 5","Jazzy James","3.1.9","3","y","0","right","right","right","right","NA","712","38991","7412","712","NA","2","legacy","5","1024","2","48000","-16","experiment","3","odd","8","400457","390792","398242","2907","130473","398246","397056","2913","123060","402463","403179","399251","41905","402462","NA","Sternberg task","49","38852","57","yes","1024"
"86.2068965517","86.2068965517","681.051724138","681.051724138","black","no","experiment","legacy","legacy","legacy","0","uniform","1","undefined","1","left","57","57","57","0","0","57","57","0","0","57","57","57","0","57","0","10/06/18 20:57:04","The main experiment item","yes","NA","Sternbergtask.osexp","C:\Users\Knitwitty\Desktop","no","mono","no","18","no","white","no","yes","768","legacy","45","11","C:/Users/Knitwitty/Documents/KBsubject3.csv","legacy","7 1 8 5 6 2","Jazzy James","3.1.9","2","y","0","left","right","right","left","NA","649","38991","7412","649","NA","2","legacy","6","1024","2","48000","-16","experiment","3","odd","1","406594","390792","404379","2907","130473","404384","403192","2913","123060","408598","409251","405389","41905","408597","NA","Sternberg task","50","39501","58","yes","1024"
"84.7457627119","84.7457627119","682.949152542","682.949152542","black","no","experiment","legacy","legacy","legacy","0","uniform","0","undefined","0","left","58","58","58","0","0","58","58","0","0","58","58","58","0","58","0","10/06/18 20:57:04","The main experiment item","yes","NA","Sternbergtask.osexp","C:\Users\Knitwitty\Desktop","no","mono","no","18","no","white","no","yes","768","legacy","46","11","C:/Users/Knitwitty/Documents/KBsubject3.csv","legacy","9 4 2","Jazzy James","3.1.9","1","y","0","right","right","right","right","NA","793","38991","7412","793","NA","2","legacy","3","1024","2","48000","-16","experiment","3","odd","9","412658","409275","410448","2907","130473","410452","403192","2913","123060","414662","415459","411455","41905","414662","NA","Sternberg task","50","40294","59","yes","1024"
"85","85","688.1","688.1","black","no","experiment","legacy","legacy","legacy","0","uniform","1","undefined","1","left","59","59","59","0","0","59","59","0","0","59","59","59","0","59","0","10/06/18 20:57:04","The main experiment item","yes","NA","Sternbergtask.osexp","C:\Users\Knitwitty\Desktop","no","mono","no","18","no","white","no","yes","768","legacy","47","11","C:/Users/Knitwitty/Documents/KBsubject3.csv","legacy","8 9 6 1","Jazzy James","3.1.9","2","y","0","left","right","right","left","NA","992","38991","7412","992","NA","2","legacy","4","1024","2","48000","-16","experiment","3","odd","9","418881","409275","416666","2907","130473","416670","415481","2913","123060","420887","421882","417675","41905","420887","NA","Sternberg task","51","41286","60","yes","1024"
"85.2459016393","85.2459016393","684.524590164","684.524590164","black","no","experiment","legacy","legacy","legacy","0","uniform","1","undefined","1","left","60","60","60","0","0","60","60","0","0","60","60","60","0","60","0","10/06/18 20:57:04","The main experiment item","yes","NA","Sternbergtask.osexp","C:\Users\Knitwitty\Desktop","no","mono","no","18","no","white","no","yes","768","legacy","48","11","C:/Users/Knitwitty/Documents/KBsubject3.csv","legacy","6 7 8 5","Jazzy James","3.1.9","3","y","0","left","right","right","left","NA","470","38991","7412","470","NA","2","legacy","4","1024","2","48000","-16","experiment","3","odd","8","425300","421897","423084","2907","130473","423088","415481","2913","123060","427306","427779","424094","41905","427306","NA","Sternberg task","52","41756","61","yes","1024"
"85.4838709677","85.4838709677","682.403225806","682.403225806","black","no","experiment","legacy","legacy","legacy","0","uniform","1","undefined","1","left","61","61","61","0","0","61","61","0","0","61","61","61","0","61","0","10/06/18 20:57:04","The main experiment item","yes","NA","Sternbergtask.osexp","C:\Users\Knitwitty\Desktop","no","mono","no","18","no","white","no","yes","768","legacy","49","11","C:/Users/Knitwitty/Documents/KBsubject3.csv","legacy","9 8 4","Jazzy James","3.1.9","1","y","0","left","right","right","left","NA","553","38991","7412","553","NA","2","legacy","3","1024","2","48000","-16","experiment","3","odd","9","431185","427794","428970","2907","130473","428974","415481","2913","123060","433190","433747","429979","41905","433190","NA","Sternberg task","53","42309","62","yes","1024"
"85.7142857143","85.7142857143","680.746031746","680.746031746","black","no","experiment","legacy","legacy","legacy","0","uniform","1","undefined","1","left","62","62","62","0","0","62","62","0","0","62","62","62","0","62","0","10/06/18 20:57:04","The main experiment item","yes","NA","Sternbergtask.osexp","C:\Users\Knitwitty\Desktop","no","mono","no","18","no","white","no","yes","768","legacy","50","11","C:/Users/Knitwitty/Documents/KBsubject3.csv","legacy","3 9 6 2","Jazzy James","3.1.9","4","y","0","left","right","right","left","NA","578","38991","7412","578","NA","2","legacy","4","1024","2","48000","-16","experiment","3","odd","2","437144","433761","434928","2907","130473","434932","415481","2913","123060","439149","439731","435937","41905","439149","NA","Sternberg task","54","42887","63","yes","1024"
"85.9375","85.9375","683.578125","683.578125","black","no","experiment","legacy","legacy","legacy","0","uniform","1","undefined","1","right","63","63","63","0","0","63","63","0","0","63","63","63","0","63","0","10/06/18 20:57:04","The main experiment item","yes","NA","Sternbergtask.osexp","C:\Users\Knitwitty\Desktop","no","mono","no","18","no","white","no","yes","768","legacy","51","11","C:/Users/Knitwitty/Documents/KBsubject3.csv","legacy","6 9 5","Jazzy James","3.1.9","0","n","0","right","right","right","right","NA","862","38991","7412","862","NA","2","legacy","3","1024","2","48000","-16","experiment","3","odd","8","443146","439757","440931","2907","130473","440935","415481","2913","123060","445153","446019","441940","41905","445152","NA","Sternberg task","55","43749","64","yes","1024"
"86.1538461538","86.1538461538","686.030769231","686.030769231","black","no","experiment","legacy","legacy","legacy","0","uniform","1","undefined","1","right","64","64","64","0","0","64","64","0","0","64","64","64","0","64","0","10/06/18 20:57:04","The main experiment item","yes","NA","Sternbergtask.osexp","C:\Users\Knitwitty\Desktop","no","mono","no","18","no","white","no","yes","768","legacy","52","11","C:/Users/Knitwitty/Documents/KBsubject3.csv","legacy","6 8 4","Jazzy James","3.1.9","0","n","0","right","right","right","right","NA","843","38991","7412","843","NA","2","legacy","3","1024","2","48000","-16","experiment","3","odd","1","449430","446035","447213","2907","130473","447218","415481","2913","123060","451436","452283","448225","41905","451436","NA","Sternberg task","56","44592","65","yes","1024"
"86.3636363636","86.3636363636","685.681818182","685.681818182","black","no","experiment","legacy","legacy","legacy","0","uniform","1","undefined","1","left","65","65","65","0","0","65","65","0","0","65","65","65","0","65","0","10/06/18 20:57:04","The main experiment item","yes","NA","Sternbergtask.osexp","C:\Users\Knitwitty\Desktop","no","mono","no","18","no","white","no","yes","768","legacy","53","11","C:/Users/Knitwitty/Documents/KBsubject3.csv","legacy","8 5 3 7 4 6","Jazzy James","3.1.9","6","y","0","left","right","right","left","NA","663","38991","7412","663","NA","2","legacy","6","1024","2","48000","-16","experiment","3","odd","6","455698","452299","453483","2907","130473","453487","415481","2913","123060","457705","458372","454492","41905","457704","NA","Sternberg task","57","45255","66","yes","1024"
"86.5671641791","86.5671641791","684.432835821","684.432835821","black","no","experiment","legacy","legacy","legacy","0","uniform","1","undefined","1","right","66","66","66","0","0","66","66","0","0","66","66","66","0","66","0","10/06/18 20:57:04","The main experiment item","yes","NA","Sternbergtask.osexp","C:\Users\Knitwitty\Desktop","no","mono","no","18","no","white","no","yes","768","legacy","54","11","C:/Users/Knitwitty/Documents/KBsubject3.csv","legacy","7 6 4 8 1 2","Jazzy James","3.1.9","0","n","0","right","right","right","right","NA","602","38991","7412","602","NA","2","legacy","6","1024","2","48000","-16","experiment","3","odd","9","461790","458388","459575","2907","130473","459579","415481","2913","123060","463797","464403","460584","41905","463796","NA","Sternberg task","58","45857","67","yes","1024"
"86.7647058824","86.7647058824","683.941176471","683.941176471","black","no","experiment","legacy","legacy","legacy","0","uniform","1","undefined","1","right","67","67","67","0","0","67","67","0","0","67","67","67","0","67","0","10/06/18 20:57:04","The main experiment item","yes","NA","Sternbergtask.osexp","C:\Users\Knitwitty\Desktop","no","mono","no","18","no","white","no","yes","768","legacy","55","11","C:/Users/Knitwitty/Documents/KBsubject3.csv","legacy","1","Jazzy James","3.1.9","0","n","0","right","right","right","right","NA","651","38991","7412","651","NA","2","legacy","1","1024","2","48000","-16","experiment","3","odd","7","467814","464419","465599","2907","130473","465604","415481","2913","123060","469820","470480","466609","41905","469820","NA","Sternberg task","59","46508","68","yes","1024"
"85.5072463768","85.5072463768","684.101449275","684.101449275","black","no","experiment","legacy","legacy","legacy","0","uniform","0","undefined","0","right","68","68","68","0","0","68","68","0","0","68","68","68","0","68","0","10/06/18 20:57:04","The main experiment item","yes","NA","Sternbergtask.osexp","C:\Users\Knitwitty\Desktop","no","mono","no","18","no","white","no","yes","768","legacy","56","11","C:/Users/Knitwitty/Documents/KBsubject3.csv","legacy","8 5 4 2 9 6","Jazzy James","3.1.9","0","n","0","left","right","right","left","NA","695","38991","7412","695","NA","2","legacy","6","1024","2","48000","-16","experiment","3","odd","3","473893","470505","471681","2907","130473","471686","415481","2913","123060","475896","476595","472690","41905","475896","NA","Sternberg task","59","47203","69","yes","1024"
"84.2857142857","84.2857142857","682.314285714","682.314285714","black","no","experiment","legacy","legacy","legacy","0","uniform","0","undefined","0","left","69","69","69","0","0","69","69","0","0","69","69","69","0","69","0","10/06/18 20:57:04","The main experiment item","yes","NA","Sternbergtask.osexp","C:\Users\Knitwitty\Desktop","no","mono","no","18","no","white","no","yes","768","legacy","57","11","C:/Users/Knitwitty/Documents/KBsubject3.csv","legacy","8 3","Jazzy James","3.1.9","2","y","0","right","right","right","right","NA","559","38991","7412","559","NA","2","legacy","2","1024","2","48000","-16","experiment","3","odd","3","480065","470505","477853","2907","130473","477857","476684","2913","123060","482072","482636","478861","41905","482071","NA","Sternberg task","59","47762","70","yes","1024"
"84.5070422535","84.5070422535","682.450704225","682.450704225","black","no","experiment","legacy","legacy","legacy","0","uniform","1","undefined","1","right","70","70","70","0","0","70","70","0","0","70","70","70","0","70","0","10/06/18 20:57:04","The main experiment item","yes","NA","Sternbergtask.osexp","C:\Users\Knitwitty\Desktop","no","mono","no","18","no","white","no","yes","768","legacy","58","11","C:/Users/Knitwitty/Documents/KBsubject3.csv","legacy","8 5 7 3 6","Jazzy James","3.1.9","0","n","0","right","right","right","right","NA","692","38991","7412","692","NA","2","legacy","5","1024","2","48000","-16","experiment","3","odd","9","486054","470505","483840","2907","130473","483845","482655","2913","123060","488059","488755","484850","41905","488058","NA","Sternberg task","60","48454","71","yes","1024"
"84.7222222222","84.7222222222","684.125","684.125","black","no","experiment","legacy","legacy","legacy","0","uniform","1","undefined","1","right","71","71","71","0","0","71","71","0","0","71","71","71","0","71","0","10/06/18 20:57:04","The main experiment item","yes","NA","Sternbergtask.osexp","C:\Users\Knitwitty\Desktop","no","mono","no","18","no","white","no","yes","768","legacy","59","11","C:/Users/Knitwitty/Documents/KBsubject3.csv","legacy","6 9 4 5 2","Jazzy James","3.1.9","0","n","0","right","right","right","right","NA","803","38991","7412","803","NA","2","legacy","5","1024","2","48000","-16","experiment","3","odd","1","492198","488770","489984","2907","130473","489989","482655","2913","123060","494204","495011","490993","41905","494203","NA","Sternberg task","61","49257","72","yes","1024"
"84.9315068493","84.9315068493","684.150684932","684.150684932","black","no","experiment","legacy","legacy","legacy","0","uniform","1","undefined","1","right","72","72","72","0","0","72","72","0","0","72","72","72","0","72","0","10/06/18 20:57:04","The main experiment item","yes","NA","Sternbergtask.osexp","C:\Users\Knitwitty\Desktop","no","mono","no","18","no","white","no","yes","768","legacy","60","11","C:/Users/Knitwitty/Documents/KBsubject3.csv","legacy","1 4 3 6 5","Jazzy James","3.1.9","0","n","0","right","right","right","right","NA","686","38991","7412","686","NA","2","legacy","5","1024","2","48000","-16","experiment","3","odd","8","498421","495027","496206","2907","130473","496210","482655","2913","123060","500425","501115","497215","41905","500425","NA","Sternberg task","62","49943","73","yes","1024"
"85.1351351351","85.1351351351","688.22972973","688.22972973","black","no","experiment","legacy","legacy","legacy","0","uniform","1","undefined","1","right","73","73","73","0","0","73","73","0","0","73","73","73","0","73","0","10/06/18 20:57:04","The main experiment item","yes","NA","Sternbergtask.osexp","C:\Users\Knitwitty\Desktop","no","mono","no","18","no","white","no","yes","768","legacy","61","11","C:/Users/Knitwitty/Documents/KBsubject3.csv","legacy","5 7 3","Jazzy James","3.1.9","0","n","0","right","right","right","right","NA","986","38991","7412","986","NA","2","legacy","3","1024","2","48000","-16","experiment","3","odd","9","504511","501131","502298","2907","130473","502304","482655","2913","123060","506517","507507","503307","41905","506516","NA","Sternberg task","63","50929","74","yes","1024"
"85.3333333333","85.3333333333","690.92","690.92","black","no","experiment","legacy","legacy","legacy","0","uniform","1","undefined","1","right","74","74","74","0","0","74","74","0","0","74","74","74","0","74","0","10/06/18 20:57:04","The main experiment item","yes","NA","Sternbergtask.osexp","C:\Users\Knitwitty\Desktop","no","mono","no","18","no","white","no","yes","768","legacy","62","11","C:/Users/Knitwitty/Documents/KBsubject3.csv","legacy","3 4 2","Jazzy James","3.1.9","0","n","0","right","right","right","right","NA","890","38991","7412","890","NA","2","legacy","3","1024","2","48000","-16","experiment","3","odd","5","510887","507523","508676","2907","130473","508681","482655","2913","123060","512893","513787","509684","41905","512892","NA","Sternberg task","64","51819","75","yes","1024"
"85.5263157895","85.5263157895","692.75","692.75","black","no","experiment","legacy","legacy","legacy","0","uniform","1","undefined","1","right","75","75","75","0","0","75","75","0","0","75","75","75","0","75","0","10/06/18 20:57:04","The main experiment item","yes","NA","Sternbergtask.osexp","C:\Users\Knitwitty\Desktop","no","mono","no","18","no","white","no","yes","768","legacy","63","11","C:/Users/Knitwitty/Documents/KBsubject3.csv","legacy","1 6 4 3 9 7","Jazzy James","3.1.9","0","n","0","right","right","right","right","NA","830","38991","7412","830","NA","2","legacy","6","1024","2","48000","-16","experiment","3","odd","8","517195","513802","514979","2907","130473","514983","482655","2913","123060","519201","520035","515988","41905","519200","NA","Sternberg task","65","52649","76","yes","1024"
"85.7142857143","85.7142857143","692.480519481","692.480519481","black","no","experiment","legacy","legacy","legacy","0","uniform","1","undefined","1","left","76","76","76","0","0","76","76","0","0","76","76","76","0","76","0","10/06/18 20:57:04","The main experiment item","yes","NA","Sternbergtask.osexp","C:\Users\Knitwitty\Desktop","no","mono","no","18","no","white","no","yes","768","legacy","64","11","C:/Users/Knitwitty/Documents/KBsubject3.csv","legacy","7 4 2 6 3 5","Jazzy James","3.1.9","6","y","0","left","right","right","left","NA","672","38991","7412","672","NA","2","legacy","6","1024","2","48000","-16","experiment","3","odd","5","523440","520051","521224","2907","130473","521229","482655","2913","123060","525447","526123","522234","41905","525446","NA","Sternberg task","66","53321","77","yes","1024"
"84.6153846154","84.6153846154","692.884615385","692.884615385","black","no","experiment","legacy","legacy","legacy","0","uniform","0","undefined","0","right","77","77","77","0","0","77","77","0","0","77","77","77","0","77","0","10/06/18 20:57:04","The main experiment item","yes","NA","Sternbergtask.osexp","C:\Users\Knitwitty\Desktop","no","mono","no","18","no","white","no","yes","768","legacy","65","11","C:/Users/Knitwitty/Documents/KBsubject3.csv","legacy","8 2 1 4 5 9","Jazzy James","3.1.9","0","n","0","left","right","right","left","NA","724","38991","7412","724","NA","2","legacy","6","1024","2","48000","-16","experiment","3","odd","7","529556","526138","527341","2907","130473","527345","482655","2913","123060","531563","532292","528350","41905","531562","NA","Sternberg task","66","54045","78","yes","1024"
"83.5443037975","83.5443037975","698.341772152","698.341772152","black","no","experiment","legacy","legacy","legacy","0","uniform","0","undefined","0","left","78","78","78","0","0","78","78","0","0","78","78","78","0","78","0","10/06/18 20:57:04","The main experiment item","yes","NA","Sternbergtask.osexp","C:\Users\Knitwitty\Desktop","no","mono","no","18","no","white","no","yes","768","legacy","66","11","C:/Users/Knitwitty/Documents/KBsubject3.csv","legacy","9 1 6 7 8","Jazzy James","3.1.9","1","y","0","right","right","right","right","NA","1124","38991","7412","1124","NA","2","legacy","5","1024","2","48000","-16","experiment","3","odd","9","535699","526138","533484","2907","130473","533488","532307","2913","123060","537706","538835","534493","41905","537705","NA","Sternberg task","66","55169","79","yes","1024"
"82.5","82.5","699.7875","699.7875","black","no","experiment","legacy","legacy","legacy","0","uniform","0","undefined","0","right","79","79","79","0","0","79","79","0","0","79","79","79","0","79","0","10/06/18 20:57:04","The main experiment item","yes","NA","Sternbergtask.osexp","C:\Users\Knitwitty\Desktop","no","mono","no","18","no","white","no","yes","768","legacy","67","11","C:/Users/Knitwitty/Documents/KBsubject3.csv","legacy","4 1","Jazzy James","3.1.9","0","n","0","left","right","right","left","NA","814","38991","7412","814","NA","2","legacy","2","1024","2","48000","-16","experiment","3","odd","6","542251","526138","540035","2907","130473","540039","538851","2913","123060","544257","545075","541044","41905","544256","NA","Sternberg task","66","55983","80","yes","1024"
"82.7160493827","82.7160493827","699.12345679","699.12345679","black","no","experiment","legacy","legacy","legacy","0","uniform","1","undefined","1","left","80","80","80","0","0","80","80","0","0","80","80","80","0","80","0","10/06/18 20:57:04","The main experiment item","yes","NA","Sternbergtask.osexp","C:\Users\Knitwitty\Desktop","no","mono","no","18","no","white","no","yes","768","legacy","68","11","C:/Users/Knitwitty/Documents/KBsubject3.csv","legacy","2 3 7 4","Jazzy James","3.1.9","1","y","0","left","right","right","left","NA","646","38991","7412","646","NA","2","legacy","4","1024","2","48000","-16","experiment","3","odd","2","548483","526138","546268","2907","130473","546272","545090","2913","123060","550489","551139","547277","41905","550488","NA","Sternberg task","67","56629","81","yes","1024"
"82.9268292683","82.9268292683","699.487804878","699.487804878","black","no","experiment","legacy","legacy","legacy","0","uniform","1","undefined","1","left","81","81","81","0","0","81","81","0","0","81","81","81","0","81","0","10/06/18 20:57:04","The main experiment item","yes","NA","Sternbergtask.osexp","C:\Users\Knitwitty\Desktop","no","mono","no","18","no","white","no","yes","768","legacy","69","11","C:/Users/Knitwitty/Documents/KBsubject3.csv","legacy","8 5 4 7 3 1","Jazzy James","3.1.9","2","y","0","left","right","right","left","NA","729","38991","7412","729","NA","2","legacy","6","1024","2","48000","-16","experiment","3","odd","5","554544","551154","552328","2907","130473","552333","545090","2913","123060","556550","557283","553338","41905","556550","NA","Sternberg task","68","57358","82","yes","1024"
"83.1325301205","83.1325301205","698.831325301","698.831325301","black","no","experiment","legacy","legacy","legacy","0","uniform","1","undefined","1","left","82","82","82","0","0","82","82","0","0","82","82","82","0","82","0","10/06/18 20:57:04","The main experiment item","yes","NA","Sternbergtask.osexp","C:\Users\Knitwitty\Desktop","no","mono","no","18","no","white","no","yes","768","legacy","70","11","C:/Users/Knitwitty/Documents/KBsubject3.csv","legacy","9 1 7 2","Jazzy James","3.1.9","2","y","0","left","right","right","left","NA","645","38991","7412","645","NA","2","legacy","4","1024","2","48000","-16","experiment","3","odd","1","560692","557299","558477","2907","130473","558482","545090","2913","123060","562698","563348","559487","41905","562697","NA","Sternberg task","69","58003","83","yes","1024"
"82.1428571429","82.1428571429","697.357142857","697.357142857","black","no","experiment","legacy","legacy","legacy","0","uniform","0","undefined","0","left","83","83","83","0","0","83","83","0","0","83","83","83","0","83","0","10/06/18 20:57:04","The main experiment item","yes","NA","Sternbergtask.osexp","C:\Users\Knitwitty\Desktop","no","mono","no","18","no","white","no","yes","768","legacy","71","11","C:/Users/Knitwitty/Documents/KBsubject3.csv","legacy","3 2 1 4 7","Jazzy James","3.1.9","2","y","0","right","right","right","right","NA","575","38991","7412","575","NA","2","legacy","5","1024","2","48000","-16","experiment","3","odd","2","566745","563364","564529","2907","130473","564533","545090","2913","123060","568752","569331","565539","41905","568751","NA","Sternberg task","69","58578","84","yes","1024"
"82.3529411765","82.3529411765","700.482352941","700.482352941","black","no","experiment","legacy","legacy","legacy","0","uniform","1","undefined","1","right","84","84","84","0","0","84","84","0","0","84","84","84","0","84","0","10/06/18 20:57:04","The main experiment item","yes","NA","Sternbergtask.osexp","C:\Users\Knitwitty\Desktop","no","mono","no","18","no","white","no","yes","768","legacy","72","11","C:/Users/Knitwitty/Documents/KBsubject3.csv","legacy","6 2 9 3 8 4","Jazzy James","3.1.9","0","n","0","right","right","right","right","NA","963","38991","7412","963","NA","2","legacy","6","1024","2","48000","-16","experiment","3","odd","1","572733","563364","570518","2907","130473","570522","569347","2913","123060","574740","575708","571527","41905","574739","NA","Sternberg task","70","59541","85","yes","1024"
"82.5581395349","82.5581395349","700.151162791","700.151162791","black","no","experiment","legacy","legacy","legacy","0","uniform","1","undefined","1","right","85","85","85","0","0","85","85","0","0","85","85","85","0","85","0","10/06/18 20:57:04","The main experiment item","yes","NA","Sternbergtask.osexp","C:\Users\Knitwitty\Desktop","no","mono","no","18","no","white","no","yes","768","legacy","73","11","C:/Users/Knitwitty/Documents/KBsubject3.csv","legacy","8 4 3 9","Jazzy James","3.1.9","0","n","0","right","right","right","right","NA","672","38991","7412","672","NA","2","legacy","4","1024","2","48000","-16","experiment","3","odd","5","579104","575724","576888","2907","130473","576892","569347","2913","123060","581111","581788","577898","41905","581110","NA","Sternberg task","71","60213","86","yes","1024"
"82.7586206897","82.7586206897","699.540229885","699.540229885","black","no","experiment","legacy","legacy","legacy","0","uniform","1","undefined","1","left","86","86","86","0","0","86","86","0","0","86","86","86","0","86","0","10/06/18 20:57:04","The main experiment item","yes","NA","Sternbergtask.osexp","C:\Users\Knitwitty\Desktop","no","mono","no","18","no","white","no","yes","768","legacy","74","11","C:/Users/Knitwitty/Documents/KBsubject3.csv","legacy","9 5 3 8 4","Jazzy James","3.1.9","1","y","0","left","right","right","left","NA","647","38991","7412","647","NA","2","legacy","5","1024","2","48000","-16","experiment","3","odd","9","585201","581803","582986","2907","130473","582990","569347","2913","123060","587208","587859","583995","41905","587207","NA","Sternberg task","72","60860","87","yes","1024"
"82.9545454545","82.9545454545","698.965909091","698.965909091","black","no","experiment","legacy","legacy","legacy","0","uniform","1","undefined","1","left","87","87","87","0","0","87","87","0","0","87","87","87","0","87","0","10/06/18 20:57:04","The main experiment item","yes","NA","Sternbergtask.osexp","C:\Users\Knitwitty\Desktop","no","mono","no","18","no","white","no","yes","768","legacy","75","11","C:/Users/Knitwitty/Documents/KBsubject3.csv","legacy","7 8 6 3 1","Jazzy James","3.1.9","5","y","0","left","right","right","left","NA","649","38991","7412","649","NA","2","legacy","5","1024","2","48000","-16","experiment","3","odd","1","591265","587874","589050","2907","130473","589054","569347","2913","123060","593270","593924","590059","41905","593270","NA","Sternberg task","73","61509","88","yes","1024"
"83.1460674157","83.1460674157","697.370786517","697.370786517","black","no","experiment","legacy","legacy","legacy","0","uniform","1","undefined","1","left","88","88","88","0","0","88","88","0","0","88","88","88","0","88","0","10/06/18 20:57:04","The main experiment item","yes","NA","Sternbergtask.osexp","C:\Users\Knitwitty\Desktop","no","mono","no","18","no","white","no","yes","768","legacy","76","11","C:/Users/Knitwitty/Documents/KBsubject3.csv","legacy","8 7 3","Jazzy James","3.1.9","1","y","0","left","right","right","left","NA","557","38991","7412","557","NA","2","legacy","3","1024","2","48000","-16","experiment","3","odd","8","597331","593940","595115","2907","130473","595119","569347","2913","123060","599338","599900","596126","41905","599337","NA","Sternberg task","74","62066","89","yes","1024"
"83.3333333333","83.3333333333","694.3","694.3","black","no","experiment","legacy","legacy","legacy","0","uniform","1","undefined","1","left","89","89","89","0","0","89","89","0","0","89","89","89","0","89","0","10/06/18 20:57:04","The main experiment item","yes","NA","Sternbergtask.osexp","C:\Users\Knitwitty\Desktop","no","mono","no","18","no","white","no","yes","768","legacy","77","11","C:/Users/Knitwitty/Documents/KBsubject3.csv","legacy","6 2","Jazzy James","3.1.9","1","y","0","left","right","right","left","NA","421","38991","7412","421","NA","2","legacy","2","1024","2","48000","-16","experiment","3","odd","6","603300","599915","601085","2907","130473","601089","569347","2913","123060","605306","605732","602094","41905","605305","NA","Sternberg task","75","62487","90","yes","1024"
"83.5164835165","83.5164835165","693.945054945","693.945054945","black","no","experiment","legacy","legacy","legacy","0","uniform","1","undefined","1","right","90","90","90","0","0","90","90","0","0","90","90","90","0","90","0","10/06/18 20:57:04","The main experiment item","yes","NA","Sternbergtask.osexp","C:\Users\Knitwitty\Desktop","no","mono","no","18","no","white","no","yes","768","legacy","78","11","C:/Users/Knitwitty/Documents/KBsubject3.csv","legacy","9 7 4 5 8","Jazzy James","3.1.9","0","n","0","right","right","right","right","NA","662","38991","7412","662","NA","2","legacy","5","1024","2","48000","-16","experiment","3","odd","6","609132","605747","606916","2907","130473","606920","569347","2913","123060","611138","611805","607926","41905","611138","NA","Sternberg task","76","63149","91","yes","1024"
"82.6086956522","82.6086956522","694.25","694.25","black","no","experiment","legacy","legacy","legacy","0","uniform","0","undefined","0","right","91","91","91","0","0","91","91","0","0","91","91","91","0","91","0","10/06/18 20:57:04","The main experiment item","yes","NA","Sternbergtask.osexp","C:\Users\Knitwitty\Desktop","no","mono","no","18","no","white","no","yes","768","legacy","79","11","C:/Users/Knitwitty/Documents/KBsubject3.csv","legacy","8 4 3 5","Jazzy James","3.1.9","0","n","0","left","right","right","left","NA","722","38991","7412","722","NA","2","legacy","4","1024","2","48000","-16","experiment","3","odd","6","615213","611821","612997","2907","130473","613001","569347","2913","123060","617220","617947","614007","41905","617219","NA","Sternberg task","76","63871","92","yes","1024"
"82.7956989247","82.7956989247","694.053763441","694.053763441","black","no","experiment","legacy","legacy","legacy","0","uniform","1","undefined","1","left","92","92","92","0","0","92","92","0","0","92","92","92","0","92","0","10/06/18 20:57:04","The main experiment item","yes","NA","Sternbergtask.osexp","C:\Users\Knitwitty\Desktop","no","mono","no","18","no","white","no","yes","768","legacy","80","11","C:/Users/Knitwitty/Documents/KBsubject3.csv","legacy","5 2 6","Jazzy James","3.1.9","2","y","0","left","right","right","left","NA","676","38991","7412","676","NA","2","legacy","3","1024","2","48000","-16","experiment","3","odd","2","621373","611821","619157","2907","130473","619162","617962","2913","123060","623379","624060","620167","41905","623379","NA","Sternberg task","77","64547","93","yes","1024"
"82.9787234043","82.9787234043","695.372340426","695.372340426","black","no","experiment","legacy","legacy","legacy","0","uniform","1","undefined","1","right","93","93","93","0","0","93","93","0","0","93","93","93","0","93","0","10/06/18 20:57:04","The main experiment item","yes","NA","Sternbergtask.osexp","C:\Users\Knitwitty\Desktop","no","mono","no","18","no","white","no","yes","768","legacy","81","11","C:/Users/Knitwitty/Documents/KBsubject3.csv","legacy","1 4 9 2 5","Jazzy James","3.1.9","0","n","0","right","right","right","right","NA","818","38991","7412","818","NA","2","legacy","5","1024","2","48000","-16","experiment","3","odd","7","627470","624076","625256","2907","130473","625260","617962","2913","123060","629477","630300","626265","41905","629476","NA","Sternberg task","78","65365","94","yes","1024"
"83.1578947368","83.1578947368","694.726315789","694.726315789","black","no","experiment","legacy","legacy","legacy","0","uniform","1","undefined","1","left","94","94","94","0","0","94","94","0","0","94","94","94","0","94","0","10/06/18 20:57:04","The main experiment item","yes","NA","Sternbergtask.osexp","C:\Users\Knitwitty\Desktop","no","mono","no","18","no","white","no","yes","768","legacy","82","11","C:/Users/Knitwitty/Documents/KBsubject3.csv","legacy","3 5 9 6 2 4","Jazzy James","3.1.9","1","y","0","left","right","right","left","NA","634","38991","7412","634","NA","2","legacy","6","1024","2","48000","-16","experiment","3","odd","3","633711","630317","631497","2907","130473","631501","617962","2913","123060","635717","636356","632506","41905","635716","NA","Sternberg task","79","65999","95","yes","1024"
"83.3333333333","83.3333333333","694.708333333","694.708333333","black","no","experiment","legacy","legacy","legacy","0","uniform","1","undefined","1","left","95","95","95","0","0","95","95","0","0","95","95","95","0","95","0","10/06/18 20:57:04","The main experiment item","yes","NA","Sternbergtask.osexp","C:\Users\Knitwitty\Desktop","no","mono","no","18","no","white","no","yes","768","legacy","83","11","C:/Users/Knitwitty/Documents/KBsubject3.csv","legacy","4 6 5 8","Jazzy James","3.1.9","1","y","0","left","right","right","left","NA","693","38991","7412","693","NA","2","legacy","4","1024","2","48000","-16","experiment","3","odd","4","639771","636372","637556","2907","130473","637560","617962","2913","123060","641778","642477","638565","41905","641777","NA","Sternberg task","80","66692","96","yes","1024"
"83.5051546392","83.5051546392","691.773195876","691.773195876","black","no","experiment","legacy","legacy","legacy","0","uniform","1","undefined","1","left","96","96","96","0","0","96","96","0","0","96","96","96","0","96","0","10/06/18 20:57:04","The main experiment item","yes","NA","Sternbergtask.osexp","C:\Users\Knitwitty\Desktop","no","mono","no","18","no","white","no","yes","768","legacy","84","11","C:/Users/Knitwitty/Documents/KBsubject3.csv","legacy","8","Jazzy James","3.1.9","1","y","0","left","right","right","left","NA","410","38991","7412","410","NA","2","legacy","1","1024","2","48000","-16","experiment","3","odd","8","645879","642493","643666","2907","130473","643671","617962","2913","123060","647885","648300","644676","41905","647884","NA","Sternberg task","81","67102","97","yes","1024"
"83.6734693878","83.6734693878","690.183673469","690.183673469","black","no","experiment","legacy","legacy","legacy","0","uniform","1","undefined","1","right","97","97","97","0","0","97","97","0","0","97","97","97","0","97","0","10/06/18 20:57:04","The main experiment item","yes","NA","Sternbergtask.osexp","C:\Users\Knitwitty\Desktop","no","mono","no","18","no","white","no","yes","768","legacy","85","11","C:/Users/Knitwitty/Documents/KBsubject3.csv","legacy","7 9","Jazzy James","3.1.9","0","n","0","right","right","right","right","NA","536","38991","7412","536","NA","2","legacy","2","1024","2","48000","-16","experiment","3","odd","1","651703","648314","649488","2907","130473","649492","617962","2913","123060","653710","654252","650497","41905","653709","NA","Sternberg task","82","67638","98","yes","1024"
"83.8383838384","83.8383838384","689.545454545","689.545454545","black","no","experiment","legacy","legacy","legacy","0","uniform","1","undefined","1","right","98","98","98","0","0","98","98","0","0","98","98","98","0","98","0","10/06/18 20:57:04","The main experiment item","yes","NA","Sternbergtask.osexp","C:\Users\Knitwitty\Desktop","no","mono","no","18","no","white","no","yes","768","legacy","86","11","C:/Users/Knitwitty/Documents/KBsubject3.csv","legacy","7 1","Jazzy James","3.1.9","0","n","0","right","right","right","right","NA","627","38991","7412","627","NA","2","legacy","2","1024","2","48000","-16","experiment","3","odd","8","657670","654267","655455","2907","130473","655459","617962","2913","123060","659676","660308","656464","41905","659676","NA","Sternberg task","83","68265","99","yes","1024"
"83","83","687.43","687.43","black","no","experiment","legacy","legacy","legacy","0","uniform","0","undefined","0","left","99","99","99","0","0","99","99","0","0","99","99","99","0","99","0","10/06/18 20:57:04","The main experiment item","yes","NA","Sternbergtask.osexp","C:\Users\Knitwitty\Desktop","no","mono","no","18","no","white","no","yes","768","legacy","87","11","C:/Users/Knitwitty/Documents/KBsubject3.csv","legacy","6 1 2","Jazzy James","3.1.9","3","y","0","right","right","right","right","NA","478","38991","7412","478","NA","2","legacy","3","1024","2","48000","-16","experiment","3","odd","2","663715","660324","661499","2907","130473","661504","617962","2913","123060","665721","666205","662509","41905","665720","NA","Sternberg task","83","68743","100","yes","1024"
"83.1683168317","83.1683168317","690.920792079","690.920792079","black","no","experiment","legacy","legacy","legacy","0","uniform","1","undefined","1","right","100","100","100","0","0","100","100","0","0","100","100","100","0","100","0","10/06/18 20:57:04","The main experiment item","yes","NA","Sternbergtask.osexp","C:\Users\Knitwitty\Desktop","no","mono","no","18","no","white","no","yes","768","legacy","88","11","C:/Users/Knitwitty/Documents/KBsubject3.csv","legacy","6 3 1 7 9 8","Jazzy James","3.1.9","0","n","0","right","right","right","right","NA","1040","38991","7412","1040","NA","2","legacy","6","1024","2","48000","-16","experiment","3","odd","4","669625","660324","667409","2907","130473","667414","666220","2913","123060","671631","672676","668419","41905","671630","NA","Sternberg task","84","69783","101","yes","1024"
"83.3333333333","83.3333333333","691.598039216","691.598039216","black","no","experiment","legacy","legacy","legacy","0","uniform","1","undefined","1","left","101","101","101","0","0","101","101","0","0","101","101","101","0","101","0","10/06/18 20:57:04","The main experiment item","yes","NA","Sternbergtask.osexp","C:\Users\Knitwitty\Desktop","no","mono","no","18","no","white","no","yes","768","legacy","89","11","C:/Users/Knitwitty/Documents/KBsubject3.csv","legacy","8 1 6","Jazzy James","3.1.9","3","y","0","left","right","right","left","NA","760","38991","7412","760","NA","2","legacy","3","1024","2","48000","-16","experiment","3","odd","6","676089","672692","673872","2907","130473","673877","666220","2913","123060","678095","678860","674882","41905","678094","NA","Sternberg task","85","70543","102","yes","1024"
"83.4951456311","83.4951456311","692.213592233","692.213592233","black","no","experiment","legacy","legacy","legacy","0","uniform","1","undefined","1","right","102","102","102","0","0","102","102","0","0","102","102","102","0","102","0","10/06/18 20:57:04","The main experiment item","yes","NA","Sternbergtask.osexp","C:\Users\Knitwitty\Desktop","no","mono","no","18","no","white","no","yes","768","legacy","90","11","C:/Users/Knitwitty/Documents/KBsubject3.csv","legacy","2 8 6 3 1","Jazzy James","3.1.9","0","n","0","right","right","right","right","NA","755","38991","7412","755","NA","2","legacy","5","1024","2","48000","-16","experiment","3","odd","7","682269","678872","680053","2907","130473","680057","666220","2913","123060","684276","685036","681064","41905","684275","NA","Sternberg task","86","71298","103","yes","1024"
"83.6538461538","83.6538461538","694.980769231","694.980769231","black","no","experiment","legacy","legacy","legacy","0","uniform","1","undefined","1","left","103","103","103","0","0","103","103","0","0","103","103","103","0","103","0","10/06/18 20:57:04","The main experiment item","yes","NA","Sternbergtask.osexp","C:\Users\Knitwitty\Desktop","no","mono","no","18","no","white","no","yes","768","legacy","91","11","C:/Users/Knitwitty/Documents/KBsubject3.csv","legacy","7","Jazzy James","3.1.9","1","y","0","left","right","right","left","NA","980","38991","7412","980","NA","2","legacy","1","1024","2","48000","-16","experiment","3","odd","7","688444","685051","686227","2907","130473","686232","666220","2913","123060","690451","691437","687237","41905","690450","NA","Sternberg task","87","72278","104","yes","1024"
"83.8095238095","83.8095238095","696.523809524","696.523809524","black","no","experiment","legacy","legacy","legacy","0","uniform","1","undefined","1","right","104","104","104","0","0","104","104","0","0","104","104","104","0","104","0","10/06/18 20:57:04","The main experiment item","yes","NA","Sternbergtask.osexp","C:\Users\Knitwitty\Desktop","no","mono","no","18","no","white","no","yes","768","legacy","92","11","C:/Users/Knitwitty/Documents/KBsubject3.csv","legacy","3 4 9 6 7 8","Jazzy James","3.1.9","0","n","0","right","right","right","right","NA","857","38991","7412","857","NA","2","legacy","6","1024","2","48000","-16","experiment","3","odd","2","694847","691453","692632","2907","130473","692637","666220","2913","123060","696854","697716","693642","41905","696853","NA","Sternberg task","88","73135","105","yes","1024"
"83.0188679245","83.0188679245","699.433962264","699.433962264","black","no","experiment","legacy","legacy","legacy","0","uniform","0","undefined","0","right","105","105","105","0","0","105","105","0","0","105","105","105","0","105","0","10/06/18 20:57:04","The main experiment item","yes","NA","Sternbergtask.osexp","C:\Users\Knitwitty\Desktop","no","mono","no","18","no","white","no","yes","768","legacy","93","11","C:/Users/Knitwitty/Documents/KBsubject3.csv","legacy","1 6 4","Jazzy James","3.1.9","0","n","0","left","right","right","left","NA","1005","38991","7412","1005","NA","2","legacy","3","1024","2","48000","-16","experiment","3","odd","7","701130","697732","698914","2907","130473","698918","666220","2913","123060","703137","704148","699924","41905","703136","NA","Sternberg task","88","74140","106","yes","1024"
"83.1775700935","83.1775700935","698.439252336","698.439252336","black","no","experiment","legacy","legacy","legacy","0","uniform","1","undefined","1","left","106","106","106","0","0","106","106","0","0","106","106","106","0","106","0","10/06/18 20:57:04","The main experiment item","yes","NA","Sternbergtask.osexp","C:\Users\Knitwitty\Desktop","no","mono","no","18","no","white","no","yes","768","legacy","94","11","C:/Users/Knitwitty/Documents/KBsubject3.csv","legacy","3 4 9 6 2 9","Jazzy James","3.1.9","5","y","0","left","right","right","left","NA","593","38991","7412","593","NA","2","legacy","6","1024","2","48000","-16","experiment","3","odd","2","707567","697732","705354","2907","130473","705358","704164","2913","123060","709574","710173","706361","41905","709573","NA","Sternberg task","89","74733","107","yes","1024"
"83.3333333333","83.3333333333","699.555555556","699.555555556","black","no","experiment","legacy","legacy","legacy","0","uniform","1","undefined","1","right","107","107","107","0","0","107","107","0","0","107","107","107","0","107","0","10/06/18 20:57:04","The main experiment item","yes","NA","Sternbergtask.osexp","C:\Users\Knitwitty\Desktop","no","mono","no","18","no","white","no","yes","768","legacy","95","11","C:/Users/Knitwitty/Documents/KBsubject3.csv","legacy","7 1 8 4 9 3","Jazzy James","3.1.9","0","n","0","right","right","right","right","NA","819","38991","7412","819","NA","2","legacy","6","1024","2","48000","-16","experiment","3","odd","6","713590","710188","711375","2907","130473","711380","704164","2913","123060","715596","716420","712385","41905","715595","NA","Sternberg task","90","75552","108","yes","1024"
"83.4862385321","83.4862385321","701.311926606","701.311926606","black","no","experiment","legacy","legacy","legacy","0","uniform","1","undefined","1","left","108","108","108","0","0","108","108","0","0","108","108","108","0","108","0","10/06/18 20:57:04","The main experiment item","yes","NA","Sternbergtask.osexp","C:\Users\Knitwitty\Desktop","no","mono","no","18","no","white","no","yes","768","legacy","96","11","C:/Users/Knitwitty/Documents/KBsubject3.csv","legacy","6 9 3 1","Jazzy James","3.1.9","4","y","0","left","right","right","left","NA","891","38991","7412","891","NA","2","legacy","4","1024","2","48000","-16","experiment","3","odd","1","719829","716435","717614","2907","130473","717618","704164","2913","123060","721836","722732","718623","41905","721835","NA","Sternberg task","91","76443","109","yes","1024"
"83.6363636364","83.6363636364","702.490909091","702.490909091","black","no","experiment","legacy","legacy","legacy","0","uniform","1","undefined","1","right","109","109","109","0","0","109","109","0","0","109","109","109","0","109","0","10/06/18 20:57:04","The main experiment item","yes","NA","Sternbergtask.osexp","C:\Users\Knitwitty\Desktop","no","mono","no","18","no","white","no","yes","768","legacy","97","11","C:/Users/Knitwitty/Documents/KBsubject3.csv","legacy","4 8 1 2","Jazzy James","3.1.9","0","n","0","right","right","right","right","NA","831","38991","7412","831","NA","2","legacy","4","1024","2","48000","-16","experiment","3","odd","7","726147","722747","723931","2907","130473","723935","704164","2913","123060","728152","728989","724941","41905","728152","NA","Sternberg task","92","77274","110","yes","1024"
"83.7837837838","83.7837837838","707.846846847","707.846846847","black","no","experiment","legacy","legacy","legacy","0","uniform","1","undefined","1","right","110","110","110","0","0","110","110","0","0","110","110","110","0","110","0","10/06/18 20:57:04","The main experiment item","yes","NA","Sternbergtask.osexp","C:\Users\Knitwitty\Desktop","no","mono","no","18","no","white","no","yes","768","legacy","98","11","C:/Users/Knitwitty/Documents/KBsubject3.csv","legacy","3 9 1","Jazzy James","3.1.9","0","n","0","right","right","right","right","NA","1297","38991","7412","1297","NA","2","legacy","3","1024","2","48000","-16","experiment","3","odd","7","732399","729005","730184","2907","130473","730188","704164","2913","123060","734406","735709","731193","41905","734406","NA","Sternberg task","93","78571","111","yes","1024"
"83.9285714286","83.9285714286","707.625","707.625","black","no","experiment","legacy","legacy","legacy","0","uniform","1","undefined","1","left","111","111","111","0","0","111","111","0","0","111","111","111","0","111","0","10/06/18 20:57:04","The main experiment item","yes","NA","Sternbergtask.osexp","C:\Users\Knitwitty\Desktop","no","mono","no","18","no","white","no","yes","768","legacy","99","11","C:/Users/Knitwitty/Documents/KBsubject3.csv","legacy","4 1 5","Jazzy James","3.1.9","2","y","0","left","right","right","left","NA","683","38991","7412","683","NA","2","legacy","3","1024","2","48000","-16","experiment","3","odd","1","739119","735725","736903","2907","130473","736908","704164","2913","123060","741124","741812","737913","41905","741124","NA","Sternberg task","94","79254","112","yes","1024"
"84.0707964602","84.0707964602","707.026548673","707.026548673","black","no","experiment","legacy","legacy","legacy","0","uniform","1","undefined","1","left","112","112","112","0","0","112","112","0","0","112","112","112","0","112","0","10/06/18 20:57:04","The main experiment item","yes","NA","Sternbergtask.osexp","C:\Users\Knitwitty\Desktop","no","mono","no","18","no","white","no","yes","768","legacy","100","11","C:/Users/Knitwitty/Documents/KBsubject3.csv","legacy","2 4 8 5 1 3","Jazzy James","3.1.9","1","y","0","left","right","right","left","NA","640","38991","7412","640","NA","2","legacy","6","1024","2","48000","-16","experiment","3","odd","2","745224","741827","743009","2907","130473","743013","704164","2913","123060","747231","747877","744018","41905","747230","NA","Sternberg task","95","79894","113","yes","1024"
"84.2105263158","84.2105263158","705.929824561","705.929824561","black","no","experiment","legacy","legacy","legacy","0","uniform","1","undefined","1","right","113","113","113","0","0","113","113","0","0","113","113","113","0","113","0","10/06/18 20:57:04","The main experiment item","yes","NA","Sternbergtask.osexp","C:\Users\Knitwitty\Desktop","no","mono","no","18","no","white","no","yes","768","legacy","101","11","C:/Users/Knitwitty/Documents/KBsubject3.csv","legacy","9","Jazzy James","3.1.9","0","n","0","right","right","right","right","NA","582","38991","7412","582","NA","2","legacy","1","1024","2","48000","-16","experiment","3","odd","6","751281","747893","749065","2907","130473","749070","704164","2913","123060","753288","753876","750075","41905","753288","NA","Sternberg task","96","80476","114","yes","1024"
"84.347826087","84.347826087","711.634782609","711.634782609","black","no","experiment","legacy","legacy","legacy","0","uniform","1","undefined","1","left","114","114","114","0","0","114","114","0","0","114","114","114","0","114","0","10/06/18 20:57:04","The main experiment item","yes","NA","Sternbergtask.osexp","C:\Users\Knitwitty\Desktop","no","mono","no","18","no","white","no","yes","768","legacy","102","11","C:/Users/Knitwitty/Documents/KBsubject3.csv","legacy","5 7 8 2 3 8","Jazzy James","3.1.9","5","y","0","left","right","right","left","NA","1362","38991","7412","1362","NA","2","legacy","6","1024","2","48000","-16","experiment","3","odd","3","757280","753892","755065","2907","130473","755069","704164","2913","123060","759286","760653","756074","41905","759286","NA","Sternberg task","97","81838","115","yes","1024"
"84.4827586207","84.4827586207","711.818965517","711.818965517","black","no","experiment","legacy","legacy","legacy","0","uniform","1","undefined","1","left","115","115","115","0","0","115","115","0","0","115","115","115","0","115","0","10/06/18 20:57:04","The main experiment item","yes","NA","Sternbergtask.osexp","C:\Users\Knitwitty\Desktop","no","mono","no","18","no","white","no","yes","768","legacy","103","11","C:/Users/Knitwitty/Documents/KBsubject3.csv","legacy","7 2 3","Jazzy James","3.1.9","3","y","0","left","right","right","left","NA","733","38991","7412","733","NA","2","legacy","3","1024","2","48000","-16","experiment","3","odd","3","764052","760668","761837","2907","130473","761841","704164","2913","123060","766058","766796","762847","41905","766058","NA","Sternberg task","98","82571","116","yes","1024"
"84.6153846154","84.6153846154","711.658119658","711.658119658","black","no","experiment","legacy","legacy","legacy","0","uniform","1","undefined","1","right","116","116","116","0","0","116","116","0","0","116","116","116","0","116","0","10/06/18 20:57:04","The main experiment item","yes","NA","Sternbergtask.osexp","C:\Users\Knitwitty\Desktop","no","mono","no","18","no","white","no","yes","768","legacy","104","11","C:/Users/Knitwitty/Documents/KBsubject3.csv","legacy","5 2","Jazzy James","3.1.9","0","n","0","right","right","right","right","NA","693","38991","7412","693","NA","2","legacy","2","1024","2","48000","-16","experiment","3","odd","7","770219","766811","768004","2907","130473","768008","704164","2913","123060","772226","772925","769014","41905","772225","NA","Sternberg task","99","83264","117","yes","1024"
"83.8983050847","83.8983050847","711.169491525","711.169491525","black","no","experiment","legacy","legacy","legacy","0","uniform","0","undefined","0","right","117","117","117","0","0","117","117","0","0","117","117","117","0","117","0","10/06/18 20:57:04","The main experiment item","yes","NA","Sternbergtask.osexp","C:\Users\Knitwitty\Desktop","no","mono","no","18","no","white","no","yes","768","legacy","105","11","C:/Users/Knitwitty/Documents/KBsubject3.csv","legacy","4 2 6 9","Jazzy James","3.1.9","0","n","0","left","right","right","left","NA","654","38991","7412","654","NA","2","legacy","4","1024","2","48000","-16","experiment","3","odd","7","776330","772941","774115","2907","130473","774119","704164","2913","123060","778337","778997","775125","41905","778336","NA","Sternberg task","99","83918","118","yes","1024"
"84.0336134454","84.0336134454","710.43697479","710.43697479","black","no","experiment","legacy","legacy","legacy","0","uniform","1","undefined","1","right","118","118","118","0","0","118","118","0","0","118","118","118","0","118","0","10/06/18 20:57:04","The main experiment item","yes","NA","Sternbergtask.osexp","C:\Users\Knitwitty\Desktop","no","mono","no","18","no","white","no","yes","768","legacy","106","11","C:/Users/Knitwitty/Documents/KBsubject3.csv","legacy","2 3 8 5 6 7","Jazzy James","3.1.9","0","n","0","right","right","right","right","NA","624","38991","7412","624","NA","2","legacy","6","1024","2","48000","-16","experiment","3","odd","1","782416","772941","780201","2907","130473","780205","779014","2913","123060","784423","785053","781210","41905","784422","NA","Sternberg task","100","84542","119","yes","1024"
"84.1666666667","84.1666666667","710.216666667","710.216666667","black","no","experiment","legacy","legacy","legacy","0","uniform","1","undefined","1","right","119","119","119","0","0","119","119","0","0","119","119","119","0","119","0","10/06/18 20:57:04","The main experiment item","yes","NA","Sternbergtask.osexp","C:\Users\Knitwitty\Desktop","no","mono","no","18","no","white","no","yes","768","legacy","107","11","C:/Users/Knitwitty/Documents/KBsubject3.csv","legacy","6 7 5 9","Jazzy James","3.1.9","0","n","0","right","right","right","right","NA","684","38991","7412","684","NA","2","legacy","4","1024","2","48000","-16","experiment","3","odd","2","788461","785069","786246","2907","130473","786251","779014","2913","123060","790467","791158","787256","41905","790467","NA","Sternberg task","101","85226","120","yes","1024"
"84.2975206612","84.2975206612","708.429752066","708.429752066","black","no","experiment","legacy","legacy","legacy","0","uniform","1","undefined","1","left","120","120","120","0","0","120","120","0","0","120","120","120","0","120","0","10/06/18 20:57:04","The main experiment item","yes","NA","Sternbergtask.osexp","C:\Users\Knitwitty\Desktop","no","mono","no","18","no","white","no","yes","768","legacy","108","11","C:/Users/Knitwitty/Documents/KBsubject3.csv","legacy","5 7 3 6 2","Jazzy James","3.1.9","5","y","0","left","right","right","left","NA","494","38991","7412","494","NA","2","legacy","5","1024","2","48000","-16","experiment","3","odd","2","794570","791175","792356","2907","130473","792360","779014","2913","123060","796577","797076","793365","41905","796576","NA","Sternberg task","102","85720","121","yes","1024"
