"acc","accuracy","average_response_time","avg_rt","background","bidi","block","canvas_backend","clock_backend","color_backend","compensation","coordinates","correct","correct_Instruction1","correct_keyboard_response","correct_response","count_Fixation","count_ISI","count_Instruction1","count_Instructions2","count_ThankYou","count_correctFeedback","count_expSequence","count_experiment","count_experimentLoop","count_incorrectFeedback","count_keyboard_response","count_memorySet","count_new_logger","count_practiceLoop","count_probe","datetime","description","disable_garbage_collection","empty_column","experiment_file","experiment_path","font_bold","font_family","font_italic","font_size","font_underline","foreground","form_clicks","fullscreen","height","keyboard_backend","live_row","live_row_practiceLoop","logfile","mouse_backend","numberSet","opensesame_codename","opensesame_version","posInSet","present","repeat_cycle","response","response_Instruction1","response_Instructions2","response_ThankYou","response_keyboard_response","response_time","response_time_Instruction1","response_time_Instructions2","response_time_ThankYou","response_time_keyboard_response","round_decimals","sampler_backend","setSize","sound_buf_size","sound_channels","sound_freq","sound_sample_size","start","subject_nr","subject_parity","target","time_Fixation","time_ISI","time_Instruction1","time_Instructions2","time_ThankYou","time_correctFeedback","time_expSequence","time_experiment","time_experimentLoop","time_incorrectFeedback","time_keyboard_response","time_memorySet","time_new_logger","time_practiceLoop","time_probe","title","total_correct","total_response_time","total_responses","uniform_coordinates","width"
"100","100","2585","2585","black","no","practice","legacy","legacy","legacy","0","uniform","1","undefined","1","right","0","0","0","0","0","0","0","0","0","0","0","0","0","0","0","10/02/18 13:49:24","The main experiment item","yes","NA","SternbergTask.osexp","C:/Users/Anabel/Desktop","no","mono","no","18","no","white","no","yes","768","legacy","0","0","C:/Users/Anabel/Desktop/subject-1.csv","legacy","9 6 7 4 5","Jazzy James","3.1.9","0","n","0","right","left","NA","NA","right","2585","94761","NA","NA","2585","2","legacy","5","1024","2","48000","-16","experiment","1","odd","3","97121","99325","1481","NA","NA","NA","97119","1477","NA","NA","101327","98123","103913","96243","101327","Sternberg Task","1","2585","1","yes","1024"
"100","100","1583","1583","black","no","practice","legacy","legacy","legacy","0","uniform","1","undefined","1","right","1","1","0","0","0","1","1","0","0","1","1","1","1","0","1","10/02/18 13:49:24","The main experiment item","yes","NA","SternbergTask.osexp","C:/Users/Anabel/Desktop","no","mono","no","18","no","white","no","yes","768","legacy","1","1","C:/Users/Anabel/Desktop/subject-1.csv","legacy","2 1","Jazzy James","3.1.9","0","n","0","right","left","NA","NA","right","581","94761","NA","NA","581","2","legacy","2","1024","2","48000","-16","experiment","1","odd","5","105118","107321","1481","NA","NA","104037","105116","1477","NA","NA","109323","106119","109905","96243","109323","Sternberg Task","2","3166","2","yes","1024"
"100","100","1475","1475","black","no","practice","legacy","legacy","legacy","0","uniform","1","undefined","1","right","2","2","0","0","0","2","2","0","0","2","2","2","2","0","2","10/02/18 13:49:24","The main experiment item","yes","NA","SternbergTask.osexp","C:/Users/Anabel/Desktop","no","mono","no","18","no","white","no","yes","768","legacy","2","2","C:/Users/Anabel/Desktop/subject-1.csv","legacy","5","Jazzy James","3.1.9","0","n","0","right","left","NA","NA","right","1259","94761","NA","NA","1259","2","legacy","1","1024","2","48000","-16","experiment","1","odd","3","111051","113255","1481","NA","NA","109970","111049","1477","NA","NA","115257","112053","116517","96243","115257","Sternberg Task","3","4425","3","yes","1024"
"100","100","1225.75","1225.75","black","no","practice","legacy","legacy","legacy","0","uniform","1","undefined","1","left","3","3","0","0","0","3","3","0","0","3","3","3","3","0","3","10/02/18 13:49:24","The main experiment item","yes","NA","SternbergTask.osexp","C:/Users/Anabel/Desktop","no","mono","no","18","no","white","no","yes","768","legacy","3","3","C:/Users/Anabel/Desktop/subject-1.csv","legacy","2 9 4","Jazzy James","3.1.9","3","y","0","left","left","NA","NA","left","478","94761","NA","NA","478","2","legacy","3","1024","2","48000","-16","experiment","1","odd","4","117652","119856","1481","NA","NA","116570","117650","1477","NA","NA","121858","118654","122337","96243","121858","Sternberg Task","4","4903","4","yes","1024"
"100","100","1073.2","1073.2","black","no","practice","legacy","legacy","legacy","0","uniform","1","undefined","1","left","4","4","0","0","0","4","4","0","0","4","4","4","4","0","4","10/02/18 13:49:24","The main experiment item","yes","NA","SternbergTask.osexp","C:/Users/Anabel/Desktop","no","mono","no","18","no","white","no","yes","768","legacy","4","4","C:/Users/Anabel/Desktop/subject-1.csv","legacy","1 5 2 9","Jazzy James","3.1.9","2","y","0","left","left","NA","NA","left","463","94761","NA","NA","463","2","legacy","4","1024","2","48000","-16","experiment","1","odd","5","123504","125709","1481","NA","NA","122426","123502","1477","NA","NA","127711","124507","128174","96243","127711","Sternberg Task","5","5366","5","yes","1024"
"100","100","1070","1070","black","no","practice","legacy","legacy","legacy","0","uniform","1","undefined","1","right","5","5","0","0","0","5","5","0","0","5","5","5","5","0","5","10/02/18 13:49:24","The main experiment item","yes","NA","SternbergTask.osexp","C:/Users/Anabel/Desktop","no","mono","no","18","no","white","no","yes","768","legacy","5","5","C:/Users/Anabel/Desktop/subject-1.csv","legacy","3 1 9 4","Jazzy James","3.1.9","0","n","0","right","left","NA","NA","right","1054","94761","NA","NA","1054","2","legacy","4","1024","2","48000","-16","experiment","1","odd","6","129290","131494","1481","NA","NA","128203","129288","1477","NA","NA","133496","130292","134551","96243","133496","Sternberg Task","6","6420","6","yes","1024"
"100","100","985.857142857","985.857142857","black","no","practice","legacy","legacy","legacy","0","uniform","1","undefined","1","left","6","6","0","0","0","6","6","0","0","6","6","6","6","0","6","10/02/18 13:49:24","The main experiment item","yes","NA","SternbergTask.osexp","C:/Users/Anabel/Desktop","no","mono","no","18","no","white","no","yes","768","legacy","6","6","C:/Users/Anabel/Desktop/subject-1.csv","legacy","4 8","Jazzy James","3.1.9","1","y","0","left","left","NA","NA","left","481","94761","NA","NA","481","2","legacy","2","1024","2","48000","-16","experiment","1","odd","4","135659","137863","1481","NA","NA","134580","135657","1477","NA","NA","139865","136661","140347","96243","139865","Sternberg Task","7","6901","7","yes","1024"
"100","100","959.375","959.375","black","no","practice","legacy","legacy","legacy","0","uniform","1","undefined","1","left","7","7","0","0","0","7","7","0","0","7","7","7","7","0","7","10/02/18 13:49:24","The main experiment item","yes","NA","SternbergTask.osexp","C:/Users/Anabel/Desktop","no","mono","no","18","no","white","no","yes","768","legacy","7","7","C:/Users/Anabel/Desktop/subject-1.csv","legacy","6","Jazzy James","3.1.9","1","y","0","left","left","NA","NA","left","774","94761","NA","NA","774","2","legacy","1","1024","2","48000","-16","experiment","1","odd","6","141479","143683","1481","NA","NA","140404","141477","1477","NA","NA","145685","142481","146460","96243","145685","Sternberg Task","8","7675","8","yes","1024"
"100","100","930.444444444","930.444444444","black","no","practice","legacy","legacy","legacy","0","uniform","1","undefined","1","left","8","8","0","0","0","8","8","0","0","8","8","8","8","0","8","10/02/18 13:49:24","The main experiment item","yes","NA","SternbergTask.osexp","C:/Users/Anabel/Desktop","no","mono","no","18","no","white","no","yes","768","legacy","8","8","C:/Users/Anabel/Desktop/subject-1.csv","legacy","4 3 1 7 9 8","Jazzy James","3.1.9","1","y","0","left","left","NA","NA","left","699","94761","NA","NA","699","2","legacy","6","1024","2","48000","-16","experiment","1","odd","4","147597","149801","1481","NA","NA","146515","147595","1477","NA","NA","151803","148599","152503","96243","151803","Sternberg Task","9","8374","9","yes","1024"
"100","100","899.4","899.4","black","no","practice","legacy","legacy","legacy","0","uniform","1","undefined","1","right","9","9","0","0","0","9","9","0","0","9","9","9","9","0","9","10/02/18 13:49:24","The main experiment item","yes","NA","SternbergTask.osexp","C:/Users/Anabel/Desktop","no","mono","no","18","no","white","no","yes","768","legacy","9","9","C:/Users/Anabel/Desktop/subject-1.csv","legacy","4 1 5","Jazzy James","3.1.9","0","n","0","right","left","NA","NA","right","620","94761","NA","NA","620","2","legacy","3","1024","2","48000","-16","experiment","1","odd","2","153621","155825","1481","NA","NA","152540","153619","1477","NA","NA","157827","154623","158448","96243","157827","Sternberg Task","10","8994","10","yes","1024"
"100","100","930.363636364","930.363636364","black","no","practice","legacy","legacy","legacy","0","uniform","1","undefined","1","left","10","10","0","0","0","10","10","0","0","10","10","10","10","0","10","10/02/18 13:49:24","The main experiment item","yes","NA","SternbergTask.osexp","C:/Users/Anabel/Desktop","no","mono","no","18","no","white","no","yes","768","legacy","10","10","C:/Users/Anabel/Desktop/subject-1.csv","legacy","1 7 9 8 5","Jazzy James","3.1.9","4","y","0","left","left","NA","NA","left","1240","94761","NA","NA","1240","2","legacy","5","1024","2","48000","-16","experiment","1","odd","8","159586","161790","1481","NA","NA","158503","159584","1477","NA","NA","163792","160588","165033","96243","163792","Sternberg Task","11","10234","11","yes","1024"
"100","100","916.916666667","916.916666667","black","no","practice","legacy","legacy","legacy","0","uniform","1","undefined","1","right","11","11","0","0","0","11","11","0","0","11","11","11","11","0","11","10/02/18 13:49:24","The main experiment item","yes","NA","SternbergTask.osexp","C:/Users/Anabel/Desktop","no","mono","no","18","no","white","no","yes","768","legacy","11","11","C:/Users/Anabel/Desktop/subject-1.csv","legacy","5 7 8 4 1 2","Jazzy James","3.1.9","0","n","0","right","left","NA","NA","right","769","94761","NA","NA","769","2","legacy","6","1024","2","48000","-16","experiment","1","odd","6","166151","168355","1481","NA","NA","165081","166149","1477","NA","NA","170357","167153","171126","96243","170357","Sternberg Task","12","11003","12","yes","1024"
"100","100","909.076923077","909.076923077","black","no","experiment","legacy","legacy","legacy","0","uniform","1","undefined","1","left","12","12","0","0","0","12","12","0","0","12","12","12","12","0","12","10/02/18 13:49:24","The main experiment item","yes","NA","SternbergTask.osexp","C:/Users/Anabel/Desktop","no","mono","no","18","no","white","no","yes","768","legacy","0","11","C:/Users/Anabel/Desktop/subject-1.csv","legacy","5 7 3 6 2","Jazzy James","3.1.9","5","y","0","left","left","left","NA","left","815","94761","7552","NA","815","2","legacy","5","1024","2","48000","-16","experiment","1","odd","2","179863","182067","1481","172207","NA","171182","179861","1477","179760","NA","184069","180865","184885","96243","184069","Sternberg Task","13","11818","13","yes","1024"
"100","100","881.642857143","881.642857143","black","no","experiment","legacy","legacy","legacy","0","uniform","1","undefined","1","left","13","13","0","0","0","13","13","0","0","13","13","13","13","0","13","10/02/18 13:49:24","The main experiment item","yes","NA","SternbergTask.osexp","C:/Users/Anabel/Desktop","no","mono","no","18","no","white","no","yes","768","legacy","1","11","C:/Users/Anabel/Desktop/subject-1.csv","legacy","3 5 4 7","Jazzy James","3.1.9","1","y","0","left","left","left","NA","left","525","94761","7552","NA","525","2","legacy","4","1024","2","48000","-16","experiment","1","odd","3","186004","188208","1481","172207","NA","184914","186002","1477","179760","NA","190210","187006","190736","96243","190210","Sternberg Task","14","12343","14","yes","1024"
"100","100","864.466666667","864.466666667","black","no","experiment","legacy","legacy","legacy","0","uniform","1","undefined","1","left","14","14","0","0","0","14","14","0","0","14","14","14","14","0","14","10/02/18 13:49:24","The main experiment item","yes","NA","SternbergTask.osexp","C:/Users/Anabel/Desktop","no","mono","no","18","no","white","no","yes","768","legacy","2","11","C:/Users/Anabel/Desktop/subject-1.csv","legacy","9 5 8 1","Jazzy James","3.1.9","2","y","0","left","left","left","NA","left","624","94761","7552","NA","624","2","legacy","4","1024","2","48000","-16","experiment","1","odd","5","191873","194077","1481","172207","NA","190792","191871","1477","179760","NA","196079","192875","196703","96243","196079","Sternberg Task","15","12967","15","yes","1024"
"100","100","852.4375","852.4375","black","no","experiment","legacy","legacy","legacy","0","uniform","1","undefined","1","left","15","15","0","0","0","15","15","0","0","15","15","15","15","0","15","10/02/18 13:49:24","The main experiment item","yes","NA","SternbergTask.osexp","C:/Users/Anabel/Desktop","no","mono","no","18","no","white","no","yes","768","legacy","3","11","C:/Users/Anabel/Desktop/subject-1.csv","legacy","4 1 8 7 5","Jazzy James","3.1.9","3","y","0","left","left","left","NA","left","672","94761","7552","NA","672","2","legacy","5","1024","2","48000","-16","experiment","1","odd","8","197842","200046","1481","172207","NA","196758","197840","1477","179760","NA","202048","198844","202721","96243","202048","Sternberg Task","16","13639","16","yes","1024"
"100","100","870.058823529","870.058823529","black","no","experiment","legacy","legacy","legacy","0","uniform","1","undefined","1","left","16","16","0","0","0","16","16","0","0","16","16","16","16","0","16","10/02/18 13:49:24","The main experiment item","yes","NA","SternbergTask.osexp","C:/Users/Anabel/Desktop","no","mono","no","18","no","white","no","yes","768","legacy","4","11","C:/Users/Anabel/Desktop/subject-1.csv","legacy","7 4 2 6 3 5","Jazzy James","3.1.9","6","y","0","left","left","left","NA","left","1152","94761","7552","NA","1152","2","legacy","6","1024","2","48000","-16","experiment","1","odd","5","203847","206051","1481","172207","NA","202770","203845","1477","179760","NA","208053","204849","209206","96243","208053","Sternberg Task","17","14791","17","yes","1024"
"100","100","855.166666667","855.166666667","black","no","experiment","legacy","legacy","legacy","0","uniform","1","undefined","1","left","17","17","0","0","0","17","17","0","0","17","17","17","17","0","17","10/02/18 13:49:24","The main experiment item","yes","NA","SternbergTask.osexp","C:/Users/Anabel/Desktop","no","mono","no","18","no","white","no","yes","768","legacy","5","11","C:/Users/Anabel/Desktop/subject-1.csv","legacy","5 2 9 6 1 7","Jazzy James","3.1.9","3","y","0","left","left","left","NA","left","602","94761","7552","NA","602","2","legacy","6","1024","2","48000","-16","experiment","1","odd","9","210341","212545","1481","172207","NA","209258","210331","1477","179760","NA","214546","211343","215149","96243","214546","Sternberg Task","18","15393","18","yes","1024"
"100","100","834.631578947","834.631578947","black","no","experiment","legacy","legacy","legacy","0","uniform","1","undefined","1","left","18","18","0","0","0","18","18","0","0","18","18","18","18","0","18","10/02/18 13:49:24","The main experiment item","yes","NA","SternbergTask.osexp","C:/Users/Anabel/Desktop","no","mono","no","18","no","white","no","yes","768","legacy","6","11","C:/Users/Anabel/Desktop/subject-1.csv","legacy","2 3","Jazzy James","3.1.9","1","y","0","left","left","left","NA","left","465","94761","7552","NA","465","2","legacy","2","1024","2","48000","-16","experiment","1","odd","2","216288","218492","1481","172207","NA","215204","216286","1477","179760","NA","220494","217290","220960","96243","220494","Sternberg Task","19","15858","19","yes","1024"
"100","100","820.65","820.65","black","no","experiment","legacy","legacy","legacy","0","uniform","1","undefined","1","right","19","19","0","0","0","19","19","0","0","19","19","19","19","0","19","10/02/18 13:49:24","The main experiment item","yes","NA","SternbergTask.osexp","C:/Users/Anabel/Desktop","no","mono","no","18","no","white","no","yes","768","legacy","7","11","C:/Users/Anabel/Desktop/subject-1.csv","legacy","9 8 2 7 4","Jazzy James","3.1.9","0","n","0","right","left","left","NA","right","555","94761","7552","NA","555","2","legacy","5","1024","2","48000","-16","experiment","1","odd","5","222091","224295","1481","172207","NA","221015","222089","1477","179760","NA","226297","223093","226853","96243","226297","Sternberg Task","20","16413","20","yes","1024"
"100","100","820.571428571","820.571428571","black","no","experiment","legacy","legacy","legacy","0","uniform","1","undefined","1","left","20","20","0","0","0","20","20","0","0","20","20","20","20","0","20","10/02/18 13:49:24","The main experiment item","yes","NA","SternbergTask.osexp","C:/Users/Anabel/Desktop","no","mono","no","18","no","white","no","yes","768","legacy","8","11","C:/Users/Anabel/Desktop/subject-1.csv","legacy","7 1 8 5 6 2","Jazzy James","3.1.9","2","y","0","left","left","left","NA","left","819","94761","7552","NA","819","2","legacy","6","1024","2","48000","-16","experiment","1","odd","1","228049","230253","1481","172207","NA","226964","228047","1477","179760","NA","232255","229051","233075","96243","232255","Sternberg Task","21","17232","21","yes","1024"
"100","100","812.954545455","812.954545455","black","no","experiment","legacy","legacy","legacy","0","uniform","1","undefined","1","left","21","21","0","0","0","21","21","0","0","21","21","21","21","0","21","10/02/18 13:49:24","The main experiment item","yes","NA","SternbergTask.osexp","C:/Users/Anabel/Desktop","no","mono","no","18","no","white","no","yes","768","legacy","9","11","C:/Users/Anabel/Desktop/subject-1.csv","legacy","8 9 6 1","Jazzy James","3.1.9","2","y","0","left","left","left","NA","left","653","94761","7552","NA","653","2","legacy","4","1024","2","48000","-16","experiment","1","odd","9","234258","236462","1481","172207","NA","233170","234256","1477","179760","NA","238464","235260","239118","96243","238464","Sternberg Task","22","17885","22","yes","1024"
"100","100","801.869565217","801.869565217","black","no","experiment","legacy","legacy","legacy","0","uniform","1","undefined","1","left","22","22","0","0","0","22","22","0","0","22","22","22","22","0","22","10/02/18 13:49:24","The main experiment item","yes","NA","SternbergTask.osexp","C:/Users/Anabel/Desktop","no","mono","no","18","no","white","no","yes","768","legacy","10","11","C:/Users/Anabel/Desktop/subject-1.csv","legacy","8 5 1 3 9","Jazzy James","3.1.9","4","y","0","left","left","left","NA","left","558","94761","7552","NA","558","2","legacy","5","1024","2","48000","-16","experiment","1","odd","3","240256","242460","1481","172207","NA","239170","240254","1477","179760","NA","244462","241258","245021","96243","244462","Sternberg Task","23","18443","23","yes","1024"
"100","100","786.041666667","786.041666667","black","no","experiment","legacy","legacy","legacy","0","uniform","1","undefined","1","left","23","23","0","0","0","23","23","0","0","23","23","23","23","0","23","10/02/18 13:49:24","The main experiment item","yes","NA","SternbergTask.osexp","C:/Users/Anabel/Desktop","no","mono","no","18","no","white","no","yes","768","legacy","11","11","C:/Users/Anabel/Desktop/subject-1.csv","legacy","8","Jazzy James","3.1.9","1","y","0","left","left","left","NA","left","422","94761","7552","NA","422","2","legacy","1","1024","2","48000","-16","experiment","1","odd","8","246148","248353","1481","172207","NA","245071","246146","1477","179760","NA","250355","247151","250778","96243","250355","Sternberg Task","24","18865","24","yes","1024"
"100","100","773.08","773.08","black","no","experiment","legacy","legacy","legacy","0","uniform","1","undefined","1","left","24","24","0","0","0","24","24","0","0","24","24","24","24","0","24","10/02/18 13:49:24","The main experiment item","yes","NA","SternbergTask.osexp","C:/Users/Anabel/Desktop","no","mono","no","18","no","white","no","yes","768","legacy","12","11","C:/Users/Anabel/Desktop/subject-1.csv","legacy","7","Jazzy James","3.1.9","1","y","0","left","left","left","NA","left","462","94761","7552","NA","462","2","legacy","1","1024","2","48000","-16","experiment","1","odd","7","251904","254108","1481","172207","NA","250826","251902","1477","179760","NA","256110","252906","256573","96243","256110","Sternberg Task","25","19327","25","yes","1024"
"100","100","765.884615385","765.884615385","black","no","experiment","legacy","legacy","legacy","0","uniform","1","undefined","1","left","25","25","0","0","0","25","25","0","0","25","25","25","25","0","25","10/02/18 13:49:24","The main experiment item","yes","NA","SternbergTask.osexp","C:/Users/Anabel/Desktop","no","mono","no","18","no","white","no","yes","768","legacy","13","11","C:/Users/Anabel/Desktop/subject-1.csv","legacy","6 7 9 3 1 2","Jazzy James","3.1.9","1","y","0","left","left","left","NA","left","586","94761","7552","NA","586","2","legacy","6","1024","2","48000","-16","experiment","1","odd","6","257704","259908","1481","172207","NA","256626","257702","1477","179760","NA","261910","258706","262497","96243","261910","Sternberg Task","26","19913","26","yes","1024"
"100","100","765.444444444","765.444444444","black","no","experiment","legacy","legacy","legacy","0","uniform","1","undefined","1","left","26","26","0","0","0","26","26","0","0","26","26","26","26","0","26","10/02/18 13:49:24","The main experiment item","yes","NA","SternbergTask.osexp","C:/Users/Anabel/Desktop","no","mono","no","18","no","white","no","yes","768","legacy","14","11","C:/Users/Anabel/Desktop/subject-1.csv","legacy","8 1 6","Jazzy James","3.1.9","3","y","0","left","left","left","NA","left","754","94761","7552","NA","754","2","legacy","3","1024","2","48000","-16","experiment","1","odd","6","263630","265834","1481","172207","NA","262549","263628","1477","179760","NA","267836","264632","268591","96243","267836","Sternberg Task","27","20667","27","yes","1024"
"100","100","760.5","760.5","black","no","experiment","legacy","legacy","legacy","0","uniform","1","undefined","1","left","27","27","0","0","0","27","27","0","0","27","27","27","27","0","27","10/02/18 13:49:24","The main experiment item","yes","NA","SternbergTask.osexp","C:/Users/Anabel/Desktop","no","mono","no","18","no","white","no","yes","768","legacy","15","11","C:/Users/Anabel/Desktop/subject-1.csv","legacy","4 6 2 5 1","Jazzy James","3.1.9","5","y","0","left","left","left","NA","left","627","94761","7552","NA","627","2","legacy","5","1024","2","48000","-16","experiment","1","odd","1","269725","271929","1481","172207","NA","268648","269723","1477","179760","NA","273931","270727","274559","96243","273931","Sternberg Task","28","21294","28","yes","1024"
"100","100","752.896551724","752.896551724","black","no","experiment","legacy","legacy","legacy","0","uniform","1","undefined","1","left","28","28","0","0","0","28","28","0","0","28","28","28","28","0","28","10/02/18 13:49:24","The main experiment item","yes","NA","SternbergTask.osexp","C:/Users/Anabel/Desktop","no","mono","no","18","no","white","no","yes","768","legacy","16","11","C:/Users/Anabel/Desktop/subject-1.csv","legacy","7 2 3","Jazzy James","3.1.9","3","y","0","left","left","left","NA","left","540","94761","7552","NA","540","2","legacy","3","1024","2","48000","-16","experiment","1","odd","3","275694","277898","1481","172207","NA","274615","275692","1477","179760","NA","279900","276696","280441","96243","279900","Sternberg Task","29","21834","29","yes","1024"
"100","100","760.066666667","760.066666667","black","no","experiment","legacy","legacy","legacy","0","uniform","1","undefined","1","right","29","29","0","0","0","29","29","0","0","29","29","29","29","0","29","10/02/18 13:49:24","The main experiment item","yes","NA","SternbergTask.osexp","C:/Users/Anabel/Desktop","no","mono","no","18","no","white","no","yes","768","legacy","17","11","C:/Users/Anabel/Desktop/subject-1.csv","legacy","3 4 9 6 7 8","Jazzy James","3.1.9","0","n","0","right","left","left","NA","right","968","94761","7552","NA","968","2","legacy","6","1024","2","48000","-16","experiment","1","odd","2","281575","283779","1481","172207","NA","280493","281573","1477","179760","NA","285781","282577","286750","96243","285781","Sternberg Task","30","22802","30","yes","1024"
"100","100","764.161290323","764.161290323","black","no","experiment","legacy","legacy","legacy","0","uniform","1","undefined","1","right","30","30","0","0","0","30","30","0","0","30","30","30","30","0","30","10/02/18 13:49:24","The main experiment item","yes","NA","SternbergTask.osexp","C:/Users/Anabel/Desktop","no","mono","no","18","no","white","no","yes","768","legacy","18","11","C:/Users/Anabel/Desktop/subject-1.csv","legacy","6 9 7 3 8 2","Jazzy James","3.1.9","0","n","0","right","left","left","NA","right","887","94761","7552","NA","887","2","legacy","6","1024","2","48000","-16","experiment","1","odd","5","287879","290083","1481","172207","NA","286803","287877","1477","179760","NA","292085","288881","292974","96243","292085","Sternberg Task","31","23689","31","yes","1024"
"100","100","757.34375","757.34375","black","no","experiment","legacy","legacy","legacy","0","uniform","1","undefined","1","right","31","31","0","0","0","31","31","0","0","31","31","31","31","0","31","10/02/18 13:49:24","The main experiment item","yes","NA","SternbergTask.osexp","C:/Users/Anabel/Desktop","no","mono","no","18","no","white","no","yes","768","legacy","19","11","C:/Users/Anabel/Desktop/subject-1.csv","legacy","1 4 9 3","Jazzy James","3.1.9","0","n","0","right","left","left","NA","right","546","94761","7552","NA","546","2","legacy","4","1024","2","48000","-16","experiment","1","odd","5","294115","296320","1481","172207","NA","293037","294113","1477","179760","NA","298322","295118","298869","96243","298322","Sternberg Task","32","24235","32","yes","1024"
"100","100","752.363636364","752.363636364","black","no","experiment","legacy","legacy","legacy","0","uniform","1","undefined","1","left","32","32","0","0","0","32","32","0","0","32","32","32","32","0","32","10/02/18 13:49:24","The main experiment item","yes","NA","SternbergTask.osexp","C:/Users/Anabel/Desktop","no","mono","no","18","no","white","no","yes","768","legacy","20","11","C:/Users/Anabel/Desktop/subject-1.csv","legacy","4","Jazzy James","3.1.9","1","y","0","left","left","left","NA","left","593","94761","7552","NA","593","2","legacy","1","1024","2","48000","-16","experiment","1","odd","4","299993","302197","1481","172207","NA","298914","299991","1477","179760","NA","304199","300995","304793","96243","304199","Sternberg Task","33","24828","33","yes","1024"
"100","100","750.352941176","750.352941176","black","no","experiment","legacy","legacy","legacy","0","uniform","1","undefined","1","left","33","33","0","0","0","33","33","0","0","33","33","33","33","0","33","10/02/18 13:49:24","The main experiment item","yes","NA","SternbergTask.osexp","C:/Users/Anabel/Desktop","no","mono","no","18","no","white","no","yes","768","legacy","21","11","C:/Users/Anabel/Desktop/subject-1.csv","legacy","9 5 3 8 4","Jazzy James","3.1.9","1","y","0","left","left","left","NA","left","684","94761","7552","NA","684","2","legacy","5","1024","2","48000","-16","experiment","1","odd","9","305899","308104","1481","172207","NA","304814","305897","1477","179760","NA","310106","306902","310792","96243","310106","Sternberg Task","34","25512","34","yes","1024"
"100","100","747.114285714","747.114285714","black","no","experiment","legacy","legacy","legacy","0","uniform","1","undefined","1","left","34","34","0","0","0","34","34","0","0","34","34","34","34","0","34","10/02/18 13:49:24","The main experiment item","yes","NA","SternbergTask.osexp","C:/Users/Anabel/Desktop","no","mono","no","18","no","white","no","yes","768","legacy","22","11","C:/Users/Anabel/Desktop/subject-1.csv","legacy","3 5 7 1","Jazzy James","3.1.9","3","y","0","left","left","left","NA","left","637","94761","7552","NA","637","2","legacy","4","1024","2","48000","-16","experiment","1","odd","7","311930","314134","1481","172207","NA","310848","311928","1477","179760","NA","316136","312932","316774","96243","316136","Sternberg Task","35","26149","35","yes","1024"
"100","100","742.416666667","742.416666667","black","no","experiment","legacy","legacy","legacy","0","uniform","1","undefined","1","right","35","35","0","0","0","35","35","0","0","35","35","35","35","0","35","10/02/18 13:49:24","The main experiment item","yes","NA","SternbergTask.osexp","C:/Users/Anabel/Desktop","no","mono","no","18","no","white","no","yes","768","legacy","23","11","C:/Users/Anabel/Desktop/subject-1.csv","legacy","5 7 3","Jazzy James","3.1.9","0","n","0","right","left","left","NA","right","578","94761","7552","NA","578","2","legacy","3","1024","2","48000","-16","experiment","1","odd","9","317912","320116","1481","172207","NA","316837","317910","1477","179760","NA","322118","318914","322697","96243","322118","Sternberg Task","36","26727","36","yes","1024"
"100","100","749.756756757","749.756756757","black","no","experiment","legacy","legacy","legacy","0","uniform","1","undefined","1","right","36","36","0","0","0","36","36","0","0","36","36","36","36","0","36","10/02/18 13:49:24","The main experiment item","yes","NA","SternbergTask.osexp","C:/Users/Anabel/Desktop","no","mono","no","18","no","white","no","yes","768","legacy","24","11","C:/Users/Anabel/Desktop/subject-1.csv","legacy","7 1","Jazzy James","3.1.9","0","n","0","right","left","left","NA","right","1014","94761","7552","NA","1014","2","legacy","2","1024","2","48000","-16","experiment","1","odd","8","323823","326027","1481","172207","NA","322748","323821","1477","179760","NA","328029","324825","329044","96243","328029","Sternberg Task","37","27741","37","yes","1024"
"100","100","748.763157895","748.763157895","black","no","experiment","legacy","legacy","legacy","0","uniform","1","undefined","1","left","37","37","0","0","0","37","37","0","0","37","37","37","37","0","37","10/02/18 13:49:24","The main experiment item","yes","NA","SternbergTask.osexp","C:/Users/Anabel/Desktop","no","mono","no","18","no","white","no","yes","768","legacy","25","11","C:/Users/Anabel/Desktop/subject-1.csv","legacy","1 4 9 3 2 5","Jazzy James","3.1.9","3","y","0","left","left","left","NA","left","712","94761","7552","NA","712","2","legacy","6","1024","2","48000","-16","experiment","1","odd","9","330173","332377","1481","172207","NA","329093","330171","1477","179760","NA","334379","331175","335092","96243","334379","Sternberg Task","38","28453","38","yes","1024"
"100","100","749.615384615","749.615384615","black","no","experiment","legacy","legacy","legacy","0","uniform","1","undefined","1","left","38","38","0","0","0","38","38","0","0","38","38","38","38","0","38","10/02/18 13:49:24","The main experiment item","yes","NA","SternbergTask.osexp","C:/Users/Anabel/Desktop","no","mono","no","18","no","white","no","yes","768","legacy","26","11","C:/Users/Anabel/Desktop/subject-1.csv","legacy","4 9 7 8 5 3","Jazzy James","3.1.9","4","y","0","left","left","left","NA","left","782","94761","7552","NA","782","2","legacy","6","1024","2","48000","-16","experiment","1","odd","8","336210","338415","1481","172207","NA","335136","336208","1477","179760","NA","340417","337213","341200","96243","340417","Sternberg Task","39","29235","39","yes","1024"
"100","100","746.75","746.75","black","no","experiment","legacy","legacy","legacy","0","uniform","1","undefined","1","left","39","39","0","0","0","39","39","0","0","39","39","39","39","0","39","10/02/18 13:49:24","The main experiment item","yes","NA","SternbergTask.osexp","C:/Users/Anabel/Desktop","no","mono","no","18","no","white","no","yes","768","legacy","27","11","C:/Users/Anabel/Desktop/subject-1.csv","legacy","9 1 7 2","Jazzy James","3.1.9","2","y","0","left","left","left","NA","left","635","94761","7552","NA","635","2","legacy","4","1024","2","48000","-16","experiment","1","odd","1","342325","344530","1481","172207","NA","341249","342324","1477","179760","NA","346532","343328","347168","96243","346532","Sternberg Task","40","29870","40","yes","1024"
"100","100","748.12195122","748.12195122","black","no","experiment","legacy","legacy","legacy","0","uniform","1","undefined","1","right","40","40","0","0","0","40","40","0","0","40","40","40","40","0","40","10/02/18 13:49:24","The main experiment item","yes","NA","SternbergTask.osexp","C:/Users/Anabel/Desktop","no","mono","no","18","no","white","no","yes","768","legacy","28","11","C:/Users/Anabel/Desktop/subject-1.csv","legacy","9 5 3 2 8 6","Jazzy James","3.1.9","0","n","0","right","left","left","NA","right","803","94761","7552","NA","803","2","legacy","6","1024","2","48000","-16","experiment","1","odd","7","348277","350481","1481","172207","NA","347204","348275","1477","179760","NA","352483","349279","353287","96243","352483","Sternberg Task","41","30673","41","yes","1024"
"100","100","757.571428571","757.571428571","black","no","experiment","legacy","legacy","legacy","0","uniform","1","undefined","1","left","41","41","0","0","0","41","41","0","0","41","41","41","41","0","41","10/02/18 13:49:24","The main experiment item","yes","NA","SternbergTask.osexp","C:/Users/Anabel/Desktop","no","mono","no","18","no","white","no","yes","768","legacy","29","11","C:/Users/Anabel/Desktop/subject-1.csv","legacy","7 8 4 6 9 5","Jazzy James","3.1.9","4","y","0","left","left","left","NA","left","1145","94761","7552","NA","1145","2","legacy","6","1024","2","48000","-16","experiment","1","odd","6","354435","356639","1481","172207","NA","353348","354433","1477","179760","NA","358641","355437","359787","96243","358641","Sternberg Task","42","31818","42","yes","1024"
"100","100","760.348837209","760.348837209","black","no","experiment","legacy","legacy","legacy","0","uniform","1","undefined","1","right","42","42","0","0","0","42","42","0","0","42","42","42","42","0","42","10/02/18 13:49:24","The main experiment item","yes","NA","SternbergTask.osexp","C:/Users/Anabel/Desktop","no","mono","no","18","no","white","no","yes","768","legacy","30","11","C:/Users/Anabel/Desktop/subject-1.csv","legacy","8 5 7 3 6","Jazzy James","3.1.9","0","n","0","right","left","left","NA","right","877","94761","7552","NA","877","2","legacy","5","1024","2","48000","-16","experiment","1","odd","9","360940","363144","1481","172207","NA","359849","360935","1477","179760","NA","365146","361942","366024","96243","365146","Sternberg Task","43","32695","43","yes","1024"
"100","100","760.909090909","760.909090909","black","no","experiment","legacy","legacy","legacy","0","uniform","1","undefined","1","right","43","43","0","0","0","43","43","0","0","43","43","43","43","0","43","10/02/18 13:49:24","The main experiment item","yes","NA","SternbergTask.osexp","C:/Users/Anabel/Desktop","no","mono","no","18","no","white","no","yes","768","legacy","31","11","C:/Users/Anabel/Desktop/subject-1.csv","legacy","7 3 2 8","Jazzy James","3.1.9","0","n","0","right","left","left","NA","right","785","94761","7552","NA","785","2","legacy","4","1024","2","48000","-16","experiment","1","odd","4","367163","369367","1481","172207","NA","366082","367161","1477","179760","NA","371369","368165","372155","96243","371369","Sternberg Task","44","33480","44","yes","1024"
"100","100","754.355555556","754.355555556","black","no","experiment","legacy","legacy","legacy","0","uniform","1","undefined","1","left","44","44","0","0","0","44","44","0","0","44","44","44","44","0","44","10/02/18 13:49:24","The main experiment item","yes","NA","SternbergTask.osexp","C:/Users/Anabel/Desktop","no","mono","no","18","no","white","no","yes","768","legacy","32","11","C:/Users/Anabel/Desktop/subject-1.csv","legacy","9 1 6 7 8","Jazzy James","3.1.9","1","y","0","left","left","left","NA","left","466","94761","7552","NA","466","2","legacy","5","1024","2","48000","-16","experiment","1","odd","9","373316","375520","1481","172207","NA","372237","373314","1477","179760","NA","377522","374318","377989","96243","377522","Sternberg Task","45","33946","45","yes","1024"
"100","100","753.891304348","753.891304348","black","no","experiment","legacy","legacy","legacy","0","uniform","1","undefined","1","right","45","45","0","0","0","45","45","0","0","45","45","45","45","0","45","10/02/18 13:49:24","The main experiment item","yes","NA","SternbergTask.osexp","C:/Users/Anabel/Desktop","no","mono","no","18","no","white","no","yes","768","legacy","33","11","C:/Users/Anabel/Desktop/subject-1.csv","legacy","6 9 4 5 2","Jazzy James","3.1.9","0","n","0","right","left","left","NA","right","733","94761","7552","NA","733","2","legacy","5","1024","2","48000","-16","experiment","1","odd","1","379130","381334","1481","172207","NA","378047","379128","1477","179760","NA","383336","380132","384071","96243","383336","Sternberg Task","46","34679","46","yes","1024"
"100","100","747.936170213","747.936170213","black","no","experiment","legacy","legacy","legacy","0","uniform","1","undefined","1","left","46","46","0","0","0","46","46","0","0","46","46","46","46","0","46","10/02/18 13:49:24","The main experiment item","yes","NA","SternbergTask.osexp","C:/Users/Anabel/Desktop","no","mono","no","18","no","white","no","yes","768","legacy","34","11","C:/Users/Anabel/Desktop/subject-1.csv","legacy","2 4 8 5 1 3","Jazzy James","3.1.9","1","y","0","left","left","left","NA","left","474","94761","7552","NA","474","2","legacy","6","1024","2","48000","-16","experiment","1","odd","2","385220","387424","1481","172207","NA","384136","385218","1477","179760","NA","389426","386222","389902","96243","389426","Sternberg Task","47","35153","47","yes","1024"
"100","100","751.354166667","751.354166667","black","no","experiment","legacy","legacy","legacy","0","uniform","1","undefined","1","left","47","47","0","0","0","47","47","0","0","47","47","47","47","0","47","10/02/18 13:49:24","The main experiment item","yes","NA","SternbergTask.osexp","C:/Users/Anabel/Desktop","no","mono","no","18","no","white","no","yes","768","legacy","35","11","C:/Users/Anabel/Desktop/subject-1.csv","legacy","8 5 4 7 3 1","Jazzy James","3.1.9","2","y","0","left","left","left","NA","left","912","94761","7552","NA","912","2","legacy","6","1024","2","48000","-16","experiment","1","odd","5","391041","393245","1481","172207","NA","389959","391039","1477","179760","NA","395246","392043","396160","96243","395246","Sternberg Task","48","36065","48","yes","1024"
"100","100","747.244897959","747.244897959","black","no","experiment","legacy","legacy","legacy","0","uniform","1","undefined","1","left","48","48","0","0","0","48","48","0","0","48","48","48","48","0","48","10/02/18 13:49:24","The main experiment item","yes","NA","SternbergTask.osexp","C:/Users/Anabel/Desktop","no","mono","no","18","no","white","no","yes","768","legacy","36","11","C:/Users/Anabel/Desktop/subject-1.csv","legacy","4 1 5","Jazzy James","3.1.9","2","y","0","left","left","left","NA","left","550","94761","7552","NA","550","2","legacy","3","1024","2","48000","-16","experiment","1","odd","1","397316","399520","1481","172207","NA","396237","397314","1477","179760","NA","401522","398318","402073","96243","401522","Sternberg Task","49","36615","49","yes","1024"
"100","100","745.68","745.68","black","no","experiment","legacy","legacy","legacy","0","uniform","1","undefined","1","right","49","49","0","0","0","49","49","0","0","49","49","49","49","0","49","10/02/18 13:49:24","The main experiment item","yes","NA","SternbergTask.osexp","C:/Users/Anabel/Desktop","no","mono","no","18","no","white","no","yes","768","legacy","37","11","C:/Users/Anabel/Desktop/subject-1.csv","legacy","7 9","Jazzy James","3.1.9","0","n","0","right","left","left","NA","right","669","94761","7552","NA","669","2","legacy","2","1024","2","48000","-16","experiment","1","odd","1","403219","405423","1481","172207","NA","402137","403217","1477","179760","NA","407425","404221","408096","96243","407425","Sternberg Task","50","37284","50","yes","1024"
"100","100","743.549019608","743.549019608","black","no","experiment","legacy","legacy","legacy","0","uniform","1","undefined","1","left","50","50","0","0","0","50","50","0","0","50","50","50","50","0","50","10/02/18 13:49:24","The main experiment item","yes","NA","SternbergTask.osexp","C:/Users/Anabel/Desktop","no","mono","no","18","no","white","no","yes","768","legacy","38","11","C:/Users/Anabel/Desktop/subject-1.csv","legacy","3 2 1 4 7","Jazzy James","3.1.9","2","y","0","left","left","left","NA","left","637","94761","7552","NA","637","2","legacy","5","1024","2","48000","-16","experiment","1","odd","2","409211","411415","1481","172207","NA","408148","409209","1477","179760","NA","413417","410213","414055","96243","413417","Sternberg Task","51","37921","51","yes","1024"
"100","100","741.826923077","741.826923077","black","no","experiment","legacy","legacy","legacy","0","uniform","1","undefined","1","right","51","51","0","0","0","51","51","0","0","51","51","51","51","0","51","10/02/18 13:49:24","The main experiment item","yes","NA","SternbergTask.osexp","C:/Users/Anabel/Desktop","no","mono","no","18","no","white","no","yes","768","legacy","39","11","C:/Users/Anabel/Desktop/subject-1.csv","legacy","1 7 5 2","Jazzy James","3.1.9","0","n","0","right","left","left","NA","right","654","94761","7552","NA","654","2","legacy","4","1024","2","48000","-16","experiment","1","odd","3","415194","417398","1481","172207","NA","414114","415192","1477","179760","NA","419400","416196","420055","96243","419400","Sternberg Task","52","38575","52","yes","1024"
"100","100","738.528301887","738.528301887","black","no","experiment","legacy","legacy","legacy","0","uniform","1","undefined","1","right","52","52","0","0","0","52","52","0","0","52","52","52","52","0","52","10/02/18 13:49:24","The main experiment item","yes","NA","SternbergTask.osexp","C:/Users/Anabel/Desktop","no","mono","no","18","no","white","no","yes","768","legacy","40","11","C:/Users/Anabel/Desktop/subject-1.csv","legacy","2 6 4 3 9","Jazzy James","3.1.9","0","n","0","right","left","left","NA","right","567","94761","7552","NA","567","2","legacy","5","1024","2","48000","-16","experiment","1","odd","1","421195","423399","1481","172207","NA","420116","421193","1477","179760","NA","425401","422197","425969","96243","425401","Sternberg Task","53","39142","53","yes","1024"
"100","100","737.296296296","737.296296296","black","no","experiment","legacy","legacy","legacy","0","uniform","1","undefined","1","left","53","53","0","0","0","53","53","0","0","53","53","53","53","0","53","10/02/18 13:49:24","The main experiment item","yes","NA","SternbergTask.osexp","C:/Users/Anabel/Desktop","no","mono","no","18","no","white","no","yes","768","legacy","41","11","C:/Users/Anabel/Desktop/subject-1.csv","legacy","9 8 4","Jazzy James","3.1.9","1","y","0","left","left","left","NA","left","672","94761","7552","NA","672","2","legacy","3","1024","2","48000","-16","experiment","1","odd","9","427080","429284","1481","172207","NA","426004","427078","1477","179760","NA","431286","428082","431960","96243","431286","Sternberg Task","54","39814","54","yes","1024"
"100","100","735.181818182","735.181818182","black","no","experiment","legacy","legacy","legacy","0","uniform","1","undefined","1","right","54","54","0","0","0","54","54","0","0","54","54","54","54","0","54","10/02/18 13:49:24","The main experiment item","yes","NA","SternbergTask.osexp","C:/Users/Anabel/Desktop","no","mono","no","18","no","white","no","yes","768","legacy","42","11","C:/Users/Anabel/Desktop/subject-1.csv","legacy","1 3 2 6 9","Jazzy James","3.1.9","0","n","0","right","left","left","NA","right","621","94761","7552","NA","621","2","legacy","5","1024","2","48000","-16","experiment","1","odd","5","433098","435302","1481","172207","NA","432015","433096","1477","179760","NA","437304","434100","437926","96243","437304","Sternberg Task","55","40435","55","yes","1024"
"100","100","730.339285714","730.339285714","black","no","experiment","legacy","legacy","legacy","0","uniform","1","undefined","1","left","55","55","0","0","0","55","55","0","0","55","55","55","55","0","55","10/02/18 13:49:24","The main experiment item","yes","NA","SternbergTask.osexp","C:/Users/Anabel/Desktop","no","mono","no","18","no","white","no","yes","768","legacy","43","11","C:/Users/Anabel/Desktop/subject-1.csv","legacy","5 2 6","Jazzy James","3.1.9","2","y","0","left","left","left","NA","left","464","94761","7552","NA","464","2","legacy","3","1024","2","48000","-16","experiment","1","odd","2","439067","441271","1481","172207","NA","437982","439065","1477","179760","NA","443273","440069","443738","96243","443273","Sternberg Task","56","40899","56","yes","1024"
"100","100","725.192982456","725.192982456","black","no","experiment","legacy","legacy","legacy","0","uniform","1","undefined","1","left","56","56","0","0","0","56","56","0","0","56","56","56","56","0","56","10/02/18 13:49:24","The main experiment item","yes","NA","SternbergTask.osexp","C:/Users/Anabel/Desktop","no","mono","no","18","no","white","no","yes","768","legacy","44","11","C:/Users/Anabel/Desktop/subject-1.csv","legacy","2 6 1 7 4","Jazzy James","3.1.9","2","y","0","left","left","left","NA","left","437","94761","7552","NA","437","2","legacy","5","1024","2","48000","-16","experiment","1","odd","6","444869","447073","1481","172207","NA","443793","444867","1477","179760","NA","449075","445871","449513","96243","449075","Sternberg Task","57","41336","57","yes","1024"
"100","100","721.672413793","721.672413793","black","no","experiment","legacy","legacy","legacy","0","uniform","1","undefined","1","left","57","57","0","0","0","57","57","0","0","57","57","57","57","0","57","10/02/18 13:49:24","The main experiment item","yes","NA","SternbergTask.osexp","C:/Users/Anabel/Desktop","no","mono","no","18","no","white","no","yes","768","legacy","45","11","C:/Users/Anabel/Desktop/subject-1.csv","legacy","3 9 7 6 4","Jazzy James","3.1.9","3","y","0","left","left","left","NA","left","521","94761","7552","NA","521","2","legacy","5","1024","2","48000","-16","experiment","1","odd","7","450652","452856","1481","172207","NA","449571","450650","1477","179760","NA","454858","451654","455381","96243","454858","Sternberg Task","58","41857","58","yes","1024"
"100","100","720.254237288","720.254237288","black","no","experiment","legacy","legacy","legacy","0","uniform","1","undefined","1","left","58","58","0","0","0","58","58","0","0","58","58","58","58","0","58","10/02/18 13:49:24","The main experiment item","yes","NA","SternbergTask.osexp","C:/Users/Anabel/Desktop","no","mono","no","18","no","white","no","yes","768","legacy","46","11","C:/Users/Anabel/Desktop/subject-1.csv","legacy","6 7 8 5","Jazzy James","3.1.9","3","y","0","left","left","left","NA","left","638","94761","7552","NA","638","2","legacy","4","1024","2","48000","-16","experiment","1","odd","8","456499","458703","1481","172207","NA","455415","456497","1477","179760","NA","460705","457501","461345","96243","460705","Sternberg Task","59","42495","59","yes","1024"
"100","100","717.95","717.95","black","no","experiment","legacy","legacy","legacy","0","uniform","1","undefined","1","right","59","59","0","0","0","59","59","0","0","59","59","59","59","0","59","10/02/18 13:49:24","The main experiment item","yes","NA","SternbergTask.osexp","C:/Users/Anabel/Desktop","no","mono","no","18","no","white","no","yes","768","legacy","47","11","C:/Users/Anabel/Desktop/subject-1.csv","legacy","1 7 5 2 9","Jazzy James","3.1.9","0","n","0","right","left","left","NA","right","582","94761","7552","NA","582","2","legacy","5","1024","2","48000","-16","experiment","1","odd","3","462480","464684","1481","172207","NA","461404","462478","1477","179760","NA","466686","463482","467270","96243","466686","Sternberg Task","60","43077","60","yes","1024"
"100","100","714.901639344","714.901639344","black","no","experiment","legacy","legacy","legacy","0","uniform","1","undefined","1","right","60","60","0","0","0","60","60","0","0","60","60","60","60","0","60","10/02/18 13:49:24","The main experiment item","yes","NA","SternbergTask.osexp","C:/Users/Anabel/Desktop","no","mono","no","18","no","white","no","yes","768","legacy","48","11","C:/Users/Anabel/Desktop/subject-1.csv","legacy","4 1","Jazzy James","3.1.9","0","n","0","right","left","left","NA","right","532","94761","7552","NA","532","2","legacy","2","1024","2","48000","-16","experiment","1","odd","6","468410","470614","1481","172207","NA","467326","468408","1477","179760","NA","472616","469412","473150","96243","472616","Sternberg Task","61","43609","61","yes","1024"
"100","100","715.467741935","715.467741935","black","no","experiment","legacy","legacy","legacy","0","uniform","1","undefined","1","left","61","61","0","0","0","61","61","0","0","61","61","61","61","0","61","10/02/18 13:49:24","The main experiment item","yes","NA","SternbergTask.osexp","C:/Users/Anabel/Desktop","no","mono","no","18","no","white","no","yes","768","legacy","49","11","C:/Users/Anabel/Desktop/subject-1.csv","legacy","8 5 3 7 4 6","Jazzy James","3.1.9","6","y","0","left","left","left","NA","left","750","94761","7552","NA","750","2","legacy","6","1024","2","48000","-16","experiment","1","odd","6","474287","476491","1481","172207","NA","473203","474285","1477","179760","NA","478493","475289","479245","96243","478493","Sternberg Task","62","44359","62","yes","1024"
"100","100","715.285714286","715.285714286","black","no","experiment","legacy","legacy","legacy","0","uniform","1","undefined","1","right","62","62","0","0","0","62","62","0","0","62","62","62","62","0","62","10/02/18 13:49:24","The main experiment item","yes","NA","SternbergTask.osexp","C:/Users/Anabel/Desktop","no","mono","no","18","no","white","no","yes","768","legacy","50","11","C:/Users/Anabel/Desktop/subject-1.csv","legacy","6 2 9 3 8 4","Jazzy James","3.1.9","0","n","0","right","left","left","NA","right","704","94761","7552","NA","704","2","legacy","6","1024","2","48000","-16","experiment","1","odd","1","480415","482619","1481","172207","NA","479338","480413","1477","179760","NA","484621","481417","485327","96243","484621","Sternberg Task","63","45063","63","yes","1024"
"100","100","713.8125","713.8125","black","no","experiment","legacy","legacy","legacy","0","uniform","1","undefined","1","left","63","63","0","0","0","63","63","0","0","63","63","63","63","0","63","10/02/18 13:49:24","The main experiment item","yes","NA","SternbergTask.osexp","C:/Users/Anabel/Desktop","no","mono","no","18","no","white","no","yes","768","legacy","51","11","C:/Users/Anabel/Desktop/subject-1.csv","legacy","2 4 6 9","Jazzy James","3.1.9","3","y","0","left","left","left","NA","left","621","94761","7552","NA","621","2","legacy","4","1024","2","48000","-16","experiment","1","odd","6","486466","488670","1481","172207","NA","485382","486464","1477","179760","NA","490672","487468","491294","96243","490672","Sternberg Task","64","45684","64","yes","1024"
"100","100","711.369230769","711.369230769","black","no","experiment","legacy","legacy","legacy","0","uniform","1","undefined","1","left","64","64","0","0","0","64","64","0","0","64","64","64","64","0","64","10/02/18 13:49:24","The main experiment item","yes","NA","SternbergTask.osexp","C:/Users/Anabel/Desktop","no","mono","no","18","no","white","no","yes","768","legacy","52","11","C:/Users/Anabel/Desktop/subject-1.csv","legacy","6 5","Jazzy James","3.1.9","2","y","0","left","left","left","NA","left","555","94761","7552","NA","555","2","legacy","2","1024","2","48000","-16","experiment","1","odd","5","492423","494627","1481","172207","NA","491349","492421","1477","179760","NA","496629","493425","497185","96243","496629","Sternberg Task","65","46239","65","yes","1024"
"100","100","707.984848485","707.984848485","black","no","experiment","legacy","legacy","legacy","0","uniform","1","undefined","1","right","65","65","0","0","0","65","65","0","0","65","65","65","65","0","65","10/02/18 13:49:24","The main experiment item","yes","NA","SternbergTask.osexp","C:/Users/Anabel/Desktop","no","mono","no","18","no","white","no","yes","768","legacy","53","11","C:/Users/Anabel/Desktop/subject-1.csv","legacy","5","Jazzy James","3.1.9","0","n","0","right","left","left","NA","right","488","94761","7552","NA","488","2","legacy","1","1024","2","48000","-16","experiment","1","odd","8","498325","500528","1481","172207","NA","497249","498323","1477","179760","NA","502530","499327","503019","96243","502530","Sternberg Task","66","46727","66","yes","1024"
"100","100","706.388059701","706.388059701","black","no","experiment","legacy","legacy","legacy","0","uniform","1","undefined","1","right","66","66","0","0","0","66","66","0","0","66","66","66","66","0","66","10/02/18 13:49:24","The main experiment item","yes","NA","SternbergTask.osexp","C:/Users/Anabel/Desktop","no","mono","no","18","no","white","no","yes","768","legacy","54","11","C:/Users/Anabel/Desktop/subject-1.csv","legacy","2 3 8 5 6 7","Jazzy James","3.1.9","0","n","0","right","left","left","NA","right","601","94761","7552","NA","601","2","legacy","6","1024","2","48000","-16","experiment","1","odd","1","504167","506371","1481","172207","NA","503082","504165","1477","179760","NA","508373","505169","508976","96243","508373","Sternberg Task","67","47328","67","yes","1024"
"100","100","706.779411765","706.779411765","black","no","experiment","legacy","legacy","legacy","0","uniform","1","undefined","1","right","67","67","0","0","0","67","67","0","0","67","67","67","67","0","67","10/02/18 13:49:24","The main experiment item","yes","NA","SternbergTask.osexp","C:/Users/Anabel/Desktop","no","mono","no","18","no","white","no","yes","768","legacy","55","11","C:/Users/Anabel/Desktop/subject-1.csv","legacy","5 3 8 7 2 4","Jazzy James","3.1.9","0","n","0","right","left","left","NA","right","733","94761","7552","NA","733","2","legacy","6","1024","2","48000","-16","experiment","1","odd","9","510089","512293","1481","172207","NA","509014","510087","1477","179760","NA","514295","511091","515030","96243","514295","Sternberg Task","68","48061","68","yes","1024"
"100","100","703.623188406","703.623188406","black","no","experiment","legacy","legacy","legacy","0","uniform","1","undefined","1","right","68","68","0","0","0","68","68","0","0","68","68","68","68","0","68","10/02/18 13:49:24","The main experiment item","yes","NA","SternbergTask.osexp","C:/Users/Anabel/Desktop","no","mono","no","18","no","white","no","yes","768","legacy","56","11","C:/Users/Anabel/Desktop/subject-1.csv","legacy","1 8 7","Jazzy James","3.1.9","0","n","0","right","left","left","NA","right","489","94761","7552","NA","489","2","legacy","3","1024","2","48000","-16","experiment","1","odd","4","516173","518378","1481","172207","NA","515093","516172","1477","179760","NA","520380","517176","520871","96243","520380","Sternberg Task","69","48550","69","yes","1024"
"100","100","701.7","701.7","black","no","experiment","legacy","legacy","legacy","0","uniform","1","undefined","1","left","69","69","0","0","0","69","69","0","0","69","69","69","69","0","69","10/02/18 13:49:24","The main experiment item","yes","NA","SternbergTask.osexp","C:/Users/Anabel/Desktop","no","mono","no","18","no","white","no","yes","768","legacy","57","11","C:/Users/Anabel/Desktop/subject-1.csv","legacy","2 8 5 1","Jazzy James","3.1.9","4","y","0","left","left","left","NA","left","569","94761","7552","NA","569","2","legacy","4","1024","2","48000","-16","experiment","1","odd","1","522001","524205","1481","172207","NA","520927","522000","1477","179760","NA","526207","523003","526778","96243","526207","Sternberg Task","70","49119","70","yes","1024"
"100","100","700.408450704","700.408450704","black","no","experiment","legacy","legacy","legacy","0","uniform","1","undefined","1","left","70","70","0","0","0","70","70","0","0","70","70","70","70","0","70","10/02/18 13:49:24","The main experiment item","yes","NA","SternbergTask.osexp","C:/Users/Anabel/Desktop","no","mono","no","18","no","white","no","yes","768","legacy","58","11","C:/Users/Anabel/Desktop/subject-1.csv","legacy","8 9 5 7 1 6","Jazzy James","3.1.9","4","y","0","left","left","left","NA","left","610","94761","7552","NA","610","2","legacy","6","1024","2","48000","-16","experiment","1","odd","7","527913","530117","1481","172207","NA","526837","527911","1477","179760","NA","532119","528915","532730","96243","532119","Sternberg Task","71","49729","71","yes","1024"
"100","100","699.236111111","699.236111111","black","no","experiment","legacy","legacy","legacy","0","uniform","1","undefined","1","right","71","71","0","0","0","71","71","0","0","71","71","71","71","0","71","10/02/18 13:49:24","The main experiment item","yes","NA","SternbergTask.osexp","C:/Users/Anabel/Desktop","no","mono","no","18","no","white","no","yes","768","legacy","59","11","C:/Users/Anabel/Desktop/subject-1.csv","legacy","1 5 3 2 8","Jazzy James","3.1.9","0","n","0","right","left","left","NA","right","616","94761","7552","NA","616","2","legacy","5","1024","2","48000","-16","experiment","1","odd","4","533874","536078","1481","172207","NA","532792","533872","1477","179760","NA","538080","534876","538698","96243","538080","Sternberg Task","72","50345","72","yes","1024"
"98.6301369863","98.6301369863","699.849315068","699.849315068","black","no","experiment","legacy","legacy","legacy","0","uniform","0","undefined","0","left","72","72","0","0","0","72","72","0","0","72","72","72","72","0","72","10/02/18 13:49:24","The main experiment item","yes","NA","SternbergTask.osexp","C:/Users/Anabel/Desktop","no","mono","no","18","no","white","no","yes","768","legacy","60","11","C:/Users/Anabel/Desktop/subject-1.csv","legacy","7 8 6 3 1","Jazzy James","3.1.9","5","y","0","right","left","left","NA","right","744","94761","7552","NA","744","2","legacy","5","1024","2","48000","-16","experiment","1","odd","1","539844","542048","1481","172207","NA","538760","539842","1477","179760","NA","544050","540846","544796","96243","544050","Sternberg Task","72","51089","73","yes","1024"
"98.6486486486","98.6486486486","696.540540541","696.540540541","black","no","experiment","legacy","legacy","legacy","0","uniform","1","undefined","1","right","73","73","0","0","0","73","73","0","0","73","73","73","73","0","73","10/02/18 13:49:24","The main experiment item","yes","NA","SternbergTask.osexp","C:/Users/Anabel/Desktop","no","mono","no","18","no","white","no","yes","768","legacy","61","11","C:/Users/Anabel/Desktop/subject-1.csv","legacy","2 7 5","Jazzy James","3.1.9","0","n","0","right","left","left","NA","right","455","94761","7552","NA","455","2","legacy","3","1024","2","48000","-16","experiment","1","odd","8","545905","548109","1481","172207","NA","538760","545902","1477","179760","544825","550111","546907","550568","96243","550111","Sternberg Task","73","51544","74","yes","1024"
"98.6666666667","98.6666666667","695.186666667","695.186666667","black","no","experiment","legacy","legacy","legacy","0","uniform","1","undefined","1","left","74","74","0","0","0","74","74","0","0","74","74","74","74","0","74","10/02/18 13:49:24","The main experiment item","yes","NA","SternbergTask.osexp","C:/Users/Anabel/Desktop","no","mono","no","18","no","white","no","yes","768","legacy","62","11","C:/Users/Anabel/Desktop/subject-1.csv","legacy","4 3 2 5 8","Jazzy James","3.1.9","2","y","0","left","left","left","NA","left","595","94761","7552","NA","595","2","legacy","5","1024","2","48000","-16","experiment","1","odd","3","551702","553906","1481","172207","NA","550626","551700","1477","179760","544825","555908","552704","556504","96243","555908","Sternberg Task","74","52139","75","yes","1024"
"98.6842105263","98.6842105263","697.065789474","697.065789474","black","no","experiment","legacy","legacy","legacy","0","uniform","1","undefined","1","right","75","75","0","0","0","75","75","0","0","75","75","75","75","0","75","10/02/18 13:49:24","The main experiment item","yes","NA","SternbergTask.osexp","C:/Users/Anabel/Desktop","no","mono","no","18","no","white","no","yes","768","legacy","63","11","C:/Users/Anabel/Desktop/subject-1.csv","legacy","8 6 3 4 7","Jazzy James","3.1.9","0","n","0","right","left","left","NA","right","838","94761","7552","NA","838","2","legacy","5","1024","2","48000","-16","experiment","1","odd","1","557638","559842","1481","172207","NA","556560","557636","1477","179760","544825","561844","558640","562683","96243","561844","Sternberg Task","75","52977","76","yes","1024"
"98.7012987013","98.7012987013","697.415584416","697.415584416","black","no","experiment","legacy","legacy","legacy","0","uniform","1","undefined","1","right","76","76","0","0","0","76","76","0","0","76","76","76","76","0","76","10/02/18 13:49:24","The main experiment item","yes","NA","SternbergTask.osexp","C:/Users/Anabel/Desktop","no","mono","no","18","no","white","no","yes","768","legacy","64","11","C:/Users/Anabel/Desktop/subject-1.csv","legacy","5 3 2 6 9 8","Jazzy James","3.1.9","0","n","0","right","left","left","NA","right","724","94761","7552","NA","724","2","legacy","6","1024","2","48000","-16","experiment","1","odd","4","563816","566020","1481","172207","NA","562738","563814","1477","179760","544825","568022","564818","568748","96243","568022","Sternberg Task","76","53701","77","yes","1024"
"98.7179487179","98.7179487179","696.153846154","696.153846154","black","no","experiment","legacy","legacy","legacy","0","uniform","1","undefined","1","right","77","77","0","0","0","77","77","0","0","77","77","77","77","0","77","10/02/18 13:49:24","The main experiment item","yes","NA","SternbergTask.osexp","C:/Users/Anabel/Desktop","no","mono","no","18","no","white","no","yes","768","legacy","65","11","C:/Users/Anabel/Desktop/subject-1.csv","legacy","7 1 5 6 3","Jazzy James","3.1.9","0","n","0","right","left","left","NA","right","599","94761","7552","NA","599","2","legacy","5","1024","2","48000","-16","experiment","1","odd","8","569904","572108","1481","172207","NA","568826","569902","1477","179760","544825","574110","570906","574710","96243","574110","Sternberg Task","77","54300","78","yes","1024"
"98.7341772152","98.7341772152","696.253164557","696.253164557","black","no","experiment","legacy","legacy","legacy","0","uniform","1","undefined","1","right","78","78","0","0","0","78","78","0","0","78","78","78","78","0","78","10/02/18 13:49:24","The main experiment item","yes","NA","SternbergTask.osexp","C:/Users/Anabel/Desktop","no","mono","no","18","no","white","no","yes","768","legacy","66","11","C:/Users/Anabel/Desktop/subject-1.csv","legacy","1 7 8 3 9","Jazzy James","3.1.9","0","n","0","right","left","left","NA","right","704","94761","7552","NA","704","2","legacy","5","1024","2","48000","-16","experiment","1","odd","2","575848","578052","1481","172207","NA","574771","575846","1477","179760","544825","580054","576850","580760","96243","580054","Sternberg Task","78","55004","79","yes","1024"
"98.75","98.75","695.4125","695.4125","black","no","experiment","legacy","legacy","legacy","0","uniform","1","undefined","1","right","79","79","0","0","0","79","79","0","0","79","79","79","79","0","79","10/02/18 13:49:24","The main experiment item","yes","NA","SternbergTask.osexp","C:/Users/Anabel/Desktop","no","mono","no","18","no","white","no","yes","768","legacy","67","11","C:/Users/Anabel/Desktop/subject-1.csv","legacy","6 8","Jazzy James","3.1.9","0","n","0","right","left","left","NA","right","629","94761","7552","NA","629","2","legacy","2","1024","2","48000","-16","experiment","1","odd","9","581905","584109","1481","172207","NA","580826","581903","1477","179760","544825","586111","582907","586742","96243","586111","Sternberg Task","79","55633","80","yes","1024"
"98.7654320988","98.7654320988","694.024691358","694.024691358","black","no","experiment","legacy","legacy","legacy","0","uniform","1","undefined","1","right","80","80","0","0","0","80","80","0","0","80","80","80","80","0","80","10/02/18 13:49:24","The main experiment item","yes","NA","SternbergTask.osexp","C:/Users/Anabel/Desktop","no","mono","no","18","no","white","no","yes","768","legacy","68","11","C:/Users/Anabel/Desktop/subject-1.csv","legacy","6 9 4 5 3 2","Jazzy James","3.1.9","0","n","0","right","left","left","NA","right","583","94761","7552","NA","583","2","legacy","6","1024","2","48000","-16","experiment","1","odd","8","587906","590110","1481","172207","NA","586826","587904","1477","179760","544825","592112","588908","592696","96243","592112","Sternberg Task","80","56216","81","yes","1024"
"98.7804878049","98.7804878049","693.841463415","693.841463415","black","no","experiment","legacy","legacy","legacy","0","uniform","1","undefined","1","right","81","81","0","0","0","81","81","0","0","81","81","81","81","0","81","10/02/18 13:49:24","The main experiment item","yes","NA","SternbergTask.osexp","C:/Users/Anabel/Desktop","no","mono","no","18","no","white","no","yes","768","legacy","69","11","C:/Users/Anabel/Desktop/subject-1.csv","legacy","8 2 1 4 5 9","Jazzy James","3.1.9","0","n","0","right","left","left","NA","right","679","94761","7552","NA","679","2","legacy","6","1024","2","48000","-16","experiment","1","odd","7","593835","596039","1481","172207","NA","592748","593833","1477","179760","544825","598041","594837","598721","96243","598041","Sternberg Task","81","56895","82","yes","1024"
"98.7951807229","98.7951807229","693.012048193","693.012048193","black","no","experiment","legacy","legacy","legacy","0","uniform","1","undefined","1","right","82","82","0","0","0","82","82","0","0","82","82","82","82","0","82","10/02/18 13:49:24","The main experiment item","yes","NA","SternbergTask.osexp","C:/Users/Anabel/Desktop","no","mono","no","18","no","white","no","yes","768","legacy","70","11","C:/Users/Anabel/Desktop/subject-1.csv","legacy","7 8 6 1","Jazzy James","3.1.9","0","n","0","right","left","left","NA","right","625","94761","7552","NA","625","2","legacy","4","1024","2","48000","-16","experiment","1","odd","3","599873","602077","1481","172207","NA","598793","599871","1477","179760","544825","604079","600875","604707","96243","604079","Sternberg Task","82","57520","83","yes","1024"
"98.8095238095","98.8095238095","692","692","black","no","experiment","legacy","legacy","legacy","0","uniform","1","undefined","1","right","83","83","0","0","0","83","83","0","0","83","83","83","83","0","83","10/02/18 13:49:24","The main experiment item","yes","NA","SternbergTask.osexp","C:/Users/Anabel/Desktop","no","mono","no","18","no","white","no","yes","768","legacy","71","11","C:/Users/Anabel/Desktop/subject-1.csv","legacy","7 9 1 6","Jazzy James","3.1.9","0","n","0","right","left","left","NA","right","608","94761","7552","NA","608","2","legacy","4","1024","2","48000","-16","experiment","1","odd","4","605842","608046","1481","172207","NA","604759","605840","1477","179760","544825","610048","606844","610658","96243","610048","Sternberg Task","83","58128","84","yes","1024"
"98.8235294118","98.8235294118","691.682352941","691.682352941","black","no","experiment","legacy","legacy","legacy","0","uniform","1","undefined","1","left","84","84","0","0","0","84","84","0","0","84","84","84","84","0","84","10/02/18 13:49:24","The main experiment item","yes","NA","SternbergTask.osexp","C:/Users/Anabel/Desktop","no","mono","no","18","no","white","no","yes","768","legacy","72","11","C:/Users/Anabel/Desktop/subject-1.csv","legacy","3 4","Jazzy James","3.1.9","1","y","0","left","left","left","NA","left","665","94761","7552","NA","665","2","legacy","2","1024","2","48000","-16","experiment","1","odd","3","611790","613994","1481","172207","NA","610715","611788","1477","179760","544825","615996","612792","616662","96243","615996","Sternberg Task","84","58793","85","yes","1024"
"98.8372093023","98.8372093023","690.139534884","690.139534884","black","no","experiment","legacy","legacy","legacy","0","uniform","1","undefined","1","right","85","85","0","0","0","85","85","0","0","85","85","85","85","0","85","10/02/18 13:49:24","The main experiment item","yes","NA","SternbergTask.osexp","C:/Users/Anabel/Desktop","no","mono","no","18","no","white","no","yes","768","legacy","73","11","C:/Users/Anabel/Desktop/subject-1.csv","legacy","3 9 1","Jazzy James","3.1.9","0","n","0","right","left","left","NA","right","559","94761","7552","NA","559","2","legacy","3","1024","2","48000","-16","experiment","1","odd","7","617791","619995","1481","172207","NA","616715","617789","1477","179760","544825","621997","618793","622558","96243","621997","Sternberg Task","85","59352","86","yes","1024"
"98.8505747126","98.8505747126","688.045977011","688.045977011","black","no","experiment","legacy","legacy","legacy","0","uniform","1","undefined","1","right","86","86","0","0","0","86","86","0","0","86","86","86","86","0","86","10/02/18 13:49:24","The main experiment item","yes","NA","SternbergTask.osexp","C:/Users/Anabel/Desktop","no","mono","no","18","no","white","no","yes","768","legacy","74","11","C:/Users/Anabel/Desktop/subject-1.csv","legacy","1","Jazzy James","3.1.9","0","n","0","right","left","left","NA","right","508","94761","7552","NA","508","2","legacy","1","1024","2","48000","-16","experiment","1","odd","7","623693","625897","1481","172207","NA","622615","623691","1477","179760","544825","627899","624695","628409","96243","627899","Sternberg Task","86","59860","87","yes","1024"
"98.8636363636","98.8636363636","687.204545455","687.204545455","black","no","experiment","legacy","legacy","legacy","0","uniform","1","undefined","1","left","87","87","0","0","0","87","87","0","0","87","87","87","87","0","87","10/02/18 13:49:24","The main experiment item","yes","NA","SternbergTask.osexp","C:/Users/Anabel/Desktop","no","mono","no","18","no","white","no","yes","768","legacy","75","11","C:/Users/Anabel/Desktop/subject-1.csv","legacy","7 1 3","Jazzy James","3.1.9","2","y","0","left","left","left","NA","left","614","94761","7552","NA","614","2","legacy","3","1024","2","48000","-16","experiment","1","odd","1","629551","631755","1481","172207","NA","628460","629546","1477","179760","544825","633757","630553","634373","96243","633757","Sternberg Task","87","60474","88","yes","1024"
"98.8764044944","98.8764044944","691.078651685","691.078651685","black","no","experiment","legacy","legacy","legacy","0","uniform","1","undefined","1","left","88","88","0","0","0","88","88","0","0","88","88","88","88","0","88","10/02/18 13:49:24","The main experiment item","yes","NA","SternbergTask.osexp","C:/Users/Anabel/Desktop","no","mono","no","18","no","white","no","yes","768","legacy","76","11","C:/Users/Anabel/Desktop/subject-1.csv","legacy","8 7 3","Jazzy James","3.1.9","1","y","0","left","left","left","NA","left","1032","94761","7552","NA","1032","2","legacy","3","1024","2","48000","-16","experiment","1","odd","8","635508","637712","1481","172207","NA","634426","635506","1477","179760","544825","639714","636510","640748","96243","639714","Sternberg Task","88","61506","89","yes","1024"
"98.8888888889","98.8888888889","689.244444444","689.244444444","black","no","experiment","legacy","legacy","legacy","0","uniform","1","undefined","1","right","89","89","0","0","0","89","89","0","0","89","89","89","89","0","89","10/02/18 13:49:24","The main experiment item","yes","NA","SternbergTask.osexp","C:/Users/Anabel/Desktop","no","mono","no","18","no","white","no","yes","768","legacy","77","11","C:/Users/Anabel/Desktop/subject-1.csv","legacy","4 8 1 2","Jazzy James","3.1.9","0","n","0","right","left","left","NA","right","526","94761","7552","NA","526","2","legacy","4","1024","2","48000","-16","experiment","1","odd","7","641879","644083","1481","172207","NA","640804","641877","1477","179760","544825","646085","642881","646613","96243","646085","Sternberg Task","89","62032","90","yes","1024"
"98.9010989011","98.9010989011","688.274725275","688.274725275","black","no","experiment","legacy","legacy","legacy","0","uniform","1","undefined","1","right","90","90","0","0","0","90","90","0","0","90","90","90","90","0","90","10/02/18 13:49:24","The main experiment item","yes","NA","SternbergTask.osexp","C:/Users/Anabel/Desktop","no","mono","no","18","no","white","no","yes","768","legacy","78","11","C:/Users/Anabel/Desktop/subject-1.csv","legacy","7 1 8 4 9 3","Jazzy James","3.1.9","0","n","0","right","left","left","NA","right","601","94761","7552","NA","601","2","legacy","6","1024","2","48000","-16","experiment","1","odd","6","647753","649957","1481","172207","NA","646671","647751","1477","179760","544825","651959","648755","652562","96243","651959","Sternberg Task","90","62633","91","yes","1024"
"98.9130434783","98.9130434783","686.119565217","686.119565217","black","no","experiment","legacy","legacy","legacy","0","uniform","1","undefined","1","left","91","91","0","0","0","91","91","0","0","91","91","91","91","0","91","10/02/18 13:49:24","The main experiment item","yes","NA","SternbergTask.osexp","C:/Users/Anabel/Desktop","no","mono","no","18","no","white","no","yes","768","legacy","79","11","C:/Users/Anabel/Desktop/subject-1.csv","legacy","8 3","Jazzy James","3.1.9","2","y","0","left","left","left","NA","left","490","94761","7552","NA","490","2","legacy","2","1024","2","48000","-16","experiment","1","odd","3","653694","655898","1481","172207","NA","652616","653692","1477","179760","544825","657900","654696","658392","96243","657900","Sternberg Task","91","63123","92","yes","1024"
"98.9247311828","98.9247311828","685.548387097","685.548387097","black","no","experiment","legacy","legacy","legacy","0","uniform","1","undefined","1","left","92","92","0","0","0","92","92","0","0","92","92","92","92","0","92","10/02/18 13:49:24","The main experiment item","yes","NA","SternbergTask.osexp","C:/Users/Anabel/Desktop","no","mono","no","18","no","white","no","yes","768","legacy","80","11","C:/Users/Anabel/Desktop/subject-1.csv","legacy","3 9 6 2","Jazzy James","3.1.9","4","y","0","left","left","left","NA","left","633","94761","7552","NA","633","2","legacy","4","1024","2","48000","-16","experiment","1","odd","2","659535","661739","1481","172207","NA","658449","659533","1477","179760","544825","663741","660537","664375","96243","663741","Sternberg Task","92","63756","93","yes","1024"
"98.9361702128","98.9361702128","683.446808511","683.446808511","black","no","experiment","legacy","legacy","legacy","0","uniform","1","undefined","1","left","93","93","0","0","0","93","93","0","0","93","93","93","93","0","93","10/02/18 13:49:24","The main experiment item","yes","NA","SternbergTask.osexp","C:/Users/Anabel/Desktop","no","mono","no","18","no","white","no","yes","768","legacy","81","11","C:/Users/Anabel/Desktop/subject-1.csv","legacy","3 5 9 6 2 4","Jazzy James","3.1.9","1","y","0","left","left","left","NA","left","488","94761","7552","NA","488","2","legacy","6","1024","2","48000","-16","experiment","1","odd","3","665511","667715","1481","172207","NA","664427","665509","1477","179760","544825","669717","666513","670207","96243","669717","Sternberg Task","93","64244","94","yes","1024"
"98.9473684211","98.9473684211","683.789473684","683.789473684","black","no","experiment","legacy","legacy","legacy","0","uniform","1","undefined","1","right","94","94","0","0","0","94","94","0","0","94","94","94","94","0","94","10/02/18 13:49:24","The main experiment item","yes","NA","SternbergTask.osexp","C:/Users/Anabel/Desktop","no","mono","no","18","no","white","no","yes","768","legacy","82","11","C:/Users/Anabel/Desktop/subject-1.csv","legacy","2 8 9 4 1","Jazzy James","3.1.9","0","n","0","right","left","left","NA","right","716","94761","7552","NA","716","2","legacy","5","1024","2","48000","-16","experiment","1","odd","5","671312","673516","1481","172207","NA","670238","671310","1477","179760","544825","675518","672314","676236","96243","675518","Sternberg Task","94","64960","95","yes","1024"
"98.9583333333","98.9583333333","682.614583333","682.614583333","black","no","experiment","legacy","legacy","legacy","0","uniform","1","undefined","1","right","95","95","0","0","0","95","95","0","0","95","95","95","95","0","95","10/02/18 13:49:24","The main experiment item","yes","NA","SternbergTask.osexp","C:/Users/Anabel/Desktop","no","mono","no","18","no","white","no","yes","768","legacy","83","11","C:/Users/Anabel/Desktop/subject-1.csv","legacy","7 4 2 8 1 9","Jazzy James","3.1.9","0","n","0","right","left","left","NA","right","571","94761","7552","NA","571","2","legacy","6","1024","2","48000","-16","experiment","1","odd","5","677357","679561","1481","172207","NA","676271","677355","1477","179760","544825","681563","678359","682136","96243","681563","Sternberg Task","95","65531","96","yes","1024"
"98.9690721649","98.9690721649","681.701030928","681.701030928","black","no","experiment","legacy","legacy","legacy","0","uniform","1","undefined","1","left","96","96","0","0","0","96","96","0","0","96","96","96","96","0","96","10/02/18 13:49:24","The main experiment item","yes","NA","SternbergTask.osexp","C:/Users/Anabel/Desktop","no","mono","no","18","no","white","no","yes","768","legacy","84","11","C:/Users/Anabel/Desktop/subject-1.csv","legacy","6 9 7 4 5 1","Jazzy James","3.1.9","2","y","0","left","left","left","NA","left","594","94761","7552","NA","594","2","legacy","6","1024","2","48000","-16","experiment","1","odd","9","683274","685478","1481","172207","NA","682194","683272","1477","179760","544825","687480","684276","688075","96243","687480","Sternberg Task","96","66125","97","yes","1024"
"98.9795918367","98.9795918367","680.846938776","680.846938776","black","no","experiment","legacy","legacy","legacy","0","uniform","1","undefined","1","left","97","97","0","0","0","97","97","0","0","97","97","97","97","0","97","10/02/18 13:49:24","The main experiment item","yes","NA","SternbergTask.osexp","C:/Users/Anabel/Desktop","no","mono","no","18","no","white","no","yes","768","legacy","85","11","C:/Users/Anabel/Desktop/subject-1.csv","legacy","3 4 9 6 2 9","Jazzy James","3.1.9","5","y","0","left","left","left","NA","left","598","94761","7552","NA","598","2","legacy","6","1024","2","48000","-16","experiment","1","odd","2","689210","691414","1481","172207","NA","688127","689208","1477","179760","544825","693416","690212","694016","96243","693416","Sternberg Task","97","66723","98","yes","1024"
"98.9898989899","98.9898989899","682.050505051","682.050505051","black","no","experiment","legacy","legacy","legacy","0","uniform","1","undefined","1","right","98","98","0","0","0","98","98","0","0","98","98","98","98","0","98","10/02/18 13:49:24","The main experiment item","yes","NA","SternbergTask.osexp","C:/Users/Anabel/Desktop","no","mono","no","18","no","white","no","yes","768","legacy","86","11","C:/Users/Anabel/Desktop/subject-1.csv","legacy","8 5 4 2 9 6","Jazzy James","3.1.9","0","n","0","right","left","left","NA","right","800","94761","7552","NA","800","2","legacy","6","1024","2","48000","-16","experiment","1","odd","3","695152","697356","1481","172207","NA","694070","695150","1477","179760","544825","699358","696154","700160","96243","699358","Sternberg Task","98","67523","99","yes","1024"
"99","99","680.8","680.8","black","no","experiment","legacy","legacy","legacy","0","uniform","1","undefined","1","right","99","99","0","0","0","99","99","0","0","99","99","99","99","0","99","10/02/18 13:49:24","The main experiment item","yes","NA","SternbergTask.osexp","C:/Users/Anabel/Desktop","no","mono","no","18","no","white","no","yes","768","legacy","87","11","C:/Users/Anabel/Desktop/subject-1.csv","legacy","6 9 5","Jazzy James","3.1.9","0","n","0","right","left","left","NA","right","557","94761","7552","NA","557","2","legacy","3","1024","2","48000","-16","experiment","1","odd","8","701268","703472","1481","172207","NA","700182","701266","1477","179760","544825","705474","702270","706033","96243","705474","Sternberg Task","99","68080","100","yes","1024"
"99.0099009901","99.0099009901","679.712871287","679.712871287","black","no","experiment","legacy","legacy","legacy","0","uniform","1","undefined","1","left","100","100","0","0","0","100","100","0","0","100","100","100","100","0","100","10/02/18 13:49:24","The main experiment item","yes","NA","SternbergTask.osexp","C:/Users/Anabel/Desktop","no","mono","no","18","no","white","no","yes","768","legacy","88","11","C:/Users/Anabel/Desktop/subject-1.csv","legacy","4 7 6 8 2 3","Jazzy James","3.1.9","6","y","0","left","left","left","NA","left","571","94761","7552","NA","571","2","legacy","6","1024","2","48000","-16","experiment","1","odd","3","707147","709351","1481","172207","NA","706059","707145","1477","179760","544825","711353","708149","711926","96243","711353","Sternberg Task","100","68651","101","yes","1024"
"99.0196078431","99.0196078431","678.735294118","678.735294118","black","no","experiment","legacy","legacy","legacy","0","uniform","1","undefined","1","left","101","101","0","0","0","101","101","0","0","101","101","101","101","0","101","10/02/18 13:49:24","The main experiment item","yes","NA","SternbergTask.osexp","C:/Users/Anabel/Desktop","no","mono","no","18","no","white","no","yes","768","legacy","89","11","C:/Users/Anabel/Desktop/subject-1.csv","legacy","2 5 4 8 7","Jazzy James","3.1.9","3","y","0","left","left","left","NA","left","580","94761","7552","NA","580","2","legacy","5","1024","2","48000","-16","experiment","1","odd","4","713063","715267","1481","172207","NA","711982","713061","1477","179760","544825","717269","714065","717851","96243","717269","Sternberg Task","101","69231","102","yes","1024"
"99.0291262136","99.0291262136","677.029126214","677.029126214","black","no","experiment","legacy","legacy","legacy","0","uniform","1","undefined","1","right","102","102","0","0","0","102","102","0","0","102","102","102","102","0","102","10/02/18 13:49:24","The main experiment item","yes","NA","SternbergTask.osexp","C:/Users/Anabel/Desktop","no","mono","no","18","no","white","no","yes","768","legacy","90","11","C:/Users/Anabel/Desktop/subject-1.csv","legacy","3 4 2","Jazzy James","3.1.9","0","n","0","right","left","left","NA","right","503","94761","7552","NA","503","2","legacy","3","1024","2","48000","-16","experiment","1","odd","5","718980","721184","1481","172207","NA","717904","718978","1477","179760","544825","723186","719982","723691","96243","723186","Sternberg Task","102","69734","103","yes","1024"
"99.0384615385","99.0384615385","676.711538462","676.711538462","black","no","experiment","legacy","legacy","legacy","0","uniform","1","undefined","1","right","103","103","0","0","0","103","103","0","0","103","103","103","103","0","103","10/02/18 13:49:24","The main experiment item","yes","NA","SternbergTask.osexp","C:/Users/Anabel/Desktop","no","mono","no","18","no","white","no","yes","768","legacy","91","11","C:/Users/Anabel/Desktop/subject-1.csv","legacy","5 2","Jazzy James","3.1.9","0","n","0","right","left","left","NA","right","644","94761","7552","NA","644","2","legacy","2","1024","2","48000","-16","experiment","1","odd","7","724800","727004","1481","172207","NA","723725","724798","1477","179760","544825","729006","725802","729652","96243","729006","Sternberg Task","103","70378","104","yes","1024"
"99.0476190476","99.0476190476","676.552380952","676.552380952","black","no","experiment","legacy","legacy","legacy","0","uniform","1","undefined","1","right","104","104","0","0","0","104","104","0","0","104","104","104","104","0","104","10/02/18 13:49:24","The main experiment item","yes","NA","SternbergTask.osexp","C:/Users/Anabel/Desktop","no","mono","no","18","no","white","no","yes","768","legacy","92","11","C:/Users/Anabel/Desktop/subject-1.csv","legacy","6 3 1 7 9 8","Jazzy James","3.1.9","0","n","0","right","left","left","NA","right","660","94761","7552","NA","660","2","legacy","6","1024","2","48000","-16","experiment","1","odd","4","730788","732992","1481","172207","NA","729704","730786","1477","179760","544825","734994","731790","735656","96243","734994","Sternberg Task","104","71038","105","yes","1024"
"99.0566037736","99.0566037736","676.452830189","676.452830189","black","no","experiment","legacy","legacy","legacy","0","uniform","1","undefined","1","left","105","105","0","0","0","105","105","0","0","105","105","105","105","0","105","10/02/18 13:49:24","The main experiment item","yes","NA","SternbergTask.osexp","C:/Users/Anabel/Desktop","no","mono","no","18","no","white","no","yes","768","legacy","93","11","C:/Users/Anabel/Desktop/subject-1.csv","legacy","9 4 2","Jazzy James","3.1.9","1","y","0","left","left","left","NA","left","666","94761","7552","NA","666","2","legacy","3","1024","2","48000","-16","experiment","1","odd","9","736789","738993","1481","172207","NA","735704","736787","1477","179760","544825","740995","737791","741663","96243","740995","Sternberg Task","105","71704","106","yes","1024"
"99.0654205607","99.0654205607","677.457943925","677.457943925","black","no","experiment","legacy","legacy","legacy","0","uniform","1","undefined","1","right","106","106","0","0","0","106","106","0","0","106","106","106","106","0","106","10/02/18 13:49:24","The main experiment item","yes","NA","SternbergTask.osexp","C:/Users/Anabel/Desktop","no","mono","no","18","no","white","no","yes","768","legacy","94","11","C:/Users/Anabel/Desktop/subject-1.csv","legacy","2 8 7 9 5 3","Jazzy James","3.1.9","0","n","0","right","left","left","NA","right","784","94761","7552","NA","784","2","legacy","6","1024","2","48000","-16","experiment","1","odd","6","742795","744999","1481","172207","NA","741716","742793","1477","179760","544825","747001","743797","747787","96243","747001","Sternberg Task","106","72488","107","yes","1024"
"99.0740740741","99.0740740741","676.740740741","676.740740741","black","no","experiment","legacy","legacy","legacy","0","uniform","1","undefined","1","right","107","107","0","0","0","107","107","0","0","107","107","107","107","0","107","10/02/18 13:49:24","The main experiment item","yes","NA","SternbergTask.osexp","C:/Users/Anabel/Desktop","no","mono","no","18","no","white","no","yes","768","legacy","95","11","C:/Users/Anabel/Desktop/subject-1.csv","legacy","2 8 6 3 1","Jazzy James","3.1.9","0","n","0","right","left","left","NA","right","600","94761","7552","NA","600","2","legacy","5","1024","2","48000","-16","experiment","1","odd","7","748890","751093","1481","172207","NA","747814","748888","1477","179760","544825","753095","749892","753696","96243","753095","Sternberg Task","107","73088","108","yes","1024"
"99.0825688073","99.0825688073","679.633027523","679.633027523","black","no","experiment","legacy","legacy","legacy","0","uniform","1","undefined","1","right","108","108","0","0","0","108","108","0","0","108","108","108","108","0","108","10/02/18 13:49:24","The main experiment item","yes","NA","SternbergTask.osexp","C:/Users/Anabel/Desktop","no","mono","no","18","no","white","no","yes","768","legacy","96","11","C:/Users/Anabel/Desktop/subject-1.csv","legacy","1 4 9 2 5","Jazzy James","3.1.9","0","n","0","right","left","left","NA","right","992","94761","7552","NA","992","2","legacy","5","1024","2","48000","-16","experiment","1","odd","7","754846","757050","1481","172207","NA","753760","754844","1477","179760","544825","759052","755848","760046","96243","759052","Sternberg Task","108","74080","109","yes","1024"
"99.0909090909","99.0909090909","679.909090909","679.909090909","black","no","experiment","legacy","legacy","legacy","0","uniform","1","undefined","1","right","109","109","0","0","0","109","109","0","0","109","109","109","109","0","109","10/02/18 13:49:24","The main experiment item","yes","NA","SternbergTask.osexp","C:/Users/Anabel/Desktop","no","mono","no","18","no","white","no","yes","768","legacy","97","11","C:/Users/Anabel/Desktop/subject-1.csv","legacy","9","Jazzy James","3.1.9","0","n","0","right","left","left","NA","right","710","94761","7552","NA","710","2","legacy","1","1024","2","48000","-16","experiment","1","odd","6","761177","763381","1481","172207","NA","760093","761175","1477","179760","544825","765383","762179","766095","96243","765383","Sternberg Task","109","74790","110","yes","1024"
"99.0990990991","99.0990990991","679.927927928","679.927927928","black","no","experiment","legacy","legacy","legacy","0","uniform","1","undefined","1","left","110","110","0","0","0","110","110","0","0","110","110","110","110","0","110","10/02/18 13:49:24","The main experiment item","yes","NA","SternbergTask.osexp","C:/Users/Anabel/Desktop","no","mono","no","18","no","white","no","yes","768","legacy","98","11","C:/Users/Anabel/Desktop/subject-1.csv","legacy","5 7 8 2 3 8","Jazzy James","3.1.9","5","y","0","left","left","left","NA","left","682","94761","7552","NA","682","2","legacy","6","1024","2","48000","-16","experiment","1","odd","3","767235","769439","1481","172207","NA","766149","767233","1477","179760","544825","771441","768237","772125","96243","771441","Sternberg Task","110","75472","111","yes","1024"
"99.1071428571","99.1071428571","679.553571429","679.553571429","black","no","experiment","legacy","legacy","legacy","0","uniform","1","undefined","1","left","111","111","0","0","0","111","111","0","0","111","111","111","111","0","111","10/02/18 13:49:24","The main experiment item","yes","NA","SternbergTask.osexp","C:/Users/Anabel/Desktop","no","mono","no","18","no","white","no","yes","768","legacy","99","11","C:/Users/Anabel/Desktop/subject-1.csv","legacy","4 6 5 8","Jazzy James","3.1.9","1","y","0","left","left","left","NA","left","638","94761","7552","NA","638","2","legacy","4","1024","2","48000","-16","experiment","1","odd","4","773248","775452","1481","172207","NA","772171","773246","1477","179760","544825","777454","774250","778095","96243","777454","Sternberg Task","111","76110","112","yes","1024"
"99.1150442478","99.1150442478","679.079646018","679.079646018","black","no","experiment","legacy","legacy","legacy","0","uniform","1","undefined","1","right","112","112","0","0","0","112","112","0","0","112","112","112","112","0","112","10/02/18 13:49:24","The main experiment item","yes","NA","SternbergTask.osexp","C:/Users/Anabel/Desktop","no","mono","no","18","no","white","no","yes","768","legacy","100","11","C:/Users/Anabel/Desktop/subject-1.csv","legacy","8 4 3 9","Jazzy James","3.1.9","0","n","0","right","left","left","NA","right","626","94761","7552","NA","626","2","legacy","4","1024","2","48000","-16","experiment","1","odd","5","779235","781439","1481","172207","NA","778149","779233","1477","179760","544825","783441","780237","784069","96243","783441","Sternberg Task","112","76736","113","yes","1024"
"99.1228070175","99.1228070175","678.912280702","678.912280702","black","no","experiment","legacy","legacy","legacy","0","uniform","1","undefined","1","left","113","113","0","0","0","113","113","0","0","113","113","113","113","0","113","10/02/18 13:49:24","The main experiment item","yes","NA","SternbergTask.osexp","C:/Users/Anabel/Desktop","no","mono","no","18","no","white","no","yes","768","legacy","101","11","C:/Users/Anabel/Desktop/subject-1.csv","legacy","9 6 2 4 1","Jazzy James","3.1.9","4","y","0","left","left","left","NA","left","660","94761","7552","NA","660","2","legacy","5","1024","2","48000","-16","experiment","1","odd","4","785185","787389","1481","172207","NA","784104","785183","1477","179760","544825","789391","786187","790053","96243","789391","Sternberg Task","113","77396","114","yes","1024"
"99.1304347826","99.1304347826","677.895652174","677.895652174","black","no","experiment","legacy","legacy","legacy","0","uniform","1","undefined","1","right","114","114","0","0","0","114","114","0","0","114","114","114","114","0","114","10/02/18 13:49:24","The main experiment item","yes","NA","SternbergTask.osexp","C:/Users/Anabel/Desktop","no","mono","no","18","no","white","no","yes","768","legacy","102","11","C:/Users/Anabel/Desktop/subject-1.csv","legacy","5 9 2 3","Jazzy James","3.1.9","0","n","0","right","left","left","NA","right","562","94761","7552","NA","562","2","legacy","4","1024","2","48000","-16","experiment","1","odd","8","791184","793388","1481","172207","NA","790105","791182","1477","179760","544825","795390","792186","795954","96243","795390","Sternberg Task","114","77958","115","yes","1024"
"99.1379310345","99.1379310345","678.896551724","678.896551724","black","no","experiment","legacy","legacy","legacy","0","uniform","1","undefined","1","right","115","115","0","0","0","115","115","0","0","115","115","115","115","0","115","10/02/18 13:49:24","The main experiment item","yes","NA","SternbergTask.osexp","C:/Users/Anabel/Desktop","no","mono","no","18","no","white","no","yes","768","legacy","103","11","C:/Users/Anabel/Desktop/subject-1.csv","legacy","6 7 5 9","Jazzy James","3.1.9","0","n","0","right","left","left","NA","right","794","94761","7552","NA","794","2","legacy","4","1024","2","48000","-16","experiment","1","odd","2","797087","799291","1481","172207","NA","796004","797085","1477","179760","544825","801293","798089","802089","96243","801293","Sternberg Task","115","78752","116","yes","1024"
"99.1452991453","99.1452991453","677.991452991","677.991452991","black","no","experiment","legacy","legacy","legacy","0","uniform","1","undefined","1","right","116","116","0","0","0","116","116","0","0","116","116","116","116","0","116","10/02/18 13:49:24","The main experiment item","yes","NA","SternbergTask.osexp","C:/Users/Anabel/Desktop","no","mono","no","18","no","white","no","yes","768","legacy","104","11","C:/Users/Anabel/Desktop/subject-1.csv","legacy","4 2 7 6 1 3","Jazzy James","3.1.9","0","n","0","right","left","left","NA","right","573","94761","7552","NA","573","2","legacy","6","1024","2","48000","-16","experiment","1","odd","8","803216","805420","1481","172207","NA","802138","803214","1477","179760","544825","807422","804218","807997","96243","807422","Sternberg Task","116","79325","117","yes","1024"
"99.1525423729","99.1525423729","685.059322034","685.059322034","black","no","experiment","legacy","legacy","legacy","0","uniform","1","undefined","1","left","117","117","0","0","0","117","117","0","0","117","117","117","117","0","117","10/02/18 13:49:24","The main experiment item","yes","NA","SternbergTask.osexp","C:/Users/Anabel/Desktop","no","mono","no","18","no","white","no","yes","768","legacy","105","11","C:/Users/Anabel/Desktop/subject-1.csv","legacy","8 9 5 6 7","Jazzy James","3.1.9","1","y","0","left","left","left","NA","left","1512","94761","7552","NA","1512","2","legacy","5","1024","2","48000","-16","experiment","1","odd","8","809127","811331","1481","172207","NA","808050","809125","1477","179760","544825","813333","810129","814847","96243","813333","Sternberg Task","117","80837","118","yes","1024"
"99.1596638655","99.1596638655","684.630252101","684.630252101","black","no","experiment","legacy","legacy","legacy","0","uniform","1","undefined","1","left","118","118","0","0","0","118","118","0","0","118","118","118","118","0","118","10/02/18 13:49:24","The main experiment item","yes","NA","SternbergTask.osexp","C:/Users/Anabel/Desktop","no","mono","no","18","no","white","no","yes","768","legacy","106","11","C:/Users/Anabel/Desktop/subject-1.csv","legacy","6 9 3 1","Jazzy James","3.1.9","4","y","0","left","left","left","NA","left","634","94761","7552","NA","634","2","legacy","4","1024","2","48000","-16","experiment","1","odd","1","815996","818200","1481","172207","NA","814915","815994","1477","179760","544825","820202","816998","820838","96243","820202","Sternberg Task","118","81471","119","yes","1024"
"99.1666666667","99.1666666667","683.875","683.875","black","no","experiment","legacy","legacy","legacy","0","uniform","1","undefined","1","right","119","119","0","0","0","119","119","0","0","119","119","119","119","0","119","10/02/18 13:49:24","The main experiment item","yes","NA","SternbergTask.osexp","C:/Users/Anabel/Desktop","no","mono","no","18","no","white","no","yes","768","legacy","107","11","C:/Users/Anabel/Desktop/subject-1.csv","legacy","8 9","Jazzy James","3.1.9","0","n","0","right","left","left","NA","right","594","94761","7552","NA","594","2","legacy","2","1024","2","48000","-16","experiment","1","odd","5","821988","824192","1481","172207","NA","820904","821986","1477","179760","544825","826194","822990","826790","96243","826194","Sternberg Task","119","82065","120","yes","1024"
"99.173553719","99.173553719","682.67768595","682.67768595","black","no","experiment","legacy","legacy","legacy","0","uniform","1","undefined","1","right","120","120","0","0","0","120","120","0","0","120","120","120","120","0","120","10/02/18 13:49:24","The main experiment item","yes","NA","SternbergTask.osexp","C:/Users/Anabel/Desktop","no","mono","no","18","no","white","no","yes","768","legacy","108","11","C:/Users/Anabel/Desktop/subject-1.csv","legacy","8 4 3 5","Jazzy James","3.1.9","0","n","0","right","left","left","NA","right","539","94761","7552","NA","539","2","legacy","4","1024","2","48000","-16","experiment","1","odd","6","827913","830117","1481","172207","NA","826838","827911","1477","179760","544825","832119","828915","832660","96243","832119","Sternberg Task","120","82604","121","yes","1024"
"99.1803278689","99.1803278689","690.409836066","690.409836066","black","no","experiment","legacy","legacy","legacy","0","uniform","1","undefined","1","right","121","121","0","0","0","121","121","0","0","121","121","121","121","0","121","10/02/18 13:49:24","The main experiment item","yes","NA","SternbergTask.osexp","C:/Users/Anabel/Desktop","no","mono","no","18","no","white","no","yes","768","legacy","109","11","C:/Users/Anabel/Desktop/subject-1.csv","legacy","9 7 4 5 8","Jazzy James","3.1.9","0","n","0","right","left","left","NA","right","1626","94761","7552","NA","1626","2","legacy","5","1024","2","48000","-16","experiment","1","odd","6","833791","835995","1481","172207","NA","832716","833789","1477","179760","544825","837997","834793","839625","96243","837997","Sternberg Task","121","84230","122","yes","1024"
"99.1869918699","99.1869918699","689.56097561","689.56097561","black","no","experiment","legacy","legacy","legacy","0","uniform","1","undefined","1","right","122","122","0","0","0","122","122","0","0","122","122","122","122","0","122","10/02/18 13:49:24","The main experiment item","yes","NA","SternbergTask.osexp","C:/Users/Anabel/Desktop","no","mono","no","18","no","white","no","yes","768","legacy","110","11","C:/Users/Anabel/Desktop/subject-1.csv","legacy","3 9 8 1 6 4","Jazzy James","3.1.9","0","n","0","right","left","left","NA","right","586","94761","7552","NA","586","2","legacy","6","1024","2","48000","-16","experiment","1","odd","7","840748","842952","1481","172207","NA","839671","840746","1477","179760","544825","844954","841750","845542","96243","844954","Sternberg Task","122","84816","123","yes","1024"
"99.1935483871","99.1935483871","689.217741935","689.217741935","black","no","experiment","legacy","legacy","legacy","0","uniform","1","undefined","1","left","123","123","0","0","0","123","123","0","0","123","123","123","123","0","123","10/02/18 13:49:24","The main experiment item","yes","NA","SternbergTask.osexp","C:/Users/Anabel/Desktop","no","mono","no","18","no","white","no","yes","768","legacy","111","11","C:/Users/Anabel/Desktop/subject-1.csv","legacy","7 6","Jazzy James","3.1.9","2","y","0","left","left","left","NA","left","647","94761","7552","NA","647","2","legacy","2","1024","2","48000","-16","experiment","1","odd","6","846677","848881","1481","172207","NA","845593","846675","1477","179760","544825","850883","847679","851532","96243","850883","Sternberg Task","123","85463","124","yes","1024"
