"acc","accuracy","average_response_time","avg_rt","background","block","canvas_backend","clock_backend","color_backend","compensation","coordinates","correct","correct_instruction1","correct_keyboardResponse","correct_response","count_ISI","count_Practiceloop","count_correctFeedback","count_expSequence","count_experiment","count_experimentLoop","count_fixation","count_incorrect","count_instruction1","count_instructions2","count_keyboardResponse","count_logger","count_memorySet","count_probe","count_thankYou","datetime","description","disable_garbage_collection","experiment_file","experiment_path","font_bold","font_family","font_italic","font_size","font_underline","foreground","form_clicks","fullscreen","height","keyboard_backend","live_row","live_row_Practiceloop","logfile","mouse_backend","numberSet","opensesame_codename","opensesame_version","posInSet","present","repeat_cycle","response","response_instruction1","response_instructions2","response_keyboardResponse","response_thankYou","response_time","response_time_instruction1","response_time_instructions2","response_time_keyboardResponse","response_time_thankYou","round_decimals","sampler_backend","setSize","sound_buf_size","sound_channels","sound_freq","sound_sample_size","start","subject_nr","subject_parity","target","time_ISI","time_Practiceloop","time_correctFeedback","time_expSequence","time_experiment","time_experimentLoop","time_fixation","time_incorrect","time_instruction1","time_instructions2","time_keyboardResponse","time_logger","time_memorySet","time_probe","time_thankYou","title","total_correct","total_response_time","total_responses","uniform_coordinates","width"
"0","0","2000","2000","black","practice","legacy","legacy","legacy","0","uniform","0","undefined","0","right","0","0","0","0","0","0","0","0","0","0","0","0","0","0","0","10/04/18 21:58:53","The main experiment item","yes","Sternbergtask.osexp","C:/Users/Brad/OneDrive/Desktop/Tarleton school stuff/Fall 2018/Advanced Quantitative Methods/Lab 2","no","mono","no","18","no","white","no","yes","768","legacy","0","0","C:/Users/Brad/OneDrive/Desktop/Tarleton school stuff/Fall 2018/Advanced Quantitative Methods/Lab 2/Hawk-subject-3.csv","legacy","3 1 9 4","Kafkaesque Koffka","3.2.5","0","n","0","None","right","NA","None","NA","2000","85069","NA","2000","NA","2","legacy","4","1024","2","48000","-16","experiment","3","odd","6","92862","88344","NA","90656","3268","NA","90659","NA","3274","NA","94864","96864","91660","94864","NA","Sternberg task","0","2000","1","yes","1024"
"0","0","1334","1334","black","practice","legacy","legacy","legacy","0","uniform","0","undefined","0","left","1","0","1","1","0","0","1","1","0","0","1","1","1","1","0","10/04/18 21:58:53","The main experiment item","yes","Sternbergtask.osexp","C:/Users/Brad/OneDrive/Desktop/Tarleton school stuff/Fall 2018/Advanced Quantitative Methods/Lab 2","no","mono","no","18","no","white","no","yes","768","legacy","1","1","C:/Users/Brad/OneDrive/Desktop/Tarleton school stuff/Fall 2018/Advanced Quantitative Methods/Lab 2/Hawk-subject-3.csv","legacy","4 3 1 7 9 8","Kafkaesque Koffka","3.2.5","1","y","0","right","right","NA","right","NA","668","85069","NA","668","NA","2","legacy","6","1024","2","48000","-16","experiment","3","odd","4","100214","88344","NA","98009","3268","NA","98011","96922","3274","NA","102216","102884","99012","102215","NA","Sternberg task","0","2668","2","yes","1024"
"0","0","1245","1245","black","practice","legacy","legacy","legacy","0","uniform","0","undefined","0","left","2","0","2","2","0","0","2","2","0","0","2","2","2","2","0","10/04/18 21:58:53","The main experiment item","yes","Sternbergtask.osexp","C:/Users/Brad/OneDrive/Desktop/Tarleton school stuff/Fall 2018/Advanced Quantitative Methods/Lab 2","no","mono","no","18","no","white","no","yes","768","legacy","2","2","C:/Users/Brad/OneDrive/Desktop/Tarleton school stuff/Fall 2018/Advanced Quantitative Methods/Lab 2/Hawk-subject-3.csv","legacy","1 7 9 8 5","Kafkaesque Koffka","3.2.5","4","y","0","right","right","NA","right","NA","1067","85069","NA","1067","NA","2","legacy","5","1024","2","48000","-16","experiment","3","odd","8","106185","88344","NA","103981","3268","NA","103983","102895","3274","NA","108188","109256","104984","108187","NA","Sternberg task","0","3735","3","yes","1024"
"0","0","1236","1236","black","practice","legacy","legacy","legacy","0","uniform","0","undefined","0","right","3","0","3","3","0","0","3","3","0","0","3","3","3","3","0","10/04/18 21:58:53","The main experiment item","yes","Sternbergtask.osexp","C:/Users/Brad/OneDrive/Desktop/Tarleton school stuff/Fall 2018/Advanced Quantitative Methods/Lab 2","no","mono","no","18","no","white","no","yes","768","legacy","3","3","C:/Users/Brad/OneDrive/Desktop/Tarleton school stuff/Fall 2018/Advanced Quantitative Methods/Lab 2/Hawk-subject-3.csv","legacy","5 7 8 4 1 2","Kafkaesque Koffka","3.2.5","0","n","0","left","right","NA","left","NA","1209","85069","NA","1209","NA","2","legacy","6","1024","2","48000","-16","experiment","3","odd","6","112557","88344","NA","110353","3268","NA","110355","109266","3274","NA","114559","115768","111356","114558","NA","Sternberg task","0","4944","4","yes","1024"
"0","0","1105.2","1105.2","black","practice","legacy","legacy","legacy","0","uniform","0","undefined","0","left","4","0","4","4","0","0","4","4","0","0","4","4","4","4","0","10/04/18 21:58:53","The main experiment item","yes","Sternbergtask.osexp","C:/Users/Brad/OneDrive/Desktop/Tarleton school stuff/Fall 2018/Advanced Quantitative Methods/Lab 2","no","mono","no","18","no","white","no","yes","768","legacy","4","4","C:/Users/Brad/OneDrive/Desktop/Tarleton school stuff/Fall 2018/Advanced Quantitative Methods/Lab 2/Hawk-subject-3.csv","legacy","1 5 2 9","Kafkaesque Koffka","3.2.5","2","y","0","right","right","NA","right","NA","582","85069","NA","582","NA","2","legacy","4","1024","2","48000","-16","experiment","3","odd","5","119067","88344","NA","116863","3268","NA","116865","115779","3274","NA","121072","121655","117866","121071","NA","Sternberg task","0","5526","5","yes","1024"
"0","0","1254.5","1254.5","black","practice","legacy","legacy","legacy","0","uniform","0","undefined","0","right","5","0","5","5","0","0","5","5","0","0","5","5","5","5","0","10/04/18 21:58:53","The main experiment item","yes","Sternbergtask.osexp","C:/Users/Brad/OneDrive/Desktop/Tarleton school stuff/Fall 2018/Advanced Quantitative Methods/Lab 2","no","mono","no","18","no","white","no","yes","768","legacy","5","5","C:/Users/Brad/OneDrive/Desktop/Tarleton school stuff/Fall 2018/Advanced Quantitative Methods/Lab 2/Hawk-subject-3.csv","legacy","5","Kafkaesque Koffka","3.2.5","0","n","0","None","right","NA","None","NA","2001","85069","NA","2001","NA","2","legacy","1","1024","2","48000","-16","experiment","3","odd","3","124956","88344","NA","122752","3268","NA","122754","121666","3274","NA","126957","128958","123755","126957","NA","Sternberg task","0","7527","6","yes","1024"
"0","0","1173","1173","black","practice","legacy","legacy","legacy","0","uniform","0","undefined","0","left","6","0","6","6","0","0","6","6","0","0","6","6","6","6","0","10/04/18 21:58:53","The main experiment item","yes","Sternbergtask.osexp","C:/Users/Brad/OneDrive/Desktop/Tarleton school stuff/Fall 2018/Advanced Quantitative Methods/Lab 2","no","mono","no","18","no","white","no","yes","768","legacy","6","6","C:/Users/Brad/OneDrive/Desktop/Tarleton school stuff/Fall 2018/Advanced Quantitative Methods/Lab 2/Hawk-subject-3.csv","legacy","2 9 4","Kafkaesque Koffka","3.2.5","3","y","0","right","right","NA","right","NA","684","85069","NA","684","NA","2","legacy","3","1024","2","48000","-16","experiment","3","odd","4","132260","88344","NA","130053","3268","NA","130055","128969","3274","NA","134262","134947","131057","134261","NA","Sternberg task","0","8211","7","yes","1024"
"12.5","12.5","1124.875","1124.875","black","practice","legacy","legacy","legacy","0","uniform","1","undefined","1","left","7","0","7","7","0","0","7","7","0","0","7","7","7","7","0","10/04/18 21:58:53","The main experiment item","yes","Sternbergtask.osexp","C:/Users/Brad/OneDrive/Desktop/Tarleton school stuff/Fall 2018/Advanced Quantitative Methods/Lab 2","no","mono","no","18","no","white","no","yes","768","legacy","7","7","C:/Users/Brad/OneDrive/Desktop/Tarleton school stuff/Fall 2018/Advanced Quantitative Methods/Lab 2/Hawk-subject-3.csv","legacy","6","Kafkaesque Koffka","3.2.5","1","y","0","left","right","NA","left","NA","788","85069","NA","788","NA","2","legacy","1","1024","2","48000","-16","experiment","3","odd","6","138245","88344","NA","136041","3268","NA","136043","134958","3274","NA","140247","141036","137044","140246","NA","Sternberg task","1","8999","8","yes","1024"
"11.1111111111","11.1111111111","1222.11111111","1222.11111111","black","practice","legacy","legacy","legacy","0","uniform","0","undefined","0","right","8","0","8","8","0","0","8","8","0","0","8","8","8","8","0","10/04/18 21:58:53","The main experiment item","yes","Sternbergtask.osexp","C:/Users/Brad/OneDrive/Desktop/Tarleton school stuff/Fall 2018/Advanced Quantitative Methods/Lab 2","no","mono","no","18","no","white","no","yes","768","legacy","8","8","C:/Users/Brad/OneDrive/Desktop/Tarleton school stuff/Fall 2018/Advanced Quantitative Methods/Lab 2/Hawk-subject-3.csv","legacy","9 6 7 4 5","Kafkaesque Koffka","3.2.5","0","n","0","None","right","NA","None","NA","2000","85069","NA","2000","NA","2","legacy","5","1024","2","48000","-16","experiment","3","odd","3","144335","88344","141047","142131","3268","NA","142133","134958","3274","NA","146337","148337","143134","146337","NA","Sternberg task","1","10999","9","yes","1024"
"20","20","1172.7","1172.7","black","practice","legacy","legacy","legacy","0","uniform","1","undefined","1","right","9","0","9","9","0","0","9","9","0","0","9","9","9","9","0","10/04/18 21:58:53","The main experiment item","yes","Sternbergtask.osexp","C:/Users/Brad/OneDrive/Desktop/Tarleton school stuff/Fall 2018/Advanced Quantitative Methods/Lab 2","no","mono","no","18","no","white","no","yes","768","legacy","9","9","C:/Users/Brad/OneDrive/Desktop/Tarleton school stuff/Fall 2018/Advanced Quantitative Methods/Lab 2/Hawk-subject-3.csv","legacy","2 1","Kafkaesque Koffka","3.2.5","0","n","0","right","right","NA","right","NA","728","85069","NA","728","NA","2","legacy","2","1024","2","48000","-16","experiment","3","odd","5","151636","88344","141047","149433","3268","NA","149434","148348","3274","NA","153639","154367","150435","153638","NA","Sternberg task","2","11727","10","yes","1024"
"27.2727272727","27.2727272727","1132.27272727","1132.27272727","black","practice","legacy","legacy","legacy","0","uniform","1","undefined","1","right","10","0","10","10","0","0","10","10","0","0","10","10","10","10","0","10/04/18 21:58:53","The main experiment item","yes","Sternbergtask.osexp","C:/Users/Brad/OneDrive/Desktop/Tarleton school stuff/Fall 2018/Advanced Quantitative Methods/Lab 2","no","mono","no","18","no","white","no","yes","768","legacy","10","10","C:/Users/Brad/OneDrive/Desktop/Tarleton school stuff/Fall 2018/Advanced Quantitative Methods/Lab 2/Hawk-subject-3.csv","legacy","4 1 5","Kafkaesque Koffka","3.2.5","0","n","0","right","right","NA","right","NA","728","85069","NA","728","NA","2","legacy","3","1024","2","48000","-16","experiment","3","odd","2","157667","88344","154378","155462","3268","NA","155464","148348","3274","NA","159668","160397","156466","159668","NA","Sternberg task","3","12455","11","yes","1024"
"33.3333333333","33.3333333333","1132","1132","black","practice","legacy","legacy","legacy","0","uniform","1","undefined","1","left","11","0","11","11","0","0","11","11","0","0","11","11","11","11","0","10/04/18 21:58:53","The main experiment item","yes","Sternbergtask.osexp","C:/Users/Brad/OneDrive/Desktop/Tarleton school stuff/Fall 2018/Advanced Quantitative Methods/Lab 2","no","mono","no","18","no","white","no","yes","768","legacy","11","11","C:/Users/Brad/OneDrive/Desktop/Tarleton school stuff/Fall 2018/Advanced Quantitative Methods/Lab 2/Hawk-subject-3.csv","legacy","4 8","Kafkaesque Koffka","3.2.5","1","y","0","left","right","NA","left","NA","1129","85069","NA","1129","NA","2","legacy","2","1024","2","48000","-16","experiment","3","odd","4","163696","88344","160408","161492","3268","NA","161494","148348","3274","NA","165697","166827","162495","165697","NA","Sternberg task","4","13584","12","yes","1024"
"38.4615384615","38.4615384615","1108.61538462","1108.61538462","black","experiment","legacy","legacy","legacy","0","uniform","1","undefined","1","left","12","0","12","12","0","0","12","12","0","0","12","12","12","12","0","10/04/18 21:58:53","The main experiment item","yes","Sternbergtask.osexp","C:/Users/Brad/OneDrive/Desktop/Tarleton school stuff/Fall 2018/Advanced Quantitative Methods/Lab 2","no","mono","no","18","no","white","no","yes","768","legacy","0","11","C:/Users/Brad/OneDrive/Desktop/Tarleton school stuff/Fall 2018/Advanced Quantitative Methods/Lab 2/Hawk-subject-3.csv","legacy","4 1 5","Kafkaesque Koffka","3.2.5","2","y","0","left","right","right","left","NA","828","85069","43556","828","NA","2","legacy","3","1024","2","48000","-16","experiment","3","odd","1","213718","88344","166837","211512","3268","211410","211514","148348","3274","167854","215719","216548","212515","215719","NA","Sternberg task","5","14412","13","yes","1024"
"42.8571428571","42.8571428571","1079.35714286","1079.35714286","black","experiment","legacy","legacy","legacy","0","uniform","1","undefined","1","right","13","0","13","13","0","0","13","13","0","0","13","13","13","13","0","10/04/18 21:58:53","The main experiment item","yes","Sternbergtask.osexp","C:/Users/Brad/OneDrive/Desktop/Tarleton school stuff/Fall 2018/Advanced Quantitative Methods/Lab 2","no","mono","no","18","no","white","no","yes","768","legacy","1","11","C:/Users/Brad/OneDrive/Desktop/Tarleton school stuff/Fall 2018/Advanced Quantitative Methods/Lab 2/Hawk-subject-3.csv","legacy","6 8 4","Kafkaesque Koffka","3.2.5","0","n","0","right","right","right","right","NA","699","85069","43556","699","NA","2","legacy","3","1024","2","48000","-16","experiment","3","odd","1","219850","88344","216559","217645","3268","211410","217647","148348","3274","167854","221851","222550","218648","221851","NA","Sternberg task","6","15111","14","yes","1024"
"46.6666666667","46.6666666667","1078.13333333","1078.13333333","black","experiment","legacy","legacy","legacy","0","uniform","1","undefined","1","left","14","0","14","14","0","0","14","14","0","0","14","14","14","14","0","10/04/18 21:58:53","The main experiment item","yes","Sternbergtask.osexp","C:/Users/Brad/OneDrive/Desktop/Tarleton school stuff/Fall 2018/Advanced Quantitative Methods/Lab 2","no","mono","no","18","no","white","no","yes","768","legacy","2","11","C:/Users/Brad/OneDrive/Desktop/Tarleton school stuff/Fall 2018/Advanced Quantitative Methods/Lab 2/Hawk-subject-3.csv","legacy","8 3","Kafkaesque Koffka","3.2.5","2","y","0","left","right","right","left","NA","1061","85069","43556","1061","NA","2","legacy","2","1024","2","48000","-16","experiment","3","odd","3","225842","88344","222554","223637","3268","211410","223639","148348","3274","167854","227844","228905","224641","227843","NA","Sternberg task","7","16172","15","yes","1024"
"50","50","1045.5","1045.5","black","experiment","legacy","legacy","legacy","0","uniform","1","undefined","1","right","15","0","15","15","0","0","15","15","0","0","15","15","15","15","0","10/04/18 21:58:53","The main experiment item","yes","Sternbergtask.osexp","C:/Users/Brad/OneDrive/Desktop/Tarleton school stuff/Fall 2018/Advanced Quantitative Methods/Lab 2","no","mono","no","18","no","white","no","yes","768","legacy","3","11","C:/Users/Brad/OneDrive/Desktop/Tarleton school stuff/Fall 2018/Advanced Quantitative Methods/Lab 2/Hawk-subject-3.csv","legacy","7 9","Kafkaesque Koffka","3.2.5","0","n","0","right","right","right","right","NA","556","85069","43556","556","NA","2","legacy","2","1024","2","48000","-16","experiment","3","odd","1","232204","88344","228916","230000","3268","211410","230002","148348","3274","167854","234206","234762","231003","234205","NA","Sternberg task","8","16728","16","yes","1024"
"52.9411764706","52.9411764706","1025.35294118","1025.35294118","black","experiment","legacy","legacy","legacy","0","uniform","1","undefined","1","right","16","0","16","16","0","0","16","16","0","0","16","16","16","16","0","10/04/18 21:58:53","The main experiment item","yes","Sternbergtask.osexp","C:/Users/Brad/OneDrive/Desktop/Tarleton school stuff/Fall 2018/Advanced Quantitative Methods/Lab 2","no","mono","no","18","no","white","no","yes","768","legacy","4","11","C:/Users/Brad/OneDrive/Desktop/Tarleton school stuff/Fall 2018/Advanced Quantitative Methods/Lab 2/Hawk-subject-3.csv","legacy","2 8 9","Kafkaesque Koffka","3.2.5","0","n","0","right","right","right","right","NA","703","85069","43556","703","NA","2","legacy","3","1024","2","48000","-16","experiment","3","odd","6","238062","88344","234773","235857","3268","211410","235859","148348","3274","167854","240064","240768","236861","240064","NA","Sternberg task","9","17431","17","yes","1024"
"55.5555555556","55.5555555556","1009","1009","black","experiment","legacy","legacy","legacy","0","uniform","1","undefined","1","left","17","0","17","17","0","0","17","17","0","0","17","17","17","17","0","10/04/18 21:58:53","The main experiment item","yes","Sternbergtask.osexp","C:/Users/Brad/OneDrive/Desktop/Tarleton school stuff/Fall 2018/Advanced Quantitative Methods/Lab 2","no","mono","no","18","no","white","no","yes","768","legacy","5","11","C:/Users/Brad/OneDrive/Desktop/Tarleton school stuff/Fall 2018/Advanced Quantitative Methods/Lab 2/Hawk-subject-3.csv","legacy","2 3 7 4","Kafkaesque Koffka","3.2.5","1","y","0","left","right","right","left","NA","731","85069","43556","731","NA","2","legacy","4","1024","2","48000","-16","experiment","3","odd","2","244067","88344","240778","241862","3268","211410","241864","148348","3274","167854","246068","246800","242865","246068","NA","Sternberg task","10","18162","18","yes","1024"
"57.8947368421","57.8947368421","996.947368421","996.947368421","black","experiment","legacy","legacy","legacy","0","uniform","1","undefined","1","right","18","0","18","18","0","0","18","18","0","0","18","18","18","18","0","10/04/18 21:58:53","The main experiment item","yes","Sternbergtask.osexp","C:/Users/Brad/OneDrive/Desktop/Tarleton school stuff/Fall 2018/Advanced Quantitative Methods/Lab 2","no","mono","no","18","no","white","no","yes","768","legacy","6","11","C:/Users/Brad/OneDrive/Desktop/Tarleton school stuff/Fall 2018/Advanced Quantitative Methods/Lab 2/Hawk-subject-3.csv","legacy","6 3 1 7 9 8","Kafkaesque Koffka","3.2.5","0","n","0","right","right","right","right","NA","780","85069","43556","780","NA","2","legacy","6","1024","2","48000","-16","experiment","3","odd","4","250101","88344","246811","247896","3268","211410","247898","148348","3274","167854","252103","252883","248899","252102","NA","Sternberg task","11","18942","19","yes","1024"
"60","60","980.8","980.8","black","experiment","legacy","legacy","legacy","0","uniform","1","undefined","1","left","19","0","19","19","0","0","19","19","0","0","19","19","19","19","0","10/04/18 21:58:53","The main experiment item","yes","Sternbergtask.osexp","C:/Users/Brad/OneDrive/Desktop/Tarleton school stuff/Fall 2018/Advanced Quantitative Methods/Lab 2","no","mono","no","18","no","white","no","yes","768","legacy","7","11","C:/Users/Brad/OneDrive/Desktop/Tarleton school stuff/Fall 2018/Advanced Quantitative Methods/Lab 2/Hawk-subject-3.csv","legacy","4","Kafkaesque Koffka","3.2.5","1","y","0","left","right","right","left","NA","674","85069","43556","674","NA","2","legacy","1","1024","2","48000","-16","experiment","3","odd","4","256182","88344","252894","253977","3268","211410","253979","148348","3274","167854","258184","258858","254980","258183","NA","Sternberg task","12","19616","20","yes","1024"
"61.9047619048","61.9047619048","990.761904762","990.761904762","black","experiment","legacy","legacy","legacy","0","uniform","1","undefined","1","left","20","0","20","20","0","0","20","20","0","0","20","20","20","20","0","10/04/18 21:58:53","The main experiment item","yes","Sternbergtask.osexp","C:/Users/Brad/OneDrive/Desktop/Tarleton school stuff/Fall 2018/Advanced Quantitative Methods/Lab 2","no","mono","no","18","no","white","no","yes","768","legacy","8","11","C:/Users/Brad/OneDrive/Desktop/Tarleton school stuff/Fall 2018/Advanced Quantitative Methods/Lab 2/Hawk-subject-3.csv","legacy","7 4 2 6 3 5","Kafkaesque Koffka","3.2.5","6","y","0","left","right","right","left","NA","1190","85069","43556","1190","NA","2","legacy","6","1024","2","48000","-16","experiment","3","odd","5","262158","88344","258869","259953","3268","211410","259955","148348","3274","167854","264159","265349","260956","264159","NA","Sternberg task","13","20806","21","yes","1024"
"63.6363636364","63.6363636364","993.5","993.5","black","experiment","legacy","legacy","legacy","0","uniform","1","undefined","1","left","21","0","21","21","0","0","21","21","0","0","21","21","21","21","0","10/04/18 21:58:53","The main experiment item","yes","Sternbergtask.osexp","C:/Users/Brad/OneDrive/Desktop/Tarleton school stuff/Fall 2018/Advanced Quantitative Methods/Lab 2","no","mono","no","18","no","white","no","yes","768","legacy","9","11","C:/Users/Brad/OneDrive/Desktop/Tarleton school stuff/Fall 2018/Advanced Quantitative Methods/Lab 2/Hawk-subject-3.csv","legacy","9 3 8 2 1 4","Kafkaesque Koffka","3.2.5","3","y","0","left","right","right","left","NA","1051","85069","43556","1051","NA","2","legacy","6","1024","2","48000","-16","experiment","3","odd","8","268650","88344","265360","266445","3268","211410","266447","148348","3274","167854","270651","271703","267449","270651","NA","Sternberg task","14","21857","22","yes","1024"
"65.2173913043","65.2173913043","981.173913043","981.173913043","black","experiment","legacy","legacy","legacy","0","uniform","1","undefined","1","right","22","0","22","22","0","0","22","22","0","0","22","22","22","22","0","10/04/18 21:58:53","The main experiment item","yes","Sternbergtask.osexp","C:/Users/Brad/OneDrive/Desktop/Tarleton school stuff/Fall 2018/Advanced Quantitative Methods/Lab 2","no","mono","no","18","no","white","no","yes","768","legacy","10","11","C:/Users/Brad/OneDrive/Desktop/Tarleton school stuff/Fall 2018/Advanced Quantitative Methods/Lab 2/Hawk-subject-3.csv","legacy","2 8 9 4 1","Kafkaesque Koffka","3.2.5","0","n","0","right","right","right","right","NA","710","85069","43556","710","NA","2","legacy","5","1024","2","48000","-16","experiment","3","odd","5","275002","88344","271714","272798","3268","211410","272800","148348","3274","167854","277004","277715","273801","277003","NA","Sternberg task","15","22567","23","yes","1024"
"66.6666666667","66.6666666667","1006.83333333","1006.83333333","black","experiment","legacy","legacy","legacy","0","uniform","1","undefined","1","right","23","0","23","23","0","0","23","23","0","0","23","23","23","23","0","10/04/18 21:58:53","The main experiment item","yes","Sternbergtask.osexp","C:/Users/Brad/OneDrive/Desktop/Tarleton school stuff/Fall 2018/Advanced Quantitative Methods/Lab 2","no","mono","no","18","no","white","no","yes","768","legacy","11","11","C:/Users/Brad/OneDrive/Desktop/Tarleton school stuff/Fall 2018/Advanced Quantitative Methods/Lab 2/Hawk-subject-3.csv","legacy","4 8 1 2","Kafkaesque Koffka","3.2.5","0","n","0","right","right","right","right","NA","1597","85069","43556","1597","NA","2","legacy","4","1024","2","48000","-16","experiment","3","odd","7","281013","88344","277726","278809","3268","211410","278811","148348","3274","167854","283014","284612","279812","283014","NA","Sternberg task","16","24164","24","yes","1024"
"68","68","1020.08","1020.08","black","experiment","legacy","legacy","legacy","0","uniform","1","undefined","1","left","24","0","24","24","0","0","24","24","0","0","24","24","24","24","0","10/04/18 21:58:53","The main experiment item","yes","Sternbergtask.osexp","C:/Users/Brad/OneDrive/Desktop/Tarleton school stuff/Fall 2018/Advanced Quantitative Methods/Lab 2","no","mono","no","18","no","white","no","yes","768","legacy","12","11","C:/Users/Brad/OneDrive/Desktop/Tarleton school stuff/Fall 2018/Advanced Quantitative Methods/Lab 2/Hawk-subject-3.csv","legacy","3 2 1 4 7","Kafkaesque Koffka","3.2.5","2","y","0","left","right","right","left","NA","1338","85069","43556","1338","NA","2","legacy","5","1024","2","48000","-16","experiment","3","odd","2","287911","88344","284622","285704","3268","211410","285706","148348","3274","167854","289913","291252","286707","289912","NA","Sternberg task","17","25502","25","yes","1024"
"69.2307692308","69.2307692308","1010.23076923","1010.23076923","black","experiment","legacy","legacy","legacy","0","uniform","1","undefined","1","left","25","0","25","25","0","0","25","25","0","0","25","25","25","25","0","10/04/18 21:58:53","The main experiment item","yes","Sternbergtask.osexp","C:/Users/Brad/OneDrive/Desktop/Tarleton school stuff/Fall 2018/Advanced Quantitative Methods/Lab 2","no","mono","no","18","no","white","no","yes","768","legacy","13","11","C:/Users/Brad/OneDrive/Desktop/Tarleton school stuff/Fall 2018/Advanced Quantitative Methods/Lab 2/Hawk-subject-3.csv","legacy","6 2","Kafkaesque Koffka","3.2.5","1","y","0","left","right","right","left","NA","764","85069","43556","764","NA","2","legacy","2","1024","2","48000","-16","experiment","3","odd","6","294552","88344","291263","292347","3268","211410","292349","148348","3274","167854","296553","297317","293350","296553","NA","Sternberg task","18","26266","26","yes","1024"
"70.3703703704","70.3703703704","1032.18518519","1032.18518519","black","experiment","legacy","legacy","legacy","0","uniform","1","undefined","1","left","26","0","26","26","0","0","26","26","0","0","26","26","26","26","0","10/04/18 21:58:53","The main experiment item","yes","Sternbergtask.osexp","C:/Users/Brad/OneDrive/Desktop/Tarleton school stuff/Fall 2018/Advanced Quantitative Methods/Lab 2","no","mono","no","18","no","white","no","yes","768","legacy","14","11","C:/Users/Brad/OneDrive/Desktop/Tarleton school stuff/Fall 2018/Advanced Quantitative Methods/Lab 2/Hawk-subject-3.csv","legacy","6 9 7 4 5 1","Kafkaesque Koffka","3.2.5","2","y","0","left","right","right","left","NA","1603","85069","43556","1603","NA","2","legacy","6","1024","2","48000","-16","experiment","3","odd","9","300618","88344","297328","298412","3268","211410","298414","148348","3274","167854","302619","304223","299415","302619","NA","Sternberg task","19","27869","27","yes","1024"
"71.4285714286","71.4285714286","1029.10714286","1029.10714286","black","experiment","legacy","legacy","legacy","0","uniform","1","undefined","1","left","27","0","27","27","0","0","27","27","0","0","27","27","27","27","0","10/04/18 21:58:53","The main experiment item","yes","Sternbergtask.osexp","C:/Users/Brad/OneDrive/Desktop/Tarleton school stuff/Fall 2018/Advanced Quantitative Methods/Lab 2","no","mono","no","18","no","white","no","yes","768","legacy","15","11","C:/Users/Brad/OneDrive/Desktop/Tarleton school stuff/Fall 2018/Advanced Quantitative Methods/Lab 2/Hawk-subject-3.csv","legacy","8 5 1 3 9","Kafkaesque Koffka","3.2.5","4","y","0","left","right","right","left","NA","946","85069","43556","946","NA","2","legacy","5","1024","2","48000","-16","experiment","3","odd","3","307526","88344","304233","305321","3268","211410","305323","148348","3274","167854","309528","310474","306324","309527","NA","Sternberg task","20","28815","28","yes","1024"
"72.4137931034","72.4137931034","1015.55172414","1015.55172414","black","experiment","legacy","legacy","legacy","0","uniform","1","undefined","1","right","28","0","28","28","0","0","28","28","0","0","28","28","28","28","0","10/04/18 21:58:53","The main experiment item","yes","Sternbergtask.osexp","C:/Users/Brad/OneDrive/Desktop/Tarleton school stuff/Fall 2018/Advanced Quantitative Methods/Lab 2","no","mono","no","18","no","white","no","yes","768","legacy","16","11","C:/Users/Brad/OneDrive/Desktop/Tarleton school stuff/Fall 2018/Advanced Quantitative Methods/Lab 2/Hawk-subject-3.csv","legacy","5 2","Kafkaesque Koffka","3.2.5","0","n","0","right","right","right","right","NA","636","85069","43556","636","NA","2","legacy","2","1024","2","48000","-16","experiment","3","odd","7","313772","88344","310485","311568","3268","211410","311570","148348","3274","167854","315774","316410","312571","315773","NA","Sternberg task","21","29451","29","yes","1024"
"73.3333333333","73.3333333333","1009.56666667","1009.56666667","black","experiment","legacy","legacy","legacy","0","uniform","1","undefined","1","left","29","0","29","29","0","0","29","29","0","0","29","29","29","29","0","10/04/18 21:58:53","The main experiment item","yes","Sternbergtask.osexp","C:/Users/Brad/OneDrive/Desktop/Tarleton school stuff/Fall 2018/Advanced Quantitative Methods/Lab 2","no","mono","no","18","no","white","no","yes","768","legacy","17","11","C:/Users/Brad/OneDrive/Desktop/Tarleton school stuff/Fall 2018/Advanced Quantitative Methods/Lab 2/Hawk-subject-3.csv","legacy","3 9 6 2","Kafkaesque Koffka","3.2.5","4","y","0","left","right","right","left","NA","836","85069","43556","836","NA","2","legacy","4","1024","2","48000","-16","experiment","3","odd","2","319711","88344","316421","317507","3268","211410","317509","148348","3274","167854","321712","322548","318510","321712","NA","Sternberg task","22","30287","30","yes","1024"
"74.1935483871","74.1935483871","996.35483871","996.35483871","black","experiment","legacy","legacy","legacy","0","uniform","1","undefined","1","right","30","0","30","30","0","0","30","30","0","0","30","30","30","30","0","10/04/18 21:58:53","The main experiment item","yes","Sternbergtask.osexp","C:/Users/Brad/OneDrive/Desktop/Tarleton school stuff/Fall 2018/Advanced Quantitative Methods/Lab 2","no","mono","no","18","no","white","no","yes","768","legacy","18","11","C:/Users/Brad/OneDrive/Desktop/Tarleton school stuff/Fall 2018/Advanced Quantitative Methods/Lab 2/Hawk-subject-3.csv","legacy","8 9","Kafkaesque Koffka","3.2.5","0","n","0","right","right","right","right","NA","600","85069","43556","600","NA","2","legacy","2","1024","2","48000","-16","experiment","3","odd","5","325848","88344","322559","323643","3268","211410","323645","148348","3274","167854","327850","328451","324646","327850","NA","Sternberg task","23","30887","31","yes","1024"
"75","75","985.125","985.125","black","experiment","legacy","legacy","legacy","0","uniform","1","undefined","1","left","31","0","31","31","0","0","31","31","0","0","31","31","31","31","0","10/04/18 21:58:53","The main experiment item","yes","Sternbergtask.osexp","C:/Users/Brad/OneDrive/Desktop/Tarleton school stuff/Fall 2018/Advanced Quantitative Methods/Lab 2","no","mono","no","18","no","white","no","yes","768","legacy","19","11","C:/Users/Brad/OneDrive/Desktop/Tarleton school stuff/Fall 2018/Advanced Quantitative Methods/Lab 2/Hawk-subject-3.csv","legacy","9 4 2","Kafkaesque Koffka","3.2.5","1","y","0","left","right","right","left","NA","637","85069","43556","637","NA","2","legacy","3","1024","2","48000","-16","experiment","3","odd","9","331750","88344","328461","329545","3268","211410","329547","148348","3274","167854","333753","334390","330549","333753","NA","Sternberg task","24","31524","32","yes","1024"
"75.7575757576","75.7575757576","991.454545455","991.454545455","black","experiment","legacy","legacy","legacy","0","uniform","1","undefined","1","left","32","0","32","32","0","0","32","32","0","0","32","32","32","32","0","10/04/18 21:58:53","The main experiment item","yes","Sternbergtask.osexp","C:/Users/Brad/OneDrive/Desktop/Tarleton school stuff/Fall 2018/Advanced Quantitative Methods/Lab 2","no","mono","no","18","no","white","no","yes","768","legacy","20","11","C:/Users/Brad/OneDrive/Desktop/Tarleton school stuff/Fall 2018/Advanced Quantitative Methods/Lab 2/Hawk-subject-3.csv","legacy","7 1 8 5 6 2","Kafkaesque Koffka","3.2.5","2","y","0","left","right","right","left","NA","1194","85069","43556","1194","NA","2","legacy","6","1024","2","48000","-16","experiment","3","odd","1","337691","88344","334401","335486","3268","211410","335488","148348","3274","167854","339693","340888","336490","339693","NA","Sternberg task","25","32718","33","yes","1024"
"76.4705882353","76.4705882353","996.529411765","996.529411765","black","experiment","legacy","legacy","legacy","0","uniform","1","undefined","1","right","33","0","33","33","0","0","33","33","0","0","33","33","33","33","0","10/04/18 21:58:53","The main experiment item","yes","Sternbergtask.osexp","C:/Users/Brad/OneDrive/Desktop/Tarleton school stuff/Fall 2018/Advanced Quantitative Methods/Lab 2","no","mono","no","18","no","white","no","yes","768","legacy","21","11","C:/Users/Brad/OneDrive/Desktop/Tarleton school stuff/Fall 2018/Advanced Quantitative Methods/Lab 2/Hawk-subject-3.csv","legacy","1 6 4 3 9 7","Kafkaesque Koffka","3.2.5","0","n","0","right","right","right","right","NA","1164","85069","43556","1164","NA","2","legacy","6","1024","2","48000","-16","experiment","3","odd","8","344188","88344","340899","341983","3268","211410","341985","148348","3274","167854","346189","347353","342986","346189","NA","Sternberg task","26","33882","34","yes","1024"
"77.1428571429","77.1428571429","995","995","black","experiment","legacy","legacy","legacy","0","uniform","1","undefined","1","right","34","0","34","34","0","0","34","34","0","0","34","34","34","34","0","10/04/18 21:58:53","The main experiment item","yes","Sternbergtask.osexp","C:/Users/Brad/OneDrive/Desktop/Tarleton school stuff/Fall 2018/Advanced Quantitative Methods/Lab 2","no","mono","no","18","no","white","no","yes","768","legacy","22","11","C:/Users/Brad/OneDrive/Desktop/Tarleton school stuff/Fall 2018/Advanced Quantitative Methods/Lab 2/Hawk-subject-3.csv","legacy","2 8 6 3 1","Kafkaesque Koffka","3.2.5","0","n","0","right","right","right","right","NA","943","85069","43556","943","NA","2","legacy","5","1024","2","48000","-16","experiment","3","odd","7","350651","88344","347363","348446","3268","211410","348448","148348","3274","167854","352653","353596","349449","352652","NA","Sternberg task","27","34825","35","yes","1024"
"77.7777777778","77.7777777778","988.416666667","988.416666667","black","experiment","legacy","legacy","legacy","0","uniform","1","undefined","1","right","35","0","35","35","0","0","35","35","0","0","35","35","35","35","0","10/04/18 21:58:53","The main experiment item","yes","Sternbergtask.osexp","C:/Users/Brad/OneDrive/Desktop/Tarleton school stuff/Fall 2018/Advanced Quantitative Methods/Lab 2","no","mono","no","18","no","white","no","yes","768","legacy","23","11","C:/Users/Brad/OneDrive/Desktop/Tarleton school stuff/Fall 2018/Advanced Quantitative Methods/Lab 2/Hawk-subject-3.csv","legacy","1 4 9 3","Kafkaesque Koffka","3.2.5","0","n","0","right","right","right","right","NA","758","85069","43556","758","NA","2","legacy","4","1024","2","48000","-16","experiment","3","odd","5","356897","88344","353607","354693","3268","211410","354695","148348","3274","167854","358898","359656","355696","358898","NA","Sternberg task","28","35583","36","yes","1024"
"78.3783783784","78.3783783784","984.027027027","984.027027027","black","experiment","legacy","legacy","legacy","0","uniform","1","undefined","1","left","36","0","36","36","0","0","36","36","0","0","36","36","36","36","0","10/04/18 21:58:53","The main experiment item","yes","Sternbergtask.osexp","C:/Users/Brad/OneDrive/Desktop/Tarleton school stuff/Fall 2018/Advanced Quantitative Methods/Lab 2","no","mono","no","18","no","white","no","yes","768","legacy","24","11","C:/Users/Brad/OneDrive/Desktop/Tarleton school stuff/Fall 2018/Advanced Quantitative Methods/Lab 2/Hawk-subject-3.csv","legacy","8 5 4 7 3 1","Kafkaesque Koffka","3.2.5","2","y","0","left","right","right","left","NA","826","85069","43556","826","NA","2","legacy","6","1024","2","48000","-16","experiment","3","odd","5","362956","88344","359667","360751","3268","211410","360753","148348","3274","167854","364958","365785","361754","364957","NA","Sternberg task","29","36409","37","yes","1024"
"78.9473684211","78.9473684211","982.026315789","982.026315789","black","experiment","legacy","legacy","legacy","0","uniform","1","undefined","1","left","37","0","37","37","0","0","37","37","0","0","37","37","37","37","0","10/04/18 21:58:53","The main experiment item","yes","Sternbergtask.osexp","C:/Users/Brad/OneDrive/Desktop/Tarleton school stuff/Fall 2018/Advanced Quantitative Methods/Lab 2","no","mono","no","18","no","white","no","yes","768","legacy","25","11","C:/Users/Brad/OneDrive/Desktop/Tarleton school stuff/Fall 2018/Advanced Quantitative Methods/Lab 2/Hawk-subject-3.csv","legacy","5 7 3 6 2","Kafkaesque Koffka","3.2.5","5","y","0","left","right","right","left","NA","908","85069","43556","908","NA","2","legacy","5","1024","2","48000","-16","experiment","3","odd","2","369085","88344","365796","366881","3268","211410","366883","148348","3274","167854","371086","371995","367884","371086","NA","Sternberg task","30","37317","38","yes","1024"
"79.4871794872","79.4871794872","976.846153846","976.846153846","black","experiment","legacy","legacy","legacy","0","uniform","1","undefined","1","right","38","0","38","38","0","0","38","38","0","0","38","38","38","38","0","10/04/18 21:58:53","The main experiment item","yes","Sternbergtask.osexp","C:/Users/Brad/OneDrive/Desktop/Tarleton school stuff/Fall 2018/Advanced Quantitative Methods/Lab 2","no","mono","no","18","no","white","no","yes","768","legacy","26","11","C:/Users/Brad/OneDrive/Desktop/Tarleton school stuff/Fall 2018/Advanced Quantitative Methods/Lab 2/Hawk-subject-3.csv","legacy","7 9 1 6","Kafkaesque Koffka","3.2.5","0","n","0","right","right","right","right","NA","780","85069","43556","780","NA","2","legacy","4","1024","2","48000","-16","experiment","3","odd","4","375294","88344","372005","373089","3268","211410","373091","148348","3274","167854","377296","378076","374092","377296","NA","Sternberg task","31","38097","39","yes","1024"
"80","80","968.8","968.8","black","experiment","legacy","legacy","legacy","0","uniform","1","undefined","1","left","39","0","39","39","0","0","39","39","0","0","39","39","39","39","0","10/04/18 21:58:53","The main experiment item","yes","Sternbergtask.osexp","C:/Users/Brad/OneDrive/Desktop/Tarleton school stuff/Fall 2018/Advanced Quantitative Methods/Lab 2","no","mono","no","18","no","white","no","yes","768","legacy","27","11","C:/Users/Brad/OneDrive/Desktop/Tarleton school stuff/Fall 2018/Advanced Quantitative Methods/Lab 2/Hawk-subject-3.csv","legacy","6 5","Kafkaesque Koffka","3.2.5","2","y","0","left","right","right","left","NA","655","85069","43556","655","NA","2","legacy","2","1024","2","48000","-16","experiment","3","odd","5","381375","88344","378087","379170","3268","211410","379172","148348","3274","167854","383377","384032","380173","383376","NA","Sternberg task","32","38752","40","yes","1024"
"80.487804878","80.487804878","966.853658537","966.853658537","black","experiment","legacy","legacy","legacy","0","uniform","1","undefined","1","right","40","0","40","40","0","0","40","40","0","0","40","40","40","40","0","10/04/18 21:58:53","The main experiment item","yes","Sternbergtask.osexp","C:/Users/Brad/OneDrive/Desktop/Tarleton school stuff/Fall 2018/Advanced Quantitative Methods/Lab 2","no","mono","no","18","no","white","no","yes","768","legacy","28","11","C:/Users/Brad/OneDrive/Desktop/Tarleton school stuff/Fall 2018/Advanced Quantitative Methods/Lab 2/Hawk-subject-3.csv","legacy","4 1","Kafkaesque Koffka","3.2.5","0","n","0","right","right","right","right","NA","889","85069","43556","889","NA","2","legacy","2","1024","2","48000","-16","experiment","3","odd","6","387331","88344","384043","385127","3268","211410","385129","148348","3274","167854","389334","390224","386130","389333","NA","Sternberg task","33","39641","41","yes","1024"
"80.9523809524","80.9523809524","959.285714286","959.285714286","black","experiment","legacy","legacy","legacy","0","uniform","1","undefined","1","right","41","0","41","41","0","0","41","41","0","0","41","41","41","41","0","10/04/18 21:58:53","The main experiment item","yes","Sternbergtask.osexp","C:/Users/Brad/OneDrive/Desktop/Tarleton school stuff/Fall 2018/Advanced Quantitative Methods/Lab 2","no","mono","no","18","no","white","no","yes","768","legacy","29","11","C:/Users/Brad/OneDrive/Desktop/Tarleton school stuff/Fall 2018/Advanced Quantitative Methods/Lab 2/Hawk-subject-3.csv","legacy","7 1","Kafkaesque Koffka","3.2.5","0","n","0","right","right","right","right","NA","649","85069","43556","649","NA","2","legacy","2","1024","2","48000","-16","experiment","3","odd","8","393528","88344","390235","391322","3268","211410","391325","148348","3274","167854","395529","396179","392327","395529","NA","Sternberg task","34","40290","42","yes","1024"
"81.3953488372","81.3953488372","956.372093023","956.372093023","black","experiment","legacy","legacy","legacy","0","uniform","1","undefined","1","right","42","0","42","42","0","0","42","42","0","0","42","42","42","42","0","10/04/18 21:58:53","The main experiment item","yes","Sternbergtask.osexp","C:/Users/Brad/OneDrive/Desktop/Tarleton school stuff/Fall 2018/Advanced Quantitative Methods/Lab 2","no","mono","no","18","no","white","no","yes","768","legacy","30","11","C:/Users/Brad/OneDrive/Desktop/Tarleton school stuff/Fall 2018/Advanced Quantitative Methods/Lab 2/Hawk-subject-3.csv","legacy","5 3 8 7 2 4","Kafkaesque Koffka","3.2.5","0","n","0","right","right","right","right","NA","834","85069","43556","834","NA","2","legacy","6","1024","2","48000","-16","experiment","3","odd","9","399479","88344","396190","397274","3268","211410","397276","148348","3274","167854","401480","402314","398278","401480","NA","Sternberg task","35","41124","43","yes","1024"
"81.8181818182","81.8181818182","948.477272727","948.477272727","black","experiment","legacy","legacy","legacy","0","uniform","1","undefined","1","left","43","0","43","43","0","0","43","43","0","0","43","43","43","43","0","10/04/18 21:58:53","The main experiment item","yes","Sternbergtask.osexp","C:/Users/Brad/OneDrive/Desktop/Tarleton school stuff/Fall 2018/Advanced Quantitative Methods/Lab 2","no","mono","no","18","no","white","no","yes","768","legacy","31","11","C:/Users/Brad/OneDrive/Desktop/Tarleton school stuff/Fall 2018/Advanced Quantitative Methods/Lab 2/Hawk-subject-3.csv","legacy","7 2 3","Kafkaesque Koffka","3.2.5","3","y","0","left","right","right","left","NA","609","85069","43556","609","NA","2","legacy","3","1024","2","48000","-16","experiment","3","odd","3","405612","88344","402325","403408","3268","211410","403410","148348","3274","167854","407613","408223","404411","407613","NA","Sternberg task","36","41733","44","yes","1024"
"82.2222222222","82.2222222222","943.777777778","943.777777778","black","experiment","legacy","legacy","legacy","0","uniform","1","undefined","1","right","44","0","44","44","0","0","44","44","0","0","44","44","44","44","0","10/04/18 21:58:53","The main experiment item","yes","Sternbergtask.osexp","C:/Users/Brad/OneDrive/Desktop/Tarleton school stuff/Fall 2018/Advanced Quantitative Methods/Lab 2","no","mono","no","18","no","white","no","yes","768","legacy","32","11","C:/Users/Brad/OneDrive/Desktop/Tarleton school stuff/Fall 2018/Advanced Quantitative Methods/Lab 2/Hawk-subject-3.csv","legacy","6 2 9 3 8 4","Kafkaesque Koffka","3.2.5","0","n","0","right","right","right","right","NA","737","85069","43556","737","NA","2","legacy","6","1024","2","48000","-16","experiment","3","odd","1","411525","88344","408234","409319","3268","211410","409321","148348","3274","167854","413526","414264","410322","413526","NA","Sternberg task","37","42470","45","yes","1024"
"82.6086956522","82.6086956522","941.804347826","941.804347826","black","experiment","legacy","legacy","legacy","0","uniform","1","undefined","1","left","45","0","45","45","0","0","45","45","0","0","45","45","45","45","0","10/04/18 21:58:53","The main experiment item","yes","Sternbergtask.osexp","C:/Users/Brad/OneDrive/Desktop/Tarleton school stuff/Fall 2018/Advanced Quantitative Methods/Lab 2","no","mono","no","18","no","white","no","yes","768","legacy","33","11","C:/Users/Brad/OneDrive/Desktop/Tarleton school stuff/Fall 2018/Advanced Quantitative Methods/Lab 2/Hawk-subject-3.csv","legacy","1 4 9 3 2 5","Kafkaesque Koffka","3.2.5","3","y","0","left","right","right","left","NA","853","85069","43556","853","NA","2","legacy","6","1024","2","48000","-16","experiment","3","odd","9","417563","88344","414275","415359","3268","211410","415361","148348","3274","167854","419564","420418","416362","419564","NA","Sternberg task","38","43323","46","yes","1024"
"82.9787234043","82.9787234043","935.617021277","935.617021277","black","experiment","legacy","legacy","legacy","0","uniform","1","undefined","1","right","46","0","46","46","0","0","46","46","0","0","46","46","46","46","0","10/04/18 21:58:53","The main experiment item","yes","Sternbergtask.osexp","C:/Users/Brad/OneDrive/Desktop/Tarleton school stuff/Fall 2018/Advanced Quantitative Methods/Lab 2","no","mono","no","18","no","white","no","yes","768","legacy","34","11","C:/Users/Brad/OneDrive/Desktop/Tarleton school stuff/Fall 2018/Advanced Quantitative Methods/Lab 2/Hawk-subject-3.csv","legacy","9 8 2 7 4","Kafkaesque Koffka","3.2.5","0","n","0","right","right","right","right","NA","651","85069","43556","651","NA","2","legacy","5","1024","2","48000","-16","experiment","3","odd","5","423720","88344","420429","421515","3268","211410","421517","148348","3274","167854","425721","426373","422518","425721","NA","Sternberg task","39","43974","47","yes","1024"
"83.3333333333","83.3333333333","942.833333333","942.833333333","black","experiment","legacy","legacy","legacy","0","uniform","1","undefined","1","right","47","0","47","47","0","0","47","47","0","0","47","47","47","47","0","10/04/18 21:58:53","The main experiment item","yes","Sternbergtask.osexp","C:/Users/Brad/OneDrive/Desktop/Tarleton school stuff/Fall 2018/Advanced Quantitative Methods/Lab 2","no","mono","no","18","no","white","no","yes","768","legacy","35","11","C:/Users/Brad/OneDrive/Desktop/Tarleton school stuff/Fall 2018/Advanced Quantitative Methods/Lab 2/Hawk-subject-3.csv","legacy","7 8 6 1","Kafkaesque Koffka","3.2.5","0","n","0","right","right","right","right","NA","1282","85069","43556","1282","NA","2","legacy","4","1024","2","48000","-16","experiment","3","odd","3","429671","88344","426384","427467","3268","211410","427469","148348","3274","167854","431672","432956","428470","431672","NA","Sternberg task","40","45256","48","yes","1024"
"83.6734693878","83.6734693878","938.734693878","938.734693878","black","experiment","legacy","legacy","legacy","0","uniform","1","undefined","1","right","48","0","48","48","0","0","48","48","0","0","48","48","48","48","0","10/04/18 21:58:53","The main experiment item","yes","Sternbergtask.osexp","C:/Users/Brad/OneDrive/Desktop/Tarleton school stuff/Fall 2018/Advanced Quantitative Methods/Lab 2","no","mono","no","18","no","white","no","yes","768","legacy","36","11","C:/Users/Brad/OneDrive/Desktop/Tarleton school stuff/Fall 2018/Advanced Quantitative Methods/Lab 2/Hawk-subject-3.csv","legacy","1 5 3 2 8","Kafkaesque Koffka","3.2.5","0","n","0","right","right","right","right","NA","742","85069","43556","742","NA","2","legacy","5","1024","2","48000","-16","experiment","3","odd","4","436256","88344","432967","434052","3268","211410","434054","148348","3274","167854","438258","439001","435055","438257","NA","Sternberg task","41","45998","49","yes","1024"
"84","84","934.02","934.02","black","experiment","legacy","legacy","legacy","0","uniform","1","undefined","1","right","49","0","49","49","0","0","49","49","0","0","49","49","49","49","0","10/04/18 21:58:53","The main experiment item","yes","Sternbergtask.osexp","C:/Users/Brad/OneDrive/Desktop/Tarleton school stuff/Fall 2018/Advanced Quantitative Methods/Lab 2","no","mono","no","18","no","white","no","yes","768","legacy","37","11","C:/Users/Brad/OneDrive/Desktop/Tarleton school stuff/Fall 2018/Advanced Quantitative Methods/Lab 2/Hawk-subject-3.csv","legacy","5","Kafkaesque Koffka","3.2.5","0","n","0","right","right","right","right","NA","703","85069","43556","703","NA","2","legacy","1","1024","2","48000","-16","experiment","3","odd","8","442298","88344","439011","440094","3268","211410","440096","148348","3274","167854","444301","445005","441097","444301","NA","Sternberg task","42","46701","50","yes","1024"
"84.3137254902","84.3137254902","935.196078431","935.196078431","black","experiment","legacy","legacy","legacy","0","uniform","1","undefined","1","left","50","0","50","50","0","0","50","50","0","0","50","50","50","50","0","10/04/18 21:58:53","The main experiment item","yes","Sternbergtask.osexp","C:/Users/Brad/OneDrive/Desktop/Tarleton school stuff/Fall 2018/Advanced Quantitative Methods/Lab 2","no","mono","no","18","no","white","no","yes","768","legacy","38","11","C:/Users/Brad/OneDrive/Desktop/Tarleton school stuff/Fall 2018/Advanced Quantitative Methods/Lab 2/Hawk-subject-3.csv","legacy","2 4 6 9","Kafkaesque Koffka","3.2.5","3","y","0","left","right","right","left","NA","994","85069","43556","994","NA","2","legacy","4","1024","2","48000","-16","experiment","3","odd","6","448307","88344","445016","446100","3268","211410","446102","148348","3274","167854","450308","451303","447103","450308","NA","Sternberg task","43","47695","51","yes","1024"
"84.6153846154","84.6153846154","932.269230769","932.269230769","black","experiment","legacy","legacy","legacy","0","uniform","1","undefined","1","left","51","0","51","51","0","0","51","51","0","0","51","51","51","51","0","10/04/18 21:58:53","The main experiment item","yes","Sternbergtask.osexp","C:/Users/Brad/OneDrive/Desktop/Tarleton school stuff/Fall 2018/Advanced Quantitative Methods/Lab 2","no","mono","no","18","no","white","no","yes","768","legacy","39","11","C:/Users/Brad/OneDrive/Desktop/Tarleton school stuff/Fall 2018/Advanced Quantitative Methods/Lab 2/Hawk-subject-3.csv","legacy","8 9 5 6 7","Kafkaesque Koffka","3.2.5","1","y","0","left","right","right","left","NA","783","85069","43556","783","NA","2","legacy","5","1024","2","48000","-16","experiment","3","odd","8","454603","88344","451313","452397","3268","211410","452400","148348","3274","167854","456606","457390","453401","456606","NA","Sternberg task","44","48478","52","yes","1024"
"84.9056603774","84.9056603774","931.679245283","931.679245283","black","experiment","legacy","legacy","legacy","0","uniform","1","undefined","1","right","52","0","52","52","0","0","52","52","0","0","52","52","52","52","0","10/04/18 21:58:53","The main experiment item","yes","Sternbergtask.osexp","C:/Users/Brad/OneDrive/Desktop/Tarleton school stuff/Fall 2018/Advanced Quantitative Methods/Lab 2","no","mono","no","18","no","white","no","yes","768","legacy","40","11","C:/Users/Brad/OneDrive/Desktop/Tarleton school stuff/Fall 2018/Advanced Quantitative Methods/Lab 2/Hawk-subject-3.csv","legacy","8 5 7 3 6","Kafkaesque Koffka","3.2.5","0","n","0","right","right","right","right","NA","901","85069","43556","901","NA","2","legacy","5","1024","2","48000","-16","experiment","3","odd","9","460687","88344","457401","458483","3268","211410","458485","148348","3274","167854","462689","463591","459486","462688","NA","Sternberg task","45","49379","53","yes","1024"
"85.1851851852","85.1851851852","930.962962963","930.962962963","black","experiment","legacy","legacy","legacy","0","uniform","1","undefined","1","left","53","0","53","53","0","0","53","53","0","0","53","53","53","53","0","10/04/18 21:58:53","The main experiment item","yes","Sternbergtask.osexp","C:/Users/Brad/OneDrive/Desktop/Tarleton school stuff/Fall 2018/Advanced Quantitative Methods/Lab 2","no","mono","no","18","no","white","no","yes","768","legacy","41","11","C:/Users/Brad/OneDrive/Desktop/Tarleton school stuff/Fall 2018/Advanced Quantitative Methods/Lab 2/Hawk-subject-3.csv","legacy","6 8 9 3 4 9","Kafkaesque Koffka","3.2.5","5","y","0","left","right","right","left","NA","893","85069","43556","893","NA","2","legacy","6","1024","2","48000","-16","experiment","3","odd","4","466893","88344","463601","464688","3268","211410","464690","148348","3274","167854","468895","469789","465692","468895","NA","Sternberg task","46","50272","54","yes","1024"
"85.4545454545","85.4545454545","925.472727273","925.472727273","black","experiment","legacy","legacy","legacy","0","uniform","1","undefined","1","right","54","0","54","54","0","0","54","54","0","0","54","54","54","54","0","10/04/18 21:58:53","The main experiment item","yes","Sternbergtask.osexp","C:/Users/Brad/OneDrive/Desktop/Tarleton school stuff/Fall 2018/Advanced Quantitative Methods/Lab 2","no","mono","no","18","no","white","no","yes","768","legacy","42","11","C:/Users/Brad/OneDrive/Desktop/Tarleton school stuff/Fall 2018/Advanced Quantitative Methods/Lab 2/Hawk-subject-3.csv","legacy","3 9 1","Kafkaesque Koffka","3.2.5","0","n","0","right","right","right","right","NA","629","85069","43556","629","NA","2","legacy","3","1024","2","48000","-16","experiment","3","odd","7","473086","88344","469800","470882","3268","211410","470883","148348","3274","167854","475088","475718","471885","475088","NA","Sternberg task","47","50901","55","yes","1024"
"85.7142857143","85.7142857143","922.053571429","922.053571429","black","experiment","legacy","legacy","legacy","0","uniform","1","undefined","1","left","55","0","55","55","0","0","55","55","0","0","55","55","55","55","0","10/04/18 21:58:53","The main experiment item","yes","Sternbergtask.osexp","C:/Users/Brad/OneDrive/Desktop/Tarleton school stuff/Fall 2018/Advanced Quantitative Methods/Lab 2","no","mono","no","18","no","white","no","yes","768","legacy","43","11","C:/Users/Brad/OneDrive/Desktop/Tarleton school stuff/Fall 2018/Advanced Quantitative Methods/Lab 2/Hawk-subject-3.csv","legacy","6 7 9 3 1 2","Kafkaesque Koffka","3.2.5","1","y","0","left","right","right","left","NA","734","85069","43556","734","NA","2","legacy","6","1024","2","48000","-16","experiment","3","odd","6","479016","88344","475728","476812","3268","211410","476814","148348","3274","167854","481017","481752","477815","481017","NA","Sternberg task","48","51635","56","yes","1024"
"85.9649122807","85.9649122807","920.754385965","920.754385965","black","experiment","legacy","legacy","legacy","0","uniform","1","undefined","1","left","56","0","56","56","0","0","56","56","0","0","56","56","56","56","0","10/04/18 21:58:53","The main experiment item","yes","Sternbergtask.osexp","C:/Users/Brad/OneDrive/Desktop/Tarleton school stuff/Fall 2018/Advanced Quantitative Methods/Lab 2","no","mono","no","18","no","white","no","yes","768","legacy","44","11","C:/Users/Brad/OneDrive/Desktop/Tarleton school stuff/Fall 2018/Advanced Quantitative Methods/Lab 2/Hawk-subject-3.csv","legacy","6 7 8 5","Kafkaesque Koffka","3.2.5","3","y","0","left","right","right","left","NA","848","85069","43556","848","NA","2","legacy","4","1024","2","48000","-16","experiment","3","odd","8","485051","88344","481763","482846","3268","211410","482848","148348","3274","167854","487052","487901","483849","487052","NA","Sternberg task","49","52483","57","yes","1024"
"86.2068965517","86.2068965517","914.965517241","914.965517241","black","experiment","legacy","legacy","legacy","0","uniform","1","undefined","1","right","57","0","57","57","0","0","57","57","0","0","57","57","57","57","0","10/04/18 21:58:53","The main experiment item","yes","Sternbergtask.osexp","C:/Users/Brad/OneDrive/Desktop/Tarleton school stuff/Fall 2018/Advanced Quantitative Methods/Lab 2","no","mono","no","18","no","white","no","yes","768","legacy","45","11","C:/Users/Brad/OneDrive/Desktop/Tarleton school stuff/Fall 2018/Advanced Quantitative Methods/Lab 2/Hawk-subject-3.csv","legacy","6 7 5 9","Kafkaesque Koffka","3.2.5","0","n","0","right","right","right","right","NA","585","85069","43556","585","NA","2","legacy","4","1024","2","48000","-16","experiment","3","odd","2","491203","88344","487911","488999","3268","211410","489001","148348","3274","167854","493206","493792","490002","493205","NA","Sternberg task","50","53068","58","yes","1024"
"86.4406779661","86.4406779661","912.983050847","912.983050847","black","experiment","legacy","legacy","legacy","0","uniform","1","undefined","1","left","58","0","58","58","0","0","58","58","0","0","58","58","58","58","0","10/04/18 21:58:53","The main experiment item","yes","Sternbergtask.osexp","C:/Users/Brad/OneDrive/Desktop/Tarleton school stuff/Fall 2018/Advanced Quantitative Methods/Lab 2","no","mono","no","18","no","white","no","yes","768","legacy","46","11","C:/Users/Brad/OneDrive/Desktop/Tarleton school stuff/Fall 2018/Advanced Quantitative Methods/Lab 2/Hawk-subject-3.csv","legacy","4 7 6 8 2 3","Kafkaesque Koffka","3.2.5","6","y","0","left","right","right","left","NA","798","85069","43556","798","NA","2","legacy","6","1024","2","48000","-16","experiment","3","odd","3","497090","88344","493803","494886","3268","211410","494888","148348","3274","167854","499091","499890","495889","499091","NA","Sternberg task","51","53866","59","yes","1024"
"86.6666666667","86.6666666667","907.65","907.65","black","experiment","legacy","legacy","legacy","0","uniform","1","undefined","1","left","59","0","59","59","0","0","59","59","0","0","59","59","59","59","0","10/04/18 21:58:53","The main experiment item","yes","Sternbergtask.osexp","C:/Users/Brad/OneDrive/Desktop/Tarleton school stuff/Fall 2018/Advanced Quantitative Methods/Lab 2","no","mono","no","18","no","white","no","yes","768","legacy","47","11","C:/Users/Brad/OneDrive/Desktop/Tarleton school stuff/Fall 2018/Advanced Quantitative Methods/Lab 2/Hawk-subject-3.csv","legacy","7 6","Kafkaesque Koffka","3.2.5","2","y","0","left","right","right","left","NA","593","85069","43556","593","NA","2","legacy","2","1024","2","48000","-16","experiment","3","odd","6","503190","88344","499901","500985","3268","211410","500987","148348","3274","167854","505191","505785","501989","505191","NA","Sternberg task","52","54459","60","yes","1024"
"86.8852459016","86.8852459016","904.049180328","904.049180328","black","experiment","legacy","legacy","legacy","0","uniform","1","undefined","1","right","60","0","60","60","0","0","60","60","0","0","60","60","60","60","0","10/04/18 21:58:53","The main experiment item","yes","Sternbergtask.osexp","C:/Users/Brad/OneDrive/Desktop/Tarleton school stuff/Fall 2018/Advanced Quantitative Methods/Lab 2","no","mono","no","18","no","white","no","yes","768","legacy","48","11","C:/Users/Brad/OneDrive/Desktop/Tarleton school stuff/Fall 2018/Advanced Quantitative Methods/Lab 2/Hawk-subject-3.csv","legacy","1 7 5 2","Kafkaesque Koffka","3.2.5","0","n","0","right","right","right","right","NA","688","85069","43556","688","NA","2","legacy","4","1024","2","48000","-16","experiment","3","odd","3","509085","88344","505795","506880","3268","211410","506882","148348","3274","167854","511086","511775","507884","511086","NA","Sternberg task","53","55147","61","yes","1024"
"87.0967741935","87.0967741935","901.387096774","901.387096774","black","experiment","legacy","legacy","legacy","0","uniform","1","undefined","1","right","61","0","61","61","0","0","61","61","0","0","61","61","61","61","0","10/04/18 21:58:53","The main experiment item","yes","Sternbergtask.osexp","C:/Users/Brad/OneDrive/Desktop/Tarleton school stuff/Fall 2018/Advanced Quantitative Methods/Lab 2","no","mono","no","18","no","white","no","yes","768","legacy","49","11","C:/Users/Brad/OneDrive/Desktop/Tarleton school stuff/Fall 2018/Advanced Quantitative Methods/Lab 2/Hawk-subject-3.csv","legacy","9 7 4 5 8","Kafkaesque Koffka","3.2.5","0","n","0","right","right","right","right","NA","739","85069","43556","739","NA","2","legacy","5","1024","2","48000","-16","experiment","3","odd","6","515077","88344","511786","512872","3268","211410","512874","148348","3274","167854","517078","517818","513875","517078","NA","Sternberg task","54","55886","62","yes","1024"
"87.3015873016","87.3015873016","900.492063492","900.492063492","black","experiment","legacy","legacy","legacy","0","uniform","1","undefined","1","left","62","0","62","62","0","0","62","62","0","0","62","62","62","62","0","10/04/18 21:58:53","The main experiment item","yes","Sternbergtask.osexp","C:/Users/Brad/OneDrive/Desktop/Tarleton school stuff/Fall 2018/Advanced Quantitative Methods/Lab 2","no","mono","no","18","no","white","no","yes","768","legacy","50","11","C:/Users/Brad/OneDrive/Desktop/Tarleton school stuff/Fall 2018/Advanced Quantitative Methods/Lab 2/Hawk-subject-3.csv","legacy","8 9 5 7 1 6","Kafkaesque Koffka","3.2.5","4","y","0","left","right","right","left","NA","845","85069","43556","845","NA","2","legacy","6","1024","2","48000","-16","experiment","3","odd","7","521125","88344","517830","518920","3268","211410","518922","148348","3274","167854","523126","523972","519924","523126","NA","Sternberg task","55","56731","63","yes","1024"
"87.5","87.5","905.046875","905.046875","black","experiment","legacy","legacy","legacy","0","uniform","1","undefined","1","right","63","0","63","63","0","0","63","63","0","0","63","63","63","63","0","10/04/18 21:58:53","The main experiment item","yes","Sternbergtask.osexp","C:/Users/Brad/OneDrive/Desktop/Tarleton school stuff/Fall 2018/Advanced Quantitative Methods/Lab 2","no","mono","no","18","no","white","no","yes","768","legacy","51","11","C:/Users/Brad/OneDrive/Desktop/Tarleton school stuff/Fall 2018/Advanced Quantitative Methods/Lab 2/Hawk-subject-3.csv","legacy","8 5 4 2 9 6","Kafkaesque Koffka","3.2.5","0","n","0","right","right","right","right","NA","1192","85069","43556","1192","NA","2","legacy","6","1024","2","48000","-16","experiment","3","odd","3","527270","88344","523983","525066","3268","211410","525068","148348","3274","167854","529272","530465","526069","529272","NA","Sternberg task","56","57923","64","yes","1024"
"87.6923076923","87.6923076923","903.415384615","903.415384615","black","experiment","legacy","legacy","legacy","0","uniform","1","undefined","1","right","64","0","64","64","0","0","64","64","0","0","64","64","64","64","0","10/04/18 21:58:53","The main experiment item","yes","Sternbergtask.osexp","C:/Users/Brad/OneDrive/Desktop/Tarleton school stuff/Fall 2018/Advanced Quantitative Methods/Lab 2","no","mono","no","18","no","white","no","yes","768","legacy","52","11","C:/Users/Brad/OneDrive/Desktop/Tarleton school stuff/Fall 2018/Advanced Quantitative Methods/Lab 2/Hawk-subject-3.csv","legacy","3 4 2","Kafkaesque Koffka","3.2.5","0","n","0","right","right","right","right","NA","799","85069","43556","799","NA","2","legacy","3","1024","2","48000","-16","experiment","3","odd","5","533767","88344","530475","531563","3268","211410","531565","148348","3274","167854","535769","536569","532566","535768","NA","Sternberg task","57","58722","65","yes","1024"
"87.8787878788","87.8787878788","903.196969697","903.196969697","black","experiment","legacy","legacy","legacy","0","uniform","1","undefined","1","right","65","0","65","65","0","0","65","65","0","0","65","65","65","65","0","10/04/18 21:58:53","The main experiment item","yes","Sternbergtask.osexp","C:/Users/Brad/OneDrive/Desktop/Tarleton school stuff/Fall 2018/Advanced Quantitative Methods/Lab 2","no","mono","no","18","no","white","no","yes","768","legacy","53","11","C:/Users/Brad/OneDrive/Desktop/Tarleton school stuff/Fall 2018/Advanced Quantitative Methods/Lab 2/Hawk-subject-3.csv","legacy","6 9 7 3 8 2","Kafkaesque Koffka","3.2.5","0","n","0","right","right","right","right","NA","889","85069","43556","889","NA","2","legacy","6","1024","2","48000","-16","experiment","3","odd","5","539869","88344","536579","537664","3268","211410","537666","148348","3274","167854","541870","542760","538667","541870","NA","Sternberg task","58","59611","66","yes","1024"
"88.0597014925","88.0597014925","904.208955224","904.208955224","black","experiment","legacy","legacy","legacy","0","uniform","1","undefined","1","right","66","0","66","66","0","0","66","66","0","0","66","66","66","66","0","10/04/18 21:58:53","The main experiment item","yes","Sternbergtask.osexp","C:/Users/Brad/OneDrive/Desktop/Tarleton school stuff/Fall 2018/Advanced Quantitative Methods/Lab 2","no","mono","no","18","no","white","no","yes","768","legacy","54","11","C:/Users/Brad/OneDrive/Desktop/Tarleton school stuff/Fall 2018/Advanced Quantitative Methods/Lab 2/Hawk-subject-3.csv","legacy","1 4 9 2 5","Kafkaesque Koffka","3.2.5","0","n","0","right","right","right","right","NA","971","85069","43556","971","NA","2","legacy","5","1024","2","48000","-16","experiment","3","odd","7","546058","88344","542771","543853","3268","211410","543855","148348","3274","167854","548060","549032","544857","548059","NA","Sternberg task","59","60582","67","yes","1024"
"88.2352941176","88.2352941176","907.323529412","907.323529412","black","experiment","legacy","legacy","legacy","0","uniform","1","undefined","1","right","67","0","67","67","0","0","67","67","0","0","67","67","67","67","0","10/04/18 21:58:53","The main experiment item","yes","Sternbergtask.osexp","C:/Users/Brad/OneDrive/Desktop/Tarleton school stuff/Fall 2018/Advanced Quantitative Methods/Lab 2","no","mono","no","18","no","white","no","yes","768","legacy","55","11","C:/Users/Brad/OneDrive/Desktop/Tarleton school stuff/Fall 2018/Advanced Quantitative Methods/Lab 2/Hawk-subject-3.csv","legacy","1 4 3 6 5","Kafkaesque Koffka","3.2.5","0","n","0","right","right","right","right","NA","1116","85069","43556","1116","NA","2","legacy","5","1024","2","48000","-16","experiment","3","odd","8","552332","88344","549042","550127","3268","211410","550129","148348","3274","167854","554334","555451","551130","554333","NA","Sternberg task","60","61698","68","yes","1024"
"88.4057971014","88.4057971014","909.260869565","909.260869565","black","experiment","legacy","legacy","legacy","0","uniform","1","undefined","1","right","68","0","68","68","0","0","68","68","0","0","68","68","68","68","0","10/04/18 21:58:53","The main experiment item","yes","Sternbergtask.osexp","C:/Users/Brad/OneDrive/Desktop/Tarleton school stuff/Fall 2018/Advanced Quantitative Methods/Lab 2","no","mono","no","18","no","white","no","yes","768","legacy","56","11","C:/Users/Brad/OneDrive/Desktop/Tarleton school stuff/Fall 2018/Advanced Quantitative Methods/Lab 2/Hawk-subject-3.csv","legacy","4 2 7 6 1 3","Kafkaesque Koffka","3.2.5","0","n","0","right","right","right","right","NA","1041","85069","43556","1041","NA","2","legacy","6","1024","2","48000","-16","experiment","3","odd","8","558751","88344","555462","556546","3268","211410","556548","148348","3274","167854","560753","561795","557549","560752","NA","Sternberg task","61","62739","69","yes","1024"
"88.5714285714","88.5714285714","907.171428571","907.171428571","black","experiment","legacy","legacy","legacy","0","uniform","1","undefined","1","left","69","0","69","69","0","0","69","69","0","0","69","69","69","69","0","10/04/18 21:58:53","The main experiment item","yes","Sternbergtask.osexp","C:/Users/Brad/OneDrive/Desktop/Tarleton school stuff/Fall 2018/Advanced Quantitative Methods/Lab 2","no","mono","no","18","no","white","no","yes","768","legacy","57","11","C:/Users/Brad/OneDrive/Desktop/Tarleton school stuff/Fall 2018/Advanced Quantitative Methods/Lab 2/Hawk-subject-3.csv","legacy","4 6 2 5 1","Kafkaesque Koffka","3.2.5","5","y","0","left","right","right","left","NA","763","85069","43556","763","NA","2","legacy","5","1024","2","48000","-16","experiment","3","odd","1","565095","88344","561805","562891","3268","211410","562893","148348","3274","167854","567097","567861","563894","567096","NA","Sternberg task","62","63502","70","yes","1024"
"88.7323943662","88.7323943662","903.521126761","903.521126761","black","experiment","legacy","legacy","legacy","0","uniform","1","undefined","1","right","70","0","70","70","0","0","70","70","0","0","70","70","70","70","0","10/04/18 21:58:53","The main experiment item","yes","Sternbergtask.osexp","C:/Users/Brad/OneDrive/Desktop/Tarleton school stuff/Fall 2018/Advanced Quantitative Methods/Lab 2","no","mono","no","18","no","white","no","yes","768","legacy","58","11","C:/Users/Brad/OneDrive/Desktop/Tarleton school stuff/Fall 2018/Advanced Quantitative Methods/Lab 2/Hawk-subject-3.csv","legacy","9","Kafkaesque Koffka","3.2.5","0","n","0","right","right","right","right","NA","648","85069","43556","648","NA","2","legacy","1","1024","2","48000","-16","experiment","3","odd","6","571161","88344","567872","568956","3268","211410","568959","148348","3274","167854","573164","573813","569960","573163","NA","Sternberg task","63","64150","71","yes","1024"
"88.8888888889","88.8888888889","904.777777778","904.777777778","black","experiment","legacy","legacy","legacy","0","uniform","1","undefined","1","left","71","0","71","71","0","0","71","71","0","0","71","71","71","71","0","10/04/18 21:58:53","The main experiment item","yes","Sternbergtask.osexp","C:/Users/Brad/OneDrive/Desktop/Tarleton school stuff/Fall 2018/Advanced Quantitative Methods/Lab 2","no","mono","no","18","no","white","no","yes","768","legacy","59","11","C:/Users/Brad/OneDrive/Desktop/Tarleton school stuff/Fall 2018/Advanced Quantitative Methods/Lab 2/Hawk-subject-3.csv","legacy","9 8 4","Kafkaesque Koffka","3.2.5","1","y","0","left","right","right","left","NA","994","85069","43556","994","NA","2","legacy","3","1024","2","48000","-16","experiment","3","odd","9","577111","88344","573824","574907","3268","211410","574909","148348","3274","167854","579113","580108","575910","579113","NA","Sternberg task","64","65144","72","yes","1024"
"89.0410958904","89.0410958904","900.794520548","900.794520548","black","experiment","legacy","legacy","legacy","0","uniform","1","undefined","1","left","72","0","72","72","0","0","72","72","0","0","72","72","72","72","0","10/04/18 21:58:53","The main experiment item","yes","Sternbergtask.osexp","C:/Users/Brad/OneDrive/Desktop/Tarleton school stuff/Fall 2018/Advanced Quantitative Methods/Lab 2","no","mono","no","18","no","white","no","yes","768","legacy","60","11","C:/Users/Brad/OneDrive/Desktop/Tarleton school stuff/Fall 2018/Advanced Quantitative Methods/Lab 2/Hawk-subject-3.csv","legacy","2 3","Kafkaesque Koffka","3.2.5","1","y","0","left","right","right","left","NA","614","85069","43556","614","NA","2","legacy","2","1024","2","48000","-16","experiment","3","odd","2","583407","88344","580119","581202","3268","211410","581204","148348","3274","167854","585408","586023","582205","585408","NA","Sternberg task","65","65758","73","yes","1024"
"89.1891891892","89.1891891892","903.72972973","903.72972973","black","experiment","legacy","legacy","legacy","0","uniform","1","undefined","1","left","73","0","73","73","0","0","73","73","0","0","73","73","73","73","0","10/04/18 21:58:53","The main experiment item","yes","Sternbergtask.osexp","C:/Users/Brad/OneDrive/Desktop/Tarleton school stuff/Fall 2018/Advanced Quantitative Methods/Lab 2","no","mono","no","18","no","white","no","yes","768","legacy","61","11","C:/Users/Brad/OneDrive/Desktop/Tarleton school stuff/Fall 2018/Advanced Quantitative Methods/Lab 2/Hawk-subject-3.csv","legacy","4 9 7 8 5 3","Kafkaesque Koffka","3.2.5","4","y","0","left","right","right","left","NA","1118","85069","43556","1118","NA","2","legacy","6","1024","2","48000","-16","experiment","3","odd","8","589322","88344","586034","587118","3268","211410","587120","148348","3274","167854","591324","592443","588121","591323","NA","Sternberg task","66","66876","74","yes","1024"
"89.3333333333","89.3333333333","901.413333333","901.413333333","black","experiment","legacy","legacy","legacy","0","uniform","1","undefined","1","right","74","0","74","74","0","0","74","74","0","0","74","74","74","74","0","10/04/18 21:58:53","The main experiment item","yes","Sternbergtask.osexp","C:/Users/Brad/OneDrive/Desktop/Tarleton school stuff/Fall 2018/Advanced Quantitative Methods/Lab 2","no","mono","no","18","no","white","no","yes","768","legacy","62","11","C:/Users/Brad/OneDrive/Desktop/Tarleton school stuff/Fall 2018/Advanced Quantitative Methods/Lab 2/Hawk-subject-3.csv","legacy","1 8 7","Kafkaesque Koffka","3.2.5","0","n","0","right","right","right","right","NA","730","85069","43556","730","NA","2","legacy","3","1024","2","48000","-16","experiment","3","odd","4","595744","88344","592454","593539","3268","211410","593541","148348","3274","167854","597746","598477","594543","597745","NA","Sternberg task","67","67606","75","yes","1024"
"89.4736842105","89.4736842105","900.131578947","900.131578947","black","experiment","legacy","legacy","legacy","0","uniform","1","undefined","1","right","75","0","75","75","0","0","75","75","0","0","75","75","75","75","0","10/04/18 21:58:53","The main experiment item","yes","Sternbergtask.osexp","C:/Users/Brad/OneDrive/Desktop/Tarleton school stuff/Fall 2018/Advanced Quantitative Methods/Lab 2","no","mono","no","18","no","white","no","yes","768","legacy","63","11","C:/Users/Brad/OneDrive/Desktop/Tarleton school stuff/Fall 2018/Advanced Quantitative Methods/Lab 2/Hawk-subject-3.csv","legacy","3 9 8 1 6 4","Kafkaesque Koffka","3.2.5","0","n","0","right","right","right","right","NA","804","85069","43556","804","NA","2","legacy","6","1024","2","48000","-16","experiment","3","odd","7","601775","88344","598488","599571","3268","211410","599573","148348","3274","167854","603777","604582","600574","603777","NA","Sternberg task","68","68410","76","yes","1024"
"89.6103896104","89.6103896104","896.155844156","896.155844156","black","experiment","legacy","legacy","legacy","0","uniform","1","undefined","1","left","76","0","76","76","0","0","76","76","0","0","76","76","76","76","0","10/04/18 21:58:53","The main experiment item","yes","Sternbergtask.osexp","C:/Users/Brad/OneDrive/Desktop/Tarleton school stuff/Fall 2018/Advanced Quantitative Methods/Lab 2","no","mono","no","18","no","white","no","yes","768","legacy","64","11","C:/Users/Brad/OneDrive/Desktop/Tarleton school stuff/Fall 2018/Advanced Quantitative Methods/Lab 2/Hawk-subject-3.csv","legacy","4 6 5 8","Kafkaesque Koffka","3.2.5","1","y","0","left","right","right","left","NA","594","85069","43556","594","NA","2","legacy","4","1024","2","48000","-16","experiment","3","odd","4","607882","88344","604593","605676","3268","211410","605680","148348","3274","167854","609884","610479","606681","609883","NA","Sternberg task","69","69004","77","yes","1024"
"89.7435897436","89.7435897436","895","895","black","experiment","legacy","legacy","legacy","0","uniform","1","undefined","1","right","77","0","77","77","0","0","77","77","0","0","77","77","77","77","0","10/04/18 21:58:53","The main experiment item","yes","Sternbergtask.osexp","C:/Users/Brad/OneDrive/Desktop/Tarleton school stuff/Fall 2018/Advanced Quantitative Methods/Lab 2","no","mono","no","18","no","white","no","yes","768","legacy","65","11","C:/Users/Brad/OneDrive/Desktop/Tarleton school stuff/Fall 2018/Advanced Quantitative Methods/Lab 2/Hawk-subject-3.csv","legacy","8 6 3 4 7","Kafkaesque Koffka","3.2.5","0","n","0","right","right","right","right","NA","806","85069","43556","806","NA","2","legacy","5","1024","2","48000","-16","experiment","3","odd","1","613780","88344","610490","611574","3268","211410","611576","148348","3274","167854","615781","616588","612578","615781","NA","Sternberg task","70","69810","78","yes","1024"
"89.8734177215","89.8734177215","891.848101266","891.848101266","black","experiment","legacy","legacy","legacy","0","uniform","1","undefined","1","left","78","0","78","78","0","0","78","78","0","0","78","78","78","78","0","10/04/18 21:58:53","The main experiment item","yes","Sternbergtask.osexp","C:/Users/Brad/OneDrive/Desktop/Tarleton school stuff/Fall 2018/Advanced Quantitative Methods/Lab 2","no","mono","no","18","no","white","no","yes","768","legacy","66","11","C:/Users/Brad/OneDrive/Desktop/Tarleton school stuff/Fall 2018/Advanced Quantitative Methods/Lab 2/Hawk-subject-3.csv","legacy","7","Kafkaesque Koffka","3.2.5","1","y","0","left","right","right","left","NA","646","85069","43556","646","NA","2","legacy","1","1024","2","48000","-16","experiment","3","odd","7","619880","88344","616593","617675","3268","211410","617678","148348","3274","167854","621882","622529","618679","621881","NA","Sternberg task","71","70456","79","yes","1024"
"90","90","889.2125","889.2125","black","experiment","legacy","legacy","legacy","0","uniform","1","undefined","1","right","79","0","79","79","0","0","79","79","0","0","79","79","79","79","0","10/04/18 21:58:53","The main experiment item","yes","Sternbergtask.osexp","C:/Users/Brad/OneDrive/Desktop/Tarleton school stuff/Fall 2018/Advanced Quantitative Methods/Lab 2","no","mono","no","18","no","white","no","yes","768","legacy","67","11","C:/Users/Brad/OneDrive/Desktop/Tarleton school stuff/Fall 2018/Advanced Quantitative Methods/Lab 2/Hawk-subject-3.csv","legacy","3 4 9 6 7 8","Kafkaesque Koffka","3.2.5","0","n","0","right","right","right","right","NA","681","85069","43556","681","NA","2","legacy","6","1024","2","48000","-16","experiment","3","odd","2","625827","88344","622538","623622","3268","211410","623624","148348","3274","167854","627828","628510","624625","627828","NA","Sternberg task","72","71137","80","yes","1024"
"90.1234567901","90.1234567901","885.962962963","885.962962963","black","experiment","legacy","legacy","legacy","0","uniform","1","undefined","1","left","80","0","80","80","0","0","80","80","0","0","80","80","80","80","0","10/04/18 21:58:53","The main experiment item","yes","Sternbergtask.osexp","C:/Users/Brad/OneDrive/Desktop/Tarleton school stuff/Fall 2018/Advanced Quantitative Methods/Lab 2","no","mono","no","18","no","white","no","yes","768","legacy","68","11","C:/Users/Brad/OneDrive/Desktop/Tarleton school stuff/Fall 2018/Advanced Quantitative Methods/Lab 2/Hawk-subject-3.csv","legacy","9 5 3 8 4","Kafkaesque Koffka","3.2.5","1","y","0","left","right","right","left","NA","626","85069","43556","626","NA","2","legacy","5","1024","2","48000","-16","experiment","3","odd","9","631810","88344","628521","629605","3268","211410","629607","148348","3274","167854","633813","634440","630609","633812","NA","Sternberg task","73","71763","81","yes","1024"
"90.243902439","90.243902439","883.12195122","883.12195122","black","experiment","legacy","legacy","legacy","0","uniform","1","undefined","1","left","81","0","81","81","0","0","81","81","0","0","81","81","81","81","0","10/04/18 21:58:53","The main experiment item","yes","Sternbergtask.osexp","C:/Users/Brad/OneDrive/Desktop/Tarleton school stuff/Fall 2018/Advanced Quantitative Methods/Lab 2","no","mono","no","18","no","white","no","yes","768","legacy","69","11","C:/Users/Brad/OneDrive/Desktop/Tarleton school stuff/Fall 2018/Advanced Quantitative Methods/Lab 2/Hawk-subject-3.csv","legacy","6 9 3 1","Kafkaesque Koffka","3.2.5","4","y","0","left","right","right","left","NA","653","85069","43556","653","NA","2","legacy","4","1024","2","48000","-16","experiment","3","odd","1","637738","88344","634450","635533","3268","211410","635535","148348","3274","167854","639739","640392","636536","639739","NA","Sternberg task","74","72416","82","yes","1024"
"90.3614457831","90.3614457831","881.373493976","881.373493976","black","experiment","legacy","legacy","legacy","0","uniform","1","undefined","1","right","82","0","82","82","0","0","82","82","0","0","82","82","82","82","0","10/04/18 21:58:53","The main experiment item","yes","Sternbergtask.osexp","C:/Users/Brad/OneDrive/Desktop/Tarleton school stuff/Fall 2018/Advanced Quantitative Methods/Lab 2","no","mono","no","18","no","white","no","yes","768","legacy","70","11","C:/Users/Brad/OneDrive/Desktop/Tarleton school stuff/Fall 2018/Advanced Quantitative Methods/Lab 2/Hawk-subject-3.csv","legacy","2 7 5","Kafkaesque Koffka","3.2.5","0","n","0","right","right","right","right","NA","738","85069","43556","738","NA","2","legacy","3","1024","2","48000","-16","experiment","3","odd","8","643690","88344","640402","641486","3268","211410","641488","148348","3274","167854","645691","646430","642489","645691","NA","Sternberg task","75","73154","83","yes","1024"
"90.4761904762","90.4761904762","879.738095238","879.738095238","black","experiment","legacy","legacy","legacy","0","uniform","1","undefined","1","left","83","0","83","83","0","0","83","83","0","0","83","83","83","83","0","10/04/18 21:58:53","The main experiment item","yes","Sternbergtask.osexp","C:/Users/Brad/OneDrive/Desktop/Tarleton school stuff/Fall 2018/Advanced Quantitative Methods/Lab 2","no","mono","no","18","no","white","no","yes","768","legacy","71","11","C:/Users/Brad/OneDrive/Desktop/Tarleton school stuff/Fall 2018/Advanced Quantitative Methods/Lab 2/Hawk-subject-3.csv","legacy","6 1 2","Kafkaesque Koffka","3.2.5","3","y","0","left","right","right","left","NA","744","85069","43556","744","NA","2","legacy","3","1024","2","48000","-16","experiment","3","odd","2","649729","88344","646441","647525","3268","211410","647527","148348","3274","167854","651731","652476","648528","651730","NA","Sternberg task","76","73898","84","yes","1024"
"90.5882352941","90.5882352941","881.894117647","881.894117647","black","experiment","legacy","legacy","legacy","0","uniform","1","undefined","1","right","84","0","84","84","0","0","84","84","0","0","84","84","84","84","0","10/04/18 21:58:53","The main experiment item","yes","Sternbergtask.osexp","C:/Users/Brad/OneDrive/Desktop/Tarleton school stuff/Fall 2018/Advanced Quantitative Methods/Lab 2","no","mono","no","18","no","white","no","yes","768","legacy","72","11","C:/Users/Brad/OneDrive/Desktop/Tarleton school stuff/Fall 2018/Advanced Quantitative Methods/Lab 2/Hawk-subject-3.csv","legacy","6 9 4 5 3 2","Kafkaesque Koffka","3.2.5","0","n","0","right","right","right","right","NA","1063","85069","43556","1063","NA","2","legacy","6","1024","2","48000","-16","experiment","3","odd","8","655777","88344","652487","653572","3268","211410","653574","148348","3274","167854","657780","658844","654575","657779","NA","Sternberg task","77","74961","85","yes","1024"
"90.6976744186","90.6976744186","881.895348837","881.895348837","black","experiment","legacy","legacy","legacy","0","uniform","1","undefined","1","left","85","0","85","85","0","0","85","85","0","0","85","85","85","85","0","10/04/18 21:58:53","The main experiment item","yes","Sternbergtask.osexp","C:/Users/Brad/OneDrive/Desktop/Tarleton school stuff/Fall 2018/Advanced Quantitative Methods/Lab 2","no","mono","no","18","no","white","no","yes","768","legacy","73","11","C:/Users/Brad/OneDrive/Desktop/Tarleton school stuff/Fall 2018/Advanced Quantitative Methods/Lab 2/Hawk-subject-3.csv","legacy","4 1 8 7 5","Kafkaesque Koffka","3.2.5","3","y","0","left","right","right","left","NA","882","85069","43556","882","NA","2","legacy","5","1024","2","48000","-16","experiment","3","odd","8","662135","88344","658848","659931","3268","211410","659933","148348","3274","167854","664137","665020","660933","664136","NA","Sternberg task","78","75843","86","yes","1024"
"90.8045977011","90.8045977011","881.896551724","881.896551724","black","experiment","legacy","legacy","legacy","0","uniform","1","undefined","1","right","86","0","86","86","0","0","86","86","0","0","86","86","86","86","0","10/04/18 21:58:53","The main experiment item","yes","Sternbergtask.osexp","C:/Users/Brad/OneDrive/Desktop/Tarleton school stuff/Fall 2018/Advanced Quantitative Methods/Lab 2","no","mono","no","18","no","white","no","yes","768","legacy","74","11","C:/Users/Brad/OneDrive/Desktop/Tarleton school stuff/Fall 2018/Advanced Quantitative Methods/Lab 2/Hawk-subject-3.csv","legacy","2 3 8 5 6 7","Kafkaesque Koffka","3.2.5","0","n","0","right","right","right","right","NA","882","85069","43556","882","NA","2","legacy","6","1024","2","48000","-16","experiment","3","odd","1","668322","88344","665031","666117","3268","211410","666119","148348","3274","167854","670325","671208","667120","670324","NA","Sternberg task","79","76725","87","yes","1024"
"90.9090909091","90.9090909091","879.409090909","879.409090909","black","experiment","legacy","legacy","legacy","0","uniform","1","undefined","1","right","87","0","87","87","0","0","87","87","0","0","87","87","87","87","0","10/04/18 21:58:53","The main experiment item","yes","Sternbergtask.osexp","C:/Users/Brad/OneDrive/Desktop/Tarleton school stuff/Fall 2018/Advanced Quantitative Methods/Lab 2","no","mono","no","18","no","white","no","yes","768","legacy","75","11","C:/Users/Brad/OneDrive/Desktop/Tarleton school stuff/Fall 2018/Advanced Quantitative Methods/Lab 2/Hawk-subject-3.csv","legacy","8 4 3 9","Kafkaesque Koffka","3.2.5","0","n","0","right","right","right","right","NA","663","85069","43556","663","NA","2","legacy","4","1024","2","48000","-16","experiment","3","odd","5","674511","88344","671218","672307","3268","211410","672309","148348","3274","167854","676514","677178","673310","676513","NA","Sternberg task","80","77388","88","yes","1024"
"91.0112359551","91.0112359551","880.460674157","880.460674157","black","experiment","legacy","legacy","legacy","0","uniform","1","undefined","1","right","88","0","88","88","0","0","88","88","0","0","88","88","88","88","0","10/04/18 21:58:53","The main experiment item","yes","Sternbergtask.osexp","C:/Users/Brad/OneDrive/Desktop/Tarleton school stuff/Fall 2018/Advanced Quantitative Methods/Lab 2","no","mono","no","18","no","white","no","yes","768","legacy","76","11","C:/Users/Brad/OneDrive/Desktop/Tarleton school stuff/Fall 2018/Advanced Quantitative Methods/Lab 2/Hawk-subject-3.csv","legacy","5 9 2 3","Kafkaesque Koffka","3.2.5","0","n","0","right","right","right","right","NA","973","85069","43556","973","NA","2","legacy","4","1024","2","48000","-16","experiment","3","odd","8","680479","88344","677189","678273","3268","211410","678276","148348","3274","167854","682481","683455","679278","682480","NA","Sternberg task","81","78361","89","yes","1024"
"91.1111111111","91.1111111111","878.866666667","878.866666667","black","experiment","legacy","legacy","legacy","0","uniform","1","undefined","1","left","89","0","89","89","0","0","89","89","0","0","89","89","89","89","0","10/04/18 21:58:53","The main experiment item","yes","Sternbergtask.osexp","C:/Users/Brad/OneDrive/Desktop/Tarleton school stuff/Fall 2018/Advanced Quantitative Methods/Lab 2","no","mono","no","18","no","white","no","yes","768","legacy","77","11","C:/Users/Brad/OneDrive/Desktop/Tarleton school stuff/Fall 2018/Advanced Quantitative Methods/Lab 2/Hawk-subject-3.csv","legacy","8 5 3 7 4 6","Kafkaesque Koffka","3.2.5","6","y","0","left","right","right","left","NA","737","85069","43556","737","NA","2","legacy","6","1024","2","48000","-16","experiment","3","odd","6","686754","88344","683466","684550","3268","211410","684552","148348","3274","167854","688755","689493","685553","688755","NA","Sternberg task","82","79098","90","yes","1024"
"91.2087912088","91.2087912088","875.923076923","875.923076923","black","experiment","legacy","legacy","legacy","0","uniform","1","undefined","1","left","90","0","90","90","0","0","90","90","0","0","90","90","90","90","0","10/04/18 21:58:53","The main experiment item","yes","Sternbergtask.osexp","C:/Users/Brad/OneDrive/Desktop/Tarleton school stuff/Fall 2018/Advanced Quantitative Methods/Lab 2","no","mono","no","18","no","white","no","yes","768","legacy","78","11","C:/Users/Brad/OneDrive/Desktop/Tarleton school stuff/Fall 2018/Advanced Quantitative Methods/Lab 2/Hawk-subject-3.csv","legacy","3 5 4 7","Kafkaesque Koffka","3.2.5","1","y","0","left","right","right","left","NA","611","85069","43556","611","NA","2","legacy","4","1024","2","48000","-16","experiment","3","odd","3","692793","88344","689506","690589","3268","211410","690591","148348","3274","167854","694794","695406","691592","694794","NA","Sternberg task","83","79709","91","yes","1024"
"91.3043478261","91.3043478261","878.076086957","878.076086957","black","experiment","legacy","legacy","legacy","0","uniform","1","undefined","1","left","91","0","91","91","0","0","91","91","0","0","91","91","91","91","0","10/04/18 21:58:53","The main experiment item","yes","Sternbergtask.osexp","C:/Users/Brad/OneDrive/Desktop/Tarleton school stuff/Fall 2018/Advanced Quantitative Methods/Lab 2","no","mono","no","18","no","white","no","yes","768","legacy","79","11","C:/Users/Brad/OneDrive/Desktop/Tarleton school stuff/Fall 2018/Advanced Quantitative Methods/Lab 2/Hawk-subject-3.csv","legacy","8 1 6","Kafkaesque Koffka","3.2.5","3","y","0","left","right","right","left","NA","1074","85069","43556","1074","NA","2","legacy","3","1024","2","48000","-16","experiment","3","odd","6","698706","88344","695417","696501","3268","211410","696503","148348","3274","167854","700708","701783","697504","700707","NA","Sternberg task","84","80783","92","yes","1024"
"91.3978494624","91.3978494624","876.720430108","876.720430108","black","experiment","legacy","legacy","legacy","0","uniform","1","undefined","1","right","92","0","92","92","0","0","92","92","0","0","92","92","92","92","0","10/04/18 21:58:53","The main experiment item","yes","Sternbergtask.osexp","C:/Users/Brad/OneDrive/Desktop/Tarleton school stuff/Fall 2018/Advanced Quantitative Methods/Lab 2","no","mono","no","18","no","white","no","yes","768","legacy","80","11","C:/Users/Brad/OneDrive/Desktop/Tarleton school stuff/Fall 2018/Advanced Quantitative Methods/Lab 2/Hawk-subject-3.csv","legacy","1 6 4","Kafkaesque Koffka","3.2.5","0","n","0","right","right","right","right","NA","752","85069","43556","752","NA","2","legacy","3","1024","2","48000","-16","experiment","3","odd","7","705083","88344","701794","702878","3268","211410","702880","148348","3274","167854","707084","707837","703881","707084","NA","Sternberg task","85","81535","93","yes","1024"
"91.4893617021","91.4893617021","874.617021277","874.617021277","black","experiment","legacy","legacy","legacy","0","uniform","1","undefined","1","right","93","0","93","93","0","0","93","93","0","0","93","93","93","93","0","10/04/18 21:58:53","The main experiment item","yes","Sternbergtask.osexp","C:/Users/Brad/OneDrive/Desktop/Tarleton school stuff/Fall 2018/Advanced Quantitative Methods/Lab 2","no","mono","no","18","no","white","no","yes","768","legacy","81","11","C:/Users/Brad/OneDrive/Desktop/Tarleton school stuff/Fall 2018/Advanced Quantitative Methods/Lab 2/Hawk-subject-3.csv","legacy","1 7 8 3 9","Kafkaesque Koffka","3.2.5","0","n","0","right","right","right","right","NA","679","85069","43556","679","NA","2","legacy","5","1024","2","48000","-16","experiment","3","odd","2","711138","88344","707848","708932","3268","211410","708934","148348","3274","167854","713140","713820","709935","713139","NA","Sternberg task","86","82214","94","yes","1024"
"91.5789473684","91.5789473684","875.947368421","875.947368421","black","experiment","legacy","legacy","legacy","0","uniform","1","undefined","1","left","94","0","94","94","0","0","94","94","0","0","94","94","94","94","0","10/04/18 21:58:53","The main experiment item","yes","Sternbergtask.osexp","C:/Users/Brad/OneDrive/Desktop/Tarleton school stuff/Fall 2018/Advanced Quantitative Methods/Lab 2","no","mono","no","18","no","white","no","yes","768","legacy","82","11","C:/Users/Brad/OneDrive/Desktop/Tarleton school stuff/Fall 2018/Advanced Quantitative Methods/Lab 2/Hawk-subject-3.csv","legacy","5 2 9 6 1 7","Kafkaesque Koffka","3.2.5","3","y","0","left","right","right","left","NA","1001","85069","43556","1001","NA","2","legacy","6","1024","2","48000","-16","experiment","3","odd","9","717121","88344","713831","714916","3268","211410","714918","148348","3274","167854","719123","720125","715920","719123","NA","Sternberg task","87","83215","95","yes","1024"
"91.6666666667","91.6666666667","874.552083333","874.552083333","black","experiment","legacy","legacy","legacy","0","uniform","1","undefined","1","left","95","0","95","95","0","0","95","95","0","0","95","95","95","95","0","10/04/18 21:58:53","The main experiment item","yes","Sternbergtask.osexp","C:/Users/Brad/OneDrive/Desktop/Tarleton school stuff/Fall 2018/Advanced Quantitative Methods/Lab 2","no","mono","no","18","no","white","no","yes","768","legacy","83","11","C:/Users/Brad/OneDrive/Desktop/Tarleton school stuff/Fall 2018/Advanced Quantitative Methods/Lab 2/Hawk-subject-3.csv","legacy","2 6 1 7 4","Kafkaesque Koffka","3.2.5","2","y","0","left","right","right","left","NA","742","85069","43556","742","NA","2","legacy","5","1024","2","48000","-16","experiment","3","odd","6","723424","88344","720136","721219","3268","211410","721221","148348","3274","167854","725425","726169","722222","725425","NA","Sternberg task","88","83957","96","yes","1024"
"91.7525773196","91.7525773196","872.432989691","872.432989691","black","experiment","legacy","legacy","legacy","0","uniform","1","undefined","1","left","96","0","96","96","0","0","96","96","0","0","96","96","96","96","0","10/04/18 21:58:53","The main experiment item","yes","Sternbergtask.osexp","C:/Users/Brad/OneDrive/Desktop/Tarleton school stuff/Fall 2018/Advanced Quantitative Methods/Lab 2","no","mono","no","18","no","white","no","yes","768","legacy","84","11","C:/Users/Brad/OneDrive/Desktop/Tarleton school stuff/Fall 2018/Advanced Quantitative Methods/Lab 2/Hawk-subject-3.csv","legacy","4 3 2 5 8","Kafkaesque Koffka","3.2.5","2","y","0","left","right","right","left","NA","669","85069","43556","669","NA","2","legacy","5","1024","2","48000","-16","experiment","3","odd","3","729461","88344","726173","727256","3268","211410","727258","148348","3274","167854","731463","732133","728260","731463","NA","Sternberg task","89","84626","97","yes","1024"
"91.8367346939","91.8367346939","869.795918367","869.795918367","black","experiment","legacy","legacy","legacy","0","uniform","1","undefined","1","right","97","0","97","97","0","0","97","97","0","0","97","97","97","97","0","10/04/18 21:58:53","The main experiment item","yes","Sternbergtask.osexp","C:/Users/Brad/OneDrive/Desktop/Tarleton school stuff/Fall 2018/Advanced Quantitative Methods/Lab 2","no","mono","no","18","no","white","no","yes","768","legacy","85","11","C:/Users/Brad/OneDrive/Desktop/Tarleton school stuff/Fall 2018/Advanced Quantitative Methods/Lab 2/Hawk-subject-3.csv","legacy","1","Kafkaesque Koffka","3.2.5","0","n","0","right","right","right","right","NA","614","85069","43556","614","NA","2","legacy","1","1024","2","48000","-16","experiment","3","odd","7","735432","88344","732143","733227","3268","211410","733229","148348","3274","167854","737434","738049","734231","737434","NA","Sternberg task","90","85240","98","yes","1024"
"91.9191919192","91.9191919192","867.464646465","867.464646465","black","experiment","legacy","legacy","legacy","0","uniform","1","undefined","1","right","98","0","98","98","0","0","98","98","0","0","98","98","98","98","0","10/04/18 21:58:53","The main experiment item","yes","Sternbergtask.osexp","C:/Users/Brad/OneDrive/Desktop/Tarleton school stuff/Fall 2018/Advanced Quantitative Methods/Lab 2","no","mono","no","18","no","white","no","yes","768","legacy","86","11","C:/Users/Brad/OneDrive/Desktop/Tarleton school stuff/Fall 2018/Advanced Quantitative Methods/Lab 2/Hawk-subject-3.csv","legacy","7 1 5 6 3","Kafkaesque Koffka","3.2.5","0","n","0","right","right","right","right","NA","639","85069","43556","639","NA","2","legacy","5","1024","2","48000","-16","experiment","3","odd","8","741349","88344","738060","739143","3268","211410","739145","148348","3274","167854","743351","743991","740146","743351","NA","Sternberg task","91","85879","99","yes","1024"
"92","92","870.32","870.32","black","experiment","legacy","legacy","legacy","0","uniform","1","undefined","1","left","99","0","99","99","0","0","99","99","0","0","99","99","99","99","0","10/04/18 21:58:53","The main experiment item","yes","Sternbergtask.osexp","C:/Users/Brad/OneDrive/Desktop/Tarleton school stuff/Fall 2018/Advanced Quantitative Methods/Lab 2","no","mono","no","18","no","white","no","yes","768","legacy","87","11","C:/Users/Brad/OneDrive/Desktop/Tarleton school stuff/Fall 2018/Advanced Quantitative Methods/Lab 2/Hawk-subject-3.csv","legacy","3 4 9 6 2 9","Kafkaesque Koffka","3.2.5","5","y","0","left","right","right","left","NA","1153","85069","43556","1153","NA","2","legacy","6","1024","2","48000","-16","experiment","3","odd","2","747290","88344","744001","745085","3268","211410","745087","148348","3274","167854","749291","750445","746088","749291","NA","Sternberg task","92","87032","100","yes","1024"
"92.0792079208","92.0792079208","868.811881188","868.811881188","black","experiment","legacy","legacy","legacy","0","uniform","1","undefined","1","left","100","0","100","100","0","0","100","100","0","0","100","100","100","100","0","10/04/18 21:58:53","The main experiment item","yes","Sternbergtask.osexp","C:/Users/Brad/OneDrive/Desktop/Tarleton school stuff/Fall 2018/Advanced Quantitative Methods/Lab 2","no","mono","no","18","no","white","no","yes","768","legacy","88","11","C:/Users/Brad/OneDrive/Desktop/Tarleton school stuff/Fall 2018/Advanced Quantitative Methods/Lab 2/Hawk-subject-3.csv","legacy","9 6 2 4 1","Kafkaesque Koffka","3.2.5","4","y","0","left","right","right","left","NA","718","85069","43556","718","NA","2","legacy","5","1024","2","48000","-16","experiment","3","odd","4","753744","88344","750456","751539","3268","211410","751541","148348","3274","167854","755745","756465","752543","755745","NA","Sternberg task","93","87750","101","yes","1024"
"92.1568627451","92.1568627451","866.784313725","866.784313725","black","experiment","legacy","legacy","legacy","0","uniform","1","undefined","1","left","101","0","101","101","0","0","101","101","0","0","101","101","101","101","0","10/04/18 21:58:53","The main experiment item","yes","Sternbergtask.osexp","C:/Users/Brad/OneDrive/Desktop/Tarleton school stuff/Fall 2018/Advanced Quantitative Methods/Lab 2","no","mono","no","18","no","white","no","yes","768","legacy","89","11","C:/Users/Brad/OneDrive/Desktop/Tarleton school stuff/Fall 2018/Advanced Quantitative Methods/Lab 2/Hawk-subject-3.csv","legacy","7 8 4 6 9 5","Kafkaesque Koffka","3.2.5","4","y","0","left","right","right","left","NA","662","85069","43556","662","NA","2","legacy","6","1024","2","48000","-16","experiment","3","odd","6","759764","88344","756475","757559","3268","211410","757561","148348","3274","167854","761765","762428","758563","761765","NA","Sternberg task","94","88412","102","yes","1024"
"92.2330097087","92.2330097087","864.533980583","864.533980583","black","experiment","legacy","legacy","legacy","0","uniform","1","undefined","1","left","102","0","102","102","0","0","102","102","0","0","102","102","102","102","0","10/04/18 21:58:53","The main experiment item","yes","Sternbergtask.osexp","C:/Users/Brad/OneDrive/Desktop/Tarleton school stuff/Fall 2018/Advanced Quantitative Methods/Lab 2","no","mono","no","18","no","white","no","yes","768","legacy","90","11","C:/Users/Brad/OneDrive/Desktop/Tarleton school stuff/Fall 2018/Advanced Quantitative Methods/Lab 2/Hawk-subject-3.csv","legacy","9 1 6 7 8","Kafkaesque Koffka","3.2.5","1","y","0","left","right","right","left","NA","635","85069","43556","635","NA","2","legacy","5","1024","2","48000","-16","experiment","3","odd","9","765722","88344","762432","763518","3268","211410","763520","148348","3274","167854","767724","768360","764521","767724","NA","Sternberg task","95","89047","103","yes","1024"
