"acc","accuracy","average_response_time","avg_rt","background","block","canvas_backend","clock_backend","color_backend","compensation","coordinates","correct","correct_instruction1","correct_keyboard_response","correct_response","count_ISI","count_correctFeedback","count_expSequence","count_experiment","count_experimentLoop","count_fixation","count_incorrectFeedback","count_instruction1","count_instructions2","count_keyboard_response","count_logger","count_memorySet","count_practiceLoop","count_probe","count_thankYou","datetime","description","disable_garbage_collection","experiment_file","experiment_path","font_bold","font_family","font_italic","font_size","font_underline","foreground","form_clicks","fullscreen","height","keyboard_backend","live_row","live_row_practiceLoop","logfile","mouse_backend","numberSet","opensesame_codename","opensesame_version","posInSet","present","repeat_cycle","response","response_instruction1","response_instructions2","response_keyboard_response","response_thankYou","response_time","response_time_instruction1","response_time_instructions2","response_time_keyboard_response","response_time_thankYou","round_decimals","sampler_backend","setSize","sound_buf_size","sound_channels","sound_freq","sound_sample_size","start","subject_nr","subject_parity","target","time_ISI","time_correctFeedback","time_expSequence","time_experiment","time_experimentLoop","time_fixation","time_incorrectFeedback","time_instruction1","time_instructions2","time_keyboard_response","time_logger","time_memorySet","time_practiceLoop","time_probe","time_thankYou","title","total_correct","total_response_time","total_responses","uniform_coordinates","width"
"0","0","2001","2001","black","practice","legacy","legacy","legacy","0","uniform","0","undefined","0","right","0","0","0","0","0","0","0","0","0","0","0","0","0","0","0","Sun Oct  7 19:45:14 2018","The main experiment item","yes","SternbergTask.osexp","/Users/abigailchristie/Desktop","no","mono","no","18","no","white","no","yes","768","legacy","0","0","/Users/abigailchristie/Desktop/2018/Faulkenberry/Lab2/subject-3.csv","legacy","3 1 9 4","Kafkaesque Koffka","3.2.5","0","n","0","None","left","NA","None","NA","2001","64375","NA","2001","NA","2","legacy","4","1024","2","48000","-16","experiment","3","odd","6","69176","NA","66948","2325","NA","66955","NA","2338","NA","71184","73185","67965","66720","71184","NA","Sternberg Task","0","2001","1","yes","1024"
"0","0","2000.5","2000.5","black","practice","legacy","legacy","legacy","0","uniform","0","undefined","0","left","1","1","1","0","0","1","1","0","0","1","1","1","0","1","0","Sun Oct  7 19:45:14 2018","The main experiment item","yes","SternbergTask.osexp","/Users/abigailchristie/Desktop","no","mono","no","18","no","white","no","yes","768","legacy","1","1","/Users/abigailchristie/Desktop/2018/Faulkenberry/Lab2/subject-3.csv","legacy","1 7 9 8 5","Kafkaesque Koffka","3.2.5","4","y","0","None","left","NA","None","NA","2000","64375","NA","2000","NA","2","legacy","5","1024","2","48000","-16","experiment","3","odd","8","76560","NA","74333","2325","NA","74342","73239","2338","NA","78568","80568","75351","66720","78567","NA","Sternberg Task","0","4001","2","yes","1024"
"0","0","1988.66666667","1988.66666667","black","practice","legacy","legacy","legacy","0","uniform","0","undefined","0","right","2","2","2","0","0","2","2","0","0","2","2","2","0","2","0","Sun Oct  7 19:45:14 2018","The main experiment item","yes","SternbergTask.osexp","/Users/abigailchristie/Desktop","no","mono","no","18","no","white","no","yes","768","legacy","2","2","/Users/abigailchristie/Desktop/2018/Faulkenberry/Lab2/subject-3.csv","legacy","9 6 7 4 5","Kafkaesque Koffka","3.2.5","0","n","0","left","left","NA","left","NA","1965","64375","NA","1965","NA","2","legacy","5","1024","2","48000","-16","experiment","3","odd","3","83890","NA","81663","2325","NA","81670","80580","2338","NA","85898","87864","82680","66720","85898","NA","Sternberg Task","0","5966","3","yes","1024"
"0","0","1764.75","1764.75","black","practice","legacy","legacy","legacy","0","uniform","0","undefined","0","left","3","3","3","0","0","3","3","0","0","3","3","3","0","3","0","Sun Oct  7 19:45:14 2018","The main experiment item","yes","SternbergTask.osexp","/Users/abigailchristie/Desktop","no","mono","no","18","no","white","no","yes","768","legacy","3","3","/Users/abigailchristie/Desktop/2018/Faulkenberry/Lab2/subject-3.csv","legacy","1 5 2 9","Kafkaesque Koffka","3.2.5","2","y","0","right","left","NA","right","NA","1093","64375","NA","1093","NA","2","legacy","4","1024","2","48000","-16","experiment","3","odd","5","91185","NA","88958","2325","NA","88966","87874","2338","NA","93193","94288","89975","66720","93193","NA","Sternberg Task","0","7059","4","yes","1024"
"20","20","1678.8","1678.8","black","practice","legacy","legacy","legacy","0","uniform","1","undefined","1","right","4","4","4","0","0","4","4","0","0","4","4","4","0","4","0","Sun Oct  7 19:45:14 2018","The main experiment item","yes","SternbergTask.osexp","/Users/abigailchristie/Desktop","no","mono","no","18","no","white","no","yes","768","legacy","4","4","/Users/abigailchristie/Desktop/2018/Faulkenberry/Lab2/subject-3.csv","legacy","5 7 8 4 1 2","Kafkaesque Koffka","3.2.5","0","n","0","right","left","NA","right","NA","1335","64375","NA","1335","NA","2","legacy","6","1024","2","48000","-16","experiment","3","odd","6","97609","NA","95380","2325","NA","95388","94298","2338","NA","99617","100954","96398","66720","99617","NA","Sternberg Task","1","8394","5","yes","1024"
"33.3333333333","33.3333333333","1546.66666667","1546.66666667","black","practice","legacy","legacy","legacy","0","uniform","1","undefined","1","left","5","5","5","0","0","5","5","0","0","5","5","5","0","5","0","Sun Oct  7 19:45:14 2018","The main experiment item","yes","SternbergTask.osexp","/Users/abigailchristie/Desktop","no","mono","no","18","no","white","no","yes","768","legacy","5","5","/Users/abigailchristie/Desktop/2018/Faulkenberry/Lab2/subject-3.csv","legacy","4 8","Kafkaesque Koffka","3.2.5","1","y","0","left","left","NA","left","NA","886","64375","NA","886","NA","2","legacy","2","1024","2","48000","-16","experiment","3","odd","4","104275","100967","102049","2325","NA","102056","94298","2338","NA","106283","107171","103064","66720","106283","NA","Sternberg Task","2","9280","6","yes","1024"
"42.8571428571","42.8571428571","1433.71428571","1433.71428571","black","practice","legacy","legacy","legacy","0","uniform","1","undefined","1","left","6","6","6","0","0","6","6","0","0","6","6","6","0","6","0","Sun Oct  7 19:45:14 2018","The main experiment item","yes","SternbergTask.osexp","/Users/abigailchristie/Desktop","no","mono","no","18","no","white","no","yes","768","legacy","6","6","/Users/abigailchristie/Desktop/2018/Faulkenberry/Lab2/subject-3.csv","legacy","2 9 4","Kafkaesque Koffka","3.2.5","3","y","0","left","left","NA","left","NA","756","64375","NA","756","NA","2","legacy","3","1024","2","48000","-16","experiment","3","odd","4","110494","107184","108266","2325","NA","108275","94298","2338","NA","112503","113260","109284","66720","112502","NA","Sternberg Task","3","10036","7","yes","1024"
"50","50","1364.25","1364.25","black","practice","legacy","legacy","legacy","0","uniform","1","undefined","1","left","7","7","7","0","0","7","7","0","0","7","7","7","0","7","0","Sun Oct  7 19:45:14 2018","The main experiment item","yes","SternbergTask.osexp","/Users/abigailchristie/Desktop","no","mono","no","18","no","white","no","yes","768","legacy","7","7","/Users/abigailchristie/Desktop/2018/Faulkenberry/Lab2/subject-3.csv","legacy","4 3 1 7 9 8","Kafkaesque Koffka","3.2.5","1","y","0","left","left","NA","left","NA","878","64375","NA","878","NA","2","legacy","6","1024","2","48000","-16","experiment","3","odd","4","116580","113271","114354","2325","NA","114361","94298","2338","NA","118588","119468","115370","66720","118588","NA","Sternberg Task","4","10914","8","yes","1024"
"55.5555555556","55.5555555556","1389.44444444","1389.44444444","black","practice","legacy","legacy","legacy","0","uniform","1","undefined","1","left","8","8","8","0","0","8","8","0","0","8","8","8","0","8","0","Sun Oct  7 19:45:14 2018","The main experiment item","yes","SternbergTask.osexp","/Users/abigailchristie/Desktop","no","mono","no","18","no","white","no","yes","768","legacy","8","8","/Users/abigailchristie/Desktop/2018/Faulkenberry/Lab2/subject-3.csv","legacy","6","Kafkaesque Koffka","3.2.5","1","y","0","left","left","NA","left","NA","1591","64375","NA","1591","NA","2","legacy","1","1024","2","48000","-16","experiment","3","odd","6","122787","119478","120560","2325","NA","120568","94298","2338","NA","124797","126390","121576","66720","124797","NA","Sternberg Task","5","12505","9","yes","1024"
"60","60","1322.1","1322.1","black","practice","legacy","legacy","legacy","0","uniform","1","undefined","1","right","9","9","9","0","0","9","9","0","0","9","9","9","0","9","0","Sun Oct  7 19:45:14 2018","The main experiment item","yes","SternbergTask.osexp","/Users/abigailchristie/Desktop","no","mono","no","18","no","white","no","yes","768","legacy","9","9","/Users/abigailchristie/Desktop/2018/Faulkenberry/Lab2/subject-3.csv","legacy","5","Kafkaesque Koffka","3.2.5","0","n","0","right","left","NA","right","NA","716","64375","NA","716","NA","2","legacy","1","1024","2","48000","-16","experiment","3","odd","3","129709","126400","127481","2325","NA","127489","94298","2338","NA","131718","132435","128498","66720","131718","NA","Sternberg Task","6","13221","10","yes","1024"
"63.6363636364","63.6363636364","1275.81818182","1275.81818182","black","practice","legacy","legacy","legacy","0","uniform","1","undefined","1","right","10","10","10","0","0","10","10","0","0","10","10","10","0","10","0","Sun Oct  7 19:45:14 2018","The main experiment item","yes","SternbergTask.osexp","/Users/abigailchristie/Desktop","no","mono","no","18","no","white","no","yes","768","legacy","10","10","/Users/abigailchristie/Desktop/2018/Faulkenberry/Lab2/subject-3.csv","legacy","4 1 5","Kafkaesque Koffka","3.2.5","0","n","0","right","left","NA","right","NA","813","64375","NA","813","NA","2","legacy","3","1024","2","48000","-16","experiment","3","odd","2","135756","132447","133530","2325","NA","133538","94298","2338","NA","137765","138580","134546","66720","137765","NA","Sternberg Task","7","14034","11","yes","1024"
"66.6666666667","66.6666666667","1237.25","1237.25","black","practice","legacy","legacy","legacy","0","uniform","1","undefined","1","right","11","11","11","0","0","11","11","0","0","11","11","11","0","11","0","Sun Oct  7 19:45:14 2018","The main experiment item","yes","SternbergTask.osexp","/Users/abigailchristie/Desktop","no","mono","no","18","no","white","no","yes","768","legacy","11","11","/Users/abigailchristie/Desktop/2018/Faulkenberry/Lab2/subject-3.csv","legacy","2 1","Kafkaesque Koffka","3.2.5","0","n","0","right","left","NA","right","NA","813","64375","NA","813","NA","2","legacy","2","1024","2","48000","-16","experiment","3","odd","5","141906","138591","139677","2325","NA","139686","94298","2338","NA","143916","144730","140695","66720","143916","NA","Sternberg Task","8","14847","12","yes","1024"
"69.2307692308","69.2307692308","1257.07692308","1257.07692308","black","experiment","legacy","legacy","legacy","0","uniform","1","undefined","1","left","12","12","12","0","0","12","12","0","0","12","12","12","0","12","0","Sun Oct  7 19:45:14 2018","The main experiment item","yes","SternbergTask.osexp","/Users/abigailchristie/Desktop","no","mono","no","18","no","white","no","yes","768","legacy","0","11","/Users/abigailchristie/Desktop/2018/Faulkenberry/Lab2/subject-3.csv","legacy","9 5 8 1","Kafkaesque Koffka","3.2.5","2","y","0","left","left","left","left","NA","1495","64375","9101","1495","NA","2","legacy","4","1024","2","48000","-16","experiment","3","odd","5","157196","144740","154969","2325","154871","154977","94298","2338","145768","159205","160703","155986","66720","159205","NA","Sternberg Task","9","16342","13","yes","1024"
"71.4285714286","71.4285714286","1214.28571429","1214.28571429","black","experiment","legacy","legacy","legacy","0","uniform","1","undefined","1","right","13","13","13","0","0","13","13","0","0","13","13","13","0","13","0","Sun Oct  7 19:45:14 2018","The main experiment item","yes","SternbergTask.osexp","/Users/abigailchristie/Desktop","no","mono","no","18","no","white","no","yes","768","legacy","1","11","/Users/abigailchristie/Desktop/2018/Faulkenberry/Lab2/subject-3.csv","legacy","2 5 1 4","Kafkaesque Koffka","3.2.5","0","n","0","right","left","left","right","NA","658","64375","9101","658","NA","2","legacy","4","1024","2","48000","-16","experiment","3","odd","6","164027","160717","161800","2325","154871","161808","94298","2338","145768","166035","166695","162816","66720","166035","NA","Sternberg Task","10","17000","14","yes","1024"
"73.3333333333","73.3333333333","1186.93333333","1186.93333333","black","experiment","legacy","legacy","legacy","0","uniform","1","undefined","1","left","14","14","14","0","0","14","14","0","0","14","14","14","0","14","0","Sun Oct  7 19:45:14 2018","The main experiment item","yes","SternbergTask.osexp","/Users/abigailchristie/Desktop","no","mono","no","18","no","white","no","yes","768","legacy","2","11","/Users/abigailchristie/Desktop/2018/Faulkenberry/Lab2/subject-3.csv","legacy","9 1 6 7 8","Kafkaesque Koffka","3.2.5","1","y","0","left","left","left","left","NA","804","64375","9101","804","NA","2","legacy","5","1024","2","48000","-16","experiment","3","odd","9","170018","166706","167790","2325","154871","167798","94298","2338","145768","172027","172833","168808","66720","172027","NA","Sternberg Task","11","17804","15","yes","1024"
"75","75","1143.875","1143.875","black","experiment","legacy","legacy","legacy","0","uniform","1","undefined","1","left","15","15","15","0","0","15","15","0","0","15","15","15","0","15","0","Sun Oct  7 19:45:14 2018","The main experiment item","yes","SternbergTask.osexp","/Users/abigailchristie/Desktop","no","mono","no","18","no","white","no","yes","768","legacy","3","11","/Users/abigailchristie/Desktop/2018/Faulkenberry/Lab2/subject-3.csv","legacy","6 2","Kafkaesque Koffka","3.2.5","1","y","0","left","left","left","left","NA","498","64375","9101","498","NA","2","legacy","2","1024","2","48000","-16","experiment","3","odd","6","176151","172843","173924","2325","154871","173932","94298","2338","145768","178159","178658","174940","66720","178159","NA","Sternberg Task","12","18302","16","yes","1024"
"76.4705882353","76.4705882353","1120.05882353","1120.05882353","black","experiment","legacy","legacy","legacy","0","uniform","1","undefined","1","right","16","16","16","0","0","16","16","0","0","16","16","16","0","16","0","Sun Oct  7 19:45:14 2018","The main experiment item","yes","SternbergTask.osexp","/Users/abigailchristie/Desktop","no","mono","no","18","no","white","no","yes","768","legacy","4","11","/Users/abigailchristie/Desktop/2018/Faulkenberry/Lab2/subject-3.csv","legacy","2 3 8 5 6 7","Kafkaesque Koffka","3.2.5","0","n","0","right","left","left","right","NA","739","64375","9101","739","NA","2","legacy","6","1024","2","48000","-16","experiment","3","odd","1","181981","178670","179752","2325","154871","179761","94298","2338","145768","183989","184730","180771","66720","183989","NA","Sternberg Task","13","19041","17","yes","1024"
"77.7777777778","77.7777777778","1103.11111111","1103.11111111","black","experiment","legacy","legacy","legacy","0","uniform","1","undefined","1","left","17","17","17","0","0","17","17","0","0","17","17","17","0","17","0","Sun Oct  7 19:45:14 2018","The main experiment item","yes","SternbergTask.osexp","/Users/abigailchristie/Desktop","no","mono","no","18","no","white","no","yes","768","legacy","5","11","/Users/abigailchristie/Desktop/2018/Faulkenberry/Lab2/subject-3.csv","legacy","8 9 5 7 1 6","Kafkaesque Koffka","3.2.5","4","y","0","left","left","left","left","NA","815","64375","9101","815","NA","2","legacy","6","1024","2","48000","-16","experiment","3","odd","7","188050","184742","185823","2325","154871","185831","94298","2338","145768","190058","190875","186841","66720","190058","NA","Sternberg Task","14","19856","18","yes","1024"
"78.9473684211","78.9473684211","1089.73684211","1089.73684211","black","experiment","legacy","legacy","legacy","0","uniform","1","undefined","1","right","18","18","18","0","0","18","18","0","0","18","18","18","0","18","0","Sun Oct  7 19:45:14 2018","The main experiment item","yes","SternbergTask.osexp","/Users/abigailchristie/Desktop","no","mono","no","18","no","white","no","yes","768","legacy","6","11","/Users/abigailchristie/Desktop/2018/Faulkenberry/Lab2/subject-3.csv","legacy","8 2 1 4 5 9","Kafkaesque Koffka","3.2.5","0","n","0","right","left","left","right","NA","849","64375","9101","849","NA","2","legacy","6","1024","2","48000","-16","experiment","3","odd","7","194202","190887","191974","2325","154871","191981","94298","2338","145768","196210","197061","192991","66720","196210","NA","Sternberg Task","15","20705","19","yes","1024"
"80","80","1066.85","1066.85","black","experiment","legacy","legacy","legacy","0","uniform","1","undefined","1","left","19","19","19","0","0","19","19","0","0","19","19","19","0","19","0","Sun Oct  7 19:45:14 2018","The main experiment item","yes","SternbergTask.osexp","/Users/abigailchristie/Desktop","no","mono","no","18","no","white","no","yes","768","legacy","7","11","/Users/abigailchristie/Desktop/2018/Faulkenberry/Lab2/subject-3.csv","legacy","7 4 2 6 3 5","Kafkaesque Koffka","3.2.5","6","y","0","left","left","left","left","NA","632","64375","9101","632","NA","2","legacy","6","1024","2","48000","-16","experiment","3","odd","5","200383","197072","198156","2325","154871","198164","94298","2338","145768","202392","203026","199173","66720","202392","NA","Sternberg Task","16","21337","20","yes","1024"
"80.9523809524","80.9523809524","1047.28571429","1047.28571429","black","experiment","legacy","legacy","legacy","0","uniform","1","undefined","1","right","20","20","20","0","0","20","20","0","0","20","20","20","0","20","0","Sun Oct  7 19:45:14 2018","The main experiment item","yes","SternbergTask.osexp","/Users/abigailchristie/Desktop","no","mono","no","18","no","white","no","yes","768","legacy","8","11","/Users/abigailchristie/Desktop/2018/Faulkenberry/Lab2/subject-3.csv","legacy","2 8 9","Kafkaesque Koffka","3.2.5","0","n","0","right","left","left","right","NA","656","64375","9101","656","NA","2","legacy","3","1024","2","48000","-16","experiment","3","odd","6","206348","203036","204120","2325","154871","204128","94298","2338","145768","208356","209014","205137","66720","208356","NA","Sternberg Task","17","21993","21","yes","1024"
"77.2727272727","77.2727272727","1035.81818182","1035.81818182","black","experiment","legacy","legacy","legacy","0","uniform","0","undefined","0","left","21","21","21","0","0","21","21","0","0","21","21","21","0","21","0","Sun Oct  7 19:45:14 2018","The main experiment item","yes","SternbergTask.osexp","/Users/abigailchristie/Desktop","no","mono","no","18","no","white","no","yes","768","legacy","9","11","/Users/abigailchristie/Desktop/2018/Faulkenberry/Lab2/subject-3.csv","legacy","9 1 7 2","Kafkaesque Koffka","3.2.5","2","y","0","right","left","left","right","NA","795","64375","9101","795","NA","2","legacy","4","1024","2","48000","-16","experiment","3","odd","1","212337","209027","210110","2325","154871","210118","94298","2338","145768","214346","215143","211127","66720","214346","NA","Sternberg Task","17","22788","22","yes","1024"
"78.2608695652","78.2608695652","1014.7826087","1014.7826087","black","experiment","legacy","legacy","legacy","0","uniform","1","undefined","1","left","22","22","22","0","0","22","22","0","0","22","22","22","0","22","0","Sun Oct  7 19:45:14 2018","The main experiment item","yes","SternbergTask.osexp","/Users/abigailchristie/Desktop","no","mono","no","18","no","white","no","yes","768","legacy","10","11","/Users/abigailchristie/Desktop/2018/Faulkenberry/Lab2/subject-3.csv","legacy","8 7 3","Kafkaesque Koffka","3.2.5","1","y","0","left","left","left","left","NA","552","64375","9101","552","NA","2","legacy","3","1024","2","48000","-16","experiment","3","odd","8","218463","209027","216236","2325","154871","216244","215154","2338","145768","220471","221025","217253","66720","220471","NA","Sternberg Task","18","23340","23","yes","1024"
"79.1666666667","79.1666666667","999.916666667","999.916666667","black","experiment","legacy","legacy","legacy","0","uniform","1","undefined","1","right","23","23","23","0","0","23","23","0","0","23","23","23","0","23","0","Sun Oct  7 19:45:14 2018","The main experiment item","yes","SternbergTask.osexp","/Users/abigailchristie/Desktop","no","mono","no","18","no","white","no","yes","768","legacy","11","11","/Users/abigailchristie/Desktop/2018/Faulkenberry/Lab2/subject-3.csv","legacy","1 4 9 3","Kafkaesque Koffka","3.2.5","0","n","0","right","left","left","right","NA","658","64375","9101","658","NA","2","legacy","4","1024","2","48000","-16","experiment","3","odd","5","224349","221036","222122","2325","154871","222130","215154","2338","145768","226358","227018","223139","66720","226358","NA","Sternberg Task","19","23998","24","yes","1024"
"80","80","980.72","980.72","black","experiment","legacy","legacy","legacy","0","uniform","1","undefined","1","left","24","24","24","0","0","24","24","0","0","24","24","24","0","24","0","Sun Oct  7 19:45:14 2018","The main experiment item","yes","SternbergTask.osexp","/Users/abigailchristie/Desktop","no","mono","no","18","no","white","no","yes","768","legacy","12","11","/Users/abigailchristie/Desktop/2018/Faulkenberry/Lab2/subject-3.csv","legacy","9 4 2","Kafkaesque Koffka","3.2.5","1","y","0","left","left","left","left","NA","520","64375","9101","520","NA","2","legacy","3","1024","2","48000","-16","experiment","3","odd","9","230340","227030","228112","2325","154871","228120","215154","2338","145768","232349","232871","229129","66720","232349","NA","Sternberg Task","20","24518","25","yes","1024"
"80.7692307692","80.7692307692","967.115384615","967.115384615","black","experiment","legacy","legacy","legacy","0","uniform","1","undefined","1","left","25","25","25","0","0","25","25","0","0","25","25","25","0","25","0","Sun Oct  7 19:45:14 2018","The main experiment item","yes","SternbergTask.osexp","/Users/abigailchristie/Desktop","no","mono","no","18","no","white","no","yes","768","legacy","13","11","/Users/abigailchristie/Desktop/2018/Faulkenberry/Lab2/subject-3.csv","legacy","4 9 7 8 5 3","Kafkaesque Koffka","3.2.5","4","y","0","left","left","left","left","NA","627","64375","9101","627","NA","2","legacy","6","1024","2","48000","-16","experiment","3","odd","8","236193","232883","233966","2325","154871","233974","215154","2338","145768","238201","238830","234983","66720","238201","NA","Sternberg Task","21","25145","26","yes","1024"
"81.4814814815","81.4814814815","955.111111111","955.111111111","black","experiment","legacy","legacy","legacy","0","uniform","1","undefined","1","right","26","26","26","0","0","26","26","0","0","26","26","26","0","26","0","Sun Oct  7 19:45:14 2018","The main experiment item","yes","SternbergTask.osexp","/Users/abigailchristie/Desktop","no","mono","no","18","no","white","no","yes","768","legacy","14","11","/Users/abigailchristie/Desktop/2018/Faulkenberry/Lab2/subject-3.csv","legacy","8 4 3 5","Kafkaesque Koffka","3.2.5","0","n","0","right","left","left","right","NA","643","64375","9101","643","NA","2","legacy","4","1024","2","48000","-16","experiment","3","odd","6","242152","238843","239925","2325","154871","239933","215154","2338","145768","244160","244805","240942","66720","244160","NA","Sternberg Task","22","25788","27","yes","1024"
"82.1428571429","82.1428571429","937.857142857","937.857142857","black","experiment","legacy","legacy","legacy","0","uniform","1","undefined","1","left","27","27","27","0","0","27","27","0","0","27","27","27","0","27","0","Sun Oct  7 19:45:14 2018","The main experiment item","yes","SternbergTask.osexp","/Users/abigailchristie/Desktop","no","mono","no","18","no","white","no","yes","768","legacy","15","11","/Users/abigailchristie/Desktop/2018/Faulkenberry/Lab2/subject-3.csv","legacy","7 6","Kafkaesque Koffka","3.2.5","2","y","0","left","left","left","left","NA","472","64375","9101","472","NA","2","legacy","2","1024","2","48000","-16","experiment","3","odd","6","248123","244815","245896","2325","154871","245904","215154","2338","145768","250131","250605","246912","66720","250131","NA","Sternberg Task","23","26260","28","yes","1024"
"82.7586206897","82.7586206897","930.344827586","930.344827586","black","experiment","legacy","legacy","legacy","0","uniform","1","undefined","1","right","28","28","28","0","0","28","28","0","0","28","28","28","0","28","0","Sun Oct  7 19:45:14 2018","The main experiment item","yes","SternbergTask.osexp","/Users/abigailchristie/Desktop","no","mono","no","18","no","white","no","yes","768","legacy","16","11","/Users/abigailchristie/Desktop/2018/Faulkenberry/Lab2/subject-3.csv","legacy","2 8 9 4 1","Kafkaesque Koffka","3.2.5","0","n","0","right","left","left","right","NA","720","64375","9101","720","NA","2","legacy","5","1024","2","48000","-16","experiment","3","odd","5","253927","250618","251700","2325","154871","251708","215154","2338","145768","255936","256658","252717","66720","255936","NA","Sternberg Task","24","26980","29","yes","1024"
"83.3333333333","83.3333333333","930.466666667","930.466666667","black","experiment","legacy","legacy","legacy","0","uniform","1","undefined","1","left","29","29","29","0","0","29","29","0","0","29","29","29","0","29","0","Sun Oct  7 19:45:14 2018","The main experiment item","yes","SternbergTask.osexp","/Users/abigailchristie/Desktop","no","mono","no","18","no","white","no","yes","768","legacy","17","11","/Users/abigailchristie/Desktop/2018/Faulkenberry/Lab2/subject-3.csv","legacy","3 2 1 4 7","Kafkaesque Koffka","3.2.5","2","y","0","left","left","left","left","NA","934","64375","9101","934","NA","2","legacy","5","1024","2","48000","-16","experiment","3","odd","2","259977","256668","257751","2325","154871","257758","215154","2338","145768","261984","262920","258767","66720","261984","NA","Sternberg Task","25","27914","30","yes","1024"
"83.8709677419","83.8709677419","922.419354839","922.419354839","black","experiment","legacy","legacy","legacy","0","uniform","1","undefined","1","right","30","30","30","0","0","30","30","0","0","30","30","30","0","30","0","Sun Oct  7 19:45:14 2018","The main experiment item","yes","SternbergTask.osexp","/Users/abigailchristie/Desktop","no","mono","no","18","no","white","no","yes","768","legacy","18","11","/Users/abigailchristie/Desktop/2018/Faulkenberry/Lab2/subject-3.csv","legacy","9 7 4 5 8","Kafkaesque Koffka","3.2.5","0","n","0","right","left","left","right","NA","681","64375","9101","681","NA","2","legacy","5","1024","2","48000","-16","experiment","3","odd","6","266237","262929","264009","2325","154871","264017","215154","2338","145768","268245","268928","265026","66720","268245","NA","Sternberg Task","26","28595","31","yes","1024"
"84.375","84.375","908.59375","908.59375","black","experiment","legacy","legacy","legacy","0","uniform","1","undefined","1","left","31","31","31","0","0","31","31","0","0","31","31","31","0","31","0","Sun Oct  7 19:45:14 2018","The main experiment item","yes","SternbergTask.osexp","/Users/abigailchristie/Desktop","no","mono","no","18","no","white","no","yes","768","legacy","19","11","/Users/abigailchristie/Desktop/2018/Faulkenberry/Lab2/subject-3.csv","legacy","4","Kafkaesque Koffka","3.2.5","1","y","0","left","left","left","left","NA","480","64375","9101","480","NA","2","legacy","1","1024","2","48000","-16","experiment","3","odd","4","272246","268940","270020","2325","154871","270028","215154","2338","145768","274254","274736","271037","66720","274254","NA","Sternberg Task","27","29075","32","yes","1024"
"84.8484848485","84.8484848485","901.878787879","901.878787879","black","experiment","legacy","legacy","legacy","0","uniform","1","undefined","1","right","32","32","32","0","0","32","32","0","0","32","32","32","0","32","0","Sun Oct  7 19:45:14 2018","The main experiment item","yes","SternbergTask.osexp","/Users/abigailchristie/Desktop","no","mono","no","18","no","white","no","yes","768","legacy","20","11","/Users/abigailchristie/Desktop/2018/Faulkenberry/Lab2/subject-3.csv","legacy","7 4 2 8 1 9","Kafkaesque Koffka","3.2.5","0","n","0","right","left","left","right","NA","687","64375","9101","687","NA","2","legacy","6","1024","2","48000","-16","experiment","3","odd","5","278059","274747","275833","2325","154871","275841","215154","2338","145768","280067","280756","276850","66720","280067","NA","Sternberg Task","28","29762","33","yes","1024"
"85.2941176471","85.2941176471","904.441176471","904.441176471","black","experiment","legacy","legacy","legacy","0","uniform","1","undefined","1","left","33","33","33","0","0","33","33","0","0","33","33","33","0","33","0","Sun Oct  7 19:45:14 2018","The main experiment item","yes","SternbergTask.osexp","/Users/abigailchristie/Desktop","no","mono","no","18","no","white","no","yes","768","legacy","21","11","/Users/abigailchristie/Desktop/2018/Faulkenberry/Lab2/subject-3.csv","legacy","5 2 9 6 1 7","Kafkaesque Koffka","3.2.5","3","y","0","left","left","left","left","NA","989","64375","9101","989","NA","2","legacy","6","1024","2","48000","-16","experiment","3","odd","9","284080","280767","281854","2325","154871","281862","215154","2338","145768","286088","287079","282871","66720","286088","NA","Sternberg Task","29","30751","34","yes","1024"
"85.7142857143","85.7142857143","895","895","black","experiment","legacy","legacy","legacy","0","uniform","1","undefined","1","right","34","34","34","0","0","34","34","0","0","34","34","34","0","34","0","Sun Oct  7 19:45:14 2018","The main experiment item","yes","SternbergTask.osexp","/Users/abigailchristie/Desktop","no","mono","no","18","no","white","no","yes","768","legacy","22","11","/Users/abigailchristie/Desktop/2018/Faulkenberry/Lab2/subject-3.csv","legacy","5 3 2 6 9 8","Kafkaesque Koffka","3.2.5","0","n","0","right","left","left","right","NA","574","64375","9101","574","NA","2","legacy","6","1024","2","48000","-16","experiment","3","odd","4","290400","287090","288173","2325","154871","288181","215154","2338","145768","292408","292984","289190","66720","292408","NA","Sternberg Task","30","31325","35","yes","1024"
"86.1111111111","86.1111111111","888.472222222","888.472222222","black","experiment","legacy","legacy","legacy","0","uniform","1","undefined","1","right","35","35","35","0","0","35","35","0","0","35","35","35","0","35","0","Sun Oct  7 19:45:14 2018","The main experiment item","yes","SternbergTask.osexp","/Users/abigailchristie/Desktop","no","mono","no","18","no","white","no","yes","768","legacy","23","11","/Users/abigailchristie/Desktop/2018/Faulkenberry/Lab2/subject-3.csv","legacy","2 8 6 3 1","Kafkaesque Koffka","3.2.5","0","n","0","right","left","left","right","NA","660","64375","9101","660","NA","2","legacy","5","1024","2","48000","-16","experiment","3","odd","7","296306","292996","294079","2325","154871","294087","215154","2338","145768","298315","298977","295096","66720","298315","NA","Sternberg Task","31","31985","36","yes","1024"
"86.4864864865","86.4864864865","883.567567568","883.567567568","black","experiment","legacy","legacy","legacy","0","uniform","1","undefined","1","left","36","36","36","0","0","36","36","0","0","36","36","36","0","36","0","Sun Oct  7 19:45:14 2018","The main experiment item","yes","SternbergTask.osexp","/Users/abigailchristie/Desktop","no","mono","no","18","no","white","no","yes","768","legacy","24","11","/Users/abigailchristie/Desktop/2018/Faulkenberry/Lab2/subject-3.csv","legacy","6 9 3 1","Kafkaesque Koffka","3.2.5","4","y","0","left","left","left","left","NA","707","64375","9101","707","NA","2","legacy","4","1024","2","48000","-16","experiment","3","odd","1","302296","298988","300069","2325","154871","300077","215154","2338","145768","304305","305014","301086","66720","304304","NA","Sternberg Task","32","32692","37","yes","1024"
"86.8421052632","86.8421052632","876.736842105","876.736842105","black","experiment","legacy","legacy","legacy","0","uniform","1","undefined","1","right","37","37","37","0","0","37","37","0","0","37","37","37","0","37","0","Sun Oct  7 19:45:14 2018","The main experiment item","yes","SternbergTask.osexp","/Users/abigailchristie/Desktop","no","mono","no","18","no","white","no","yes","768","legacy","25","11","/Users/abigailchristie/Desktop/2018/Faulkenberry/Lab2/subject-3.csv","legacy","1 3 2 6 9","Kafkaesque Koffka","3.2.5","0","n","0","right","left","left","right","NA","624","64375","9101","624","NA","2","legacy","5","1024","2","48000","-16","experiment","3","odd","5","308338","305024","306111","2325","154871","306119","215154","2338","145768","310346","310971","307128","66720","310346","NA","Sternberg Task","33","33316","38","yes","1024"
"87.1794871795","87.1794871795","872.051282051","872.051282051","black","experiment","legacy","legacy","legacy","0","uniform","1","undefined","1","right","38","38","38","0","0","38","38","0","0","38","38","38","0","38","0","Sun Oct  7 19:45:14 2018","The main experiment item","yes","SternbergTask.osexp","/Users/abigailchristie/Desktop","no","mono","no","18","no","white","no","yes","768","legacy","26","11","/Users/abigailchristie/Desktop/2018/Faulkenberry/Lab2/subject-3.csv","legacy","1 7 5 2 9","Kafkaesque Koffka","3.2.5","0","n","0","right","left","left","right","NA","694","64375","9101","694","NA","2","legacy","5","1024","2","48000","-16","experiment","3","odd","3","314292","310982","312065","2325","154871","312072","215154","2338","145768","316300","316996","313081","66720","316300","NA","Sternberg Task","34","34010","39","yes","1024"
"87.5","87.5","866.65","866.65","black","experiment","legacy","legacy","legacy","0","uniform","1","undefined","1","left","39","39","39","0","0","39","39","0","0","39","39","39","0","39","0","Sun Oct  7 19:45:14 2018","The main experiment item","yes","SternbergTask.osexp","/Users/abigailchristie/Desktop","no","mono","no","18","no","white","no","yes","768","legacy","27","11","/Users/abigailchristie/Desktop/2018/Faulkenberry/Lab2/subject-3.csv","legacy","4 1 8 7 5","Kafkaesque Koffka","3.2.5","3","y","0","left","left","left","left","NA","656","64375","9101","656","NA","2","legacy","5","1024","2","48000","-16","experiment","3","odd","8","320317","317007","318089","2325","154871","318097","215154","2338","145768","322326","322984","319107","66720","322326","NA","Sternberg Task","35","34666","40","yes","1024"
"87.8048780488","87.8048780488","869.829268293","869.829268293","black","experiment","legacy","legacy","legacy","0","uniform","1","undefined","1","left","40","40","40","0","0","40","40","0","0","40","40","40","0","40","0","Sun Oct  7 19:45:14 2018","The main experiment item","yes","SternbergTask.osexp","/Users/abigailchristie/Desktop","no","mono","no","18","no","white","no","yes","768","legacy","28","11","/Users/abigailchristie/Desktop/2018/Faulkenberry/Lab2/subject-3.csv","legacy","8 5 1 3 9","Kafkaesque Koffka","3.2.5","4","y","0","left","left","left","left","NA","997","64375","9101","997","NA","2","legacy","5","1024","2","48000","-16","experiment","3","odd","3","326300","322996","324075","2325","154871","324083","215154","2338","145768","328308","329307","325092","66720","328308","NA","Sternberg Task","36","35663","41","yes","1024"
"85.7142857143","85.7142857143","874.214285714","874.214285714","black","experiment","legacy","legacy","legacy","0","uniform","0","undefined","0","left","41","41","41","0","0","41","41","0","0","41","41","41","0","41","0","Sun Oct  7 19:45:14 2018","The main experiment item","yes","SternbergTask.osexp","/Users/abigailchristie/Desktop","no","mono","no","18","no","white","no","yes","768","legacy","29","11","/Users/abigailchristie/Desktop/2018/Faulkenberry/Lab2/subject-3.csv","legacy","6 7 9 3 1 2","Kafkaesque Koffka","3.2.5","1","y","0","right","left","left","right","NA","1054","64375","9101","1054","NA","2","legacy","6","1024","2","48000","-16","experiment","3","odd","6","332629","329319","330403","2325","154871","330410","215154","2338","145768","334637","335693","331418","66720","334637","NA","Sternberg Task","36","36717","42","yes","1024"
"86.0465116279","86.0465116279","870.604651163","870.604651163","black","experiment","legacy","legacy","legacy","0","uniform","1","undefined","1","left","42","42","42","0","0","42","42","0","0","42","42","42","0","42","0","Sun Oct  7 19:45:14 2018","The main experiment item","yes","SternbergTask.osexp","/Users/abigailchristie/Desktop","no","mono","no","18","no","white","no","yes","768","legacy","30","11","/Users/abigailchristie/Desktop/2018/Faulkenberry/Lab2/subject-3.csv","legacy","3 5 9 6 2 4","Kafkaesque Koffka","3.2.5","1","y","0","left","left","left","left","NA","719","64375","9101","719","NA","2","legacy","6","1024","2","48000","-16","experiment","3","odd","3","339014","329319","336789","2325","154871","336796","335704","2338","145768","341022","341743","337804","66720","341022","NA","Sternberg Task","37","37436","43","yes","1024"
"86.3636363636","86.3636363636","864.363636364","864.363636364","black","experiment","legacy","legacy","legacy","0","uniform","1","undefined","1","left","43","43","43","0","0","43","43","0","0","43","43","43","0","43","0","Sun Oct  7 19:45:14 2018","The main experiment item","yes","SternbergTask.osexp","/Users/abigailchristie/Desktop","no","mono","no","18","no","white","no","yes","768","legacy","31","11","/Users/abigailchristie/Desktop/2018/Faulkenberry/Lab2/subject-3.csv","legacy","9 6 2 4 1","Kafkaesque Koffka","3.2.5","4","y","0","left","left","left","left","NA","596","64375","9101","596","NA","2","legacy","5","1024","2","48000","-16","experiment","3","odd","4","345070","341754","342842","2325","154871","342849","335704","2338","145768","347078","347677","343860","66720","347078","NA","Sternberg Task","38","38032","44","yes","1024"
"86.6666666667","86.6666666667","856.644444444","856.644444444","black","experiment","legacy","legacy","legacy","0","uniform","1","undefined","1","left","44","44","44","0","0","44","44","0","0","44","44","44","0","44","0","Sun Oct  7 19:45:14 2018","The main experiment item","yes","SternbergTask.osexp","/Users/abigailchristie/Desktop","no","mono","no","18","no","white","no","yes","768","legacy","32","11","/Users/abigailchristie/Desktop/2018/Faulkenberry/Lab2/subject-3.csv","legacy","4 1 5","Kafkaesque Koffka","3.2.5","2","y","0","left","left","left","left","NA","517","64375","9101","517","NA","2","legacy","3","1024","2","48000","-16","experiment","3","odd","1","350997","347686","348769","2325","154871","348777","335704","2338","145768","353005","353524","349786","66720","353004","NA","Sternberg Task","39","38549","45","yes","1024"
"86.9565217391","86.9565217391","853.826086957","853.826086957","black","experiment","legacy","legacy","legacy","0","uniform","1","undefined","1","right","45","45","45","0","0","45","45","0","0","45","45","45","0","45","0","Sun Oct  7 19:45:14 2018","The main experiment item","yes","SternbergTask.osexp","/Users/abigailchristie/Desktop","no","mono","no","18","no","white","no","yes","768","legacy","33","11","/Users/abigailchristie/Desktop/2018/Faulkenberry/Lab2/subject-3.csv","legacy","1 6 4 3 9 7","Kafkaesque Koffka","3.2.5","0","n","0","right","left","left","right","NA","727","64375","9101","727","NA","2","legacy","6","1024","2","48000","-16","experiment","3","odd","8","356846","353535","354618","2325","154871","354626","335704","2338","145768","358854","359583","355634","66720","358854","NA","Sternberg Task","40","39276","46","yes","1024"
"87.2340425532","87.2340425532","847.489361702","847.489361702","black","experiment","legacy","legacy","legacy","0","uniform","1","undefined","1","right","46","46","46","0","0","46","46","0","0","46","46","46","0","46","0","Sun Oct  7 19:45:14 2018","The main experiment item","yes","SternbergTask.osexp","/Users/abigailchristie/Desktop","no","mono","no","18","no","white","no","yes","768","legacy","34","11","/Users/abigailchristie/Desktop/2018/Faulkenberry/Lab2/subject-3.csv","legacy","1 6 4","Kafkaesque Koffka","3.2.5","0","n","0","right","left","left","right","NA","556","64375","9101","556","NA","2","legacy","3","1024","2","48000","-16","experiment","3","odd","7","362903","359595","360676","2325","154871","360684","335704","2338","145768","364912","365470","361693","66720","364911","NA","Sternberg Task","41","39832","47","yes","1024"
"87.5","87.5","840.729166667","840.729166667","black","experiment","legacy","legacy","legacy","0","uniform","1","undefined","1","left","47","47","47","0","0","47","47","0","0","47","47","47","0","47","0","Sun Oct  7 19:45:14 2018","The main experiment item","yes","SternbergTask.osexp","/Users/abigailchristie/Desktop","no","mono","no","18","no","white","no","yes","768","legacy","35","11","/Users/abigailchristie/Desktop/2018/Faulkenberry/Lab2/subject-3.csv","legacy","8 1 6","Kafkaesque Koffka","3.2.5","3","y","0","left","left","left","left","NA","523","64375","9101","523","NA","2","legacy","3","1024","2","48000","-16","experiment","3","odd","6","368790","365481","366563","2325","154871","366571","335704","2338","145768","370798","371323","367579","66720","370798","NA","Sternberg Task","42","40355","48","yes","1024"
"87.7551020408","87.7551020408","833.795918367","833.795918367","black","experiment","legacy","legacy","legacy","0","uniform","1","undefined","1","right","48","48","48","0","0","48","48","0","0","48","48","48","0","48","0","Sun Oct  7 19:45:14 2018","The main experiment item","yes","SternbergTask.osexp","/Users/abigailchristie/Desktop","no","mono","no","18","no","white","no","yes","768","legacy","36","11","/Users/abigailchristie/Desktop/2018/Faulkenberry/Lab2/subject-3.csv","legacy","5","Kafkaesque Koffka","3.2.5","0","n","0","right","left","left","right","NA","501","64375","9101","501","NA","2","legacy","1","1024","2","48000","-16","experiment","3","odd","8","374642","371334","372416","2325","154871","372424","335704","2338","145768","376651","377154","373433","66720","376650","NA","Sternberg Task","43","40856","49","yes","1024"
"88","88","836.38","836.38","black","experiment","legacy","legacy","legacy","0","uniform","1","undefined","1","right","49","49","49","0","0","49","49","0","0","49","49","49","0","49","0","Sun Oct  7 19:45:14 2018","The main experiment item","yes","SternbergTask.osexp","/Users/abigailchristie/Desktop","no","mono","no","18","no","white","no","yes","768","legacy","37","11","/Users/abigailchristie/Desktop/2018/Faulkenberry/Lab2/subject-3.csv","legacy","8 5 7 3 6","Kafkaesque Koffka","3.2.5","0","n","0","right","left","left","right","NA","963","64375","9101","963","NA","2","legacy","5","1024","2","48000","-16","experiment","3","odd","9","380475","377163","378247","2325","154871","378255","335704","2338","145768","382483","383448","379264","66720","382483","NA","Sternberg Task","44","41819","50","yes","1024"
"88.2352941176","88.2352941176","835.333333333","835.333333333","black","experiment","legacy","legacy","legacy","0","uniform","1","undefined","1","left","50","50","50","0","0","50","50","0","0","50","50","50","0","50","0","Sun Oct  7 19:45:14 2018","The main experiment item","yes","SternbergTask.osexp","/Users/abigailchristie/Desktop","no","mono","no","18","no","white","no","yes","768","legacy","38","11","/Users/abigailchristie/Desktop/2018/Faulkenberry/Lab2/subject-3.csv","legacy","3 9 7 6 4","Kafkaesque Koffka","3.2.5","3","y","0","left","left","left","left","NA","783","64375","9101","783","NA","2","legacy","5","1024","2","48000","-16","experiment","3","odd","7","386769","383460","384542","2325","154871","384549","335704","2338","145768","388778","389563","385558","66720","388778","NA","Sternberg Task","45","42602","51","yes","1024"
"88.4615384615","88.4615384615","831.653846154","831.653846154","black","experiment","legacy","legacy","legacy","0","uniform","1","undefined","1","left","51","51","51","0","0","51","51","0","0","51","51","51","0","51","0","Sun Oct  7 19:45:14 2018","The main experiment item","yes","SternbergTask.osexp","/Users/abigailchristie/Desktop","no","mono","no","18","no","white","no","yes","768","legacy","39","11","/Users/abigailchristie/Desktop/2018/Faulkenberry/Lab2/subject-3.csv","legacy","2 4 6 9","Kafkaesque Koffka","3.2.5","3","y","0","left","left","left","left","NA","644","64375","9101","644","NA","2","legacy","4","1024","2","48000","-16","experiment","3","odd","6","392884","389575","390656","2325","154871","390664","335704","2338","145768","394893","395539","391673","66720","394893","NA","Sternberg Task","46","43246","52","yes","1024"
"88.679245283","88.679245283","835.452830189","835.452830189","black","experiment","legacy","legacy","legacy","0","uniform","1","undefined","1","left","52","52","52","0","0","52","52","0","0","52","52","52","0","52","0","Sun Oct  7 19:45:14 2018","The main experiment item","yes","SternbergTask.osexp","/Users/abigailchristie/Desktop","no","mono","no","18","no","white","no","yes","768","legacy","40","11","/Users/abigailchristie/Desktop/2018/Faulkenberry/Lab2/subject-3.csv","legacy","6 9 7 4 5 1","Kafkaesque Koffka","3.2.5","2","y","0","left","left","left","left","NA","1033","64375","9101","1033","NA","2","legacy","6","1024","2","48000","-16","experiment","3","odd","9","398857","395548","396631","2325","154871","396639","335704","2338","145768","400866","401901","397647","66720","400865","NA","Sternberg Task","47","44279","53","yes","1024"
"88.8888888889","88.8888888889","838.777777778","838.777777778","black","experiment","legacy","legacy","legacy","0","uniform","1","undefined","1","left","53","53","53","0","0","53","53","0","0","53","53","53","0","53","0","Sun Oct  7 19:45:14 2018","The main experiment item","yes","SternbergTask.osexp","/Users/abigailchristie/Desktop","no","mono","no","18","no","white","no","yes","768","legacy","41","11","/Users/abigailchristie/Desktop/2018/Faulkenberry/Lab2/subject-3.csv","legacy","6 8 9 3 4 9","Kafkaesque Koffka","3.2.5","5","y","0","left","left","left","left","NA","1015","64375","9101","1015","NA","2","legacy","6","1024","2","48000","-16","experiment","3","odd","4","405224","401911","402998","2325","154871","403005","335704","2338","145768","407233","408250","404014","66720","407233","NA","Sternberg Task","48","45294","54","yes","1024"
"89.0909090909","89.0909090909","834.927272727","834.927272727","black","experiment","legacy","legacy","legacy","0","uniform","1","undefined","1","right","54","54","54","0","0","54","54","0","0","54","54","54","0","54","0","Sun Oct  7 19:45:14 2018","The main experiment item","yes","SternbergTask.osexp","/Users/abigailchristie/Desktop","no","mono","no","18","no","white","no","yes","768","legacy","42","11","/Users/abigailchristie/Desktop/2018/Faulkenberry/Lab2/subject-3.csv","legacy","1 7 5 2","Kafkaesque Koffka","3.2.5","0","n","0","right","left","left","right","NA","627","64375","9101","627","NA","2","legacy","4","1024","2","48000","-16","experiment","3","odd","3","411567","408259","409340","2325","154871","409348","335704","2338","145768","413577","414206","410357","66720","413576","NA","Sternberg Task","49","45921","55","yes","1024"
"89.2857142857","89.2857142857","835.714285714","835.714285714","black","experiment","legacy","legacy","legacy","0","uniform","1","undefined","1","right","55","55","55","0","0","55","55","0","0","55","55","55","0","55","0","Sun Oct  7 19:45:14 2018","The main experiment item","yes","SternbergTask.osexp","/Users/abigailchristie/Desktop","no","mono","no","18","no","white","no","yes","768","legacy","43","11","/Users/abigailchristie/Desktop/2018/Faulkenberry/Lab2/subject-3.csv","legacy","6 9 4 5 3 2","Kafkaesque Koffka","3.2.5","0","n","0","right","left","left","right","NA","879","64375","9101","879","NA","2","legacy","6","1024","2","48000","-16","experiment","3","odd","8","417528","414217","415300","2325","154871","415308","335704","2338","145768","419537","420418","416318","66720","419537","NA","Sternberg Task","50","46800","56","yes","1024"
"89.4736842105","89.4736842105","830.052631579","830.052631579","black","experiment","legacy","legacy","legacy","0","uniform","1","undefined","1","right","56","56","56","0","0","56","56","0","0","56","56","56","0","56","0","Sun Oct  7 19:45:14 2018","The main experiment item","yes","SternbergTask.osexp","/Users/abigailchristie/Desktop","no","mono","no","18","no","white","no","yes","768","legacy","44","11","/Users/abigailchristie/Desktop/2018/Faulkenberry/Lab2/subject-3.csv","legacy","4 1","Kafkaesque Koffka","3.2.5","0","n","0","right","left","left","right","NA","513","64375","9101","513","NA","2","legacy","2","1024","2","48000","-16","experiment","3","odd","6","423739","420430","421511","2325","154871","421519","335704","2338","145768","425748","426264","422528","66720","425748","NA","Sternberg Task","51","47313","57","yes","1024"
"89.6551724138","89.6551724138","823.637931034","823.637931034","black","experiment","legacy","legacy","legacy","0","uniform","1","undefined","1","left","57","57","57","0","0","57","57","0","0","57","57","57","0","57","0","Sun Oct  7 19:45:14 2018","The main experiment item","yes","SternbergTask.osexp","/Users/abigailchristie/Desktop","no","mono","no","18","no","white","no","yes","768","legacy","45","11","/Users/abigailchristie/Desktop/2018/Faulkenberry/Lab2/subject-3.csv","legacy","2 3","Kafkaesque Koffka","3.2.5","1","y","0","left","left","left","left","NA","458","64375","9101","458","NA","2","legacy","2","1024","2","48000","-16","experiment","3","odd","2","429584","426275","427357","2325","154871","427364","335704","2338","145768","431592","432052","428373","66720","431592","NA","Sternberg Task","52","47771","58","yes","1024"
"89.8305084746","89.8305084746","824.305084746","824.305084746","black","experiment","legacy","legacy","legacy","0","uniform","1","undefined","1","left","58","58","58","0","0","58","58","0","0","58","58","58","0","58","0","Sun Oct  7 19:45:14 2018","The main experiment item","yes","SternbergTask.osexp","/Users/abigailchristie/Desktop","no","mono","no","18","no","white","no","yes","768","legacy","46","11","/Users/abigailchristie/Desktop/2018/Faulkenberry/Lab2/subject-3.csv","legacy","8 5 4 7 3 1","Kafkaesque Koffka","3.2.5","2","y","0","left","left","left","left","NA","863","64375","9101","863","NA","2","legacy","6","1024","2","48000","-16","experiment","3","odd","5","435375","432062","433147","2325","154871","433155","335704","2338","145768","437384","438249","434164","66720","437384","NA","Sternberg Task","53","48634","59","yes","1024"
"90","90","824.4","824.4","black","experiment","legacy","legacy","legacy","0","uniform","1","undefined","1","right","59","59","59","0","0","59","59","0","0","59","59","59","0","59","0","Sun Oct  7 19:45:14 2018","The main experiment item","yes","SternbergTask.osexp","/Users/abigailchristie/Desktop","no","mono","no","18","no","white","no","yes","768","legacy","47","11","/Users/abigailchristie/Desktop/2018/Faulkenberry/Lab2/subject-3.csv","legacy","6 2 9 3 8 4","Kafkaesque Koffka","3.2.5","0","n","0","right","left","left","right","NA","830","64375","9101","830","NA","2","legacy","6","1024","2","48000","-16","experiment","3","odd","1","441571","438261","439343","2325","154871","439351","335704","2338","145768","443579","444411","440360","66720","443579","NA","Sternberg Task","54","49464","60","yes","1024"
"90.1639344262","90.1639344262","823.295081967","823.295081967","black","experiment","legacy","legacy","legacy","0","uniform","1","undefined","1","left","60","60","60","0","0","60","60","0","0","60","60","60","0","60","0","Sun Oct  7 19:45:14 2018","The main experiment item","yes","SternbergTask.osexp","/Users/abigailchristie/Desktop","no","mono","no","18","no","white","no","yes","768","legacy","48","11","/Users/abigailchristie/Desktop/2018/Faulkenberry/Lab2/subject-3.csv","legacy","3 5 7 1","Kafkaesque Koffka","3.2.5","3","y","0","left","left","left","left","NA","757","64375","9101","757","NA","2","legacy","4","1024","2","48000","-16","experiment","3","odd","7","447733","444422","445505","2325","154871","445513","335704","2338","145768","449742","450501","446522","66720","449741","NA","Sternberg Task","55","50221","61","yes","1024"
"90.3225806452","90.3225806452","819.629032258","819.629032258","black","experiment","legacy","legacy","legacy","0","uniform","1","undefined","1","right","61","61","61","0","0","61","61","0","0","61","61","61","0","61","0","Sun Oct  7 19:45:14 2018","The main experiment item","yes","SternbergTask.osexp","/Users/abigailchristie/Desktop","no","mono","no","18","no","white","no","yes","768","legacy","49","11","/Users/abigailchristie/Desktop/2018/Faulkenberry/Lab2/subject-3.csv","legacy","6 8","Kafkaesque Koffka","3.2.5","0","n","0","right","left","left","right","NA","596","64375","9101","596","NA","2","legacy","2","1024","2","48000","-16","experiment","3","odd","9","453821","450511","451593","2325","154871","451601","335704","2338","145768","455829","456426","452610","66720","455829","NA","Sternberg Task","56","50817","62","yes","1024"
"90.4761904762","90.4761904762","816.285714286","816.285714286","black","experiment","legacy","legacy","legacy","0","uniform","1","undefined","1","left","62","62","62","0","0","62","62","0","0","62","62","62","0","62","0","Sun Oct  7 19:45:14 2018","The main experiment item","yes","SternbergTask.osexp","/Users/abigailchristie/Desktop","no","mono","no","18","no","white","no","yes","768","legacy","50","11","/Users/abigailchristie/Desktop/2018/Faulkenberry/Lab2/subject-3.csv","legacy","2 6 1 7 4","Kafkaesque Koffka","3.2.5","2","y","0","left","left","left","left","NA","609","64375","9101","609","NA","2","legacy","5","1024","2","48000","-16","experiment","3","odd","6","459746","456435","457517","2325","154871","457525","335704","2338","145768","461754","462365","458534","66720","461754","NA","Sternberg Task","57","51426","63","yes","1024"
"90.625","90.625","812.40625","812.40625","black","experiment","legacy","legacy","legacy","0","uniform","1","undefined","1","left","63","63","63","0","0","63","63","0","0","63","63","63","0","63","0","Sun Oct  7 19:45:14 2018","The main experiment item","yes","SternbergTask.osexp","/Users/abigailchristie/Desktop","no","mono","no","18","no","white","no","yes","768","legacy","51","11","/Users/abigailchristie/Desktop/2018/Faulkenberry/Lab2/subject-3.csv","legacy","9 5 3 8 4","Kafkaesque Koffka","3.2.5","1","y","0","left","left","left","left","NA","568","64375","9101","568","NA","2","legacy","5","1024","2","48000","-16","experiment","3","odd","9","465687","462378","463460","2325","154871","463468","335704","2338","145768","467695","468266","464477","66720","467695","NA","Sternberg Task","58","51994","64","yes","1024"
"90.7692307692","90.7692307692","809.676923077","809.676923077","black","experiment","legacy","legacy","legacy","0","uniform","1","undefined","1","right","64","64","64","0","0","64","64","0","0","64","64","64","0","64","0","Sun Oct  7 19:45:14 2018","The main experiment item","yes","SternbergTask.osexp","/Users/abigailchristie/Desktop","no","mono","no","18","no","white","no","yes","768","legacy","52","11","/Users/abigailchristie/Desktop/2018/Faulkenberry/Lab2/subject-3.csv","legacy","1 7 8 3 9","Kafkaesque Koffka","3.2.5","0","n","0","right","left","left","right","NA","635","64375","9101","635","NA","2","legacy","5","1024","2","48000","-16","experiment","3","odd","2","471588","468277","469360","2325","154871","469368","335704","2338","145768","473596","474233","470377","66720","473596","NA","Sternberg Task","59","52629","65","yes","1024"
"90.9090909091","90.9090909091","807.636363636","807.636363636","black","experiment","legacy","legacy","legacy","0","uniform","1","undefined","1","right","65","65","65","0","0","65","65","0","0","65","65","65","0","65","0","Sun Oct  7 19:45:14 2018","The main experiment item","yes","SternbergTask.osexp","/Users/abigailchristie/Desktop","no","mono","no","18","no","white","no","yes","768","legacy","53","11","/Users/abigailchristie/Desktop/2018/Faulkenberry/Lab2/subject-3.csv","legacy","4 8 1 2","Kafkaesque Koffka","3.2.5","0","n","0","right","left","left","right","NA","675","64375","9101","675","NA","2","legacy","4","1024","2","48000","-16","experiment","3","odd","7","477556","474246","475328","2325","154871","475336","335704","2338","145768","479564","480242","476345","66720","479564","NA","Sternberg Task","60","53304","66","yes","1024"
"91.0447761194","91.0447761194","808","808","black","experiment","legacy","legacy","legacy","0","uniform","1","undefined","1","right","66","66","66","0","0","66","66","0","0","66","66","66","0","66","0","Sun Oct  7 19:45:14 2018","The main experiment item","yes","SternbergTask.osexp","/Users/abigailchristie/Desktop","no","mono","no","18","no","white","no","yes","768","legacy","54","11","/Users/abigailchristie/Desktop/2018/Faulkenberry/Lab2/subject-3.csv","legacy","6 9 7 3 8 2","Kafkaesque Koffka","3.2.5","0","n","0","right","left","left","right","NA","832","64375","9101","832","NA","2","legacy","6","1024","2","48000","-16","experiment","3","odd","5","483566","480255","481338","2325","154871","481346","335704","2338","145768","485574","486408","482355","66720","485574","NA","Sternberg Task","61","54136","67","yes","1024"
"91.1764705882","91.1764705882","805.970588235","805.970588235","black","experiment","legacy","legacy","legacy","0","uniform","1","undefined","1","right","67","67","67","0","0","67","67","0","0","67","67","67","0","67","0","Sun Oct  7 19:45:14 2018","The main experiment item","yes","SternbergTask.osexp","/Users/abigailchristie/Desktop","no","mono","no","18","no","white","no","yes","768","legacy","55","11","/Users/abigailchristie/Desktop/2018/Faulkenberry/Lab2/subject-3.csv","legacy","1 4 9 2 5","Kafkaesque Koffka","3.2.5","0","n","0","right","left","left","right","NA","670","64375","9101","670","NA","2","legacy","5","1024","2","48000","-16","experiment","3","odd","7","489732","486422","487503","2325","154871","487511","335704","2338","145768","491740","492412","488520","66720","491740","NA","Sternberg Task","62","54806","68","yes","1024"
"91.3043478261","91.3043478261","803.173913043","803.173913043","black","experiment","legacy","legacy","legacy","0","uniform","1","undefined","1","right","68","68","68","0","0","68","68","0","0","68","68","68","0","68","0","Sun Oct  7 19:45:14 2018","The main experiment item","yes","SternbergTask.osexp","/Users/abigailchristie/Desktop","no","mono","no","18","no","white","no","yes","768","legacy","56","11","/Users/abigailchristie/Desktop/2018/Faulkenberry/Lab2/subject-3.csv","legacy","3 9 1","Kafkaesque Koffka","3.2.5","0","n","0","right","left","left","right","NA","613","64375","9101","613","NA","2","legacy","3","1024","2","48000","-16","experiment","3","odd","7","495731","492424","493506","2325","154871","493514","335704","2338","145768","497740","498356","494522","66720","497740","NA","Sternberg Task","63","55419","69","yes","1024"
"91.4285714286","91.4285714286","807.314285714","807.314285714","black","experiment","legacy","legacy","legacy","0","uniform","1","undefined","1","left","69","69","69","0","0","69","69","0","0","69","69","69","0","69","0","Sun Oct  7 19:45:14 2018","The main experiment item","yes","SternbergTask.osexp","/Users/abigailchristie/Desktop","no","mono","no","18","no","white","no","yes","768","legacy","57","11","/Users/abigailchristie/Desktop/2018/Faulkenberry/Lab2/subject-3.csv","legacy","7 8 4 6 9 5","Kafkaesque Koffka","3.2.5","4","y","0","left","left","left","left","NA","1093","64375","9101","1093","NA","2","legacy","6","1024","2","48000","-16","experiment","3","odd","6","501679","498368","499451","2325","154871","499459","335704","2338","145768","503687","504783","500468","66720","503687","NA","Sternberg Task","64","56512","70","yes","1024"
"91.5492957746","91.5492957746","804.661971831","804.661971831","black","experiment","legacy","legacy","legacy","0","uniform","1","undefined","1","right","70","70","70","0","0","70","70","0","0","70","70","70","0","70","0","Sun Oct  7 19:45:14 2018","The main experiment item","yes","SternbergTask.osexp","/Users/abigailchristie/Desktop","no","mono","no","18","no","white","no","yes","768","legacy","58","11","/Users/abigailchristie/Desktop/2018/Faulkenberry/Lab2/subject-3.csv","legacy","6 9 4 5 2","Kafkaesque Koffka","3.2.5","0","n","0","right","left","left","right","NA","619","64375","9101","619","NA","2","legacy","5","1024","2","48000","-16","experiment","3","odd","1","508102","504793","505876","2325","154871","505884","335704","2338","145768","510110","510731","506892","66720","510110","NA","Sternberg Task","65","57131","71","yes","1024"
"91.6666666667","91.6666666667","806.986111111","806.986111111","black","experiment","legacy","legacy","legacy","0","uniform","1","undefined","1","right","71","71","71","0","0","71","71","0","0","71","71","71","0","71","0","Sun Oct  7 19:45:14 2018","The main experiment item","yes","SternbergTask.osexp","/Users/abigailchristie/Desktop","no","mono","no","18","no","white","no","yes","768","legacy","59","11","/Users/abigailchristie/Desktop/2018/Faulkenberry/Lab2/subject-3.csv","legacy","7 1 8 4 9 3","Kafkaesque Koffka","3.2.5","0","n","0","right","left","left","right","NA","972","64375","9101","972","NA","2","legacy","6","1024","2","48000","-16","experiment","3","odd","6","514052","510743","511825","2325","154871","511833","335704","2338","145768","516060","517034","512842","66720","516060","NA","Sternberg Task","66","58103","72","yes","1024"
"91.7808219178","91.7808219178","805.520547945","805.520547945","black","experiment","legacy","legacy","legacy","0","uniform","1","undefined","1","left","72","72","72","0","0","72","72","0","0","72","72","72","0","72","0","Sun Oct  7 19:45:14 2018","The main experiment item","yes","SternbergTask.osexp","/Users/abigailchristie/Desktop","no","mono","no","18","no","white","no","yes","768","legacy","60","11","/Users/abigailchristie/Desktop/2018/Faulkenberry/Lab2/subject-3.csv","legacy","1 4 9 3 2 5","Kafkaesque Koffka","3.2.5","3","y","0","left","left","left","left","NA","700","64375","9101","700","NA","2","legacy","6","1024","2","48000","-16","experiment","3","odd","9","520357","517046","518129","2325","154871","518137","335704","2338","145768","522366","523068","519147","66720","522366","NA","Sternberg Task","67","58803","73","yes","1024"
"91.8918918919","91.8918918919","803.756756757","803.756756757","black","experiment","legacy","legacy","legacy","0","uniform","1","undefined","1","right","73","73","73","0","0","73","73","0","0","73","73","73","0","73","0","Sun Oct  7 19:45:14 2018","The main experiment item","yes","SternbergTask.osexp","/Users/abigailchristie/Desktop","no","mono","no","18","no","white","no","yes","768","legacy","61","11","/Users/abigailchristie/Desktop/2018/Faulkenberry/Lab2/subject-3.csv","legacy","5 9 2 3","Kafkaesque Koffka","3.2.5","0","n","0","right","left","left","right","NA","675","64375","9101","675","NA","2","legacy","4","1024","2","48000","-16","experiment","3","odd","8","526386","523080","524160","2325","154871","524167","335704","2338","145768","528394","529071","525176","66720","528394","NA","Sternberg Task","68","59478","74","yes","1024"
"92","92","801.8","801.8","black","experiment","legacy","legacy","legacy","0","uniform","1","undefined","1","left","74","74","74","0","0","74","74","0","0","74","74","74","0","74","0","Sun Oct  7 19:45:14 2018","The main experiment item","yes","SternbergTask.osexp","/Users/abigailchristie/Desktop","no","mono","no","18","no","white","no","yes","768","legacy","62","11","/Users/abigailchristie/Desktop/2018/Faulkenberry/Lab2/subject-3.csv","legacy","2 4 8 5 1 3","Kafkaesque Koffka","3.2.5","1","y","0","left","left","left","left","NA","657","64375","9101","657","NA","2","legacy","6","1024","2","48000","-16","experiment","3","odd","2","532388","529080","530162","2325","154871","530169","335704","2338","145768","534397","535056","531178","66720","534397","NA","Sternberg Task","69","60135","75","yes","1024"
"92.1052631579","92.1052631579","798.631578947","798.631578947","black","experiment","legacy","legacy","legacy","0","uniform","1","undefined","1","left","75","75","75","0","0","75","75","0","0","75","75","75","0","75","0","Sun Oct  7 19:45:14 2018","The main experiment item","yes","SternbergTask.osexp","/Users/abigailchristie/Desktop","no","mono","no","18","no","white","no","yes","768","legacy","63","11","/Users/abigailchristie/Desktop/2018/Faulkenberry/Lab2/subject-3.csv","legacy","9 8 4","Kafkaesque Koffka","3.2.5","1","y","0","left","left","left","left","NA","561","64375","9101","561","NA","2","legacy","3","1024","2","48000","-16","experiment","3","odd","9","538375","535067","536149","2325","154871","536157","335704","2338","145768","540383","540947","537166","66720","540383","NA","Sternberg Task","70","60696","76","yes","1024"
"92.2077922078","92.2077922078","795.38961039","795.38961039","black","experiment","legacy","legacy","legacy","0","uniform","1","undefined","1","right","76","76","76","0","0","76","76","0","0","76","76","76","0","76","0","Sun Oct  7 19:45:14 2018","The main experiment item","yes","SternbergTask.osexp","/Users/abigailchristie/Desktop","no","mono","no","18","no","white","no","yes","768","legacy","64","11","/Users/abigailchristie/Desktop/2018/Faulkenberry/Lab2/subject-3.csv","legacy","9","Kafkaesque Koffka","3.2.5","0","n","0","right","left","left","right","NA","549","64375","9101","549","NA","2","legacy","1","1024","2","48000","-16","experiment","3","odd","6","544267","540959","542039","2325","154871","542047","335704","2338","145768","546276","546827","543057","66720","546275","NA","Sternberg Task","71","61245","77","yes","1024"
"92.3076923077","92.3076923077","792.448717949","792.448717949","black","experiment","legacy","legacy","legacy","0","uniform","1","undefined","1","left","77","77","77","0","0","77","77","0","0","77","77","77","0","77","0","Sun Oct  7 19:45:14 2018","The main experiment item","yes","SternbergTask.osexp","/Users/abigailchristie/Desktop","no","mono","no","18","no","white","no","yes","768","legacy","65","11","/Users/abigailchristie/Desktop/2018/Faulkenberry/Lab2/subject-3.csv","legacy","4 6 5 8","Kafkaesque Koffka","3.2.5","1","y","0","left","left","left","left","NA","566","64375","9101","566","NA","2","legacy","4","1024","2","48000","-16","experiment","3","odd","4","550147","546836","547918","2325","154871","547926","335704","2338","145768","552155","552723","548936","66720","552155","NA","Sternberg Task","72","61811","78","yes","1024"
"92.4050632911","92.4050632911","790.569620253","790.569620253","black","experiment","legacy","legacy","legacy","0","uniform","1","undefined","1","left","78","78","78","0","0","78","78","0","0","78","78","78","0","78","0","Sun Oct  7 19:45:14 2018","The main experiment item","yes","SternbergTask.osexp","/Users/abigailchristie/Desktop","no","mono","no","18","no","white","no","yes","768","legacy","66","11","/Users/abigailchristie/Desktop/2018/Faulkenberry/Lab2/subject-3.csv","legacy","6 7 8 5","Kafkaesque Koffka","3.2.5","3","y","0","left","left","left","left","NA","644","64375","9101","644","NA","2","legacy","4","1024","2","48000","-16","experiment","3","odd","8","556046","552733","553817","2325","154871","553825","335704","2338","145768","558054","558700","554835","66720","558054","NA","Sternberg Task","73","62455","79","yes","1024"
"92.5","92.5","788.8375","788.8375","black","experiment","legacy","legacy","legacy","0","uniform","1","undefined","1","right","79","79","79","0","0","79","79","0","0","79","79","79","0","79","0","Sun Oct  7 19:45:14 2018","The main experiment item","yes","SternbergTask.osexp","/Users/abigailchristie/Desktop","no","mono","no","18","no","white","no","yes","768","legacy","67","11","/Users/abigailchristie/Desktop/2018/Faulkenberry/Lab2/subject-3.csv","legacy","7 8 6 1","Kafkaesque Koffka","3.2.5","0","n","0","right","left","left","right","NA","652","64375","9101","652","NA","2","legacy","4","1024","2","48000","-16","experiment","3","odd","3","562027","558713","559799","2325","154871","559807","335704","2338","145768","564035","564689","560817","66720","564034","NA","Sternberg Task","74","63107","80","yes","1024"
"92.5925925926","92.5925925926","786.222222222","786.222222222","black","experiment","legacy","legacy","legacy","0","uniform","1","undefined","1","right","80","80","80","0","0","80","80","0","0","80","80","80","0","80","0","Sun Oct  7 19:45:14 2018","The main experiment item","yes","SternbergTask.osexp","/Users/abigailchristie/Desktop","no","mono","no","18","no","white","no","yes","768","legacy","68","11","/Users/abigailchristie/Desktop/2018/Faulkenberry/Lab2/subject-3.csv","legacy","1","Kafkaesque Koffka","3.2.5","0","n","0","right","left","left","right","NA","577","64375","9101","577","NA","2","legacy","1","1024","2","48000","-16","experiment","3","odd","7","568005","564699","565779","2325","154871","565787","335704","2338","145768","570013","570593","566796","66720","570013","NA","Sternberg Task","75","63684","81","yes","1024"
"92.6829268293","92.6829268293","783.634146341","783.634146341","black","experiment","legacy","legacy","legacy","0","uniform","1","undefined","1","left","81","81","81","0","0","81","81","0","0","81","81","81","0","81","0","Sun Oct  7 19:45:14 2018","The main experiment item","yes","SternbergTask.osexp","/Users/abigailchristie/Desktop","no","mono","no","18","no","white","no","yes","768","legacy","69","11","/Users/abigailchristie/Desktop/2018/Faulkenberry/Lab2/subject-3.csv","legacy","6 1 2","Kafkaesque Koffka","3.2.5","3","y","0","left","left","left","left","NA","574","64375","9101","574","NA","2","legacy","3","1024","2","48000","-16","experiment","3","odd","2","573915","570606","571687","2325","154871","571695","335704","2338","145768","575924","576500","572705","66720","575924","NA","Sternberg Task","76","64258","82","yes","1024"
"92.7710843373","92.7710843373","780.879518072","780.879518072","black","experiment","legacy","legacy","legacy","0","uniform","1","undefined","1","right","82","82","82","0","0","82","82","0","0","82","82","82","0","82","0","Sun Oct  7 19:45:14 2018","The main experiment item","yes","SternbergTask.osexp","/Users/abigailchristie/Desktop","no","mono","no","18","no","white","no","yes","768","legacy","70","11","/Users/abigailchristie/Desktop/2018/Faulkenberry/Lab2/subject-3.csv","legacy","6 7 5 9","Kafkaesque Koffka","3.2.5","0","n","0","right","left","left","right","NA","555","64375","9101","555","NA","2","legacy","4","1024","2","48000","-16","experiment","3","odd","2","579822","576512","577595","2325","154871","577603","335704","2338","145768","581830","582387","578611","66720","581830","NA","Sternberg Task","77","64813","83","yes","1024"
"92.8571428571","92.8571428571","779.285714286","779.285714286","black","experiment","legacy","legacy","legacy","0","uniform","1","undefined","1","right","83","83","83","0","0","83","83","0","0","83","83","83","0","83","0","Sun Oct  7 19:45:14 2018","The main experiment item","yes","SternbergTask.osexp","/Users/abigailchristie/Desktop","no","mono","no","18","no","white","no","yes","768","legacy","71","11","/Users/abigailchristie/Desktop/2018/Faulkenberry/Lab2/subject-3.csv","legacy","6 3 1 7 9 8","Kafkaesque Koffka","3.2.5","0","n","0","right","left","left","right","NA","647","64375","9101","647","NA","2","legacy","6","1024","2","48000","-16","experiment","3","odd","4","585713","582400","583484","2325","154871","583492","335704","2338","145768","587722","588371","584502","66720","587722","NA","Sternberg Task","78","65460","84","yes","1024"
"92.9411764706","92.9411764706","777.411764706","777.411764706","black","experiment","legacy","legacy","legacy","0","uniform","1","undefined","1","left","84","84","84","0","0","84","84","0","0","84","84","84","0","84","0","Sun Oct  7 19:45:14 2018","The main experiment item","yes","SternbergTask.osexp","/Users/abigailchristie/Desktop","no","mono","no","18","no","white","no","yes","768","legacy","72","11","/Users/abigailchristie/Desktop/2018/Faulkenberry/Lab2/subject-3.csv","legacy","8 5 3 7 4 6","Kafkaesque Koffka","3.2.5","6","y","0","left","left","left","left","NA","620","64375","9101","620","NA","2","legacy","6","1024","2","48000","-16","experiment","3","odd","6","591692","588383","589465","2325","154871","589473","335704","2338","145768","593701","594323","590482","66720","593701","NA","Sternberg Task","79","66080","85","yes","1024"
"93.023255814","93.023255814","781.418604651","781.418604651","black","experiment","legacy","legacy","legacy","0","uniform","1","undefined","1","left","85","85","85","0","0","85","85","0","0","85","85","85","0","85","0","Sun Oct  7 19:45:14 2018","The main experiment item","yes","SternbergTask.osexp","/Users/abigailchristie/Desktop","no","mono","no","18","no","white","no","yes","768","legacy","73","11","/Users/abigailchristie/Desktop/2018/Faulkenberry/Lab2/subject-3.csv","legacy","7 1 8 5 6 2","Kafkaesque Koffka","3.2.5","2","y","0","left","left","left","left","NA","1122","64375","9101","1122","NA","2","legacy","6","1024","2","48000","-16","experiment","3","odd","1","597646","594335","595419","2325","154871","595427","335704","2338","145768","599655","600779","596436","66720","599655","NA","Sternberg Task","80","67202","86","yes","1024"
"93.1034482759","93.1034482759","778.482758621","778.482758621","black","experiment","legacy","legacy","legacy","0","uniform","1","undefined","1","right","86","86","86","0","0","86","86","0","0","86","86","86","0","86","0","Sun Oct  7 19:45:14 2018","The main experiment item","yes","SternbergTask.osexp","/Users/abigailchristie/Desktop","no","mono","no","18","no","white","no","yes","768","legacy","74","11","/Users/abigailchristie/Desktop/2018/Faulkenberry/Lab2/subject-3.csv","legacy","5 2","Kafkaesque Koffka","3.2.5","0","n","0","right","left","left","right","NA","526","64375","9101","526","NA","2","legacy","2","1024","2","48000","-16","experiment","3","odd","7","604100","600790","601873","2325","154871","601880","335704","2338","145768","606109","606638","602890","66720","606109","NA","Sternberg Task","81","67728","87","yes","1024"
"93.1818181818","93.1818181818","781.897727273","781.897727273","black","experiment","legacy","legacy","legacy","0","uniform","1","undefined","1","right","87","87","87","0","0","87","87","0","0","87","87","87","0","87","0","Sun Oct  7 19:45:14 2018","The main experiment item","yes","SternbergTask.osexp","/Users/abigailchristie/Desktop","no","mono","no","18","no","white","no","yes","768","legacy","75","11","/Users/abigailchristie/Desktop/2018/Faulkenberry/Lab2/subject-3.csv","legacy","8 4 3 9","Kafkaesque Koffka","3.2.5","0","n","0","right","left","left","right","NA","1079","64375","9101","1079","NA","2","legacy","4","1024","2","48000","-16","experiment","3","odd","5","609958","606648","607731","2325","154871","607739","335704","2338","145768","611966","613047","608748","66720","611966","NA","Sternberg Task","82","68807","88","yes","1024"
"93.2584269663","93.2584269663","783.101123596","783.101123596","black","experiment","legacy","legacy","legacy","0","uniform","1","undefined","1","right","88","88","88","0","0","88","88","0","0","88","88","88","0","88","0","Sun Oct  7 19:45:14 2018","The main experiment item","yes","SternbergTask.osexp","/Users/abigailchristie/Desktop","no","mono","no","18","no","white","no","yes","768","legacy","76","11","/Users/abigailchristie/Desktop/2018/Faulkenberry/Lab2/subject-3.csv","legacy","3 4 9 6 7 8","Kafkaesque Koffka","3.2.5","0","n","0","right","left","left","right","NA","889","64375","9101","889","NA","2","legacy","6","1024","2","48000","-16","experiment","3","odd","2","616368","613058","614141","2325","154871","614149","335704","2338","145768","618377","619269","615158","66720","618376","NA","Sternberg Task","83","69696","89","yes","1024"
"93.3333333333","93.3333333333","782.233333333","782.233333333","black","experiment","legacy","legacy","legacy","0","uniform","1","undefined","1","left","89","89","89","0","0","89","89","0","0","89","89","89","0","89","0","Sun Oct  7 19:45:14 2018","The main experiment item","yes","SternbergTask.osexp","/Users/abigailchristie/Desktop","no","mono","no","18","no","white","no","yes","768","legacy","77","11","/Users/abigailchristie/Desktop/2018/Faulkenberry/Lab2/subject-3.csv","legacy","9 3 8 2 1 4","Kafkaesque Koffka","3.2.5","3","y","0","left","left","left","left","NA","705","64375","9101","705","NA","2","legacy","6","1024","2","48000","-16","experiment","3","odd","8","622594","619280","620367","2325","154871","620375","335704","2338","145768","624602","625310","621383","66720","624602","NA","Sternberg Task","84","70401","90","yes","1024"
"93.4065934066","93.4065934066","782.692307692","782.692307692","black","experiment","legacy","legacy","legacy","0","uniform","1","undefined","1","right","90","90","90","0","0","90","90","0","0","90","90","90","0","90","0","Sun Oct  7 19:45:14 2018","The main experiment item","yes","SternbergTask.osexp","/Users/abigailchristie/Desktop","no","mono","no","18","no","white","no","yes","768","legacy","78","11","/Users/abigailchristie/Desktop/2018/Faulkenberry/Lab2/subject-3.csv","legacy","7 6 4 8 1 2","Kafkaesque Koffka","3.2.5","0","n","0","right","left","left","right","NA","824","64375","9101","824","NA","2","legacy","6","1024","2","48000","-16","experiment","3","odd","9","628634","625320","626406","2325","154871","626414","335704","2338","145768","630643","631469","627424","66720","630642","NA","Sternberg Task","85","71225","91","yes","1024"
"93.4782608696","93.4782608696","780.402173913","780.402173913","black","experiment","legacy","legacy","legacy","0","uniform","1","undefined","1","left","91","91","91","0","0","91","91","0","0","91","91","91","0","91","0","Sun Oct  7 19:45:14 2018","The main experiment item","yes","SternbergTask.osexp","/Users/abigailchristie/Desktop","no","mono","no","18","no","white","no","yes","768","legacy","79","11","/Users/abigailchristie/Desktop/2018/Faulkenberry/Lab2/subject-3.csv","legacy","7 8 6 3 1","Kafkaesque Koffka","3.2.5","5","y","0","left","left","left","left","NA","572","64375","9101","572","NA","2","legacy","5","1024","2","48000","-16","experiment","3","odd","1","634794","631482","632565","2325","154871","632573","335704","2338","145768","636802","637376","633582","66720","636802","NA","Sternberg Task","86","71797","92","yes","1024"
"93.5483870968","93.5483870968","776.451612903","776.451612903","black","experiment","legacy","legacy","legacy","0","uniform","1","undefined","1","left","92","92","92","0","0","92","92","0","0","92","92","92","0","92","0","Sun Oct  7 19:45:14 2018","The main experiment item","yes","SternbergTask.osexp","/Users/abigailchristie/Desktop","no","mono","no","18","no","white","no","yes","768","legacy","80","11","/Users/abigailchristie/Desktop/2018/Faulkenberry/Lab2/subject-3.csv","legacy","7 1 3","Kafkaesque Koffka","3.2.5","2","y","0","left","left","left","left","NA","413","64375","9101","413","NA","2","legacy","3","1024","2","48000","-16","experiment","3","odd","1","640694","637387","638468","2325","154871","638476","335704","2338","145768","642704","643119","639485","66720","642704","NA","Sternberg Task","87","72210","93","yes","1024"
"93.6170212766","93.6170212766","775.138297872","775.138297872","black","experiment","legacy","legacy","legacy","0","uniform","1","undefined","1","right","93","93","93","0","0","93","93","0","0","93","93","93","0","93","0","Sun Oct  7 19:45:14 2018","The main experiment item","yes","SternbergTask.osexp","/Users/abigailchristie/Desktop","no","mono","no","18","no","white","no","yes","768","legacy","81","11","/Users/abigailchristie/Desktop/2018/Faulkenberry/Lab2/subject-3.csv","legacy","8 5 4 2 9 6","Kafkaesque Koffka","3.2.5","0","n","0","right","left","left","right","NA","653","64375","9101","653","NA","2","legacy","6","1024","2","48000","-16","experiment","3","odd","3","646446","643130","644218","2325","154871","644226","335704","2338","145768","648454","649109","645236","66720","648454","NA","Sternberg Task","88","72863","94","yes","1024"
"93.6842105263","93.6842105263","776.684210526","776.684210526","black","experiment","legacy","legacy","legacy","0","uniform","1","undefined","1","right","94","94","94","0","0","94","94","0","0","94","94","94","0","94","0","Sun Oct  7 19:45:14 2018","The main experiment item","yes","SternbergTask.osexp","/Users/abigailchristie/Desktop","no","mono","no","18","no","white","no","yes","768","legacy","82","11","/Users/abigailchristie/Desktop/2018/Faulkenberry/Lab2/subject-3.csv","legacy","2 7 5","Kafkaesque Koffka","3.2.5","0","n","0","right","left","left","right","NA","922","64375","9101","922","NA","2","legacy","3","1024","2","48000","-16","experiment","3","odd","8","652431","649121","650204","2325","154871","650212","335704","2338","145768","654441","655365","651221","66720","654441","NA","Sternberg Task","89","73785","95","yes","1024"
"93.75","93.75","777.072916667","777.072916667","black","experiment","legacy","legacy","legacy","0","uniform","1","undefined","1","left","95","95","95","0","0","95","95","0","0","95","95","95","0","95","0","Sun Oct  7 19:45:14 2018","The main experiment item","yes","SternbergTask.osexp","/Users/abigailchristie/Desktop","no","mono","no","18","no","white","no","yes","768","legacy","83","11","/Users/abigailchristie/Desktop/2018/Faulkenberry/Lab2/subject-3.csv","legacy","4 7 6 8 2 3","Kafkaesque Koffka","3.2.5","6","y","0","left","left","left","left","NA","814","64375","9101","814","NA","2","legacy","6","1024","2","48000","-16","experiment","3","odd","3","658684","655376","656457","2325","154871","656465","335704","2338","145768","660692","661509","657474","66720","660692","NA","Sternberg Task","90","74599","96","yes","1024"
"93.8144329897","93.8144329897","775.463917526","775.463917526","black","experiment","legacy","legacy","legacy","0","uniform","1","undefined","1","left","96","96","96","0","0","96","96","0","0","96","96","96","0","96","0","Sun Oct  7 19:45:14 2018","The main experiment item","yes","SternbergTask.osexp","/Users/abigailchristie/Desktop","no","mono","no","18","no","white","no","yes","768","legacy","84","11","/Users/abigailchristie/Desktop/2018/Faulkenberry/Lab2/subject-3.csv","legacy","9 3 1 2 5","Kafkaesque Koffka","3.2.5","4","y","0","left","left","left","left","NA","621","64375","9101","621","NA","2","legacy","5","1024","2","48000","-16","experiment","3","odd","2","664830","661521","662604","2325","154871","662612","335704","2338","145768","666840","667464","663620","66720","666839","NA","Sternberg Task","91","75220","97","yes","1024"
"93.8775510204","93.8775510204","775.62244898","775.62244898","black","experiment","legacy","legacy","legacy","0","uniform","1","undefined","1","right","97","97","97","0","0","97","97","0","0","97","97","97","0","97","0","Sun Oct  7 19:45:14 2018","The main experiment item","yes","SternbergTask.osexp","/Users/abigailchristie/Desktop","no","mono","no","18","no","white","no","yes","768","legacy","85","11","/Users/abigailchristie/Desktop/2018/Faulkenberry/Lab2/subject-3.csv","legacy","1 5 3 2 8","Kafkaesque Koffka","3.2.5","0","n","0","right","left","left","right","NA","791","64375","9101","791","NA","2","legacy","5","1024","2","48000","-16","experiment","3","odd","4","670782","667474","668556","2325","154871","668564","335704","2338","145768","672790","673584","669571","66720","672790","NA","Sternberg Task","92","76011","98","yes","1024"
"93.9393939394","93.9393939394","772.787878788","772.787878788","black","experiment","legacy","legacy","legacy","0","uniform","1","undefined","1","right","98","98","98","0","0","98","98","0","0","98","98","98","0","98","0","Sun Oct  7 19:45:14 2018","The main experiment item","yes","SternbergTask.osexp","/Users/abigailchristie/Desktop","no","mono","no","18","no","white","no","yes","768","legacy","86","11","/Users/abigailchristie/Desktop/2018/Faulkenberry/Lab2/subject-3.csv","legacy","7 1","Kafkaesque Koffka","3.2.5","0","n","0","right","left","left","right","NA","495","64375","9101","495","NA","2","legacy","2","1024","2","48000","-16","experiment","3","odd","8","676906","673596","674677","2325","154871","674685","335704","2338","145768","678914","679411","675694","66720","678914","NA","Sternberg Task","93","76506","99","yes","1024"
"94","94","773.75","773.75","black","experiment","legacy","legacy","legacy","0","uniform","1","undefined","1","left","99","99","99","0","0","99","99","0","0","99","99","99","0","99","0","Sun Oct  7 19:45:14 2018","The main experiment item","yes","SternbergTask.osexp","/Users/abigailchristie/Desktop","no","mono","no","18","no","white","no","yes","768","legacy","87","11","/Users/abigailchristie/Desktop/2018/Faulkenberry/Lab2/subject-3.csv","legacy","4 3 2 5 8","Kafkaesque Koffka","3.2.5","2","y","0","left","left","left","left","NA","869","64375","9101","869","NA","2","legacy","5","1024","2","48000","-16","experiment","3","odd","3","682732","679422","680505","2325","154871","680513","335704","2338","145768","684740","685612","681520","66720","684740","NA","Sternberg Task","94","77375","100","yes","1024"
"94.0594059406","94.0594059406","770.495049505","770.495049505","black","experiment","legacy","legacy","legacy","0","uniform","1","undefined","1","left","100","100","100","0","0","100","100","0","0","100","100","100","0","100","0","Sun Oct  7 19:45:14 2018","The main experiment item","yes","SternbergTask.osexp","/Users/abigailchristie/Desktop","no","mono","no","18","no","white","no","yes","768","legacy","88","11","/Users/abigailchristie/Desktop/2018/Faulkenberry/Lab2/subject-3.csv","legacy","8 3","Kafkaesque Koffka","3.2.5","2","y","0","left","left","left","left","NA","445","64375","9101","445","NA","2","legacy","2","1024","2","48000","-16","experiment","3","odd","3","688935","685624","686707","2325","154871","686715","335704","2338","145768","690944","691392","687724","66720","690944","NA","Sternberg Task","95","77820","101","yes","1024"
"94.1176470588","94.1176470588","768.078431373","768.078431373","black","experiment","legacy","legacy","legacy","0","uniform","1","undefined","1","left","101","101","101","0","0","101","101","0","0","101","101","101","0","101","0","Sun Oct  7 19:45:14 2018","The main experiment item","yes","SternbergTask.osexp","/Users/abigailchristie/Desktop","no","mono","no","18","no","white","no","yes","768","legacy","89","11","/Users/abigailchristie/Desktop/2018/Faulkenberry/Lab2/subject-3.csv","legacy","4 6 2 5 1","Kafkaesque Koffka","3.2.5","5","y","0","left","left","left","left","NA","524","64375","9101","524","NA","2","legacy","5","1024","2","48000","-16","experiment","3","odd","1","694717","691404","692489","2325","154871","692497","335704","2338","145768","696725","697251","693506","66720","696725","NA","Sternberg Task","96","78344","102","yes","1024"
"94.1747572816","94.1747572816","765.427184466","765.427184466","black","experiment","legacy","legacy","legacy","0","uniform","1","undefined","1","left","102","102","102","0","0","102","102","0","0","102","102","102","0","102","0","Sun Oct  7 19:45:14 2018","The main experiment item","yes","SternbergTask.osexp","/Users/abigailchristie/Desktop","no","mono","no","18","no","white","no","yes","768","legacy","90","11","/Users/abigailchristie/Desktop/2018/Faulkenberry/Lab2/subject-3.csv","legacy","8 9 6 1","Kafkaesque Koffka","3.2.5","2","y","0","left","left","left","left","NA","495","64375","9101","495","NA","2","legacy","4","1024","2","48000","-16","experiment","3","odd","9","700572","697262","698344","2325","154871","698352","335704","2338","145768","702581","703079","699361","66720","702581","NA","Sternberg Task","97","78839","103","yes","1024"
"94.2307692308","94.2307692308","763.048076923","763.048076923","black","experiment","legacy","legacy","legacy","0","uniform","1","undefined","1","left","103","103","103","0","0","103","103","0","0","103","103","103","0","103","0","Sun Oct  7 19:45:14 2018","The main experiment item","yes","SternbergTask.osexp","/Users/abigailchristie/Desktop","no","mono","no","18","no","white","no","yes","768","legacy","91","11","/Users/abigailchristie/Desktop/2018/Faulkenberry/Lab2/subject-3.csv","legacy","8 9 5 6 7","Kafkaesque Koffka","3.2.5","1","y","0","left","left","left","left","NA","518","64375","9101","518","NA","2","legacy","5","1024","2","48000","-16","experiment","3","odd","8","706399","703090","704173","2325","154871","704181","335704","2338","145768","708408","708929","705190","66720","708408","NA","Sternberg Task","98","79357","104","yes","1024"
"94.2857142857","94.2857142857","762.885714286","762.885714286","black","experiment","legacy","legacy","legacy","0","uniform","1","undefined","1","right","104","104","104","0","0","104","104","0","0","104","104","104","0","104","0","Sun Oct  7 19:45:14 2018","The main experiment item","yes","SternbergTask.osexp","/Users/abigailchristie/Desktop","no","mono","no","18","no","white","no","yes","768","legacy","92","11","/Users/abigailchristie/Desktop/2018/Faulkenberry/Lab2/subject-3.csv","legacy","7 1 5 6 3","Kafkaesque Koffka","3.2.5","0","n","0","right","left","left","right","NA","746","64375","9101","746","NA","2","legacy","5","1024","2","48000","-16","experiment","3","odd","8","712253","708940","710024","2325","154871","710032","335704","2338","145768","714262","715010","711042","66720","714262","NA","Sternberg Task","99","80103","105","yes","1024"
"94.3396226415","94.3396226415","760.245283019","760.245283019","black","experiment","legacy","legacy","legacy","0","uniform","1","undefined","1","left","105","105","105","0","0","105","105","0","0","105","105","105","0","105","0","Sun Oct  7 19:45:14 2018","The main experiment item","yes","SternbergTask.osexp","/Users/abigailchristie/Desktop","no","mono","no","18","no","white","no","yes","768","legacy","93","11","/Users/abigailchristie/Desktop/2018/Faulkenberry/Lab2/subject-3.csv","legacy","2 5 4 8 7","Kafkaesque Koffka","3.2.5","3","y","0","left","left","left","left","NA","483","64375","9101","483","NA","2","legacy","5","1024","2","48000","-16","experiment","3","odd","4","718332","715023","716105","2325","154871","716113","335704","2338","145768","720341","720826","717122","66720","720340","NA","Sternberg Task","100","80586","106","yes","1024"
"94.3925233645","94.3925233645","757.401869159","757.401869159","black","experiment","legacy","legacy","legacy","0","uniform","1","undefined","1","left","106","106","106","0","0","106","106","0","0","106","106","106","0","106","0","Sun Oct  7 19:45:14 2018","The main experiment item","yes","SternbergTask.osexp","/Users/abigailchristie/Desktop","no","mono","no","18","no","white","no","yes","768","legacy","94","11","/Users/abigailchristie/Desktop/2018/Faulkenberry/Lab2/subject-3.csv","legacy","3 4","Kafkaesque Koffka","3.2.5","1","y","0","left","left","left","left","NA","456","64375","9101","456","NA","2","legacy","2","1024","2","48000","-16","experiment","3","odd","3","724147","720839","721920","2325","154871","721928","335704","2338","145768","726156","726614","722937","66720","726156","NA","Sternberg Task","101","81042","107","yes","1024"
"94.4444444444","94.4444444444","757.638888889","757.638888889","black","experiment","legacy","legacy","legacy","0","uniform","1","undefined","1","right","107","107","107","0","0","107","107","0","0","107","107","107","0","107","0","Sun Oct  7 19:45:14 2018","The main experiment item","yes","SternbergTask.osexp","/Users/abigailchristie/Desktop","no","mono","no","18","no","white","no","yes","768","legacy","95","11","/Users/abigailchristie/Desktop/2018/Faulkenberry/Lab2/subject-3.csv","legacy","7 9 1 6","Kafkaesque Koffka","3.2.5","0","n","0","right","left","left","right","NA","783","64375","9101","783","NA","2","legacy","4","1024","2","48000","-16","experiment","3","odd","4","729935","726625","727708","2325","154871","727716","335704","2338","145768","731943","732728","728725","66720","731942","NA","Sternberg Task","102","81825","108","yes","1024"
"94.495412844","94.495412844","755.036697248","755.036697248","black","experiment","legacy","legacy","legacy","0","uniform","1","undefined","1","left","108","108","108","0","0","108","108","0","0","108","108","108","0","108","0","Sun Oct  7 19:45:14 2018","The main experiment item","yes","SternbergTask.osexp","/Users/abigailchristie/Desktop","no","mono","no","18","no","white","no","yes","768","legacy","96","11","/Users/abigailchristie/Desktop/2018/Faulkenberry/Lab2/subject-3.csv","legacy","8","Kafkaesque Koffka","3.2.5","1","y","0","left","left","left","left","NA","474","64375","9101","474","NA","2","legacy","1","1024","2","48000","-16","experiment","3","odd","8","736043","732739","733818","2325","154871","733826","335704","2338","145768","738052","738529","734834","66720","738052","NA","Sternberg Task","103","82299","109","yes","1024"
"94.5454545455","94.5454545455","755.709090909","755.709090909","black","experiment","legacy","legacy","legacy","0","uniform","1","undefined","1","right","109","109","109","0","0","109","109","0","0","109","109","109","0","109","0","Sun Oct  7 19:45:14 2018","The main experiment item","yes","SternbergTask.osexp","/Users/abigailchristie/Desktop","no","mono","no","18","no","white","no","yes","768","legacy","97","11","/Users/abigailchristie/Desktop/2018/Faulkenberry/Lab2/subject-3.csv","legacy","9 5 3 2 8 6","Kafkaesque Koffka","3.2.5","0","n","0","right","left","left","right","NA","829","64375","9101","829","NA","2","legacy","6","1024","2","48000","-16","experiment","3","odd","7","741855","738543","739627","2325","154871","739634","335704","2338","145768","743864","744696","740644","66720","743864","NA","Sternberg Task","104","83128","110","yes","1024"
"94.5945945946","94.5945945946","757.864864865","757.864864865","black","experiment","legacy","legacy","legacy","0","uniform","1","undefined","1","right","110","110","110","0","0","110","110","0","0","110","110","110","0","110","0","Sun Oct  7 19:45:14 2018","The main experiment item","yes","SternbergTask.osexp","/Users/abigailchristie/Desktop","no","mono","no","18","no","white","no","yes","768","legacy","98","11","/Users/abigailchristie/Desktop/2018/Faulkenberry/Lab2/subject-3.csv","legacy","3 9 8 1 6 4","Kafkaesque Koffka","3.2.5","0","n","0","right","left","left","right","NA","995","64375","9101","995","NA","2","legacy","6","1024","2","48000","-16","experiment","3","odd","7","748020","744708","745791","2325","154871","745800","335704","2338","145768","750028","751025","746809","66720","750028","NA","Sternberg Task","105","84123","111","yes","1024"
"94.6428571429","94.6428571429","756.428571429","756.428571429","black","experiment","legacy","legacy","legacy","0","uniform","1","undefined","1","left","111","111","111","0","0","111","111","0","0","111","111","111","0","111","0","Sun Oct  7 19:45:14 2018","The main experiment item","yes","SternbergTask.osexp","/Users/abigailchristie/Desktop","no","mono","no","18","no","white","no","yes","768","legacy","99","11","/Users/abigailchristie/Desktop/2018/Faulkenberry/Lab2/subject-3.csv","legacy","3 9 6 2","Kafkaesque Koffka","3.2.5","4","y","0","left","left","left","left","NA","597","64375","9101","597","NA","2","legacy","4","1024","2","48000","-16","experiment","3","odd","2","754346","751036","752118","2325","154871","752126","335704","2338","145768","756354","756953","753135","66720","756354","NA","Sternberg Task","106","84720","112","yes","1024"
"94.6902654867","94.6902654867","754.690265487","754.690265487","black","experiment","legacy","legacy","legacy","0","uniform","1","undefined","1","right","112","112","112","0","0","112","112","0","0","112","112","112","0","112","0","Sun Oct  7 19:45:14 2018","The main experiment item","yes","SternbergTask.osexp","/Users/abigailchristie/Desktop","no","mono","no","18","no","white","no","yes","768","legacy","100","11","/Users/abigailchristie/Desktop/2018/Faulkenberry/Lab2/subject-3.csv","legacy","6 8 4","Kafkaesque Koffka","3.2.5","0","n","0","right","left","left","right","NA","560","64375","9101","560","NA","2","legacy","3","1024","2","48000","-16","experiment","3","odd","1","760274","756965","758047","2325","154871","758054","335704","2338","145768","762283","762845","759063","66720","762283","NA","Sternberg Task","107","85280","113","yes","1024"
"94.7368421053","94.7368421053","755.657894737","755.657894737","black","experiment","legacy","legacy","legacy","0","uniform","1","undefined","1","right","113","113","113","0","0","113","113","0","0","113","113","113","0","113","0","Sun Oct  7 19:45:14 2018","The main experiment item","yes","SternbergTask.osexp","/Users/abigailchristie/Desktop","no","mono","no","18","no","white","no","yes","768","legacy","101","11","/Users/abigailchristie/Desktop/2018/Faulkenberry/Lab2/subject-3.csv","legacy","4 2 7 6 1 3","Kafkaesque Koffka","3.2.5","0","n","0","right","left","left","right","NA","865","64375","9101","865","NA","2","legacy","6","1024","2","48000","-16","experiment","3","odd","8","766165","762855","763937","2325","154871","763945","335704","2338","145768","768173","769040","764954","66720","768173","NA","Sternberg Task","108","86145","114","yes","1024"
"94.7826086957","94.7826086957","753.565217391","753.565217391","black","experiment","legacy","legacy","legacy","0","uniform","1","undefined","1","left","114","114","114","0","0","114","114","0","0","114","114","114","0","114","0","Sun Oct  7 19:45:14 2018","The main experiment item","yes","SternbergTask.osexp","/Users/abigailchristie/Desktop","no","mono","no","18","no","white","no","yes","768","legacy","102","11","/Users/abigailchristie/Desktop/2018/Faulkenberry/Lab2/subject-3.csv","legacy","2 3 7 4","Kafkaesque Koffka","3.2.5","1","y","0","left","left","left","left","NA","515","64375","9101","515","NA","2","legacy","4","1024","2","48000","-16","experiment","3","odd","2","772359","769050","770131","2325","154871","770139","335704","2338","145768","774367","774884","771148","66720","774367","NA","Sternberg Task","109","86660","115","yes","1024"
"94.8275862069","94.8275862069","751.327586207","751.327586207","black","experiment","legacy","legacy","legacy","0","uniform","1","undefined","1","left","115","115","115","0","0","115","115","0","0","115","115","115","0","115","0","Sun Oct  7 19:45:14 2018","The main experiment item","yes","SternbergTask.osexp","/Users/abigailchristie/Desktop","no","mono","no","18","no","white","no","yes","768","legacy","103","11","/Users/abigailchristie/Desktop/2018/Faulkenberry/Lab2/subject-3.csv","legacy","6 5","Kafkaesque Koffka","3.2.5","2","y","0","left","left","left","left","NA","494","64375","9101","494","NA","2","legacy","2","1024","2","48000","-16","experiment","3","odd","5","778204","774898","775980","2325","154871","775988","335704","2338","145768","780213","780710","776996","66720","780212","NA","Sternberg Task","110","87154","116","yes","1024"
"94.8717948718","94.8717948718","749.512820513","749.512820513","black","experiment","legacy","legacy","legacy","0","uniform","1","undefined","1","right","116","116","116","0","0","116","116","0","0","116","116","116","0","116","0","Sun Oct  7 19:45:14 2018","The main experiment item","yes","SternbergTask.osexp","/Users/abigailchristie/Desktop","no","mono","no","18","no","white","no","yes","768","legacy","104","11","/Users/abigailchristie/Desktop/2018/Faulkenberry/Lab2/subject-3.csv","legacy","7 9","Kafkaesque Koffka","3.2.5","0","n","0","right","left","left","right","NA","539","64375","9101","539","NA","2","legacy","2","1024","2","48000","-16","experiment","3","odd","1","784035","780721","781807","2325","154871","781816","335704","2338","145768","786044","786586","782825","66720","786043","NA","Sternberg Task","111","87693","117","yes","1024"
