"acc","accuracy","average_response_time","avg_rt","background","block","canvas_backend","clock_backend","color_backend","compensation","coordinates","correct","correct_instruction1","correct_keyboard_response","correct_response","count_ISI","count_correctFeedback","count_expSequence","count_experiment","count_experimentLoop","count_fixation","count_incorrectFeedback","count_instruction1","count_instructions2","count_keyboard_response","count_memorySet","count_new_logger","count_practiceLoop","count_probe","count_thankYou","datetime","description","disable_garbage_collection","experiment_file","experiment_path","font_bold","font_family","font_italic","font_size","font_underline","foreground","form_clicks","fullscreen","height","keyboard_backend","live_row","live_row_practiceLoop","logfile","mouse_backend","numberSet","opensesame_codename","opensesame_version","posInSet","present","repeat_cycle","response","response_instruction1","response_instructions2","response_keyboard_response","response_thankYou","response_time","response_time_instruction1","response_time_instructions2","response_time_keyboard_response","response_time_thankYou","round_decimals","sampler_backend","setSize","sound_buf_size","sound_channels","sound_freq","sound_sample_size","start","subject_nr","subject_parity","target","time_ISI","time_correctFeedback","time_expSequence","time_experiment","time_experimentLoop","time_fixation","time_incorrectFeedback","time_instruction1","time_instructions2","time_keyboard_response","time_memorySet","time_new_logger","time_practiceLoop","time_probe","time_thankYou","title","total_correct","total_response_time","total_responses","uniform_coordinates","width"
"100","100","503","503","black","practice","xpyriment","legacy","legacy","0","uniform","1","undefined","1","left","0","0","0","0","0","0","0","0","0","0","0","0","0","0","0","10/07/18 21:50:52","The main experiment item","yes","Sternburgtask.osexp","C:/Users/Owner/Documents","no","mono","no","18","no","white","no","yes","768","legacy","0","0","C:/Users/Owner/Documents/ctsubject-2.csv","xpyriment","4 8","Kafkaesque Koffka","3.2.5","1","y","0","left","left","NA","left","NA","503","29832","NA","503","NA","2","legacy","2","1024","2","48000","-16","experiment","2","even","4","34985","NA","32689","1754","NA","32752","NA","1774","NA","37004","33781","37508","31607","37003","NA","Sternburg task","1","503","1","yes","1024"
"100","100","726","726","black","practice","xpyriment","legacy","legacy","0","uniform","1","undefined","1","right","1","1","1","0","0","1","1","0","0","1","1","1","0","1","0","10/07/18 21:50:52","The main experiment item","yes","Sternburgtask.osexp","C:/Users/Owner/Documents","no","mono","no","18","no","white","no","yes","768","legacy","1","1","C:/Users/Owner/Documents/ctsubject-2.csv","xpyriment","9 6 7 4 5","Kafkaesque Koffka","3.2.5","0","n","0","right","left","NA","right","NA","949","29832","NA","949","NA","2","legacy","5","1024","2","48000","-16","experiment","2","even","3","41642","37682","39360","1754","NA","39407","NA","1774","NA","43660","40438","44609","31607","43659","NA","Sternburg task","2","1452","2","yes","1024"
"100","100","718.666666667","718.666666667","black","practice","xpyriment","legacy","legacy","0","uniform","1","undefined","1","left","2","2","2","0","0","2","2","0","0","2","2","2","0","2","0","10/07/18 21:50:52","The main experiment item","yes","Sternburgtask.osexp","C:/Users/Owner/Documents","no","mono","no","18","no","white","no","yes","768","legacy","2","2","C:/Users/Owner/Documents/ctsubject-2.csv","xpyriment","1 5 2 9","Kafkaesque Koffka","3.2.5","2","y","0","left","left","NA","left","NA","704","29832","NA","704","NA","2","legacy","4","1024","2","48000","-16","experiment","2","even","5","48836","44876","46527","1754","NA","46589","NA","1774","NA","50841","47619","51546","31607","50840","NA","Sternburg task","3","2156","3","yes","1024"
"100","100","780.75","780.75","black","practice","xpyriment","legacy","legacy","0","uniform","1","undefined","1","right","3","3","3","0","0","3","3","0","0","3","3","3","0","3","0","10/07/18 21:50:52","The main experiment item","yes","Sternburgtask.osexp","C:/Users/Owner/Documents","no","mono","no","18","no","white","no","yes","768","legacy","3","3","C:/Users/Owner/Documents/ctsubject-2.csv","xpyriment","5 7 8 4 1 2","Kafkaesque Koffka","3.2.5","0","n","0","right","left","NA","right","NA","967","29832","NA","967","NA","2","legacy","6","1024","2","48000","-16","experiment","2","even","6","55559","51606","53264","1754","NA","53329","NA","1774","NA","57562","54355","58531","31607","57562","NA","Sternburg task","4","3123","4","yes","1024"
"100","100","795.8","795.8","black","practice","xpyriment","legacy","legacy","0","uniform","1","undefined","1","left","4","4","4","0","0","4","4","0","0","4","4","4","0","4","0","10/07/18 21:50:52","The main experiment item","yes","Sternburgtask.osexp","C:/Users/Owner/Documents","no","mono","no","18","no","white","no","yes","768","legacy","4","4","C:/Users/Owner/Documents/ctsubject-2.csv","xpyriment","4 3 1 7 9 8","Kafkaesque Koffka","3.2.5","1","y","0","left","left","NA","left","NA","856","29832","NA","856","NA","2","legacy","6","1024","2","48000","-16","experiment","2","even","4","62526","58594","60236","1754","NA","60292","NA","1774","NA","64543","61322","65400","31607","64543","NA","Sternburg task","5","3979","5","yes","1024"
"100","100","821.666666667","821.666666667","black","practice","xpyriment","legacy","legacy","0","uniform","1","undefined","1","right","5","5","5","0","0","5","5","0","0","5","5","5","0","5","0","10/07/18 21:50:52","The main experiment item","yes","Sternburgtask.osexp","C:/Users/Owner/Documents","no","mono","no","18","no","white","no","yes","768","legacy","5","5","C:/Users/Owner/Documents/ctsubject-2.csv","xpyriment","2 1","Kafkaesque Koffka","3.2.5","0","n","0","right","left","NA","right","NA","951","29832","NA","951","NA","2","legacy","2","1024","2","48000","-16","experiment","2","even","5","69368","65450","67086","1754","NA","67139","NA","1774","NA","71386","68164","72338","31607","71385","NA","Sternburg task","6","4930","6","yes","1024"
"100","100","845.571428571","845.571428571","black","practice","xpyriment","legacy","legacy","0","uniform","1","undefined","1","left","6","6","6","0","0","6","6","0","0","6","6","6","0","6","0","10/07/18 21:50:52","The main experiment item","yes","Sternburgtask.osexp","C:/Users/Owner/Documents","no","mono","no","18","no","white","no","yes","768","legacy","6","6","C:/Users/Owner/Documents/ctsubject-2.csv","xpyriment","2 9 4","Kafkaesque Koffka","3.2.5","3","y","0","left","left","NA","left","NA","989","29832","NA","989","NA","2","legacy","3","1024","2","48000","-16","experiment","2","even","4","76333","72395","74044","1754","NA","74095","NA","1774","NA","78337","75128","79328","31607","78337","NA","Sternburg task","7","5919","7","yes","1024"
"100","100","871.875","871.875","black","practice","xpyriment","legacy","legacy","0","uniform","1","undefined","1","right","7","7","7","0","0","7","7","0","0","7","7","7","0","7","0","10/07/18 21:50:52","The main experiment item","yes","Sternburgtask.osexp","C:/Users/Owner/Documents","no","mono","no","18","no","white","no","yes","768","legacy","7","7","C:/Users/Owner/Documents/ctsubject-2.csv","xpyriment","5","Kafkaesque Koffka","3.2.5","0","n","0","right","left","NA","right","NA","1056","29832","NA","1056","NA","2","legacy","1","1024","2","48000","-16","experiment","2","even","3","83416","79396","81088","1754","NA","81153","NA","1774","NA","85420","82199","86476","31607","85419","NA","Sternburg task","8","6975","8","yes","1024"
"88.8888888889","88.8888888889","855","855","black","practice","xpyriment","legacy","legacy","0","uniform","0","undefined","0","right","8","8","8","0","0","8","8","0","0","8","8","8","0","8","0","10/07/18 21:50:52","The main experiment item","yes","Sternburgtask.osexp","C:/Users/Owner/Documents","no","mono","no","18","no","white","no","yes","768","legacy","8","8","C:/Users/Owner/Documents/ctsubject-2.csv","xpyriment","4 1 5","Kafkaesque Koffka","3.2.5","0","n","0","left","left","NA","left","NA","720","29832","NA","720","NA","2","legacy","3","1024","2","48000","-16","experiment","2","even","2","90461","86518","88168","1754","NA","88220","NA","1774","NA","92464","89257","93185","31607","92464","NA","Sternburg task","8","7695","9","yes","1024"
"90","90","864.5","864.5","black","practice","xpyriment","legacy","legacy","0","uniform","1","undefined","1","left","9","9","9","0","0","9","9","0","0","9","9","9","0","9","0","10/07/18 21:50:52","The main experiment item","yes","Sternburgtask.osexp","C:/Users/Owner/Documents","no","mono","no","18","no","white","no","yes","768","legacy","9","9","C:/Users/Owner/Documents/ctsubject-2.csv","xpyriment","6","Kafkaesque Koffka","3.2.5","1","y","0","left","left","NA","left","NA","950","29832","NA","950","NA","2","legacy","1","1024","2","48000","-16","experiment","2","even","6","97201","86518","94909","1754","NA","94971","93241","1774","NA","99204","95997","100155","31607","99204","NA","Sternburg task","9","8645","10","yes","1024"
"81.8181818182","81.8181818182","967.727272727","967.727272727","black","practice","xpyriment","legacy","legacy","0","uniform","0","undefined","0","left","10","10","10","0","0","10","10","0","0","10","10","10","0","10","0","10/07/18 21:50:52","The main experiment item","yes","Sternburgtask.osexp","C:/Users/Owner/Documents","no","mono","no","18","no","white","no","yes","768","legacy","10","10","C:/Users/Owner/Documents/ctsubject-2.csv","xpyriment","1 7 9 8 5","Kafkaesque Koffka","3.2.5","4","y","0","None","left","NA","None","NA","2000","29832","NA","2000","NA","2","legacy","5","1024","2","48000","-16","experiment","2","even","8","104184","100221","101867","1754","NA","101927","93241","1774","NA","106187","102967","108187","31607","106187","NA","Sternburg task","9","10645","11","yes","1024"
"75","75","934.25","934.25","black","practice","xpyriment","legacy","legacy","0","uniform","0","undefined","0","right","11","11","11","0","0","11","11","0","0","11","11","11","0","11","0","10/07/18 21:50:52","The main experiment item","yes","Sternburgtask.osexp","C:/Users/Owner/Documents","no","mono","no","18","no","white","no","yes","768","legacy","11","11","C:/Users/Owner/Documents/ctsubject-2.csv","xpyriment","3 1 9 4","Kafkaesque Koffka","3.2.5","0","n","0","left","left","NA","left","NA","566","29832","NA","566","NA","2","legacy","4","1024","2","48000","-16","experiment","2","even","6","112338","100221","110035","1754","NA","110105","108259","1774","NA","114341","111134","114909","31607","114341","NA","Sternburg task","9","11211","12","yes","1024"
"69.2307692308","69.2307692308","935.153846154","935.153846154","black","experiment","xpyriment","legacy","legacy","0","uniform","0","undefined","0","left","12","12","12","0","0","12","12","0","0","12","12","12","0","12","0","10/07/18 21:50:52","The main experiment item","yes","Sternburgtask.osexp","C:/Users/Owner/Documents","no","mono","no","18","no","white","no","yes","768","legacy","0","11","C:/Users/Owner/Documents/ctsubject-2.csv","xpyriment","7 8 6 3 1","Kafkaesque Koffka","3.2.5","5","y","0","right","left","right","right","NA","946","29832","29268","946","NA","2","legacy","5","1024","2","48000","-16","experiment","2","even","1","148281","100221","145981","1754","145324","146047","114963","1774","116055","150284","147077","151231","31607","150284","NA","Sternburg task","9","12157","13","yes","1024"
"71.4285714286","71.4285714286","957.357142857","957.357142857","black","experiment","xpyriment","legacy","legacy","0","uniform","1","undefined","1","right","13","13","13","0","0","13","13","0","0","13","13","13","0","13","0","10/07/18 21:50:52","The main experiment item","yes","Sternburgtask.osexp","C:/Users/Owner/Documents","no","mono","no","18","no","white","no","yes","768","legacy","1","11","C:/Users/Owner/Documents/ctsubject-2.csv","xpyriment","7 6 4 8 1 2","Kafkaesque Koffka","3.2.5","0","n","0","right","left","right","right","NA","1246","29832","29268","1246","NA","2","legacy","6","1024","2","48000","-16","experiment","2","even","9","155221","100221","152924","1754","145324","152986","151284","1774","116055","157224","154017","158472","31607","157224","NA","Sternburg task","10","13403","14","yes","1024"
"73.3333333333","73.3333333333","979.733333333","979.733333333","black","experiment","xpyriment","legacy","legacy","0","uniform","1","undefined","1","right","14","14","14","0","0","14","14","0","0","14","14","14","0","14","0","10/07/18 21:50:52","The main experiment item","yes","Sternburgtask.osexp","C:/Users/Owner/Documents","no","mono","no","18","no","white","no","yes","768","legacy","2","11","C:/Users/Owner/Documents/ctsubject-2.csv","xpyriment","4 8 1 2","Kafkaesque Koffka","3.2.5","0","n","0","right","left","right","right","NA","1293","29832","29268","1293","NA","2","legacy","4","1024","2","48000","-16","experiment","2","even","7","162508","158530","160191","1754","145324","160263","151284","1774","116055","164524","161291","165818","31607","164524","NA","Sternburg task","11","14696","15","yes","1024"
"75","75","981.875","981.875","black","experiment","xpyriment","legacy","legacy","0","uniform","1","undefined","1","left","15","15","15","0","0","15","15","0","0","15","15","15","0","15","0","10/07/18 21:50:52","The main experiment item","yes","Sternburgtask.osexp","C:/Users/Owner/Documents","no","mono","no","18","no","white","no","yes","768","legacy","3","11","C:/Users/Owner/Documents/ctsubject-2.csv","xpyriment","3 5 9 6 2 4","Kafkaesque Koffka","3.2.5","1","y","0","left","left","right","left","NA","1014","29832","29268","1014","NA","2","legacy","6","1024","2","48000","-16","experiment","2","even","3","169832","165886","167517","1754","145324","167578","151284","1774","116055","171835","168616","172850","31607","171835","NA","Sternburg task","12","15710","16","yes","1024"
"70.5882352941","70.5882352941","984.235294118","984.235294118","black","experiment","xpyriment","legacy","legacy","0","uniform","0","undefined","0","left","16","16","16","0","0","16","16","0","0","16","16","16","0","16","0","10/07/18 21:50:52","The main experiment item","yes","Sternburgtask.osexp","C:/Users/Owner/Documents","no","mono","no","18","no","white","no","yes","768","legacy","4","11","C:/Users/Owner/Documents/ctsubject-2.csv","xpyriment","6 9 3 1","Kafkaesque Koffka","3.2.5","4","y","0","right","left","right","right","NA","1022","29832","29268","1022","NA","2","legacy","4","1024","2","48000","-16","experiment","2","even","1","176811","172869","174507","1754","145324","174567","151284","1774","116055","178814","175607","179837","31607","178814","NA","Sternburg task","12","16732","17","yes","1024"
"72.2222222222","72.2222222222","1004.33333333","1004.33333333","black","experiment","xpyriment","legacy","legacy","0","uniform","1","undefined","1","left","17","17","17","0","0","17","17","0","0","17","17","17","0","17","0","10/07/18 21:50:52","The main experiment item","yes","Sternburgtask.osexp","C:/Users/Owner/Documents","no","mono","no","18","no","white","no","yes","768","legacy","5","11","C:/Users/Owner/Documents/ctsubject-2.csv","xpyriment","1 4 9 3 2 5","Kafkaesque Koffka","3.2.5","3","y","0","left","left","right","left","NA","1346","29832","29268","1346","NA","2","legacy","6","1024","2","48000","-16","experiment","2","even","9","183843","172869","181549","1754","145324","181609","179915","1774","116055","185847","182639","187194","31607","185846","NA","Sternburg task","13","18078","18","yes","1024"
"73.6842105263","73.6842105263","1015.94736842","1015.94736842","black","experiment","xpyriment","legacy","legacy","0","uniform","1","undefined","1","left","18","18","18","0","0","18","18","0","0","18","18","18","0","18","0","10/07/18 21:50:52","The main experiment item","yes","Sternburgtask.osexp","C:/Users/Owner/Documents","no","mono","no","18","no","white","no","yes","768","legacy","6","11","C:/Users/Owner/Documents/ctsubject-2.csv","xpyriment","7 1 3","Kafkaesque Koffka","3.2.5","2","y","0","left","left","right","left","NA","1225","29832","29268","1225","NA","2","legacy","3","1024","2","48000","-16","experiment","2","even","1","191164","187214","188847","1754","145324","188919","179915","1774","116055","193168","189948","194395","31607","193167","NA","Sternburg task","14","19303","19","yes","1024"
"75","75","1042.55","1042.55","black","experiment","xpyriment","legacy","legacy","0","uniform","1","undefined","1","right","19","19","19","0","0","19","19","0","0","19","19","19","0","19","0","10/07/18 21:50:52","The main experiment item","yes","Sternburgtask.osexp","C:/Users/Owner/Documents","no","mono","no","18","no","white","no","yes","768","legacy","7","11","C:/Users/Owner/Documents/ctsubject-2.csv","xpyriment","6 8 4","Kafkaesque Koffka","3.2.5","0","n","0","right","left","right","right","NA","1548","29832","29268","1548","NA","2","legacy","3","1024","2","48000","-16","experiment","2","even","1","198405","194452","196098","1754","145324","196172","179915","1774","116055","200408","197201","201958","31607","200408","NA","Sternburg task","15","20851","20","yes","1024"
"71.4285714286","71.4285714286","1088.14285714","1088.14285714","black","experiment","xpyriment","legacy","legacy","0","uniform","0","undefined","0","right","20","20","20","0","0","20","20","0","0","20","20","20","0","20","0","10/07/18 21:50:52","The main experiment item","yes","Sternburgtask.osexp","C:/Users/Owner/Documents","no","mono","no","18","no","white","no","yes","768","legacy","8","11","C:/Users/Owner/Documents/ctsubject-2.csv","xpyriment","2 8 9 4 1","Kafkaesque Koffka","3.2.5","0","n","0","None","left","right","None","NA","2000","29832","29268","2000","NA","2","legacy","5","1024","2","48000","-16","experiment","2","even","5","206026","202015","203710","1754","145324","203771","179915","1774","116055","208031","204809","210031","31607","208031","NA","Sternburg task","15","22851","21","yes","1024"
"72.7272727273","72.7272727273","1119.54545455","1119.54545455","black","experiment","xpyriment","legacy","legacy","0","uniform","1","undefined","1","left","21","21","21","0","0","21","21","0","0","21","21","21","0","21","0","10/07/18 21:50:52","The main experiment item","yes","Sternburgtask.osexp","C:/Users/Owner/Documents","no","mono","no","18","no","white","no","yes","768","legacy","9","11","C:/Users/Owner/Documents/ctsubject-2.csv","xpyriment","2 3","Kafkaesque Koffka","3.2.5","1","y","0","left","left","right","left","NA","1779","29832","29268","1779","NA","2","legacy","2","1024","2","48000","-16","experiment","2","even","2","214013","202015","211710","1754","145324","211781","210070","1774","116055","216016","212809","217797","31607","216016","NA","Sternburg task","16","24630","22","yes","1024"
"73.9130434783","73.9130434783","1104.47826087","1104.47826087","black","experiment","xpyriment","legacy","legacy","0","uniform","1","undefined","1","left","22","22","22","0","0","22","22","0","0","22","22","22","0","22","0","10/07/18 21:50:52","The main experiment item","yes","Sternburgtask.osexp","C:/Users/Owner/Documents","no","mono","no","18","no","white","no","yes","768","legacy","10","11","C:/Users/Owner/Documents/ctsubject-2.csv","xpyriment","2 5 4 8 7","Kafkaesque Koffka","3.2.5","3","y","0","left","left","right","left","NA","773","29832","29268","773","NA","2","legacy","5","1024","2","48000","-16","experiment","2","even","4","221799","217849","219484","1754","145324","219550","210070","1774","116055","223815","220583","224589","31607","223815","NA","Sternburg task","17","25403","23","yes","1024"
"75","75","1093.83333333","1093.83333333","black","experiment","xpyriment","legacy","legacy","0","uniform","1","undefined","1","right","23","23","23","0","0","23","23","0","0","23","23","23","0","23","0","10/07/18 21:50:52","The main experiment item","yes","Sternburgtask.osexp","C:/Users/Owner/Documents","no","mono","no","18","no","white","no","yes","768","legacy","11","11","C:/Users/Owner/Documents/ctsubject-2.csv","xpyriment","1 8 7","Kafkaesque Koffka","3.2.5","0","n","0","right","left","right","right","NA","849","29832","29268","849","NA","2","legacy","3","1024","2","48000","-16","experiment","2","even","4","228557","224612","226254","1754","145324","226320","210070","1774","116055","230561","227352","231411","31607","230560","NA","Sternburg task","18","26252","24","yes","1024"
"76","76","1081.32","1081.32","black","experiment","xpyriment","legacy","legacy","0","uniform","1","undefined","1","right","24","24","24","0","0","24","24","0","0","24","24","24","0","24","0","10/07/18 21:50:52","The main experiment item","yes","Sternburgtask.osexp","C:/Users/Owner/Documents","no","mono","no","18","no","white","no","yes","768","legacy","12","11","C:/Users/Owner/Documents/ctsubject-2.csv","xpyriment","5","Kafkaesque Koffka","3.2.5","0","n","0","right","left","right","right","NA","781","29832","29268","781","NA","2","legacy","1","1024","2","48000","-16","experiment","2","even","8","235397","231446","233092","1754","145324","233165","210070","1774","116055","237400","234193","238182","31607","237400","NA","Sternburg task","19","27033","25","yes","1024"
"76.9230769231","76.9230769231","1065.84615385","1065.84615385","black","experiment","xpyriment","legacy","legacy","0","uniform","1","undefined","1","right","25","25","25","0","0","25","25","0","0","25","25","25","0","25","0","10/07/18 21:50:52","The main experiment item","yes","Sternburgtask.osexp","C:/Users/Owner/Documents","no","mono","no","18","no","white","no","yes","768","legacy","13","11","C:/Users/Owner/Documents/ctsubject-2.csv","xpyriment","7 9","Kafkaesque Koffka","3.2.5","0","n","0","right","left","right","right","NA","679","29832","29268","679","NA","2","legacy","2","1024","2","48000","-16","experiment","2","even","1","242168","238218","239849","1754","145324","239923","210070","1774","116055","244172","240950","244852","31607","244172","NA","Sternburg task","20","27712","26","yes","1024"
"77.7777777778","77.7777777778","1066.33333333","1066.33333333","black","experiment","xpyriment","legacy","legacy","0","uniform","1","undefined","1","right","26","26","26","0","0","26","26","0","0","26","26","26","0","26","0","10/07/18 21:50:52","The main experiment item","yes","Sternburgtask.osexp","C:/Users/Owner/Documents","no","mono","no","18","no","white","no","yes","768","legacy","14","11","C:/Users/Owner/Documents/ctsubject-2.csv","xpyriment","2 3 8 5 6 7","Kafkaesque Koffka","3.2.5","0","n","0","right","left","right","right","NA","1079","29832","29268","1079","NA","2","legacy","6","1024","2","48000","-16","experiment","2","even","1","248859","244908","246542","1754","145324","246602","210070","1774","116055","250864","247643","251944","31607","250863","NA","Sternburg task","21","28791","27","yes","1024"
"78.5714285714","78.5714285714","1065.53571429","1065.53571429","black","experiment","xpyriment","legacy","legacy","0","uniform","1","undefined","1","right","27","27","27","0","0","27","27","0","0","27","27","27","0","27","0","10/07/18 21:50:52","The main experiment item","yes","Sternburgtask.osexp","C:/Users/Owner/Documents","no","mono","no","18","no","white","no","yes","768","legacy","15","11","C:/Users/Owner/Documents/ctsubject-2.csv","xpyriment","8 5 7 3 6","Kafkaesque Koffka","3.2.5","0","n","0","right","left","right","right","NA","1044","29832","29268","1044","NA","2","legacy","5","1024","2","48000","-16","experiment","2","even","9","255971","252021","253668","1754","145324","253728","210070","1774","116055","257975","254767","259020","31607","257974","NA","Sternburg task","22","29835","28","yes","1024"
"79.3103448276","79.3103448276","1051.44827586","1051.44827586","black","experiment","xpyriment","legacy","legacy","0","uniform","1","undefined","1","left","28","28","28","0","0","28","28","0","0","28","28","28","0","28","0","10/07/18 21:50:52","The main experiment item","yes","Sternburgtask.osexp","C:/Users/Owner/Documents","no","mono","no","18","no","white","no","yes","768","legacy","16","11","C:/Users/Owner/Documents/ctsubject-2.csv","xpyriment","4 1 5","Kafkaesque Koffka","3.2.5","2","y","0","left","left","right","left","NA","657","29832","29268","657","NA","2","legacy","3","1024","2","48000","-16","experiment","2","even","1","263021","259059","260705","1754","145324","260766","210070","1774","116055","265024","261804","265683","31607","265024","NA","Sternburg task","23","30492","29","yes","1024"
"80","80","1037.26666667","1037.26666667","black","experiment","xpyriment","legacy","legacy","0","uniform","1","undefined","1","right","29","29","29","0","0","29","29","0","0","29","29","29","0","29","0","10/07/18 21:50:52","The main experiment item","yes","Sternburgtask.osexp","C:/Users/Owner/Documents","no","mono","no","18","no","white","no","yes","768","legacy","17","11","C:/Users/Owner/Documents/ctsubject-2.csv","xpyriment","8 4 3 5","Kafkaesque Koffka","3.2.5","0","n","0","right","left","right","right","NA","626","29832","29268","626","NA","2","legacy","4","1024","2","48000","-16","experiment","2","even","6","269642","265716","267350","1754","145324","267411","210070","1774","116055","271658","268438","272285","31607","271658","NA","Sternburg task","24","31118","30","yes","1024"
"80.6451612903","80.6451612903","1036.74193548","1036.74193548","black","experiment","xpyriment","legacy","legacy","0","uniform","1","undefined","1","right","30","30","30","0","0","30","30","0","0","30","30","30","0","30","0","10/07/18 21:50:52","The main experiment item","yes","Sternburgtask.osexp","C:/Users/Owner/Documents","no","mono","no","18","no","white","no","yes","768","legacy","18","11","C:/Users/Owner/Documents/ctsubject-2.csv","xpyriment","1 4 9 3","Kafkaesque Koffka","3.2.5","0","n","0","right","left","right","right","NA","1021","29832","29268","1021","NA","2","legacy","4","1024","2","48000","-16","experiment","2","even","5","276256","272321","273953","1754","145324","274013","210070","1774","116055","278261","275052","279284","31607","278260","NA","Sternburg task","25","32139","31","yes","1024"
"81.25","81.25","1032.78125","1032.78125","black","experiment","xpyriment","legacy","legacy","0","uniform","1","undefined","1","left","31","31","31","0","0","31","31","0","0","31","31","31","0","31","0","10/07/18 21:50:52","The main experiment item","yes","Sternburgtask.osexp","C:/Users/Owner/Documents","no","mono","no","18","no","white","no","yes","768","legacy","19","11","C:/Users/Owner/Documents/ctsubject-2.csv","xpyriment","5 7 8 2 3 8","Kafkaesque Koffka","3.2.5","5","y","0","left","left","right","left","NA","910","29832","29268","910","NA","2","legacy","6","1024","2","48000","-16","experiment","2","even","3","283279","279322","280974","1754","145324","281035","210070","1774","116055","285282","282075","286193","31607","285282","NA","Sternburg task","26","33049","32","yes","1024"
"81.8181818182","81.8181818182","1026.18181818","1026.18181818","black","experiment","xpyriment","legacy","legacy","0","uniform","1","undefined","1","left","32","32","32","0","0","32","32","0","0","32","32","32","0","32","0","10/07/18 21:50:52","The main experiment item","yes","Sternburgtask.osexp","C:/Users/Owner/Documents","no","mono","no","18","no","white","no","yes","768","legacy","20","11","C:/Users/Owner/Documents/ctsubject-2.csv","xpyriment","8 5 4 7 3 1","Kafkaesque Koffka","3.2.5","2","y","0","left","left","right","left","NA","815","29832","29268","815","NA","2","legacy","6","1024","2","48000","-16","experiment","2","even","5","290228","286245","287905","1754","145324","287980","210070","1774","116055","292231","289012","293046","31607","292231","NA","Sternburg task","27","33864","33","yes","1024"
"82.3529411765","82.3529411765","1016.5","1016.5","black","experiment","xpyriment","legacy","legacy","0","uniform","1","undefined","1","left","33","33","33","0","0","33","33","0","0","33","33","33","0","33","0","10/07/18 21:50:52","The main experiment item","yes","Sternburgtask.osexp","C:/Users/Owner/Documents","no","mono","no","18","no","white","no","yes","768","legacy","21","11","C:/Users/Owner/Documents/ctsubject-2.csv","xpyriment","2 4 8 5 1 3","Kafkaesque Koffka","3.2.5","1","y","0","left","left","right","left","NA","697","29832","29268","697","NA","2","legacy","6","1024","2","48000","-16","experiment","2","even","2","297051","293091","294737","1754","145324","294798","210070","1774","116055","299054","295835","299752","31607","299054","NA","Sternburg task","28","34561","34","yes","1024"
"82.8571428571","82.8571428571","1009.17142857","1009.17142857","black","experiment","xpyriment","legacy","legacy","0","uniform","1","undefined","1","right","34","34","34","0","0","34","34","0","0","34","34","34","0","34","0","10/07/18 21:50:52","The main experiment item","yes","Sternburgtask.osexp","C:/Users/Owner/Documents","no","mono","no","18","no","white","no","yes","768","legacy","22","11","C:/Users/Owner/Documents/ctsubject-2.csv","xpyriment","8 2 1 4 5 9","Kafkaesque Koffka","3.2.5","0","n","0","right","left","right","right","NA","760","29832","29268","760","NA","2","legacy","6","1024","2","48000","-16","experiment","2","even","7","303741","299791","301432","1754","145324","301493","210070","1774","116055","305744","302524","306507","31607","305744","NA","Sternburg task","29","35321","35","yes","1024"
"83.3333333333","83.3333333333","1009.47222222","1009.47222222","black","experiment","xpyriment","legacy","legacy","0","uniform","1","undefined","1","right","35","35","35","0","0","35","35","0","0","35","35","35","0","35","0","10/07/18 21:50:52","The main experiment item","yes","Sternburgtask.osexp","C:/Users/Owner/Documents","no","mono","no","18","no","white","no","yes","768","legacy","23","11","C:/Users/Owner/Documents/ctsubject-2.csv","xpyriment","7 9 1 6","Kafkaesque Koffka","3.2.5","0","n","0","right","left","right","right","NA","1020","29832","29268","1020","NA","2","legacy","4","1024","2","48000","-16","experiment","2","even","4","310520","306568","308211","1754","145324","308273","210070","1774","116055","312523","309316","313544","31607","312523","NA","Sternburg task","30","36341","36","yes","1024"
"83.7837837838","83.7837837838","1001.62162162","1001.62162162","black","experiment","xpyriment","legacy","legacy","0","uniform","1","undefined","1","right","36","36","36","0","0","36","36","0","0","36","36","36","0","36","0","10/07/18 21:50:52","The main experiment item","yes","Sternburgtask.osexp","C:/Users/Owner/Documents","no","mono","no","18","no","white","no","yes","768","legacy","24","11","C:/Users/Owner/Documents/ctsubject-2.csv","xpyriment","5 7 3","Kafkaesque Koffka","3.2.5","0","n","0","right","left","right","right","NA","719","29832","29268","719","NA","2","legacy","3","1024","2","48000","-16","experiment","2","even","9","317518","313565","315201","1754","145324","315273","210070","1774","116055","319534","316302","320254","31607","319533","NA","Sternburg task","31","37060","37","yes","1024"
"84.2105263158","84.2105263158","995.026315789","995.026315789","black","experiment","xpyriment","legacy","legacy","0","uniform","1","undefined","1","right","37","37","37","0","0","37","37","0","0","37","37","37","0","37","0","10/07/18 21:50:52","The main experiment item","yes","Sternburgtask.osexp","C:/Users/Owner/Documents","no","mono","no","18","no","white","no","yes","768","legacy","25","11","C:/Users/Owner/Documents/ctsubject-2.csv","xpyriment","2 6 4 3 9","Kafkaesque Koffka","3.2.5","0","n","0","right","left","right","right","NA","751","29832","29268","751","NA","2","legacy","5","1024","2","48000","-16","experiment","2","even","1","324276","320306","321969","1754","145324","322029","210070","1774","116055","326279","323060","327032","31607","326279","NA","Sternburg task","32","37811","38","yes","1024"
"84.6153846154","84.6153846154","984","984","black","experiment","xpyriment","legacy","legacy","0","uniform","1","undefined","1","left","38","38","38","0","0","38","38","0","0","38","38","38","0","38","0","10/07/18 21:50:52","The main experiment item","yes","Sternburgtask.osexp","C:/Users/Owner/Documents","no","mono","no","18","no","white","no","yes","768","legacy","26","11","C:/Users/Owner/Documents/ctsubject-2.csv","xpyriment","8 7 3","Kafkaesque Koffka","3.2.5","1","y","0","left","left","right","left","NA","565","29832","29268","565","NA","2","legacy","3","1024","2","48000","-16","experiment","2","even","8","331027","327093","328736","1754","145324","328797","210070","1774","116055","333044","329823","333610","31607","333043","NA","Sternburg task","33","38376","39","yes","1024"
"85","85","980.775","980.775","black","experiment","xpyriment","legacy","legacy","0","uniform","1","undefined","1","left","39","39","39","0","0","39","39","0","0","39","39","39","0","39","0","10/07/18 21:50:52","The main experiment item","yes","Sternburgtask.osexp","C:/Users/Owner/Documents","no","mono","no","18","no","white","no","yes","768","legacy","27","11","C:/Users/Owner/Documents/ctsubject-2.csv","xpyriment","8 9 5 7 1 6","Kafkaesque Koffka","3.2.5","4","y","0","left","left","right","left","NA","855","29832","29268","855","NA","2","legacy","6","1024","2","48000","-16","experiment","2","even","7","337666","333667","335388","1754","145324","335453","210070","1774","116055","339669","336464","340525","31607","339669","NA","Sternburg task","34","39231","40","yes","1024"
"85.3658536585","85.3658536585","973.585365854","973.585365854","black","experiment","xpyriment","legacy","legacy","0","uniform","1","undefined","1","right","40","40","40","0","0","40","40","0","0","40","40","40","0","40","0","10/07/18 21:50:52","The main experiment item","yes","Sternburgtask.osexp","C:/Users/Owner/Documents","no","mono","no","18","no","white","no","yes","768","legacy","28","11","C:/Users/Owner/Documents/ctsubject-2.csv","xpyriment","2 8 9","Kafkaesque Koffka","3.2.5","0","n","0","right","left","right","right","NA","686","29832","29268","686","NA","2","legacy","3","1024","2","48000","-16","experiment","2","even","6","344609","340568","342310","1754","145324","342373","210070","1774","116055","346625","343393","347312","31607","346625","NA","Sternburg task","35","39917","41","yes","1024"
"85.7142857143","85.7142857143","986.261904762","986.261904762","black","experiment","xpyriment","legacy","legacy","0","uniform","1","undefined","1","right","41","41","41","0","0","41","41","0","0","41","41","41","0","41","0","10/07/18 21:50:52","The main experiment item","yes","Sternburgtask.osexp","C:/Users/Owner/Documents","no","mono","no","18","no","white","no","yes","768","legacy","29","11","C:/Users/Owner/Documents/ctsubject-2.csv","xpyriment","6 9 7 3 8 2","Kafkaesque Koffka","3.2.5","0","n","0","right","left","right","right","NA","1506","29832","29268","1506","NA","2","legacy","6","1024","2","48000","-16","experiment","2","even","5","351439","347390","349150","1754","145324","349213","210070","1774","116055","353443","350236","354950","31607","353442","NA","Sternburg task","36","41423","42","yes","1024"
"86.0465116279","86.0465116279","979.837209302","979.837209302","black","experiment","xpyriment","legacy","legacy","0","uniform","1","undefined","1","left","42","42","42","0","0","42","42","0","0","42","42","42","0","42","0","10/07/18 21:50:52","The main experiment item","yes","Sternburgtask.osexp","C:/Users/Owner/Documents","no","mono","no","18","no","white","no","yes","768","legacy","30","11","C:/Users/Owner/Documents/ctsubject-2.csv","xpyriment","9 8 4","Kafkaesque Koffka","3.2.5","1","y","0","left","left","right","left","NA","710","29832","29268","710","NA","2","legacy","3","1024","2","48000","-16","experiment","2","even","9","359138","355126","356861","1754","145324","356925","210070","1774","116055","361142","357936","361853","31607","361142","NA","Sternburg task","37","42133","43","yes","1024"
"86.3636363636","86.3636363636","973.795454545","973.795454545","black","experiment","xpyriment","legacy","legacy","0","uniform","1","undefined","1","left","43","43","43","0","0","43","43","0","0","43","43","43","0","43","0","10/07/18 21:50:52","The main experiment item","yes","Sternburgtask.osexp","C:/Users/Owner/Documents","no","mono","no","18","no","white","no","yes","768","legacy","31","11","C:/Users/Owner/Documents/ctsubject-2.csv","xpyriment","4 3 2 5 8","Kafkaesque Koffka","3.2.5","2","y","0","left","left","right","left","NA","714","29832","29268","714","NA","2","legacy","5","1024","2","48000","-16","experiment","2","even","3","365978","361917","363654","1754","145324","363729","210070","1774","116055","367980","364761","368695","31607","367980","NA","Sternburg task","38","42847","44","yes","1024"
"86.6666666667","86.6666666667","966.355555556","966.355555556","black","experiment","xpyriment","legacy","legacy","0","uniform","1","undefined","1","left","44","44","44","0","0","44","44","0","0","44","44","44","0","44","0","10/07/18 21:50:52","The main experiment item","yes","Sternburgtask.osexp","C:/Users/Owner/Documents","no","mono","no","18","no","white","no","yes","768","legacy","32","11","C:/Users/Owner/Documents/ctsubject-2.csv","xpyriment","4","Kafkaesque Koffka","3.2.5","1","y","0","left","left","right","left","NA","639","29832","29268","639","NA","2","legacy","1","1024","2","48000","-16","experiment","2","even","4","372772","368750","370462","1754","145324","370537","210070","1774","116055","374775","371569","375415","31607","374775","NA","Sternburg task","39","43486","45","yes","1024"
"86.9565217391","86.9565217391","969.5","969.5","black","experiment","xpyriment","legacy","legacy","0","uniform","1","undefined","1","left","45","45","45","0","0","45","45","0","0","45","45","45","0","45","0","10/07/18 21:50:52","The main experiment item","yes","Sternburgtask.osexp","C:/Users/Owner/Documents","no","mono","no","18","no","white","no","yes","768","legacy","33","11","C:/Users/Owner/Documents/ctsubject-2.csv","xpyriment","6 1 2","Kafkaesque Koffka","3.2.5","3","y","0","left","left","right","left","NA","1111","29832","29268","1111","NA","2","legacy","3","1024","2","48000","-16","experiment","2","even","2","379469","375458","377183","1754","145324","377243","210070","1774","116055","381485","378266","382596","31607","381485","NA","Sternburg task","40","44597","46","yes","1024"
"87.2340425532","87.2340425532","970.127659574","970.127659574","black","experiment","xpyriment","legacy","legacy","0","uniform","1","undefined","1","right","46","46","46","0","0","46","46","0","0","46","46","46","0","46","0","10/07/18 21:50:52","The main experiment item","yes","Sternburgtask.osexp","C:/Users/Owner/Documents","no","mono","no","18","no","white","no","yes","768","legacy","34","11","C:/Users/Owner/Documents/ctsubject-2.csv","xpyriment","1 6 4 3 9 7","Kafkaesque Koffka","3.2.5","0","n","0","right","left","right","right","NA","999","29832","29268","999","NA","2","legacy","6","1024","2","48000","-16","experiment","2","even","8","386712","382651","384388","1754","145324","384463","210070","1774","116055","388715","385498","389715","31607","388715","NA","Sternburg task","41","45596","47","yes","1024"
"87.5","87.5","974.395833333","974.395833333","black","experiment","xpyriment","legacy","legacy","0","uniform","1","undefined","1","left","47","47","47","0","0","47","47","0","0","47","47","47","0","47","0","10/07/18 21:50:52","The main experiment item","yes","Sternburgtask.osexp","C:/Users/Owner/Documents","no","mono","no","18","no","white","no","yes","768","legacy","35","11","C:/Users/Owner/Documents/ctsubject-2.csv","xpyriment","8 5 3 7 4 6","Kafkaesque Koffka","3.2.5","6","y","0","left","left","right","left","NA","1175","29832","29268","1175","NA","2","legacy","6","1024","2","48000","-16","experiment","2","even","6","393724","389752","391415","1754","145324","391477","210070","1774","116055","395727","392520","396904","31607","395727","NA","Sternburg task","42","46771","48","yes","1024"
"87.7551020408","87.7551020408","969.448979592","969.448979592","black","experiment","xpyriment","legacy","legacy","0","uniform","1","undefined","1","right","48","48","48","0","0","48","48","0","0","48","48","48","0","48","0","10/07/18 21:50:52","The main experiment item","yes","Sternburgtask.osexp","C:/Users/Owner/Documents","no","mono","no","18","no","white","no","yes","768","legacy","36","11","C:/Users/Owner/Documents/ctsubject-2.csv","xpyriment","9 7 4 5 8","Kafkaesque Koffka","3.2.5","0","n","0","right","left","right","right","NA","732","29832","29268","732","NA","2","legacy","5","1024","2","48000","-16","experiment","2","even","6","400921","396953","398613","1754","145324","398673","210070","1774","116055","402938","399703","403673","31607","402937","NA","Sternburg task","43","47503","49","yes","1024"
"88","88","960.12","960.12","black","experiment","xpyriment","legacy","legacy","0","uniform","1","undefined","1","left","49","49","49","0","0","49","49","0","0","49","49","49","0","49","0","10/07/18 21:50:52","The main experiment item","yes","Sternburgtask.osexp","C:/Users/Owner/Documents","no","mono","no","18","no","white","no","yes","768","legacy","37","11","C:/Users/Owner/Documents/ctsubject-2.csv","xpyriment","4 6 5 8","Kafkaesque Koffka","3.2.5","1","y","0","left","left","right","left","NA","503","29832","29268","503","NA","2","legacy","4","1024","2","48000","-16","experiment","2","even","4","407730","403743","405420","1754","145324","405483","210070","1774","116055","409734","406513","410238","31607","409734","NA","Sternburg task","44","48006","50","yes","1024"
"88.2352941176","88.2352941176","954.960784314","954.960784314","black","experiment","xpyriment","legacy","legacy","0","uniform","1","undefined","1","left","50","50","50","0","0","50","50","0","0","50","50","50","0","50","0","10/07/18 21:50:52","The main experiment item","yes","Sternburgtask.osexp","C:/Users/Owner/Documents","no","mono","no","18","no","white","no","yes","768","legacy","38","11","C:/Users/Owner/Documents/ctsubject-2.csv","xpyriment","8 9 6 1","Kafkaesque Koffka","3.2.5","2","y","0","left","left","right","left","NA","697","29832","29268","697","NA","2","legacy","4","1024","2","48000","-16","experiment","2","even","9","414219","410284","411923","1754","145324","411985","210070","1774","116055","416223","413015","416921","31607","416223","NA","Sternburg task","45","48703","51","yes","1024"
"88.4615384615","88.4615384615","949.480769231","949.480769231","black","experiment","xpyriment","legacy","legacy","0","uniform","1","undefined","1","right","51","51","51","0","0","51","51","0","0","51","51","51","0","51","0","10/07/18 21:50:52","The main experiment item","yes","Sternburgtask.osexp","C:/Users/Owner/Documents","no","mono","no","18","no","white","no","yes","768","legacy","39","11","C:/Users/Owner/Documents/ctsubject-2.csv","xpyriment","4 2 6 9","Kafkaesque Koffka","3.2.5","0","n","0","right","left","right","right","NA","670","29832","29268","670","NA","2","legacy","4","1024","2","48000","-16","experiment","2","even","7","420940","416978","418618","1754","145324","418693","210070","1774","116055","422957","419723","423629","31607","422956","NA","Sternburg task","46","49373","52","yes","1024"
"88.679245283","88.679245283","945.528301887","945.528301887","black","experiment","xpyriment","legacy","legacy","0","uniform","1","undefined","1","left","52","52","52","0","0","52","52","0","0","52","52","52","0","52","0","10/07/18 21:50:52","The main experiment item","yes","Sternburgtask.osexp","C:/Users/Owner/Documents","no","mono","no","18","no","white","no","yes","768","legacy","40","11","C:/Users/Owner/Documents/ctsubject-2.csv","xpyriment","9 5 3 8 4","Kafkaesque Koffka","3.2.5","1","y","0","left","left","right","left","NA","740","29832","29268","740","NA","2","legacy","5","1024","2","48000","-16","experiment","2","even","9","427665","423703","425355","1754","145324","425416","210070","1774","116055","429670","426448","430412","31607","429669","NA","Sternburg task","47","50113","53","yes","1024"
"88.8888888889","88.8888888889","941.055555556","941.055555556","black","experiment","xpyriment","legacy","legacy","0","uniform","1","undefined","1","right","53","53","53","0","0","53","53","0","0","53","53","53","0","53","0","10/07/18 21:50:52","The main experiment item","yes","Sternburgtask.osexp","C:/Users/Owner/Documents","no","mono","no","18","no","white","no","yes","768","legacy","41","11","C:/Users/Owner/Documents/ctsubject-2.csv","xpyriment","6 9 4 5 2","Kafkaesque Koffka","3.2.5","0","n","0","right","left","right","right","NA","704","29832","29268","704","NA","2","legacy","5","1024","2","48000","-16","experiment","2","even","1","434387","430441","432094","1754","145324","432155","210070","1774","116055","436402","433183","437108","31607","436402","NA","Sternburg task","48","50817","54","yes","1024"
"89.0909090909","89.0909090909","940.4","940.4","black","experiment","xpyriment","legacy","legacy","0","uniform","1","undefined","1","right","54","54","54","0","0","54","54","0","0","54","54","54","0","54","0","10/07/18 21:50:52","The main experiment item","yes","Sternburgtask.osexp","C:/Users/Owner/Documents","no","mono","no","18","no","white","no","yes","768","legacy","42","11","C:/Users/Owner/Documents/ctsubject-2.csv","xpyriment","7 4 2 8 1 9","Kafkaesque Koffka","3.2.5","0","n","0","right","left","right","right","NA","905","29832","29268","905","NA","2","legacy","6","1024","2","48000","-16","experiment","2","even","5","441192","437232","438869","1754","145324","438945","210070","1774","116055","443209","439976","444116","31607","443208","NA","Sternburg task","49","51722","55","yes","1024"
"89.2857142857","89.2857142857","936.392857143","936.392857143","black","experiment","xpyriment","legacy","legacy","0","uniform","1","undefined","1","left","55","55","55","0","0","55","55","0","0","55","55","55","0","55","0","10/07/18 21:50:52","The main experiment item","yes","Sternburgtask.osexp","C:/Users/Owner/Documents","no","mono","no","18","no","white","no","yes","768","legacy","43","11","C:/Users/Owner/Documents/ctsubject-2.csv","xpyriment","9 1 7 2","Kafkaesque Koffka","3.2.5","2","y","0","left","left","right","left","NA","716","29832","29268","716","NA","2","legacy","4","1024","2","48000","-16","experiment","2","even","1","448133","444199","445838","1754","145324","445899","210070","1774","116055","450136","446929","450854","31607","450136","NA","Sternburg task","50","52438","56","yes","1024"
"89.4736842105","89.4736842105","940.456140351","940.456140351","black","experiment","xpyriment","legacy","legacy","0","uniform","1","undefined","1","left","56","56","56","0","0","56","56","0","0","56","56","56","0","56","0","10/07/18 21:50:52","The main experiment item","yes","Sternburgtask.osexp","C:/Users/Owner/Documents","no","mono","no","18","no","white","no","yes","768","legacy","44","11","C:/Users/Owner/Documents/ctsubject-2.csv","xpyriment","7 4 2 6 3 5","Kafkaesque Koffka","3.2.5","6","y","0","left","left","right","left","NA","1168","29832","29268","1168","NA","2","legacy","6","1024","2","48000","-16","experiment","2","even","5","454856","450913","452556","1754","145324","452618","210070","1774","116055","456860","453641","458030","31607","456859","NA","Sternburg task","51","53606","57","yes","1024"
"89.6551724138","89.6551724138","936.310344828","936.310344828","black","experiment","xpyriment","legacy","legacy","0","uniform","1","undefined","1","right","57","57","57","0","0","57","57","0","0","57","57","57","0","57","0","10/07/18 21:50:52","The main experiment item","yes","Sternburgtask.osexp","C:/Users/Owner/Documents","no","mono","no","18","no","white","no","yes","768","legacy","45","11","C:/Users/Owner/Documents/ctsubject-2.csv","xpyriment","1 7 5 2","Kafkaesque Koffka","3.2.5","0","n","0","right","left","right","right","NA","700","29832","29268","700","NA","2","legacy","4","1024","2","48000","-16","experiment","2","even","3","462012","458069","459717","1754","145324","459778","210070","1774","116055","464016","460807","464718","31607","464015","NA","Sternburg task","52","54306","58","yes","1024"
"88.1355932203","88.1355932203","944.101694915","944.101694915","black","experiment","xpyriment","legacy","legacy","0","uniform","0","undefined","0","left","58","58","58","0","0","58","58","0","0","58","58","58","0","58","0","10/07/18 21:50:52","The main experiment item","yes","Sternburgtask.osexp","C:/Users/Owner/Documents","no","mono","no","18","no","white","no","yes","768","legacy","46","11","C:/Users/Owner/Documents/ctsubject-2.csv","xpyriment","4 7 6 8 2 3","Kafkaesque Koffka","3.2.5","6","y","0","right","left","right","right","NA","1396","29832","29268","1396","NA","2","legacy","6","1024","2","48000","-16","experiment","2","even","3","468716","464748","466417","1754","145324","466485","210070","1774","116055","470732","467512","472130","31607","470732","NA","Sternburg task","52","55702","59","yes","1024"
"88.3333333333","88.3333333333","943.433333333","943.433333333","black","experiment","xpyriment","legacy","legacy","0","uniform","1","undefined","1","right","59","59","59","0","0","59","59","0","0","59","59","59","0","59","0","10/07/18 21:50:52","The main experiment item","yes","Sternburgtask.osexp","C:/Users/Owner/Documents","no","mono","no","18","no","white","no","yes","768","legacy","47","11","C:/Users/Owner/Documents/ctsubject-2.csv","xpyriment","8 6 3 4 7","Kafkaesque Koffka","3.2.5","0","n","0","right","left","right","right","NA","904","29832","29268","904","NA","2","legacy","5","1024","2","48000","-16","experiment","2","even","1","476140","464748","473821","1754","145324","473894","472180","1774","116055","478144","474923","479049","31607","478144","NA","Sternburg task","53","56606","60","yes","1024"
"88.5245901639","88.5245901639","940.737704918","940.737704918","black","experiment","xpyriment","legacy","legacy","0","uniform","1","undefined","1","left","60","60","60","0","0","60","60","0","0","60","60","60","0","60","0","10/07/18 21:50:52","The main experiment item","yes","Sternburgtask.osexp","C:/Users/Owner/Documents","no","mono","no","18","no","white","no","yes","768","legacy","48","11","C:/Users/Owner/Documents/ctsubject-2.csv","xpyriment","3 4 9 6 2 9","Kafkaesque Koffka","3.2.5","5","y","0","left","left","right","left","NA","779","29832","29268","779","NA","2","legacy","6","1024","2","48000","-16","experiment","2","even","2","483060","479117","480755","1754","145324","480817","472180","1774","116055","485077","481843","485858","31607","485077","NA","Sternburg task","54","57385","61","yes","1024"
"88.7096774194","88.7096774194","939.677419355","939.677419355","black","experiment","xpyriment","legacy","legacy","0","uniform","1","undefined","1","left","61","61","61","0","0","61","61","0","0","61","61","61","0","61","0","10/07/18 21:50:52","The main experiment item","yes","Sternburgtask.osexp","C:/Users/Owner/Documents","no","mono","no","18","no","white","no","yes","768","legacy","49","11","C:/Users/Owner/Documents/ctsubject-2.csv","xpyriment","9 6 2 4 1","Kafkaesque Koffka","3.2.5","4","y","0","left","left","right","left","NA","875","29832","29268","875","NA","2","legacy","5","1024","2","48000","-16","experiment","2","even","4","489869","485917","487561","1754","145324","487622","472180","1774","116055","491872","488652","492749","31607","491872","NA","Sternburg task","55","58260","62","yes","1024"
"88.8888888889","88.8888888889","935.031746032","935.031746032","black","experiment","xpyriment","legacy","legacy","0","uniform","1","undefined","1","right","62","62","62","0","0","62","62","0","0","62","62","62","0","62","0","10/07/18 21:50:52","The main experiment item","yes","Sternburgtask.osexp","C:/Users/Owner/Documents","no","mono","no","18","no","white","no","yes","768","legacy","50","11","C:/Users/Owner/Documents/ctsubject-2.csv","xpyriment","1 6 4","Kafkaesque Koffka","3.2.5","0","n","0","right","left","right","right","NA","647","29832","29268","647","NA","2","legacy","3","1024","2","48000","-16","experiment","2","even","7","496731","492791","494426","1754","145324","494488","472180","1774","116055","498734","495527","499383","31607","498734","NA","Sternburg task","56","58907","63","yes","1024"
"89.0625","89.0625","930.40625","930.40625","black","experiment","xpyriment","legacy","legacy","0","uniform","1","undefined","1","left","63","63","63","0","0","63","63","0","0","63","63","63","0","63","0","10/07/18 21:50:52","The main experiment item","yes","Sternburgtask.osexp","C:/Users/Owner/Documents","no","mono","no","18","no","white","no","yes","768","legacy","51","11","C:/Users/Owner/Documents/ctsubject-2.csv","xpyriment","3 9 7 6 4","Kafkaesque Koffka","3.2.5","3","y","0","left","left","right","left","NA","639","29832","29268","639","NA","2","legacy","5","1024","2","48000","-16","experiment","2","even","7","503431","499454","501094","1754","145324","501168","472180","1774","116055","505435","502215","506078","31607","505435","NA","Sternburg task","57","59546","64","yes","1024"
"89.2307692308","89.2307692308","928.261538462","928.261538462","black","experiment","xpyriment","legacy","legacy","0","uniform","1","undefined","1","right","64","64","64","0","0","64","64","0","0","64","64","64","0","64","0","10/07/18 21:50:52","The main experiment item","yes","Sternburgtask.osexp","C:/Users/Owner/Documents","no","mono","no","18","no","white","no","yes","768","legacy","52","11","C:/Users/Owner/Documents/ctsubject-2.csv","xpyriment","3 9 8 1 6 4","Kafkaesque Koffka","3.2.5","0","n","0","right","left","right","right","NA","791","29832","29268","791","NA","2","legacy","6","1024","2","48000","-16","experiment","2","even","7","510119","506137","507796","1754","145324","507872","472180","1774","116055","512135","508901","512927","31607","512135","NA","Sternburg task","58","60337","65","yes","1024"
"89.3939393939","89.3939393939","931.287878788","931.287878788","black","experiment","xpyriment","legacy","legacy","0","uniform","1","undefined","1","right","65","65","65","0","0","65","65","0","0","65","65","65","0","65","0","10/07/18 21:50:52","The main experiment item","yes","Sternburgtask.osexp","C:/Users/Owner/Documents","no","mono","no","18","no","white","no","yes","768","legacy","53","11","C:/Users/Owner/Documents/ctsubject-2.csv","xpyriment","9 5 3 2 8 6","Kafkaesque Koffka","3.2.5","0","n","0","right","left","right","right","NA","1128","29832","29268","1128","NA","2","legacy","6","1024","2","48000","-16","experiment","2","even","7","517074","513117","514767","1754","145324","514829","472180","1774","116055","519091","515857","520221","31607","519091","NA","Sternburg task","59","61465","66","yes","1024"
"88.0597014925","88.0597014925","930.223880597","930.223880597","black","experiment","xpyriment","legacy","legacy","0","uniform","0","undefined","0","left","66","66","66","0","0","66","66","0","0","66","66","66","0","66","0","10/07/18 21:50:52","The main experiment item","yes","Sternburgtask.osexp","C:/Users/Owner/Documents","no","mono","no","18","no","white","no","yes","768","legacy","54","11","C:/Users/Owner/Documents/ctsubject-2.csv","xpyriment","2 8 5 1","Kafkaesque Koffka","3.2.5","4","y","0","right","left","right","right","NA","860","29832","29268","860","NA","2","legacy","4","1024","2","48000","-16","experiment","2","even","1","524332","520389","522013","1754","145324","522074","472180","1774","116055","526335","523116","527197","31607","526335","NA","Sternburg task","59","62325","67","yes","1024"
"88.2352941176","88.2352941176","929.102941176","929.102941176","black","experiment","xpyriment","legacy","legacy","0","uniform","1","undefined","1","left","67","67","67","0","0","67","67","0","0","67","67","67","0","67","0","10/07/18 21:50:52","The main experiment item","yes","Sternburgtask.osexp","C:/Users/Owner/Documents","no","mono","no","18","no","white","no","yes","768","legacy","55","11","C:/Users/Owner/Documents/ctsubject-2.csv","xpyriment","9 1 6 7 8","Kafkaesque Koffka","3.2.5","1","y","0","left","left","right","left","NA","854","29832","29268","854","NA","2","legacy","5","1024","2","48000","-16","experiment","2","even","9","531261","520389","528960","1754","145324","529021","527321","1774","116055","533264","530057","534120","31607","533264","NA","Sternburg task","60","63179","68","yes","1024"
"88.4057971014","88.4057971014","926.985507246","926.985507246","black","experiment","xpyriment","legacy","legacy","0","uniform","1","undefined","1","right","68","68","68","0","0","68","68","0","0","68","68","68","0","68","0","10/07/18 21:50:52","The main experiment item","yes","Sternburgtask.osexp","C:/Users/Owner/Documents","no","mono","no","18","no","white","no","yes","768","legacy","56","11","C:/Users/Owner/Documents/ctsubject-2.csv","xpyriment","2 7 5","Kafkaesque Koffka","3.2.5","0","n","0","right","left","right","right","NA","783","29832","29268","783","NA","2","legacy","3","1024","2","48000","-16","experiment","2","even","8","538161","534200","535854","1754","145324","535928","527321","1774","116055","540164","536957","540949","31607","540164","NA","Sternburg task","61","63962","69","yes","1024"
"88.5714285714","88.5714285714","924.585714286","924.585714286","black","experiment","xpyriment","legacy","legacy","0","uniform","1","undefined","1","left","69","69","69","0","0","69","69","0","0","69","69","69","0","69","0","10/07/18 21:50:52","The main experiment item","yes","Sternburgtask.osexp","C:/Users/Owner/Documents","no","mono","no","18","no","white","no","yes","768","legacy","57","11","C:/Users/Owner/Documents/ctsubject-2.csv","xpyriment","7 1 8 5 6 2","Kafkaesque Koffka","3.2.5","2","y","0","left","left","right","left","NA","759","29832","29268","759","NA","2","legacy","6","1024","2","48000","-16","experiment","2","even","1","545266","540983","542937","1754","145324","543017","527321","1774","116055","547270","544050","548031","31607","547269","NA","Sternburg task","62","64721","70","yes","1024"
"88.7323943662","88.7323943662","927.85915493","927.85915493","black","experiment","xpyriment","legacy","legacy","0","uniform","1","undefined","1","right","70","70","70","0","0","70","70","0","0","70","70","70","0","70","0","10/07/18 21:50:52","The main experiment item","yes","Sternburgtask.osexp","C:/Users/Owner/Documents","no","mono","no","18","no","white","no","yes","768","legacy","58","11","C:/Users/Owner/Documents/ctsubject-2.csv","xpyriment","7 8 6 1","Kafkaesque Koffka","3.2.5","0","n","0","right","left","right","right","NA","1157","29832","29268","1157","NA","2","legacy","4","1024","2","48000","-16","experiment","2","even","3","552037","548079","549715","1754","145324","549790","527321","1774","116055","554053","550820","555212","31607","554053","NA","Sternburg task","63","65878","71","yes","1024"
"88.8888888889","88.8888888889","922.847222222","922.847222222","black","experiment","xpyriment","legacy","legacy","0","uniform","1","undefined","1","left","71","71","71","0","0","71","71","0","0","71","71","71","0","71","0","10/07/18 21:50:52","The main experiment item","yes","Sternburgtask.osexp","C:/Users/Owner/Documents","no","mono","no","18","no","white","no","yes","768","legacy","59","11","C:/Users/Owner/Documents/ctsubject-2.csv","xpyriment","2 3 7 4","Kafkaesque Koffka","3.2.5","1","y","0","left","left","right","left","NA","567","29832","29268","567","NA","2","legacy","4","1024","2","48000","-16","experiment","2","even","2","559190","555262","556898","1754","145324","556959","527321","1774","116055","561207","557986","561776","31607","561207","NA","Sternburg task","64","66445","72","yes","1024"
"89.0410958904","89.0410958904","919.493150685","919.493150685","black","experiment","xpyriment","legacy","legacy","0","uniform","1","undefined","1","left","72","72","72","0","0","72","72","0","0","72","72","72","0","72","0","10/07/18 21:50:52","The main experiment item","yes","Sternburgtask.osexp","C:/Users/Owner/Documents","no","mono","no","18","no","white","no","yes","768","legacy","60","11","C:/Users/Owner/Documents/ctsubject-2.csv","xpyriment","7","Kafkaesque Koffka","3.2.5","1","y","0","left","left","right","left","NA","678","29832","29268","678","NA","2","legacy","1","1024","2","48000","-16","experiment","2","even","7","565748","561808","563452","1754","145324","563514","527321","1774","116055","567766","564544","568446","31607","567765","NA","Sternburg task","65","67123","73","yes","1024"
"89.1891891892","89.1891891892","916.445945946","916.445945946","black","experiment","xpyriment","legacy","legacy","0","uniform","1","undefined","1","right","73","73","73","0","0","73","73","0","0","73","73","73","0","73","0","10/07/18 21:50:52","The main experiment item","yes","Sternburgtask.osexp","C:/Users/Owner/Documents","no","mono","no","18","no","white","no","yes","768","legacy","61","11","C:/Users/Owner/Documents/ctsubject-2.csv","xpyriment","3 9 1","Kafkaesque Koffka","3.2.5","0","n","0","right","left","right","right","NA","694","29832","29268","694","NA","2","legacy","3","1024","2","48000","-16","experiment","2","even","7","572440","568511","570148","1754","145324","570209","527321","1774","116055","574443","571236","575139","31607","574443","NA","Sternburg task","66","67817","74","yes","1024"
"89.3333333333","89.3333333333","917.813333333","917.813333333","black","experiment","xpyriment","legacy","legacy","0","uniform","1","undefined","1","left","74","74","74","0","0","74","74","0","0","74","74","74","0","74","0","10/07/18 21:50:52","The main experiment item","yes","Sternburgtask.osexp","C:/Users/Owner/Documents","no","mono","no","18","no","white","no","yes","768","legacy","62","11","C:/Users/Owner/Documents/ctsubject-2.csv","xpyriment","5 2 6","Kafkaesque Koffka","3.2.5","2","y","0","left","left","right","left","NA","1019","29832","29268","1019","NA","2","legacy","3","1024","2","48000","-16","experiment","2","even","2","579197","575237","576877","1754","145324","576940","527321","1774","116055","581201","577981","582221","31607","581201","NA","Sternburg task","67","68836","75","yes","1024"
"89.4736842105","89.4736842105","914.078947368","914.078947368","black","experiment","xpyriment","legacy","legacy","0","uniform","1","undefined","1","right","75","75","75","0","0","75","75","0","0","75","75","75","0","75","0","10/07/18 21:50:52","The main experiment item","yes","Sternburgtask.osexp","C:/Users/Owner/Documents","no","mono","no","18","no","white","no","yes","768","legacy","63","11","C:/Users/Owner/Documents/ctsubject-2.csv","xpyriment","7 1 5 6 3","Kafkaesque Koffka","3.2.5","0","n","0","right","left","right","right","NA","634","29832","29268","634","NA","2","legacy","5","1024","2","48000","-16","experiment","2","even","8","586251","582293","583943","1754","145324","584004","527321","1774","116055","588267","585034","588904","31607","588267","NA","Sternburg task","68","69470","76","yes","1024"
"89.6103896104","89.6103896104","914.857142857","914.857142857","black","experiment","xpyriment","legacy","legacy","0","uniform","1","undefined","1","left","76","76","76","0","0","76","76","0","0","76","76","76","0","76","0","10/07/18 21:50:52","The main experiment item","yes","Sternburgtask.osexp","C:/Users/Owner/Documents","no","mono","no","18","no","white","no","yes","768","legacy","64","11","C:/Users/Owner/Documents/ctsubject-2.csv","xpyriment","9 3 1 2 5","Kafkaesque Koffka","3.2.5","4","y","0","left","left","right","left","NA","974","29832","29268","974","NA","2","legacy","5","1024","2","48000","-16","experiment","2","even","2","592915","588959","590602","1754","145324","590679","527321","1774","116055","594918","591711","595895","31607","594918","NA","Sternburg task","69","70444","77","yes","1024"
"89.7435897436","89.7435897436","909.461538462","909.461538462","black","experiment","xpyriment","legacy","legacy","0","uniform","1","undefined","1","left","77","77","77","0","0","77","77","0","0","77","77","77","0","77","0","10/07/18 21:50:52","The main experiment item","yes","Sternburgtask.osexp","C:/Users/Owner/Documents","no","mono","no","18","no","white","no","yes","768","legacy","65","11","C:/Users/Owner/Documents/ctsubject-2.csv","xpyriment","5 7 3 6 2","Kafkaesque Koffka","3.2.5","5","y","0","left","left","right","left","NA","494","29832","29268","494","NA","2","legacy","5","1024","2","48000","-16","experiment","2","even","2","599897","595943","597598","1754","145324","597664","527321","1774","116055","601912","598693","602408","31607","601912","NA","Sternburg task","70","70938","78","yes","1024"
"89.8734177215","89.8734177215","905.46835443","905.46835443","black","experiment","xpyriment","legacy","legacy","0","uniform","1","undefined","1","right","78","78","78","0","0","78","78","0","0","78","78","78","0","78","0","10/07/18 21:50:52","The main experiment item","yes","Sternburgtask.osexp","C:/Users/Owner/Documents","no","mono","no","18","no","white","no","yes","768","legacy","66","11","C:/Users/Owner/Documents/ctsubject-2.csv","xpyriment","8 4 3 9","Kafkaesque Koffka","3.2.5","0","n","0","right","left","right","right","NA","594","29832","29268","594","NA","2","legacy","4","1024","2","48000","-16","experiment","2","even","5","606428","602460","604121","1754","145324","604183","527321","1774","116055","608431","605223","609028","31607","608431","NA","Sternburg task","71","71532","79","yes","1024"
"90","90","911.7","911.7","black","experiment","xpyriment","legacy","legacy","0","uniform","1","undefined","1","right","79","79","79","0","0","79","79","0","0","79","79","79","0","79","0","10/07/18 21:50:52","The main experiment item","yes","Sternburgtask.osexp","C:/Users/Owner/Documents","no","mono","no","18","no","white","no","yes","768","legacy","67","11","C:/Users/Owner/Documents/ctsubject-2.csv","xpyriment","8 5 4 2 9 6","Kafkaesque Koffka","3.2.5","0","n","0","right","left","right","right","NA","1404","29832","29268","1404","NA","2","legacy","6","1024","2","48000","-16","experiment","2","even","3","613012","609079","610714","1754","145324","610776","527321","1774","116055","615015","611807","616421","31607","615015","NA","Sternburg task","72","72936","80","yes","1024"
"90.1234567901","90.1234567901","910.75308642","910.75308642","black","experiment","xpyriment","legacy","legacy","0","uniform","1","undefined","1","right","80","80","80","0","0","80","80","0","0","80","80","80","0","80","0","10/07/18 21:50:52","The main experiment item","yes","Sternburgtask.osexp","C:/Users/Owner/Documents","no","mono","no","18","no","white","no","yes","768","legacy","68","11","C:/Users/Owner/Documents/ctsubject-2.csv","xpyriment","9","Kafkaesque Koffka","3.2.5","0","n","0","right","left","right","right","NA","835","29832","29268","835","NA","2","legacy","1","1024","2","48000","-16","experiment","2","even","6","620450","616473","618141","1754","145324","618219","527321","1774","116055","622454","619246","623291","31607","622453","NA","Sternburg task","73","73771","81","yes","1024"
"90.243902439","90.243902439","907.06097561","907.06097561","black","experiment","xpyriment","legacy","legacy","0","uniform","1","undefined","1","right","81","81","81","0","0","81","81","0","0","81","81","81","0","81","0","10/07/18 21:50:52","The main experiment item","yes","Sternburgtask.osexp","C:/Users/Owner/Documents","no","mono","no","18","no","white","no","yes","768","legacy","69","11","C:/Users/Owner/Documents/ctsubject-2.csv","xpyriment","6 3 1 7 9 8","Kafkaesque Koffka","3.2.5","0","n","0","right","left","right","right","NA","608","29832","29268","608","NA","2","legacy","6","1024","2","48000","-16","experiment","2","even","4","627305","623362","625009","1754","145324","625071","527321","1774","116055","629308","626101","629920","31607","629308","NA","Sternburg task","74","74379","82","yes","1024"
"90.3614457831","90.3614457831","907.301204819","907.301204819","black","experiment","xpyriment","legacy","legacy","0","uniform","1","undefined","1","left","82","82","82","0","0","82","82","0","0","82","82","82","0","82","0","10/07/18 21:50:52","The main experiment item","yes","Sternburgtask.osexp","C:/Users/Owner/Documents","no","mono","no","18","no","white","no","yes","768","legacy","70","11","C:/Users/Owner/Documents/ctsubject-2.csv","xpyriment","6 8 9 3 4 9","Kafkaesque Koffka","3.2.5","5","y","0","left","left","right","left","NA","927","29832","29268","927","NA","2","legacy","6","1024","2","48000","-16","experiment","2","even","4","633928","629983","631622","1754","145324","631697","527321","1774","116055","635931","632724","636860","31607","635931","NA","Sternburg task","75","75306","83","yes","1024"
"90.4761904762","90.4761904762","904.976190476","904.976190476","black","experiment","xpyriment","legacy","legacy","0","uniform","1","undefined","1","left","83","83","83","0","0","83","83","0","0","83","83","83","0","83","0","10/07/18 21:50:52","The main experiment item","yes","Sternburgtask.osexp","C:/Users/Owner/Documents","no","mono","no","18","no","white","no","yes","768","legacy","71","11","C:/Users/Owner/Documents/ctsubject-2.csv","xpyriment","6 2","Kafkaesque Koffka","3.2.5","1","y","0","left","left","right","left","NA","712","29832","29268","712","NA","2","legacy","2","1024","2","48000","-16","experiment","2","even","6","640857","636919","638554","1754","145324","638626","527321","1774","116055","642860","639652","643574","31607","642860","NA","Sternburg task","76","76018","84","yes","1024"
"90.5882352941","90.5882352941","901.023529412","901.023529412","black","experiment","xpyriment","legacy","legacy","0","uniform","1","undefined","1","left","84","84","84","0","0","84","84","0","0","84","84","84","0","84","0","10/07/18 21:50:52","The main experiment item","yes","Sternburgtask.osexp","C:/Users/Owner/Documents","no","mono","no","18","no","white","no","yes","768","legacy","72","11","C:/Users/Owner/Documents/ctsubject-2.csv","xpyriment","4 1 8 7 5","Kafkaesque Koffka","3.2.5","3","y","0","left","left","right","left","NA","569","29832","29268","569","NA","2","legacy","5","1024","2","48000","-16","experiment","2","even","8","647574","643630","645261","1754","145324","645325","527321","1774","116055","649578","646358","650151","31607","649578","NA","Sternburg task","77","76587","85","yes","1024"
"90.6976744186","90.6976744186","897.209302326","897.209302326","black","experiment","xpyriment","legacy","legacy","0","uniform","1","undefined","1","left","85","85","85","0","0","85","85","0","0","85","85","85","0","85","0","10/07/18 21:50:52","The main experiment item","yes","Sternburgtask.osexp","C:/Users/Owner/Documents","no","mono","no","18","no","white","no","yes","768","legacy","73","11","C:/Users/Owner/Documents/ctsubject-2.csv","xpyriment","3 9 6 2","Kafkaesque Koffka","3.2.5","4","y","0","left","left","right","left","NA","573","29832","29268","573","NA","2","legacy","4","1024","2","48000","-16","experiment","2","even","2","654148","650210","651847","1754","145324","651909","527321","1774","116055","656152","652932","656728","31607","656151","NA","Sternburg task","78","77160","86","yes","1024"
"90.8045977011","90.8045977011","892.344827586","892.344827586","black","experiment","xpyriment","legacy","legacy","0","uniform","1","undefined","1","left","86","86","86","0","0","86","86","0","0","86","86","86","0","86","0","10/07/18 21:50:52","The main experiment item","yes","Sternburgtask.osexp","C:/Users/Owner/Documents","no","mono","no","18","no","white","no","yes","768","legacy","74","11","C:/Users/Owner/Documents/ctsubject-2.csv","xpyriment","8 9 5 6 7","Kafkaesque Koffka","3.2.5","1","y","0","left","left","right","left","NA","474","29832","29268","474","NA","2","legacy","5","1024","2","48000","-16","experiment","2","even","8","660716","656773","658420","1754","145324","658483","527321","1774","116055","662733","659512","663211","31607","662733","NA","Sternburg task","79","77634","87","yes","1024"
"89.7727272727","89.7727272727","887.386363636","887.386363636","black","experiment","xpyriment","legacy","legacy","0","uniform","0","undefined","0","right","87","87","87","0","0","87","87","0","0","87","87","87","0","87","0","10/07/18 21:50:52","The main experiment item","yes","Sternburgtask.osexp","C:/Users/Owner/Documents","no","mono","no","18","no","white","no","yes","768","legacy","75","11","C:/Users/Owner/Documents/ctsubject-2.csv","xpyriment","5 3 8 7 2 4","Kafkaesque Koffka","3.2.5","0","n","0","left","left","right","left","NA","456","29832","29268","456","NA","2","legacy","6","1024","2","48000","-16","experiment","2","even","9","667205","663263","664912","1754","145324","664973","527321","1774","116055","669208","666001","669667","31607","669208","NA","Sternburg task","79","78090","88","yes","1024"
"89.8876404494","89.8876404494","889.505617978","889.505617978","black","experiment","xpyriment","legacy","legacy","0","uniform","1","undefined","1","right","88","88","88","0","0","88","88","0","0","88","88","88","0","88","0","10/07/18 21:50:52","The main experiment item","yes","Sternburgtask.osexp","C:/Users/Owner/Documents","no","mono","no","18","no","white","no","yes","768","legacy","76","11","C:/Users/Owner/Documents/ctsubject-2.csv","xpyriment","1 5 3 2 8","Kafkaesque Koffka","3.2.5","0","n","0","right","left","right","right","NA","1076","29832","29268","1076","NA","2","legacy","5","1024","2","48000","-16","experiment","2","even","4","673700","663263","671379","1754","145324","671454","669738","1774","116055","675704","672483","676783","31607","675704","NA","Sternburg task","80","79166","89","yes","1024"
"90","90","889.322222222","889.322222222","black","experiment","xpyriment","legacy","legacy","0","uniform","1","undefined","1","right","89","89","89","0","0","89","89","0","0","89","89","89","0","89","0","10/07/18 21:50:52","The main experiment item","yes","Sternburgtask.osexp","C:/Users/Owner/Documents","no","mono","no","18","no","white","no","yes","768","legacy","77","11","C:/Users/Owner/Documents/ctsubject-2.csv","xpyriment","5 3 2 6 9 8","Kafkaesque Koffka","3.2.5","0","n","0","right","left","right","right","NA","873","29832","29268","873","NA","2","legacy","6","1024","2","48000","-16","experiment","2","even","4","680821","676835","678499","1754","145324","678574","669738","1774","116055","682837","679604","683712","31607","682837","NA","Sternburg task","81","80039","90","yes","1024"
"90.1098901099","90.1098901099","891.164835165","891.164835165","black","experiment","xpyriment","legacy","legacy","0","uniform","1","undefined","1","right","90","90","90","0","0","90","90","0","0","90","90","90","0","90","0","10/07/18 21:50:52","The main experiment item","yes","Sternburgtask.osexp","C:/Users/Owner/Documents","no","mono","no","18","no","white","no","yes","768","legacy","78","11","C:/Users/Owner/Documents/ctsubject-2.csv","xpyriment","2 8 6 3 1","Kafkaesque Koffka","3.2.5","0","n","0","right","left","right","right","NA","1057","29832","29268","1057","NA","2","legacy","5","1024","2","48000","-16","experiment","2","even","7","687745","683768","685431","1754","145324","685490","669738","1774","116055","689759","686531","690818","31607","689759","NA","Sternburg task","82","81096","91","yes","1024"
"89.1304347826","89.1304347826","891.793478261","891.793478261","black","experiment","xpyriment","legacy","legacy","0","uniform","0","undefined","0","left","91","91","91","0","0","91","91","0","0","91","91","91","0","91","0","10/07/18 21:50:52","The main experiment item","yes","Sternburgtask.osexp","C:/Users/Owner/Documents","no","mono","no","18","no","white","no","yes","768","legacy","79","11","C:/Users/Owner/Documents/ctsubject-2.csv","xpyriment","8 1 6","Kafkaesque Koffka","3.2.5","3","y","0","right","left","right","right","NA","949","29832","29268","949","NA","2","legacy","3","1024","2","48000","-16","experiment","2","even","6","694934","690846","692607","1754","145324","692677","669738","1774","116055","696938","693719","697890","31607","696938","NA","Sternburg task","82","82045","92","yes","1024"
"89.247311828","89.247311828","889.021505376","889.021505376","black","experiment","xpyriment","legacy","legacy","0","uniform","1","undefined","1","left","92","92","92","0","0","92","92","0","0","92","92","92","0","92","0","10/07/18 21:50:52","The main experiment item","yes","Sternburgtask.osexp","C:/Users/Owner/Documents","no","mono","no","18","no","white","no","yes","768","legacy","80","11","C:/Users/Owner/Documents/ctsubject-2.csv","xpyriment","7 6","Kafkaesque Koffka","3.2.5","2","y","0","left","left","right","left","NA","634","29832","29268","634","NA","2","legacy","2","1024","2","48000","-16","experiment","2","even","6","701879","690846","699570","1754","145324","699643","697921","1774","116055","703882","700675","704518","31607","703882","NA","Sternburg task","83","82679","93","yes","1024"
"89.3617021277","89.3617021277","888","888","black","experiment","xpyriment","legacy","legacy","0","uniform","1","undefined","1","left","93","93","93","0","0","93","93","0","0","93","93","93","0","93","0","10/07/18 21:50:52","The main experiment item","yes","Sternburgtask.osexp","C:/Users/Owner/Documents","no","mono","no","18","no","white","no","yes","768","legacy","81","11","C:/Users/Owner/Documents/ctsubject-2.csv","xpyriment","2 4 6 9","Kafkaesque Koffka","3.2.5","3","y","0","left","left","right","left","NA","793","29832","29268","793","NA","2","legacy","4","1024","2","48000","-16","experiment","2","even","6","708497","704544","706191","1754","145324","706264","697921","1774","116055","710500","707293","711296","31607","710500","NA","Sternburg task","84","83472","94","yes","1024"
"89.4736842105","89.4736842105","884.968421053","884.968421053","black","experiment","xpyriment","legacy","legacy","0","uniform","1","undefined","1","left","94","94","94","0","0","94","94","0","0","94","94","94","0","94","0","10/07/18 21:50:52","The main experiment item","yes","Sternburgtask.osexp","C:/Users/Owner/Documents","no","mono","no","18","no","white","no","yes","768","legacy","82","11","C:/Users/Owner/Documents/ctsubject-2.csv","xpyriment","3 5 7 1","Kafkaesque Koffka","3.2.5","3","y","0","left","left","right","left","NA","600","29832","29268","600","NA","2","legacy","4","1024","2","48000","-16","experiment","2","even","7","715260","711349","712967","1754","145324","713028","697921","1774","116055","717263","714055","717864","31607","717263","NA","Sternburg task","85","84072","95","yes","1024"
"89.5833333333","89.5833333333","882.604166667","882.604166667","black","experiment","xpyriment","legacy","legacy","0","uniform","1","undefined","1","right","95","95","95","0","0","95","95","0","0","95","95","95","0","95","0","10/07/18 21:50:52","The main experiment item","yes","Sternburgtask.osexp","C:/Users/Owner/Documents","no","mono","no","18","no","white","no","yes","768","legacy","83","11","C:/Users/Owner/Documents/ctsubject-2.csv","xpyriment","6 7 5 9","Kafkaesque Koffka","3.2.5","0","n","0","right","left","right","right","NA","658","29832","29268","658","NA","2","legacy","4","1024","2","48000","-16","experiment","2","even","2","721859","717912","719547","1754","145324","719612","697921","1774","116055","723862","720642","724524","31607","723862","NA","Sternburg task","86","84730","96","yes","1024"
"89.6907216495","89.6907216495","882.257731959","882.257731959","black","experiment","xpyriment","legacy","legacy","0","uniform","1","undefined","1","left","96","96","96","0","0","96","96","0","0","96","96","96","0","96","0","10/07/18 21:50:52","The main experiment item","yes","Sternburgtask.osexp","C:/Users/Owner/Documents","no","mono","no","18","no","white","no","yes","768","legacy","84","11","C:/Users/Owner/Documents/ctsubject-2.csv","xpyriment","3 2 1 4 7","Kafkaesque Koffka","3.2.5","2","y","0","left","left","right","left","NA","849","29832","29268","849","NA","2","legacy","5","1024","2","48000","-16","experiment","2","even","2","728515","724570","726209","1754","145324","726283","697921","1774","116055","730518","727311","731370","31607","730518","NA","Sternburg task","87","85579","97","yes","1024"
"89.7959183673","89.7959183673","879.897959184","879.897959184","black","experiment","xpyriment","legacy","legacy","0","uniform","1","undefined","1","right","97","97","97","0","0","97","97","0","0","97","97","97","0","97","0","10/07/18 21:50:52","The main experiment item","yes","Sternburgtask.osexp","C:/Users/Owner/Documents","no","mono","no","18","no","white","no","yes","768","legacy","85","11","C:/Users/Owner/Documents/ctsubject-2.csv","xpyriment","1 7 8 3 9","Kafkaesque Koffka","3.2.5","0","n","0","right","left","right","right","NA","651","29832","29268","651","NA","2","legacy","5","1024","2","48000","-16","experiment","2","even","2","735367","731426","733072","1754","145324","733132","697921","1774","116055","737383","734162","738039","31607","737383","NA","Sternburg task","88","86230","98","yes","1024"
"89.898989899","89.898989899","877.505050505","877.505050505","black","experiment","xpyriment","legacy","legacy","0","uniform","1","undefined","1","right","98","98","98","0","0","98","98","0","0","98","98","98","0","98","0","10/07/18 21:50:52","The main experiment item","yes","Sternburgtask.osexp","C:/Users/Owner/Documents","no","mono","no","18","no","white","no","yes","768","legacy","86","11","C:/Users/Owner/Documents/ctsubject-2.csv","xpyriment","1 4 3 6 5","Kafkaesque Koffka","3.2.5","0","n","0","right","left","right","right","NA","643","29832","29268","643","NA","2","legacy","5","1024","2","48000","-16","experiment","2","even","8","742061","738097","739740","1754","145324","739814","697921","1774","116055","744064","740845","744711","31607","744064","NA","Sternburg task","89","86873","99","yes","1024"
"90","90","873.89","873.89","black","experiment","xpyriment","legacy","legacy","0","uniform","1","undefined","1","left","99","99","99","0","0","99","99","0","0","99","99","99","0","99","0","10/07/18 21:50:52","The main experiment item","yes","Sternburgtask.osexp","C:/Users/Owner/Documents","no","mono","no","18","no","white","no","yes","768","legacy","87","11","C:/Users/Owner/Documents/ctsubject-2.csv","xpyriment","2 6 1 7 4","Kafkaesque Koffka","3.2.5","2","y","0","left","left","right","left","NA","516","29832","29268","516","NA","2","legacy","5","1024","2","48000","-16","experiment","2","even","6","748708","744754","746414","1754","145324","746476","697921","1774","116055","750711","747504","751230","31607","750711","NA","Sternburg task","90","87389","100","yes","1024"
"90.099009901","90.099009901","871.336633663","871.336633663","black","experiment","xpyriment","legacy","legacy","0","uniform","1","undefined","1","left","100","100","100","0","0","100","100","0","0","100","100","100","0","100","0","10/07/18 21:50:52","The main experiment item","yes","Sternburgtask.osexp","C:/Users/Owner/Documents","no","mono","no","18","no","white","no","yes","768","legacy","88","11","C:/Users/Owner/Documents/ctsubject-2.csv","xpyriment","9 4 2","Kafkaesque Koffka","3.2.5","1","y","0","left","left","right","left","NA","616","29832","29268","616","NA","2","legacy","3","1024","2","48000","-16","experiment","2","even","9","755407","751312","753111","1754","145324","753173","697921","1774","116055","757410","754202","758030","31607","757410","NA","Sternburg task","91","88005","101","yes","1024"
"90.1960784314","90.1960784314","871.176470588","871.176470588","black","experiment","xpyriment","legacy","legacy","0","uniform","1","undefined","1","left","101","101","101","0","0","101","101","0","0","101","101","101","0","101","0","10/07/18 21:50:52","The main experiment item","yes","Sternburgtask.osexp","C:/Users/Owner/Documents","no","mono","no","18","no","white","no","yes","768","legacy","89","11","C:/Users/Owner/Documents/ctsubject-2.csv","xpyriment","3 5 4 7","Kafkaesque Koffka","3.2.5","1","y","0","left","left","right","left","NA","855","29832","29268","855","NA","2","legacy","4","1024","2","48000","-16","experiment","2","even","3","762119","758101","759824","1754","145324","759898","697921","1774","116055","764122","760915","764978","31607","764122","NA","Sternburg task","92","88860","102","yes","1024"
"90.2912621359","90.2912621359","869.291262136","869.291262136","black","experiment","xpyriment","legacy","legacy","0","uniform","1","undefined","1","left","102","102","102","0","0","102","102","0","0","102","102","102","0","102","0","10/07/18 21:50:52","The main experiment item","yes","Sternburgtask.osexp","C:/Users/Owner/Documents","no","mono","no","18","no","white","no","yes","768","legacy","90","11","C:/Users/Owner/Documents/ctsubject-2.csv","xpyriment","9 5 8 1","Kafkaesque Koffka","3.2.5","2","y","0","left","left","right","left","NA","677","29832","29268","677","NA","2","legacy","4","1024","2","48000","-16","experiment","2","even","5","769017","765041","766681","1754","145324","766771","697921","1774","116055","771033","767800","771713","31607","771033","NA","Sternburg task","93","89537","103","yes","1024"
"90.3846153846","90.3846153846","868.596153846","868.596153846","black","experiment","xpyriment","legacy","legacy","0","uniform","1","undefined","1","right","103","103","103","0","0","103","103","0","0","103","103","103","0","103","0","10/07/18 21:50:52","The main experiment item","yes","Sternburgtask.osexp","C:/Users/Owner/Documents","no","mono","no","18","no","white","no","yes","768","legacy","91","11","C:/Users/Owner/Documents/ctsubject-2.csv","xpyriment","2 8 7 9 5 3","Kafkaesque Koffka","3.2.5","0","n","0","right","left","right","right","NA","797","29832","29268","797","NA","2","legacy","6","1024","2","48000","-16","experiment","2","even","6","775739","771797","773437","1754","145324","773510","697921","1774","116055","777756","774535","778558","31607","777756","NA","Sternburg task","94","90334","104","yes","1024"
"90.4761904762","90.4761904762","864.8","864.8","black","experiment","xpyriment","legacy","legacy","0","uniform","1","undefined","1","left","104","104","104","0","0","104","104","0","0","104","104","104","0","104","0","10/07/18 21:50:52","The main experiment item","yes","Sternburgtask.osexp","C:/Users/Owner/Documents","no","mono","no","18","no","white","no","yes","768","legacy","92","11","C:/Users/Owner/Documents/ctsubject-2.csv","xpyriment","8","Kafkaesque Koffka","3.2.5","1","y","0","left","left","right","left","NA","470","29832","29268","470","NA","2","legacy","1","1024","2","48000","-16","experiment","2","even","8","782554","778618","780263","1754","145324","780324","697921","1774","116055","784558","781350","785033","31607","784557","NA","Sternburg task","95","90804","105","yes","1024"
"90.5660377358","90.5660377358","863.122641509","863.122641509","black","experiment","xpyriment","legacy","legacy","0","uniform","1","undefined","1","right","105","105","105","0","0","105","105","0","0","105","105","105","0","105","0","10/07/18 21:50:52","The main experiment item","yes","Sternburgtask.osexp","C:/Users/Owner/Documents","no","mono","no","18","no","white","no","yes","768","legacy","93","11","C:/Users/Owner/Documents/ctsubject-2.csv","xpyriment","8 9","Kafkaesque Koffka","3.2.5","0","n","0","right","left","right","right","NA","687","29832","29268","687","NA","2","legacy","2","1024","2","48000","-16","experiment","2","even","5","789043","785109","786739","1754","145324","786807","697921","1774","116055","791046","787834","791737","31607","791046","NA","Sternburg task","96","91491","106","yes","1024"
"90.6542056075","90.6542056075","863.476635514","863.476635514","black","experiment","xpyriment","legacy","legacy","0","uniform","1","undefined","1","right","106","106","106","0","0","106","106","0","0","106","106","106","0","106","0","10/07/18 21:50:52","The main experiment item","yes","Sternburgtask.osexp","C:/Users/Owner/Documents","no","mono","no","18","no","white","no","yes","768","legacy","94","11","C:/Users/Owner/Documents/ctsubject-2.csv","xpyriment","7 3 2 8","Kafkaesque Koffka","3.2.5","0","n","0","right","left","right","right","NA","901","29832","29268","901","NA","2","legacy","4","1024","2","48000","-16","experiment","2","even","4","795726","791781","793406","1754","145324","793479","697921","1774","116055","797742","794509","798648","31607","797742","NA","Sternburg task","97","92392","107","yes","1024"
"90.7407407407","90.7407407407","862.759259259","862.759259259","black","experiment","xpyriment","legacy","legacy","0","uniform","1","undefined","1","left","107","107","107","0","0","107","107","0","0","107","107","107","0","107","0","10/07/18 21:50:52","The main experiment item","yes","Sternburgtask.osexp","C:/Users/Owner/Documents","no","mono","no","18","no","white","no","yes","768","legacy","95","11","C:/Users/Owner/Documents/ctsubject-2.csv","xpyriment","8 3","Kafkaesque Koffka","3.2.5","2","y","0","left","left","right","left","NA","786","29832","29268","786","NA","2","legacy","2","1024","2","48000","-16","experiment","2","even","3","802646","798682","800351","1754","145324","800413","697921","1774","116055","804662","801442","805451","31607","804662","NA","Sternburg task","98","93178","108","yes","1024"
"90.8256880734","90.8256880734","866.174311927","866.174311927","black","experiment","xpyriment","legacy","legacy","0","uniform","1","undefined","1","right","108","108","108","0","0","108","108","0","0","108","108","108","0","108","0","10/07/18 21:50:52","The main experiment item","yes","Sternburgtask.osexp","C:/Users/Owner/Documents","no","mono","no","18","no","white","no","yes","768","legacy","96","11","C:/Users/Owner/Documents/ctsubject-2.csv","xpyriment","1 3 2 6 9","Kafkaesque Koffka","3.2.5","0","n","0","right","left","right","right","NA","1235","29832","29268","1235","NA","2","legacy","5","1024","2","48000","-16","experiment","2","even","5","809446","805494","807147","1754","145324","807208","697921","1774","116055","811449","808242","812687","31607","811449","NA","Sternburg task","99","94413","109","yes","1024"
"90","90","864.854545455","864.854545455","black","experiment","xpyriment","legacy","legacy","0","uniform","0","undefined","0","left","109","109","109","0","0","109","109","0","0","109","109","109","0","109","0","10/07/18 21:50:52","The main experiment item","yes","Sternburgtask.osexp","C:/Users/Owner/Documents","no","mono","no","18","no","white","no","yes","768","legacy","97","11","C:/Users/Owner/Documents/ctsubject-2.csv","xpyriment","6 7 8 5","Kafkaesque Koffka","3.2.5","3","y","0","right","left","right","right","NA","721","29832","29268","721","NA","2","legacy","4","1024","2","48000","-16","experiment","2","even","8","816712","812744","814392","1754","145324","814465","697921","1774","116055","818716","815493","819439","31607","818716","NA","Sternburg task","99","95134","110","yes","1024"
"90.0900900901","90.0900900901","862.45045045","862.45045045","black","experiment","xpyriment","legacy","legacy","0","uniform","1","undefined","1","right","110","110","110","0","0","110","110","0","0","110","110","110","0","110","0","10/07/18 21:50:52","The main experiment item","yes","Sternburgtask.osexp","C:/Users/Owner/Documents","no","mono","no","18","no","white","no","yes","768","legacy","98","11","C:/Users/Owner/Documents/ctsubject-2.csv","xpyriment","1 7 5 2 9","Kafkaesque Koffka","3.2.5","0","n","0","right","left","right","right","NA","598","29832","29268","598","NA","2","legacy","5","1024","2","48000","-16","experiment","2","even","3","823451","812744","821156","1754","145324","821217","819523","1774","116055","825454","822247","826055","31607","825454","NA","Sternburg task","100","95732","111","yes","1024"
"90.1785714286","90.1785714286","859.607142857","859.607142857","black","experiment","xpyriment","legacy","legacy","0","uniform","1","undefined","1","right","111","111","111","0","0","111","111","0","0","111","111","111","0","111","0","10/07/18 21:50:52","The main experiment item","yes","Sternburgtask.osexp","C:/Users/Owner/Documents","no","mono","no","18","no","white","no","yes","768","legacy","99","11","C:/Users/Owner/Documents/ctsubject-2.csv","xpyriment","3 4 2","Kafkaesque Koffka","3.2.5","0","n","0","right","left","right","right","NA","544","29832","29268","544","NA","2","legacy","3","1024","2","48000","-16","experiment","2","even","5","830075","826122","827760","1754","145324","827828","819523","1774","116055","832078","828858","832625","31607","832078","NA","Sternburg task","101","96276","112","yes","1024"
"90.2654867257","90.2654867257","867.973451327","867.973451327","black","experiment","xpyriment","legacy","legacy","0","uniform","1","undefined","1","right","112","112","112","0","0","112","112","0","0","112","112","112","0","112","0","10/07/18 21:50:52","The main experiment item","yes","Sternburgtask.osexp","C:/Users/Owner/Documents","no","mono","no","18","no","white","no","yes","768","legacy","100","11","C:/Users/Owner/Documents/ctsubject-2.csv","xpyriment","6 9 4 5 3 2","Kafkaesque Koffka","3.2.5","0","n","0","right","left","right","right","NA","1805","29832","29268","1805","NA","2","legacy","6","1024","2","48000","-16","experiment","2","even","8","836615","832685","834321","1754","145324","834384","819523","1774","116055","838618","835411","840426","31607","838618","NA","Sternburg task","102","98081","113","yes","1024"
"90.350877193","90.350877193","867.98245614","867.98245614","black","experiment","xpyriment","legacy","legacy","0","uniform","1","undefined","1","right","113","113","113","0","0","113","113","0","0","113","113","113","0","113","0","10/07/18 21:50:52","The main experiment item","yes","Sternburgtask.osexp","C:/Users/Owner/Documents","no","mono","no","18","no","white","no","yes","768","legacy","101","11","C:/Users/Owner/Documents/ctsubject-2.csv","xpyriment","3 4 9 6 7 8","Kafkaesque Koffka","3.2.5","0","n","0","right","left","right","right","NA","869","29832","29268","869","NA","2","legacy","6","1024","2","48000","-16","experiment","2","even","2","844467","840490","842147","1754","145324","842222","819523","1774","116055","846483","843250","847355","31607","846483","NA","Sternburg task","103","98950","114","yes","1024"
"90.4347826087","90.4347826087","870.295652174","870.295652174","black","experiment","xpyriment","legacy","legacy","0","uniform","1","undefined","1","left","114","114","114","0","0","114","114","0","0","114","114","114","0","114","0","10/07/18 21:50:52","The main experiment item","yes","Sternburgtask.osexp","C:/Users/Owner/Documents","no","mono","no","18","no","white","no","yes","768","legacy","102","11","C:/Users/Owner/Documents/ctsubject-2.csv","xpyriment","8 5 1 3 9","Kafkaesque Koffka","3.2.5","4","y","0","left","left","right","left","NA","1134","29832","29268","1134","NA","2","legacy","5","1024","2","48000","-16","experiment","2","even","3","851354","847413","849058","1754","145324","849121","819523","1774","116055","853370","850150","854509","31607","853370","NA","Sternburg task","104","100084","115","yes","1024"
"90.5172413793","90.5172413793","871.172413793","871.172413793","black","experiment","xpyriment","legacy","legacy","0","uniform","1","undefined","1","right","115","115","115","0","0","115","115","0","0","115","115","115","0","115","0","10/07/18 21:50:52","The main experiment item","yes","Sternburgtask.osexp","C:/Users/Owner/Documents","no","mono","no","18","no","white","no","yes","768","legacy","103","11","C:/Users/Owner/Documents/ctsubject-2.csv","xpyriment","6 8","Kafkaesque Koffka","3.2.5","0","n","0","right","left","right","right","NA","972","29832","29268","972","NA","2","legacy","2","1024","2","48000","-16","experiment","2","even","9","858503","854568","856210","1754","145324","856273","819523","1774","116055","860506","857299","861481","31607","860506","NA","Sternburg task","105","101056","116","yes","1024"
"90.5982905983","90.5982905983","874.863247863","874.863247863","black","experiment","xpyriment","legacy","legacy","0","uniform","1","undefined","1","left","116","116","116","0","0","116","116","0","0","116","116","116","0","116","0","10/07/18 21:50:52","The main experiment item","yes","Sternburgtask.osexp","C:/Users/Owner/Documents","no","mono","no","18","no","white","no","yes","768","legacy","104","11","C:/Users/Owner/Documents/ctsubject-2.csv","xpyriment","9 3 8 2 1 4","Kafkaesque Koffka","3.2.5","3","y","0","left","left","right","left","NA","1303","29832","29268","1303","NA","2","legacy","6","1024","2","48000","-16","experiment","2","even","8","865483","861535","863183","1754","145324","863249","819523","1774","116055","867498","864279","868805","31607","867498","NA","Sternburg task","106","102359","117","yes","1024"
"90.6779661017","90.6779661017","874.56779661","874.56779661","black","experiment","xpyriment","legacy","legacy","0","uniform","1","undefined","1","left","117","117","117","0","0","117","117","0","0","117","117","117","0","117","0","10/07/18 21:50:52","The main experiment item","yes","Sternburgtask.osexp","C:/Users/Owner/Documents","no","mono","no","18","no","white","no","yes","768","legacy","105","11","C:/Users/Owner/Documents/ctsubject-2.csv","xpyriment","6 9 7 4 5 1","Kafkaesque Koffka","3.2.5","2","y","0","left","left","right","left","NA","840","29832","29268","840","NA","2","legacy","6","1024","2","48000","-16","experiment","2","even","9","872809","868857","870504","1754","145324","870578","819523","1774","116055","874812","871605","875656","31607","874812","NA","Sternburg task","107","103199","118","yes","1024"
"90.756302521","90.756302521","873.067226891","873.067226891","black","experiment","xpyriment","legacy","legacy","0","uniform","1","undefined","1","left","118","118","118","0","0","118","118","0","0","118","118","118","0","118","0","10/07/18 21:50:52","The main experiment item","yes","Sternburgtask.osexp","C:/Users/Owner/Documents","no","mono","no","18","no","white","no","yes","768","legacy","106","11","C:/Users/Owner/Documents/ctsubject-2.csv","xpyriment","4 6 2 5 1","Kafkaesque Koffka","3.2.5","5","y","0","left","left","right","left","NA","696","29832","29268","696","NA","2","legacy","5","1024","2","48000","-16","experiment","2","even","1","879715","875721","877408","1754","145324","877482","819523","1774","116055","881719","878511","882416","31607","881719","NA","Sternburg task","108","103895","119","yes","1024"
"90.8333333333","90.8333333333","873.458333333","873.458333333","black","experiment","xpyriment","legacy","legacy","0","uniform","1","undefined","1","right","119","119","119","0","0","119","119","0","0","119","119","119","0","119","0","10/07/18 21:50:52","The main experiment item","yes","Sternburgtask.osexp","C:/Users/Owner/Documents","no","mono","no","18","no","white","no","yes","768","legacy","107","11","C:/Users/Owner/Documents/ctsubject-2.csv","xpyriment","5 2","Kafkaesque Koffka","3.2.5","0","n","0","right","left","right","right","NA","920","29832","29268","920","NA","2","legacy","2","1024","2","48000","-16","experiment","2","even","7","886471","882493","884155","1754","145324","884216","819523","1774","116055","888474","885254","889398","31607","888474","NA","Sternburg task","109","104815","120","yes","1024"
"90.9090909091","90.9090909091","872.239669421","872.239669421","black","experiment","xpyriment","legacy","legacy","0","uniform","1","undefined","1","right","120","120","120","0","0","120","120","0","0","120","120","120","0","120","0","10/07/18 21:50:52","The main experiment item","yes","Sternburgtask.osexp","C:/Users/Owner/Documents","no","mono","no","18","no","white","no","yes","768","legacy","108","11","C:/Users/Owner/Documents/ctsubject-2.csv","xpyriment","6 9 5","Kafkaesque Koffka","3.2.5","0","n","0","right","left","right","right","NA","726","29832","29268","726","NA","2","legacy","3","1024","2","48000","-16","experiment","2","even","8","893389","889459","891096","1754","145324","891158","819523","1774","116055","895405","892185","896134","31607","895405","NA","Sternburg task","110","105541","121","yes","1024"
