"acc","accuracy","average_response_time","avg_rt","background","block","canvas_backend","clock_backend","color_backend","compensation","coordinates","correct","correct_instruction1","correct_keyboard_response","correct_response","count_ISI","count_correctFeedback","count_expSequence","count_experiment","count_experimentLoop","count_fixation","count_incorrectFeedback","count_instruction1","count_instruction2","count_keyboard_response","count_logger","count_memorySet","count_practiceLoop","count_probe","count_thankYou","datetime","description","disable_garbage_collection","experiment_file","experiment_path","font_bold","font_family","font_italic","font_size","font_underline","foreground","form_clicks","fullscreen","height","keyboard_backend","live_row","live_row_practiceLoop","logfile","mouse_backend","numberSet","opensesame_codename","opensesame_version","posInSet","present","repeat_cycle","response","response_instruction1","response_instruction2","response_keyboard_response","response_thankYou","response_time","response_time_instruction1","response_time_instruction2","response_time_keyboard_response","response_time_thankYou","round_decimals","sampler_backend","setSize","sound_buf_size","sound_channels","sound_freq","sound_sample_size","start","subject_nr","subject_parity","target","time_ISI","time_correctFeedback","time_expSequence","time_experiment","time_experimentLoop","time_fixation","time_incorrectFeedback","time_instruction1","time_instruction2","time_keyboard_response","time_logger","time_memorySet","time_practiceLoop","time_probe","time_thankYou","title","total_correct","total_response_time","total_responses","uniform_coordinates","width"
"0","0","2000","2000","black","practice","legacy","legacy","legacy","0","uniform","0","undefined","0","right","0","0","0","0","0","0","0","0","0","0","0","0","0","0","0","10/07/18 17:07:08","The main experiment item","yes","Sternbergtask.osexp","C:/Users/I. Edwards/Desktop","no","mono","no","18","no","white","no","yes","768","legacy","0","0","C:/Users/I. Edwards/Desktop/kg-subject-1.csv","legacy","4 1 5","Kafkaesque Koffka","3.2.5","0","n","0","None","left","NA","None","NA","2000","63295","NA","2000","NA","2","legacy","3","1024","2","48000","-16","experiment","1","odd","2","70222","NA","67993","2945","NA","67997","NA","2952","NA","72238","74238","69010","66250","72234","NA","Sternberg task","0","2000","1","yes","1024"
"50","50","1761","1761","black","practice","legacy","legacy","legacy","0","uniform","1","undefined","1","left","1","1","1","0","0","1","1","0","0","1","1","1","0","1","0","10/07/18 17:07:08","The main experiment item","yes","Sternbergtask.osexp","C:/Users/I. Edwards/Desktop","no","mono","no","18","no","white","no","yes","768","legacy","1","1","C:/Users/I. Edwards/Desktop/kg-subject-1.csv","legacy","1 7 9 8 5","Kafkaesque Koffka","3.2.5","4","y","0","left","left","NA","left","NA","1522","63295","NA","1522","NA","2","legacy","5","1024","2","48000","-16","experiment","1","odd","8","77919","NA","75690","2945","NA","75695","74430","2952","NA","79936","81459","76707","66250","79930","NA","Sternberg task","1","3522","2","yes","1024"
"33.3333333333","33.3333333333","1492","1492","black","practice","legacy","legacy","legacy","0","uniform","0","undefined","0","right","2","2","2","0","0","2","2","0","0","2","2","2","0","2","0","10/07/18 17:07:08","The main experiment item","yes","Sternbergtask.osexp","C:/Users/I. Edwards/Desktop","no","mono","no","18","no","white","no","yes","768","legacy","2","2","C:/Users/I. Edwards/Desktop/kg-subject-1.csv","legacy","2 1","Kafkaesque Koffka","3.2.5","0","n","0","left","left","NA","left","NA","954","63295","NA","954","NA","2","legacy","2","1024","2","48000","-16","experiment","1","odd","5","84944","81470","82714","2945","NA","82720","74430","2952","NA","86959","87914","83732","66250","86956","NA","Sternberg task","1","4476","3","yes","1024"
"25","25","1297.5","1297.5","black","practice","legacy","legacy","legacy","0","uniform","0","undefined","0","left","3","3","3","0","0","3","3","0","0","3","3","3","0","3","0","10/07/18 17:07:08","The main experiment item","yes","Sternbergtask.osexp","C:/Users/I. Edwards/Desktop","no","mono","no","18","no","white","no","yes","768","legacy","3","3","C:/Users/I. Edwards/Desktop/kg-subject-1.csv","legacy","1 5 2 9","Kafkaesque Koffka","3.2.5","2","y","0","right","left","NA","right","NA","714","63295","NA","714","NA","2","legacy","4","1024","2","48000","-16","experiment","1","odd","5","91427","81470","89198","2945","NA","89203","87925","2952","NA","93432","94148","90215","66250","93431","NA","Sternberg task","1","5190","4","yes","1024"
"40","40","1316.4","1316.4","black","practice","legacy","legacy","legacy","0","uniform","1","undefined","1","right","4","4","4","0","0","4","4","0","0","4","4","4","0","4","0","10/07/18 17:07:08","The main experiment item","yes","Sternbergtask.osexp","C:/Users/I. Edwards/Desktop","no","mono","no","18","no","white","no","yes","768","legacy","4","4","C:/Users/I. Edwards/Desktop/kg-subject-1.csv","legacy","3 1 9 4","Kafkaesque Koffka","3.2.5","0","n","0","right","left","NA","right","NA","1392","63295","NA","1392","NA","2","legacy","4","1024","2","48000","-16","experiment","1","odd","6","97645","81470","95418","2945","NA","95422","94159","2952","NA","99653","101046","96432","66250","99652","NA","Sternberg task","2","6582","5","yes","1024"
"50","50","1201.5","1201.5","black","practice","legacy","legacy","legacy","0","uniform","1","undefined","1","left","5","5","5","0","0","5","5","0","0","5","5","5","0","5","0","10/07/18 17:07:08","The main experiment item","yes","Sternbergtask.osexp","C:/Users/I. Edwards/Desktop","no","mono","no","18","no","white","no","yes","768","legacy","5","5","C:/Users/I. Edwards/Desktop/kg-subject-1.csv","legacy","4 8","Kafkaesque Koffka","3.2.5","1","y","0","left","left","NA","left","NA","627","63295","NA","627","NA","2","legacy","2","1024","2","48000","-16","experiment","1","odd","4","104534","101057","102304","2945","NA","102308","94159","2952","NA","106547","107175","103321","66250","106545","NA","Sternberg task","3","7209","6","yes","1024"
"42.8571428571","42.8571428571","1126.71428571","1126.71428571","black","practice","legacy","legacy","legacy","0","uniform","0","undefined","0","left","6","6","6","0","0","6","6","0","0","6","6","6","0","6","0","10/07/18 17:07:08","The main experiment item","yes","Sternbergtask.osexp","C:/Users/I. Edwards/Desktop","no","mono","no","18","no","white","no","yes","768","legacy","6","6","C:/Users/I. Edwards/Desktop/kg-subject-1.csv","legacy","6","Kafkaesque Koffka","3.2.5","1","y","0","right","left","NA","right","NA","678","63295","NA","678","NA","2","legacy","1","1024","2","48000","-16","experiment","1","odd","6","110669","107186","108440","2945","NA","108445","94159","2952","NA","112683","113363","109457","66250","112681","NA","Sternberg task","3","7887","7","yes","1024"
"50","50","1186","1186","black","practice","legacy","legacy","legacy","0","uniform","1","undefined","1","left","7","7","7","0","0","7","7","0","0","7","7","7","0","7","0","10/07/18 17:07:08","The main experiment item","yes","Sternbergtask.osexp","C:/Users/I. Edwards/Desktop","no","mono","no","18","no","white","no","yes","768","legacy","7","7","C:/Users/I. Edwards/Desktop/kg-subject-1.csv","legacy","4 3 1 7 9 8","Kafkaesque Koffka","3.2.5","1","y","0","left","left","NA","left","NA","1601","63295","NA","1601","NA","2","legacy","6","1024","2","48000","-16","experiment","1","odd","4","116851","107186","114631","2945","NA","114636","113373","2952","NA","118856","120458","115648","66250","118855","NA","Sternberg task","4","9488","8","yes","1024"
"55.5555555556","55.5555555556","1235.11111111","1235.11111111","black","practice","legacy","legacy","legacy","0","uniform","1","undefined","1","right","8","8","8","0","0","8","8","0","0","8","8","8","0","8","0","10/07/18 17:07:08","The main experiment item","yes","Sternbergtask.osexp","C:/Users/I. Edwards/Desktop","no","mono","no","18","no","white","no","yes","768","legacy","8","8","C:/Users/I. Edwards/Desktop/kg-subject-1.csv","legacy","5","Kafkaesque Koffka","3.2.5","0","n","0","right","left","NA","right","NA","1628","63295","NA","1628","NA","2","legacy","1","1024","2","48000","-16","experiment","1","odd","3","123935","120473","121716","2945","NA","121720","113373","2952","NA","125953","127583","122732","66250","125949","NA","Sternberg task","5","11116","9","yes","1024"
"60","60","1302.5","1302.5","black","practice","legacy","legacy","legacy","0","uniform","1","undefined","1","right","9","9","9","0","0","9","9","0","0","9","9","9","0","9","0","10/07/18 17:07:08","The main experiment item","yes","Sternbergtask.osexp","C:/Users/I. Edwards/Desktop","no","mono","no","18","no","white","no","yes","768","legacy","9","9","C:/Users/I. Edwards/Desktop/kg-subject-1.csv","legacy","5 7 8 4 1 2","Kafkaesque Koffka","3.2.5","0","n","0","right","left","NA","right","NA","1909","63295","NA","1909","NA","2","legacy","6","1024","2","48000","-16","experiment","1","odd","6","131087","127594","128875","2945","NA","128880","113373","2952","NA","133092","135002","129883","66250","133091","NA","Sternberg task","6","13025","10","yes","1024"
"63.6363636364","63.6363636364","1295.18181818","1295.18181818","black","practice","legacy","legacy","legacy","0","uniform","1","undefined","1","left","10","10","10","0","0","10","10","0","0","10","10","10","0","10","0","10/07/18 17:07:08","The main experiment item","yes","Sternbergtask.osexp","C:/Users/I. Edwards/Desktop","no","mono","no","18","no","white","no","yes","768","legacy","10","10","C:/Users/I. Edwards/Desktop/kg-subject-1.csv","legacy","2 9 4","Kafkaesque Koffka","3.2.5","3","y","0","left","left","NA","left","NA","1222","63295","NA","1222","NA","2","legacy","3","1024","2","48000","-16","experiment","1","odd","4","138476","135014","136265","2945","NA","136269","113373","2952","NA","140482","141706","137272","66250","140482","NA","Sternberg task","7","14247","11","yes","1024"
"66.6666666667","66.6666666667","1343.75","1343.75","black","practice","legacy","legacy","legacy","0","uniform","1","undefined","1","right","11","11","11","0","0","11","11","0","0","11","11","11","0","11","0","10/07/18 17:07:08","The main experiment item","yes","Sternbergtask.osexp","C:/Users/I. Edwards/Desktop","no","mono","no","18","no","white","no","yes","768","legacy","11","11","C:/Users/I. Edwards/Desktop/kg-subject-1.csv","legacy","9 6 7 4 5","Kafkaesque Koffka","3.2.5","0","n","0","right","left","NA","right","NA","1878","63295","NA","1878","NA","2","legacy","5","1024","2","48000","-16","experiment","1","odd","3","145176","141717","142960","2945","NA","142965","113373","2952","NA","147180","149059","143969","66250","147179","NA","Sternberg task","8","16125","12","yes","1024"
"61.5384615385","61.5384615385","1303.15384615","1303.15384615","black","experiment","legacy","legacy","legacy","0","uniform","0","undefined","0","left","12","12","12","0","0","12","12","0","0","12","12","12","0","12","0","10/07/18 17:07:08","The main experiment item","yes","Sternbergtask.osexp","C:/Users/I. Edwards/Desktop","no","mono","no","18","no","white","no","yes","768","legacy","0","11","C:/Users/I. Edwards/Desktop/kg-subject-1.csv","legacy","7","Kafkaesque Koffka","3.2.5","1","y","0","right","left","right","right","NA","816","63295","18392","816","NA","2","legacy","1","1024","2","48000","-16","experiment","1","odd","7","171105","149070","168877","2945","168547","168881","113373","2952","150154","173118","173935","169893","66250","173117","NA","Sternberg task","8","16941","13","yes","1024"
"64.2857142857","64.2857142857","1306.35714286","1306.35714286","black","experiment","legacy","legacy","legacy","0","uniform","1","undefined","1","right","13","13","13","0","0","13","13","0","0","13","13","13","0","13","0","10/07/18 17:07:08","The main experiment item","yes","Sternbergtask.osexp","C:/Users/I. Edwards/Desktop","no","mono","no","18","no","white","no","yes","768","legacy","1","11","C:/Users/I. Edwards/Desktop/kg-subject-1.csv","legacy","6 9 4 5 2","Kafkaesque Koffka","3.2.5","0","n","0","right","left","right","right","NA","1348","63295","18392","1348","NA","2","legacy","5","1024","2","48000","-16","experiment","1","odd","1","177448","149070","175202","2945","168547","175207","173945","2952","150154","179480","180830","176219","66250","179479","NA","Sternberg task","9","18289","14","yes","1024"
"66.6666666667","66.6666666667","1313.06666667","1313.06666667","black","experiment","legacy","legacy","legacy","0","uniform","1","undefined","1","right","14","14","14","0","0","14","14","0","0","14","14","14","0","14","0","10/07/18 17:07:08","The main experiment item","yes","Sternbergtask.osexp","C:/Users/I. Edwards/Desktop","no","mono","no","18","no","white","no","yes","768","legacy","2","11","C:/Users/I. Edwards/Desktop/kg-subject-1.csv","legacy","1 7 8 3 9","Kafkaesque Koffka","3.2.5","0","n","0","right","left","right","right","NA","1407","63295","18392","1407","NA","2","legacy","5","1024","2","48000","-16","experiment","1","odd","2","184328","180850","182100","2945","168547","182104","173945","2952","150154","186340","187748","183116","66250","186339","NA","Sternberg task","10","19696","15","yes","1024"
"62.5","62.5","1334.3125","1334.3125","black","experiment","legacy","legacy","legacy","0","uniform","0","undefined","0","left","15","15","15","0","0","15","15","0","0","15","15","15","0","15","0","10/07/18 17:07:08","The main experiment item","yes","Sternbergtask.osexp","C:/Users/I. Edwards/Desktop","no","mono","no","18","no","white","no","yes","768","legacy","3","11","C:/Users/I. Edwards/Desktop/kg-subject-1.csv","legacy","8 5 4 7 3 1","Kafkaesque Koffka","3.2.5","2","y","0","right","left","right","right","NA","1653","63295","18392","1653","NA","2","legacy","6","1024","2","48000","-16","experiment","1","odd","5","191239","187759","189020","2945","168547","189024","173945","2952","150154","193251","194906","190035","66250","193251","NA","Sternberg task","10","21349","16","yes","1024"
"64.7058823529","64.7058823529","1314.17647059","1314.17647059","black","experiment","legacy","legacy","legacy","0","uniform","1","undefined","1","right","16","16","16","0","0","16","16","0","0","16","16","16","0","16","0","10/07/18 17:07:08","The main experiment item","yes","Sternbergtask.osexp","C:/Users/I. Edwards/Desktop","no","mono","no","18","no","white","no","yes","768","legacy","4","11","C:/Users/I. Edwards/Desktop/kg-subject-1.csv","legacy","6 8 4","Kafkaesque Koffka","3.2.5","0","n","0","right","left","right","right","NA","992","63295","18392","992","NA","2","legacy","3","1024","2","48000","-16","experiment","1","odd","1","198402","187759","196173","2945","168547","196178","194916","2952","150154","200414","201407","197190","66250","200413","NA","Sternberg task","11","22341","17","yes","1024"
"66.6666666667","66.6666666667","1295.83333333","1295.83333333","black","experiment","legacy","legacy","legacy","0","uniform","1","undefined","1","right","17","17","17","0","0","17","17","0","0","17","17","17","0","17","0","10/07/18 17:07:08","The main experiment item","yes","Sternbergtask.osexp","C:/Users/I. Edwards/Desktop","no","mono","no","18","no","white","no","yes","768","legacy","5","11","C:/Users/I. Edwards/Desktop/kg-subject-1.csv","legacy","7 8 6 1","Kafkaesque Koffka","3.2.5","0","n","0","right","left","right","right","NA","984","63295","18392","984","NA","2","legacy","4","1024","2","48000","-16","experiment","1","odd","3","204899","201418","202671","2945","168547","202675","194916","2952","150154","206911","207896","203686","66250","206910","NA","Sternberg task","12","23325","18","yes","1024"
"68.4210526316","68.4210526316","1291.68421053","1291.68421053","black","experiment","legacy","legacy","legacy","0","uniform","1","undefined","1","right","18","18","18","0","0","18","18","0","0","18","18","18","0","18","0","10/07/18 17:07:08","The main experiment item","yes","Sternbergtask.osexp","C:/Users/I. Edwards/Desktop","no","mono","no","18","no","white","no","yes","768","legacy","6","11","C:/Users/I. Edwards/Desktop/kg-subject-1.csv","legacy","8 2 1 4 5 9","Kafkaesque Koffka","3.2.5","0","n","0","right","left","right","right","NA","1217","63295","18392","1217","NA","2","legacy","6","1024","2","48000","-16","experiment","1","odd","7","211389","207907","209161","2945","168547","209165","194916","2952","150154","213393","214611","210177","66250","213392","NA","Sternberg task","13","24542","19","yes","1024"
"70","70","1283.8","1283.8","black","experiment","legacy","legacy","legacy","0","uniform","1","undefined","1","right","19","19","19","0","0","19","19","0","0","19","19","19","0","19","0","10/07/18 17:07:08","The main experiment item","yes","Sternbergtask.osexp","C:/Users/I. Edwards/Desktop","no","mono","no","18","no","white","no","yes","768","legacy","7","11","C:/Users/I. Edwards/Desktop/kg-subject-1.csv","legacy","1 4 3 6 5","Kafkaesque Koffka","3.2.5","0","n","0","right","left","right","right","NA","1134","63295","18392","1134","NA","2","legacy","5","1024","2","48000","-16","experiment","1","odd","8","218101","214622","215872","2945","168547","215876","194916","2952","150154","220113","221249","216889","66250","220113","NA","Sternberg task","14","25676","20","yes","1024"
"71.4285714286","71.4285714286","1286.14285714","1286.14285714","black","experiment","legacy","legacy","legacy","0","uniform","1","undefined","1","right","20","20","20","0","0","20","20","0","0","20","20","20","0","20","0","10/07/18 17:07:08","The main experiment item","yes","Sternbergtask.osexp","C:/Users/I. Edwards/Desktop","no","mono","no","18","no","white","no","yes","768","legacy","8","11","C:/Users/I. Edwards/Desktop/kg-subject-1.csv","legacy","1 6 4","Kafkaesque Koffka","3.2.5","0","n","0","right","left","right","right","NA","1333","63295","18392","1333","NA","2","legacy","3","1024","2","48000","-16","experiment","1","odd","7","224740","221259","222512","2945","168547","222516","194916","2952","150154","226753","228088","223529","66250","226752","NA","Sternberg task","15","27009","21","yes","1024"
"72.7272727273","72.7272727273","1274.5","1274.5","black","experiment","legacy","legacy","legacy","0","uniform","1","undefined","1","right","21","21","21","0","0","21","21","0","0","21","21","21","0","21","0","10/07/18 17:07:08","The main experiment item","yes","Sternbergtask.osexp","C:/Users/I. Edwards/Desktop","no","mono","no","18","no","white","no","yes","768","legacy","9","11","C:/Users/I. Edwards/Desktop/kg-subject-1.csv","legacy","1 3 2 6 9","Kafkaesque Koffka","3.2.5","0","n","0","right","left","right","right","NA","1030","63295","18392","1030","NA","2","legacy","5","1024","2","48000","-16","experiment","1","odd","5","231582","228098","229353","2945","168547","229358","194916","2952","150154","233596","234628","230370","66250","233595","NA","Sternberg task","16","28039","22","yes","1024"
"73.9130434783","73.9130434783","1274.7826087","1274.7826087","black","experiment","legacy","legacy","legacy","0","uniform","1","undefined","1","right","22","22","22","0","0","22","22","0","0","22","22","22","0","22","0","10/07/18 17:07:08","The main experiment item","yes","Sternbergtask.osexp","C:/Users/I. Edwards/Desktop","no","mono","no","18","no","white","no","yes","768","legacy","10","11","C:/Users/I. Edwards/Desktop/kg-subject-1.csv","legacy","6 3 1 7 9 8","Kafkaesque Koffka","3.2.5","0","n","0","right","left","right","right","NA","1281","63295","18392","1281","NA","2","legacy","6","1024","2","48000","-16","experiment","1","odd","4","238132","234638","235904","2945","168547","235908","194916","2952","150154","240145","241427","236920","66250","240145","NA","Sternberg task","17","29320","23","yes","1024"
"75","75","1268.20833333","1268.20833333","black","experiment","legacy","legacy","legacy","0","uniform","1","undefined","1","right","23","23","23","0","0","23","23","0","0","23","23","23","0","23","0","10/07/18 17:07:08","The main experiment item","yes","Sternbergtask.osexp","C:/Users/I. Edwards/Desktop","no","mono","no","18","no","white","no","yes","768","legacy","11","11","C:/Users/I. Edwards/Desktop/kg-subject-1.csv","legacy","6 2 9 3 8 4","Kafkaesque Koffka","3.2.5","0","n","0","right","left","right","right","NA","1117","63295","18392","1117","NA","2","legacy","6","1024","2","48000","-16","experiment","1","odd","1","244918","241438","242689","2945","168547","242694","194916","2952","150154","246931","248050","243705","66250","246931","NA","Sternberg task","18","30437","24","yes","1024"
"76","76","1278.64","1278.64","black","experiment","legacy","legacy","legacy","0","uniform","1","undefined","1","left","24","24","24","0","0","24","24","0","0","24","24","24","0","24","0","10/07/18 17:07:08","The main experiment item","yes","Sternbergtask.osexp","C:/Users/I. Edwards/Desktop","no","mono","no","18","no","white","no","yes","768","legacy","12","11","C:/Users/I. Edwards/Desktop/kg-subject-1.csv","legacy","8 7 3","Kafkaesque Koffka","3.2.5","1","y","0","left","left","right","left","NA","1529","63295","18392","1529","NA","2","legacy","3","1024","2","48000","-16","experiment","1","odd","8","251537","248060","249315","2945","168547","249319","194916","2952","150154","253541","255072","250332","66250","253540","NA","Sternberg task","19","31966","25","yes","1024"
"73.0769230769","73.0769230769","1306.38461538","1306.38461538","black","experiment","legacy","legacy","legacy","0","uniform","0","undefined","0","right","25","25","25","0","0","25","25","0","0","25","25","25","0","25","0","10/07/18 17:07:08","The main experiment item","yes","Sternbergtask.osexp","C:/Users/I. Edwards/Desktop","no","mono","no","18","no","white","no","yes","768","legacy","13","11","C:/Users/I. Edwards/Desktop/kg-subject-1.csv","legacy","8 5 4 2 9 6","Kafkaesque Koffka","3.2.5","0","n","0","None","left","right","None","NA","2000","63295","18392","2000","NA","2","legacy","6","1024","2","48000","-16","experiment","1","odd","3","258569","255082","256339","2945","168547","256344","194916","2952","150154","260583","262584","257356","66250","260581","NA","Sternberg task","19","33966","26","yes","1024"
"74.0740740741","74.0740740741","1292.59259259","1292.59259259","black","experiment","legacy","legacy","legacy","0","uniform","1","undefined","1","left","26","26","26","0","0","26","26","0","0","26","26","26","0","26","0","10/07/18 17:07:08","The main experiment item","yes","Sternbergtask.osexp","C:/Users/I. Edwards/Desktop","no","mono","no","18","no","white","no","yes","768","legacy","14","11","C:/Users/I. Edwards/Desktop/kg-subject-1.csv","legacy","6 9 3 1","Kafkaesque Koffka","3.2.5","4","y","0","left","left","right","left","NA","934","63295","18392","934","NA","2","legacy","4","1024","2","48000","-16","experiment","1","odd","1","266075","255082","263847","2945","168547","263850","262595","2952","150154","268088","269024","264863","66250","268088","NA","Sternberg task","20","34900","27","yes","1024"
"75","75","1287.53571429","1287.53571429","black","experiment","legacy","legacy","legacy","0","uniform","1","undefined","1","right","27","27","27","0","0","27","27","0","0","27","27","27","0","27","0","10/07/18 17:07:08","The main experiment item","yes","Sternbergtask.osexp","C:/Users/I. Edwards/Desktop","no","mono","no","18","no","white","no","yes","768","legacy","15","11","C:/Users/I. Edwards/Desktop/kg-subject-1.csv","legacy","3 4 9 6 7 8","Kafkaesque Koffka","3.2.5","0","n","0","right","left","right","right","NA","1151","63295","18392","1151","NA","2","legacy","6","1024","2","48000","-16","experiment","1","odd","2","272528","269034","270300","2945","168547","270304","262595","2952","150154","274540","275693","271316","66250","274540","NA","Sternberg task","21","36051","28","yes","1024"
"75.8620689655","75.8620689655","1265.27586207","1265.27586207","black","experiment","legacy","legacy","legacy","0","uniform","1","undefined","1","left","28","28","28","0","0","28","28","0","0","28","28","28","0","28","0","10/07/18 17:07:08","The main experiment item","yes","Sternbergtask.osexp","C:/Users/I. Edwards/Desktop","no","mono","no","18","no","white","no","yes","768","legacy","16","11","C:/Users/I. Edwards/Desktop/kg-subject-1.csv","legacy","3 2 1 4 7","Kafkaesque Koffka","3.2.5","2","y","0","left","left","right","left","NA","642","63295","18392","642","NA","2","legacy","5","1024","2","48000","-16","experiment","1","odd","2","279189","275704","276960","2945","168547","276965","262595","2952","150154","281201","281845","277977","66250","281201","NA","Sternberg task","22","36693","29","yes","1024"
"76.6666666667","76.6666666667","1266.7","1266.7","black","experiment","legacy","legacy","legacy","0","uniform","1","undefined","1","right","29","29","29","0","0","29","29","0","0","29","29","29","0","29","0","10/07/18 17:07:08","The main experiment item","yes","Sternbergtask.osexp","C:/Users/I. Edwards/Desktop","no","mono","no","18","no","white","no","yes","768","legacy","17","11","C:/Users/I. Edwards/Desktop/kg-subject-1.csv","legacy","6 9 4 5 3 2","Kafkaesque Koffka","3.2.5","0","n","0","right","left","right","right","NA","1308","63295","18392","1308","NA","2","legacy","6","1024","2","48000","-16","experiment","1","odd","8","285339","281855","283111","2945","168547","283115","262595","2952","150154","287351","288661","284126","66250","287351","NA","Sternberg task","23","38001","30","yes","1024"
"74.1935483871","74.1935483871","1270.80645161","1270.80645161","black","experiment","legacy","legacy","legacy","0","uniform","0","undefined","0","right","30","30","30","0","0","30","30","0","0","30","30","30","0","30","0","10/07/18 17:07:08","The main experiment item","yes","Sternbergtask.osexp","C:/Users/I. Edwards/Desktop","no","mono","no","18","no","white","no","yes","768","legacy","18","11","C:/Users/I. Edwards/Desktop/kg-subject-1.csv","legacy","7 4 2 8 1 9","Kafkaesque Koffka","3.2.5","0","n","0","left","left","right","left","NA","1394","63295","18392","1394","NA","2","legacy","6","1024","2","48000","-16","experiment","1","odd","5","292151","288672","289923","2945","168547","289927","262595","2952","150154","294155","295551","290939","66250","294155","NA","Sternberg task","23","39395","31","yes","1024"
"75","75","1291","1291","black","experiment","legacy","legacy","legacy","0","uniform","1","undefined","1","right","31","31","31","0","0","31","31","0","0","31","31","31","0","31","0","10/07/18 17:07:08","The main experiment item","yes","Sternbergtask.osexp","C:/Users/I. Edwards/Desktop","no","mono","no","18","no","white","no","yes","768","legacy","19","11","C:/Users/I. Edwards/Desktop/kg-subject-1.csv","legacy","2 5 1 4","Kafkaesque Koffka","3.2.5","0","n","0","right","left","right","right","NA","1917","63295","18392","1917","NA","2","legacy","4","1024","2","48000","-16","experiment","1","odd","6","299038","288672","296809","2945","168547","296813","295562","2952","150154","301050","302969","297825","66250","301050","NA","Sternberg task","24","41312","32","yes","1024"
"75.7575757576","75.7575757576","1273.09090909","1273.09090909","black","experiment","legacy","legacy","legacy","0","uniform","1","undefined","1","left","32","32","32","0","0","32","32","0","0","32","32","32","0","32","0","10/07/18 17:07:08","The main experiment item","yes","Sternbergtask.osexp","C:/Users/I. Edwards/Desktop","no","mono","no","18","no","white","no","yes","768","legacy","20","11","C:/Users/I. Edwards/Desktop/kg-subject-1.csv","legacy","7 1 3","Kafkaesque Koffka","3.2.5","2","y","0","left","left","right","left","NA","700","63295","18392","700","NA","2","legacy","3","1024","2","48000","-16","experiment","1","odd","1","306466","302979","304238","2945","168547","304242","295562","2952","150154","308479","309181","305253","66250","308479","NA","Sternberg task","25","42012","33","yes","1024"
"76.4705882353","76.4705882353","1282.52941176","1282.52941176","black","experiment","legacy","legacy","legacy","0","uniform","1","undefined","1","left","33","33","33","0","0","33","33","0","0","33","33","33","0","33","0","10/07/18 17:07:08","The main experiment item","yes","Sternbergtask.osexp","C:/Users/I. Edwards/Desktop","no","mono","no","18","no","white","no","yes","768","legacy","21","11","C:/Users/I. Edwards/Desktop/kg-subject-1.csv","legacy","3 9 6 2","Kafkaesque Koffka","3.2.5","4","y","0","left","left","right","left","NA","1594","63295","18392","1594","NA","2","legacy","4","1024","2","48000","-16","experiment","1","odd","2","312673","309195","310444","2945","168547","310449","295562","2952","150154","314687","316283","311460","66250","314685","NA","Sternberg task","26","43606","34","yes","1024"
"77.1428571429","77.1428571429","1269.74285714","1269.74285714","black","experiment","legacy","legacy","legacy","0","uniform","1","undefined","1","left","34","34","34","0","0","34","34","0","0","34","34","34","0","34","0","10/07/18 17:07:08","The main experiment item","yes","Sternbergtask.osexp","C:/Users/I. Edwards/Desktop","no","mono","no","18","no","white","no","yes","768","legacy","22","11","C:/Users/I. Edwards/Desktop/kg-subject-1.csv","legacy","9 5 8 1","Kafkaesque Koffka","3.2.5","2","y","0","left","left","right","left","NA","835","63295","18392","835","NA","2","legacy","4","1024","2","48000","-16","experiment","1","odd","5","319779","316293","317550","2945","168547","317555","295562","2952","150154","321793","322630","318567","66250","321791","NA","Sternberg task","27","44441","35","yes","1024"
"77.7777777778","77.7777777778","1266.38888889","1266.38888889","black","experiment","legacy","legacy","legacy","0","uniform","1","undefined","1","right","35","35","35","0","0","35","35","0","0","35","35","35","0","35","0","10/07/18 17:07:08","The main experiment item","yes","Sternbergtask.osexp","C:/Users/I. Edwards/Desktop","no","mono","no","18","no","white","no","yes","768","legacy","23","11","C:/Users/I. Edwards/Desktop/kg-subject-1.csv","legacy","9 8 2 7 4","Kafkaesque Koffka","3.2.5","0","n","0","right","left","right","right","NA","1149","63295","18392","1149","NA","2","legacy","5","1024","2","48000","-16","experiment","1","odd","5","326128","322642","323899","2945","168547","323904","295562","2952","150154","328141","329292","324915","66250","328140","NA","Sternberg task","28","45590","36","yes","1024"
"78.3783783784","78.3783783784","1253.2972973","1253.2972973","black","experiment","legacy","legacy","legacy","0","uniform","1","undefined","1","left","36","36","36","0","0","36","36","0","0","36","36","36","0","36","0","10/07/18 17:07:08","The main experiment item","yes","Sternbergtask.osexp","C:/Users/I. Edwards/Desktop","no","mono","no","18","no","white","no","yes","768","legacy","24","11","C:/Users/I. Edwards/Desktop/kg-subject-1.csv","legacy","3 5 4 7","Kafkaesque Koffka","3.2.5","1","y","0","left","left","right","left","NA","782","63295","18392","782","NA","2","legacy","4","1024","2","48000","-16","experiment","1","odd","3","332795","329303","330565","2945","168547","330569","295562","2952","150154","334808","335592","331582","66250","334806","NA","Sternberg task","29","46372","37","yes","1024"
"78.9473684211","78.9473684211","1239.68421053","1239.68421053","black","experiment","legacy","legacy","legacy","0","uniform","1","undefined","1","left","37","37","37","0","0","37","37","0","0","37","37","37","0","37","0","10/07/18 17:07:08","The main experiment item","yes","Sternbergtask.osexp","C:/Users/I. Edwards/Desktop","no","mono","no","18","no","white","no","yes","768","legacy","25","11","C:/Users/I. Edwards/Desktop/kg-subject-1.csv","legacy","7 6","Kafkaesque Koffka","3.2.5","2","y","0","left","left","right","left","NA","736","63295","18392","736","NA","2","legacy","2","1024","2","48000","-16","experiment","1","odd","6","339074","335603","336845","2945","168547","336849","295562","2952","150154","341088","341826","337862","66250","341086","NA","Sternberg task","30","47108","38","yes","1024"
"79.4871794872","79.4871794872","1236.84615385","1236.84615385","black","experiment","legacy","legacy","legacy","0","uniform","1","undefined","1","left","38","38","38","0","0","38","38","0","0","38","38","38","0","38","0","10/07/18 17:07:08","The main experiment item","yes","Sternbergtask.osexp","C:/Users/I. Edwards/Desktop","no","mono","no","18","no","white","no","yes","768","legacy","26","11","C:/Users/I. Edwards/Desktop/kg-subject-1.csv","legacy","7 8 6 3 1","Kafkaesque Koffka","3.2.5","5","y","0","left","left","right","left","NA","1129","63295","18392","1129","NA","2","legacy","5","1024","2","48000","-16","experiment","1","odd","1","345319","341837","343089","2945","168547","343094","295562","2952","150154","347332","348463","344106","66250","347331","NA","Sternberg task","31","48237","39","yes","1024"
"80","80","1222.35","1222.35","black","experiment","legacy","legacy","legacy","0","uniform","1","undefined","1","left","39","39","39","0","0","39","39","0","0","39","39","39","0","39","0","10/07/18 17:07:08","The main experiment item","yes","Sternbergtask.osexp","C:/Users/I. Edwards/Desktop","no","mono","no","18","no","white","no","yes","768","legacy","27","11","C:/Users/I. Edwards/Desktop/kg-subject-1.csv","legacy","9 3 1 2 5","Kafkaesque Koffka","3.2.5","4","y","0","left","left","right","left","NA","657","63295","18392","657","NA","2","legacy","5","1024","2","48000","-16","experiment","1","odd","2","351961","348474","349737","2945","168547","349741","295562","2952","150154","353973","354632","350749","66250","353973","NA","Sternberg task","32","48894","40","yes","1024"
"80.487804878","80.487804878","1216.82926829","1216.82926829","black","experiment","legacy","legacy","legacy","0","uniform","1","undefined","1","left","40","40","40","0","0","40","40","0","0","40","40","40","0","40","0","10/07/18 17:07:08","The main experiment item","yes","Sternbergtask.osexp","C:/Users/I. Edwards/Desktop","no","mono","no","18","no","white","no","yes","768","legacy","28","11","C:/Users/I. Edwards/Desktop/kg-subject-1.csv","legacy","6 7 9 3 1 2","Kafkaesque Koffka","3.2.5","1","y","0","left","left","right","left","NA","996","63295","18392","996","NA","2","legacy","6","1024","2","48000","-16","experiment","1","odd","6","358118","354643","355890","2945","168547","355894","295562","2952","150154","360130","361128","356906","66250","360129","NA","Sternberg task","33","49890","41","yes","1024"
"80.9523809524","80.9523809524","1208.45238095","1208.45238095","black","experiment","legacy","legacy","legacy","0","uniform","1","undefined","1","left","41","41","41","0","0","41","41","0","0","41","41","41","0","41","0","10/07/18 17:07:08","The main experiment item","yes","Sternbergtask.osexp","C:/Users/I. Edwards/Desktop","no","mono","no","18","no","white","no","yes","768","legacy","29","11","C:/Users/I. Edwards/Desktop/kg-subject-1.csv","legacy","1 4 9 3 2 5","Kafkaesque Koffka","3.2.5","3","y","0","left","left","right","left","NA","865","63295","18392","865","NA","2","legacy","6","1024","2","48000","-16","experiment","1","odd","9","364620","361138","362392","2945","168547","362397","295562","2952","150154","366633","367501","363407","66250","366632","NA","Sternberg task","34","50755","42","yes","1024"
"81.3953488372","81.3953488372","1196.02325581","1196.02325581","black","experiment","legacy","legacy","legacy","0","uniform","1","undefined","1","right","42","42","42","0","0","42","42","0","0","42","42","42","0","42","0","10/07/18 17:07:08","The main experiment item","yes","Sternbergtask.osexp","C:/Users/I. Edwards/Desktop","no","mono","no","18","no","white","no","yes","768","legacy","30","11","C:/Users/I. Edwards/Desktop/kg-subject-1.csv","legacy","9","Kafkaesque Koffka","3.2.5","0","n","0","right","left","right","right","NA","674","63295","18392","674","NA","2","legacy","1","1024","2","48000","-16","experiment","1","odd","6","370992","367512","368763","2945","168547","368768","295562","2952","150154","373005","373681","369780","66250","373003","NA","Sternberg task","35","51429","43","yes","1024"
"81.8181818182","81.8181818182","1185.25","1185.25","black","experiment","legacy","legacy","legacy","0","uniform","1","undefined","1","right","43","43","43","0","0","43","43","0","0","43","43","43","0","43","0","10/07/18 17:07:08","The main experiment item","yes","Sternbergtask.osexp","C:/Users/I. Edwards/Desktop","no","mono","no","18","no","white","no","yes","768","legacy","31","11","C:/Users/I. Edwards/Desktop/kg-subject-1.csv","legacy","8 9","Kafkaesque Koffka","3.2.5","0","n","0","right","left","right","right","NA","722","63295","18392","722","NA","2","legacy","2","1024","2","48000","-16","experiment","1","odd","5","377174","373692","374945","2945","168547","374950","295562","2952","150154","379186","379910","375961","66250","379185","NA","Sternberg task","36","52151","44","yes","1024"
"82.2222222222","82.2222222222","1176.46666667","1176.46666667","black","experiment","legacy","legacy","legacy","0","uniform","1","undefined","1","left","44","44","44","0","0","44","44","0","0","44","44","44","0","44","0","10/07/18 17:07:08","The main experiment item","yes","Sternbergtask.osexp","C:/Users/I. Edwards/Desktop","no","mono","no","18","no","white","no","yes","768","legacy","32","11","C:/Users/I. Edwards/Desktop/kg-subject-1.csv","legacy","2 6 1 7 4","Kafkaesque Koffka","3.2.5","2","y","0","left","left","right","left","NA","790","63295","18392","790","NA","2","legacy","5","1024","2","48000","-16","experiment","1","odd","6","383398","379920","381170","2945","168547","381174","295562","2952","150154","385410","386202","382186","66250","385409","NA","Sternberg task","37","52941","45","yes","1024"
"82.6086956522","82.6086956522","1173.65217391","1173.65217391","black","experiment","legacy","legacy","legacy","0","uniform","1","undefined","1","right","45","45","45","0","0","45","45","0","0","45","45","45","0","45","0","10/07/18 17:07:08","The main experiment item","yes","Sternbergtask.osexp","C:/Users/I. Edwards/Desktop","no","mono","no","18","no","white","no","yes","768","legacy","33","11","C:/Users/I. Edwards/Desktop/kg-subject-1.csv","legacy","1 7 5 2","Kafkaesque Koffka","3.2.5","0","n","0","right","left","right","right","NA","1047","63295","18392","1047","NA","2","legacy","4","1024","2","48000","-16","experiment","1","odd","3","389681","386213","387453","2945","168547","387457","295562","2952","150154","391694","392743","388469","66250","391692","NA","Sternberg task","38","53988","46","yes","1024"
"82.9787234043","82.9787234043","1164.42553191","1164.42553191","black","experiment","legacy","legacy","legacy","0","uniform","1","undefined","1","right","46","46","46","0","0","46","46","0","0","46","46","46","0","46","0","10/07/18 17:07:08","The main experiment item","yes","Sternbergtask.osexp","C:/Users/I. Edwards/Desktop","no","mono","no","18","no","white","no","yes","768","legacy","34","11","C:/Users/I. Edwards/Desktop/kg-subject-1.csv","legacy","5","Kafkaesque Koffka","3.2.5","0","n","0","right","left","right","right","NA","740","63295","18392","740","NA","2","legacy","1","1024","2","48000","-16","experiment","1","odd","8","396230","392754","394002","2945","168547","394006","295562","2952","150154","398242","398985","395017","66250","398242","NA","Sternberg task","39","54728","47","yes","1024"
"83.3333333333","83.3333333333","1157.20833333","1157.20833333","black","experiment","legacy","legacy","legacy","0","uniform","1","undefined","1","left","47","47","47","0","0","47","47","0","0","47","47","47","0","47","0","10/07/18 17:07:08","The main experiment item","yes","Sternbergtask.osexp","C:/Users/I. Edwards/Desktop","no","mono","no","18","no","white","no","yes","768","legacy","35","11","C:/Users/I. Edwards/Desktop/kg-subject-1.csv","legacy","9 6 2 4 1","Kafkaesque Koffka","3.2.5","4","y","0","left","left","right","left","NA","818","63295","18392","818","NA","2","legacy","5","1024","2","48000","-16","experiment","1","odd","4","402477","398995","400248","2945","168547","400252","295562","2952","150154","404490","405311","401265","66250","404490","NA","Sternberg task","40","55546","48","yes","1024"
"83.6734693878","83.6734693878","1166.04081633","1166.04081633","black","experiment","legacy","legacy","legacy","0","uniform","1","undefined","1","right","48","48","48","0","0","48","48","0","0","48","48","48","0","48","0","10/07/18 17:07:08","The main experiment item","yes","Sternbergtask.osexp","C:/Users/I. Edwards/Desktop","no","mono","no","18","no","white","no","yes","768","legacy","36","11","C:/Users/I. Edwards/Desktop/kg-subject-1.csv","legacy","5 3 8 7 2 4","Kafkaesque Koffka","3.2.5","0","n","0","right","left","right","right","NA","1590","63295","18392","1590","NA","2","legacy","6","1024","2","48000","-16","experiment","1","odd","9","408810","405321","406581","2945","168547","406586","295562","2952","150154","410823","412416","407598","66250","410822","NA","Sternberg task","41","57136","49","yes","1024"
"84","84","1155.76","1155.76","black","experiment","legacy","legacy","legacy","0","uniform","1","undefined","1","left","49","49","49","0","0","49","49","0","0","49","49","49","0","49","0","10/07/18 17:07:08","The main experiment item","yes","Sternbergtask.osexp","C:/Users/I. Edwards/Desktop","no","mono","no","18","no","white","no","yes","768","legacy","37","11","C:/Users/I. Edwards/Desktop/kg-subject-1.csv","legacy","4 6 5 8","Kafkaesque Koffka","3.2.5","1","y","0","left","left","right","left","NA","652","63295","18392","652","NA","2","legacy","4","1024","2","48000","-16","experiment","1","odd","4","415912","412427","413684","2945","168547","413688","295562","2952","150154","417924","418578","414700","66250","417924","NA","Sternberg task","42","57788","50","yes","1024"
"84.3137254902","84.3137254902","1156.74509804","1156.74509804","black","experiment","legacy","legacy","legacy","0","uniform","1","undefined","1","right","50","50","50","0","0","50","50","0","0","50","50","50","0","50","0","10/07/18 17:07:08","The main experiment item","yes","Sternbergtask.osexp","C:/Users/I. Edwards/Desktop","no","mono","no","18","no","white","no","yes","768","legacy","38","11","C:/Users/I. Edwards/Desktop/kg-subject-1.csv","legacy","8 4 3 9","Kafkaesque Koffka","3.2.5","0","n","0","right","left","right","right","NA","1206","63295","18392","1206","NA","2","legacy","4","1024","2","48000","-16","experiment","1","odd","5","422071","418589","419842","2945","168547","419846","295562","2952","150154","424083","425291","420859","66250","424083","NA","Sternberg task","43","58994","51","yes","1024"
"84.6153846154","84.6153846154","1150.61538462","1150.61538462","black","experiment","legacy","legacy","legacy","0","uniform","1","undefined","1","right","51","51","51","0","0","51","51","0","0","51","51","51","0","51","0","10/07/18 17:07:08","The main experiment item","yes","Sternbergtask.osexp","C:/Users/I. Edwards/Desktop","no","mono","no","18","no","white","no","yes","768","legacy","39","11","C:/Users/I. Edwards/Desktop/kg-subject-1.csv","legacy","4 8 1 2","Kafkaesque Koffka","3.2.5","0","n","0","right","left","right","right","NA","838","63295","18392","838","NA","2","legacy","4","1024","2","48000","-16","experiment","1","odd","7","428787","425302","426559","2945","168547","426564","295562","2952","150154","430800","431641","427576","66250","430800","NA","Sternberg task","44","59832","52","yes","1024"
"84.9056603774","84.9056603774","1155.20754717","1155.20754717","black","experiment","legacy","legacy","legacy","0","uniform","1","undefined","1","right","52","52","52","0","0","52","52","0","0","52","52","52","0","52","0","10/07/18 17:07:08","The main experiment item","yes","Sternbergtask.osexp","C:/Users/I. Edwards/Desktop","no","mono","no","18","no","white","no","yes","768","legacy","40","11","C:/Users/I. Edwards/Desktop/kg-subject-1.csv","legacy","1","Kafkaesque Koffka","3.2.5","0","n","0","right","left","right","right","NA","1394","63295","18392","1394","NA","2","legacy","1","1024","2","48000","-16","experiment","1","odd","7","435131","431651","432901","2945","168547","432906","295562","2952","150154","437144","438541","433918","66250","437142","NA","Sternberg task","45","61226","53","yes","1024"
"85.1851851852","85.1851851852","1146.38888889","1146.38888889","black","experiment","legacy","legacy","legacy","0","uniform","1","undefined","1","left","53","53","53","0","0","53","53","0","0","53","53","53","0","53","0","10/07/18 17:07:08","The main experiment item","yes","Sternbergtask.osexp","C:/Users/I. Edwards/Desktop","no","mono","no","18","no","white","no","yes","768","legacy","41","11","C:/Users/I. Edwards/Desktop/kg-subject-1.csv","legacy","4","Kafkaesque Koffka","3.2.5","1","y","0","left","left","right","left","NA","679","63295","18392","679","NA","2","legacy","1","1024","2","48000","-16","experiment","1","odd","4","442019","438551","439795","2945","168547","439799","295562","2952","150154","444031","444712","440811","66250","444031","NA","Sternberg task","46","61905","54","yes","1024"
"85.4545454545","85.4545454545","1141.98181818","1141.98181818","black","experiment","legacy","legacy","legacy","0","uniform","1","undefined","1","left","54","54","54","0","0","54","54","0","0","54","54","54","0","54","0","10/07/18 17:07:08","The main experiment item","yes","Sternbergtask.osexp","C:/Users/I. Edwards/Desktop","no","mono","no","18","no","white","no","yes","768","legacy","42","11","C:/Users/I. Edwards/Desktop/kg-subject-1.csv","legacy","7 1 8 5 6 2","Kafkaesque Koffka","3.2.5","2","y","0","left","left","right","left","NA","904","63295","18392","904","NA","2","legacy","6","1024","2","48000","-16","experiment","1","odd","1","448216","444723","445988","2945","168547","445993","295562","2952","150154","450229","451136","447005","66250","450228","NA","Sternberg task","47","62809","55","yes","1024"
"85.7142857143","85.7142857143","1136.26785714","1136.26785714","black","experiment","legacy","legacy","legacy","0","uniform","1","undefined","1","left","55","55","55","0","0","55","55","0","0","55","55","55","0","55","0","10/07/18 17:07:08","The main experiment item","yes","Sternbergtask.osexp","C:/Users/I. Edwards/Desktop","no","mono","no","18","no","white","no","yes","768","legacy","43","11","C:/Users/I. Edwards/Desktop/kg-subject-1.csv","legacy","3 9 7 6 4","Kafkaesque Koffka","3.2.5","3","y","0","left","left","right","left","NA","822","63295","18392","822","NA","2","legacy","5","1024","2","48000","-16","experiment","1","odd","7","454636","451147","452405","2945","168547","452410","295562","2952","150154","456649","457473","453422","66250","456649","NA","Sternberg task","48","63631","56","yes","1024"
"84.2105263158","84.2105263158","1137.15789474","1137.15789474","black","experiment","legacy","legacy","legacy","0","uniform","0","undefined","0","left","56","56","56","0","0","56","56","0","0","56","56","56","0","56","0","10/07/18 17:07:08","The main experiment item","yes","Sternbergtask.osexp","C:/Users/I. Edwards/Desktop","no","mono","no","18","no","white","no","yes","768","legacy","44","11","C:/Users/I. Edwards/Desktop/kg-subject-1.csv","legacy","4 1 5","Kafkaesque Koffka","3.2.5","2","y","0","right","left","right","right","NA","1187","63295","18392","1187","NA","2","legacy","3","1024","2","48000","-16","experiment","1","odd","1","460956","457484","458728","2945","168547","458733","295562","2952","150154","462970","464159","459745","66250","462969","NA","Sternberg task","48","64818","57","yes","1024"
"84.4827586207","84.4827586207","1136.72413793","1136.72413793","black","experiment","legacy","legacy","legacy","0","uniform","1","undefined","1","right","57","57","57","0","0","57","57","0","0","57","57","57","0","57","0","10/07/18 17:07:08","The main experiment item","yes","Sternbergtask.osexp","C:/Users/I. Edwards/Desktop","no","mono","no","18","no","white","no","yes","768","legacy","45","11","C:/Users/I. Edwards/Desktop/kg-subject-1.csv","legacy","1 5 3 2 8","Kafkaesque Koffka","3.2.5","0","n","0","right","left","right","right","NA","1112","63295","18392","1112","NA","2","legacy","5","1024","2","48000","-16","experiment","1","odd","4","467654","457484","465425","2945","168547","465429","464170","2952","150154","469666","470781","466441","66250","469666","NA","Sternberg task","49","65930","58","yes","1024"
"84.7457627119","84.7457627119","1130.18644068","1130.18644068","black","experiment","legacy","legacy","legacy","0","uniform","1","undefined","1","left","58","58","58","0","0","58","58","0","0","58","58","58","0","58","0","10/07/18 17:07:08","The main experiment item","yes","Sternbergtask.osexp","C:/Users/I. Edwards/Desktop","no","mono","no","18","no","white","no","yes","768","legacy","46","11","C:/Users/I. Edwards/Desktop/kg-subject-1.csv","legacy","6 2","Kafkaesque Koffka","3.2.5","1","y","0","left","left","right","left","NA","751","63295","18392","751","NA","2","legacy","2","1024","2","48000","-16","experiment","1","odd","6","474259","470791","472030","2945","168547","472035","464170","2952","150154","476270","477024","473046","66250","476270","NA","Sternberg task","50","66681","59","yes","1024"
"85","85","1132.38333333","1132.38333333","black","experiment","legacy","legacy","legacy","0","uniform","1","undefined","1","left","59","59","59","0","0","59","59","0","0","59","59","59","0","59","0","10/07/18 17:07:08","The main experiment item","yes","Sternbergtask.osexp","C:/Users/I. Edwards/Desktop","no","mono","no","18","no","white","no","yes","768","legacy","47","11","C:/Users/I. Edwards/Desktop/kg-subject-1.csv","legacy","4 6 2 5 1","Kafkaesque Koffka","3.2.5","5","y","0","left","left","right","left","NA","1262","63295","18392","1262","NA","2","legacy","5","1024","2","48000","-16","experiment","1","odd","1","480523","477034","478294","2945","168547","478299","464170","2952","150154","482537","483802","479310","66250","482535","NA","Sternberg task","51","67943","60","yes","1024"
"85.2459016393","85.2459016393","1128.85245902","1128.85245902","black","experiment","legacy","legacy","legacy","0","uniform","1","undefined","1","left","60","60","60","0","0","60","60","0","0","60","60","60","0","60","0","10/07/18 17:07:08","The main experiment item","yes","Sternbergtask.osexp","C:/Users/I. Edwards/Desktop","no","mono","no","18","no","white","no","yes","768","legacy","48","11","C:/Users/I. Edwards/Desktop/kg-subject-1.csv","legacy","2 8 5 1","Kafkaesque Koffka","3.2.5","4","y","0","left","left","right","left","NA","917","63295","18392","917","NA","2","legacy","4","1024","2","48000","-16","experiment","1","odd","1","487289","483813","485059","2945","168547","485064","464170","2952","150154","489302","490222","486076","66250","489301","NA","Sternberg task","52","68860","61","yes","1024"
"83.8709677419","83.8709677419","1133.41935484","1133.41935484","black","experiment","legacy","legacy","legacy","0","uniform","0","undefined","0","left","61","61","61","0","0","61","61","0","0","61","61","61","0","61","0","10/07/18 17:07:08","The main experiment item","yes","Sternbergtask.osexp","C:/Users/I. Edwards/Desktop","no","mono","no","18","no","white","no","yes","768","legacy","49","11","C:/Users/I. Edwards/Desktop/kg-subject-1.csv","legacy","7 2 3","Kafkaesque Koffka","3.2.5","3","y","0","right","left","right","right","NA","1412","63295","18392","1412","NA","2","legacy","3","1024","2","48000","-16","experiment","1","odd","3","493713","490232","491484","2945","168547","491489","464170","2952","150154","495726","497141","492501","66250","495724","NA","Sternberg task","52","70272","62","yes","1024"
"84.126984127","84.126984127","1125.76190476","1125.76190476","black","experiment","legacy","legacy","legacy","0","uniform","1","undefined","1","left","62","62","62","0","0","62","62","0","0","62","62","62","0","62","0","10/07/18 17:07:08","The main experiment item","yes","Sternbergtask.osexp","C:/Users/I. Edwards/Desktop","no","mono","no","18","no","white","no","yes","768","legacy","50","11","C:/Users/I. Edwards/Desktop/kg-subject-1.csv","legacy","5 2 6","Kafkaesque Koffka","3.2.5","2","y","0","left","left","right","left","NA","651","63295","18392","651","NA","2","legacy","3","1024","2","48000","-16","experiment","1","odd","2","500630","490232","498401","2945","168547","498405","497152","2952","150154","502642","503296","499417","66250","502642","NA","Sternberg task","53","70923","63","yes","1024"
"84.375","84.375","1120.25","1120.25","black","experiment","legacy","legacy","legacy","0","uniform","1","undefined","1","right","63","63","63","0","0","63","63","0","0","63","63","63","0","63","0","10/07/18 17:07:08","The main experiment item","yes","Sternbergtask.osexp","C:/Users/I. Edwards/Desktop","no","mono","no","18","no","white","no","yes","768","legacy","51","11","C:/Users/I. Edwards/Desktop/kg-subject-1.csv","legacy","6 8","Kafkaesque Koffka","3.2.5","0","n","0","right","left","right","right","NA","773","63295","18392","773","NA","2","legacy","2","1024","2","48000","-16","experiment","1","odd","9","506800","503306","504571","2945","168547","504576","497152","2952","150154","508813","509589","505588","66250","508811","NA","Sternberg task","54","71696","64","yes","1024"
"84.6153846154","84.6153846154","1114.38461538","1114.38461538","black","experiment","legacy","legacy","legacy","0","uniform","1","undefined","1","left","64","64","64","0","0","64","64","0","0","64","64","64","0","64","0","10/07/18 17:07:08","The main experiment item","yes","Sternbergtask.osexp","C:/Users/I. Edwards/Desktop","no","mono","no","18","no","white","no","yes","768","legacy","52","11","C:/Users/I. Edwards/Desktop/kg-subject-1.csv","legacy","9 3 8 2 1 4","Kafkaesque Koffka","3.2.5","3","y","0","left","left","right","left","NA","739","63295","18392","739","NA","2","legacy","6","1024","2","48000","-16","experiment","1","odd","8","513089","509599","510860","2945","168547","510865","497152","2952","150154","515101","515843","511877","66250","515101","NA","Sternberg task","55","72435","65","yes","1024"
"84.8484848485","84.8484848485","1107.42424242","1107.42424242","black","experiment","legacy","legacy","legacy","0","uniform","1","undefined","1","left","65","65","65","0","0","65","65","0","0","65","65","65","0","65","0","10/07/18 17:07:08","The main experiment item","yes","Sternbergtask.osexp","C:/Users/I. Edwards/Desktop","no","mono","no","18","no","white","no","yes","768","legacy","53","11","C:/Users/I. Edwards/Desktop/kg-subject-1.csv","legacy","2 3 7 4","Kafkaesque Koffka","3.2.5","1","y","0","left","left","right","left","NA","655","63295","18392","655","NA","2","legacy","4","1024","2","48000","-16","experiment","1","odd","2","519340","515854","517111","2945","168547","517116","497152","2952","150154","521355","522013","518128","66250","521353","NA","Sternberg task","56","73090","66","yes","1024"
"85.0746268657","85.0746268657","1104.71641791","1104.71641791","black","experiment","legacy","legacy","legacy","0","uniform","1","undefined","1","left","66","66","66","0","0","66","66","0","0","66","66","66","0","66","0","10/07/18 17:07:08","The main experiment item","yes","Sternbergtask.osexp","C:/Users/I. Edwards/Desktop","no","mono","no","18","no","white","no","yes","768","legacy","54","11","C:/Users/I. Edwards/Desktop/kg-subject-1.csv","legacy","6 5","Kafkaesque Koffka","3.2.5","2","y","0","left","left","right","left","NA","926","63295","18392","926","NA","2","legacy","2","1024","2","48000","-16","experiment","1","odd","5","525511","522026","523282","2945","168547","523287","497152","2952","150154","527525","528455","524299","66250","527524","NA","Sternberg task","57","74016","67","yes","1024"
"85.2941176471","85.2941176471","1105.5","1105.5","black","experiment","legacy","legacy","legacy","0","uniform","1","undefined","1","right","67","67","67","0","0","67","67","0","0","67","67","67","0","67","0","10/07/18 17:07:08","The main experiment item","yes","Sternbergtask.osexp","C:/Users/I. Edwards/Desktop","no","mono","no","18","no","white","no","yes","768","legacy","55","11","C:/Users/I. Edwards/Desktop/kg-subject-1.csv","legacy","5 2","Kafkaesque Koffka","3.2.5","0","n","0","right","left","right","right","NA","1158","63295","18392","1158","NA","2","legacy","2","1024","2","48000","-16","experiment","1","odd","7","531933","528465","529713","2945","168547","529718","497152","2952","150154","533947","535108","530730","66250","533945","NA","Sternberg task","58","75174","68","yes","1024"
"85.5072463768","85.5072463768","1107.33333333","1107.33333333","black","experiment","legacy","legacy","legacy","0","uniform","1","undefined","1","left","68","68","68","0","0","68","68","0","0","68","68","68","0","68","0","10/07/18 17:07:08","The main experiment item","yes","Sternbergtask.osexp","C:/Users/I. Edwards/Desktop","no","mono","no","18","no","white","no","yes","768","legacy","56","11","C:/Users/I. Edwards/Desktop/kg-subject-1.csv","legacy","2 4 6 9","Kafkaesque Koffka","3.2.5","3","y","0","left","left","right","left","NA","1232","63295","18392","1232","NA","2","legacy","4","1024","2","48000","-16","experiment","1","odd","6","538600","535118","536371","2945","168547","536375","497152","2952","150154","540612","541847","537387","66250","540611","NA","Sternberg task","59","76406","69","yes","1024"
"85.7142857143","85.7142857143","1105.11428571","1105.11428571","black","experiment","legacy","legacy","legacy","0","uniform","1","undefined","1","left","69","69","69","0","0","69","69","0","0","69","69","69","0","69","0","10/07/18 17:07:08","The main experiment item","yes","Sternbergtask.osexp","C:/Users/I. Edwards/Desktop","no","mono","no","18","no","white","no","yes","768","legacy","57","11","C:/Users/I. Edwards/Desktop/kg-subject-1.csv","legacy","7 4 2 6 3 5","Kafkaesque Koffka","3.2.5","6","y","0","left","left","right","left","NA","952","63295","18392","952","NA","2","legacy","6","1024","2","48000","-16","experiment","1","odd","5","545334","541860","543110","2945","168547","543115","497152","2952","150154","547346","548301","544121","66250","547345","NA","Sternberg task","60","77358","70","yes","1024"
"85.9154929577","85.9154929577","1103.32394366","1103.32394366","black","experiment","legacy","legacy","legacy","0","uniform","1","undefined","1","right","70","70","70","0","0","70","70","0","0","70","70","70","0","70","0","10/07/18 17:07:08","The main experiment item","yes","Sternbergtask.osexp","C:/Users/I. Edwards/Desktop","no","mono","no","18","no","white","no","yes","768","legacy","58","11","C:/Users/I. Edwards/Desktop/kg-subject-1.csv","legacy","2 8 9 4 1","Kafkaesque Koffka","3.2.5","0","n","0","right","left","right","right","NA","978","63295","18392","978","NA","2","legacy","5","1024","2","48000","-16","experiment","1","odd","5","551786","548312","549557","2945","168547","549562","497152","2952","150154","553799","554780","550573","66250","553798","NA","Sternberg task","61","78336","71","yes","1024"
"86.1111111111","86.1111111111","1104","1104","black","experiment","legacy","legacy","legacy","0","uniform","1","undefined","1","left","71","71","71","0","0","71","71","0","0","71","71","71","0","71","0","10/07/18 17:07:08","The main experiment item","yes","Sternbergtask.osexp","C:/Users/I. Edwards/Desktop","no","mono","no","18","no","white","no","yes","768","legacy","59","11","C:/Users/I. Edwards/Desktop/kg-subject-1.csv","legacy","2 3","Kafkaesque Koffka","3.2.5","1","y","0","left","left","right","left","NA","1152","63295","18392","1152","NA","2","legacy","2","1024","2","48000","-16","experiment","1","odd","2","558273","554791","556045","2945","168547","556048","497152","2952","150154","560285","561441","557061","66250","560284","NA","Sternberg task","62","79488","72","yes","1024"
"86.301369863","86.301369863","1110.01369863","1110.01369863","black","experiment","legacy","legacy","legacy","0","uniform","1","undefined","1","right","72","72","72","0","0","72","72","0","0","72","72","72","0","72","0","10/07/18 17:07:08","The main experiment item","yes","Sternbergtask.osexp","C:/Users/I. Edwards/Desktop","no","mono","no","18","no","white","no","yes","768","legacy","60","11","C:/Users/I. Edwards/Desktop/kg-subject-1.csv","legacy","1 6 4 3 9 7","Kafkaesque Koffka","3.2.5","0","n","0","right","left","right","right","NA","1543","63295","18392","1543","NA","2","legacy","6","1024","2","48000","-16","experiment","1","odd","8","564934","561452","562705","2945","168547","562710","497152","2952","150154","566947","568494","563722","66250","566945","NA","Sternberg task","63","81031","73","yes","1024"
"86.4864864865","86.4864864865","1115.12162162","1115.12162162","black","experiment","legacy","legacy","legacy","0","uniform","1","undefined","1","right","73","73","73","0","0","73","73","0","0","73","73","73","0","73","0","10/07/18 17:07:08","The main experiment item","yes","Sternbergtask.osexp","C:/Users/I. Edwards/Desktop","no","mono","no","18","no","white","no","yes","768","legacy","61","11","C:/Users/I. Edwards/Desktop/kg-subject-1.csv","legacy","7 1 8 4 9 3","Kafkaesque Koffka","3.2.5","0","n","0","right","left","right","right","NA","1488","63295","18392","1488","NA","2","legacy","6","1024","2","48000","-16","experiment","1","odd","6","572002","568504","569774","2945","168547","569778","497152","2952","150154","574014","575506","570790","66250","574014","NA","Sternberg task","64","82519","74","yes","1024"
"86.6666666667","86.6666666667","1109.28","1109.28","black","experiment","legacy","legacy","legacy","0","uniform","1","undefined","1","right","74","74","74","0","0","74","74","0","0","74","74","74","0","74","0","10/07/18 17:07:08","The main experiment item","yes","Sternbergtask.osexp","C:/Users/I. Edwards/Desktop","no","mono","no","18","no","white","no","yes","768","legacy","62","11","C:/Users/I. Edwards/Desktop/kg-subject-1.csv","legacy","4 1","Kafkaesque Koffka","3.2.5","0","n","0","right","left","right","right","NA","677","63295","18392","677","NA","2","legacy","2","1024","2","48000","-16","experiment","1","odd","6","578999","575516","576770","2945","168547","576774","497152","2952","150154","581011","581692","577787","66250","581011","NA","Sternberg task","65","83196","75","yes","1024"
"86.8421052632","86.8421052632","1105.97368421","1105.97368421","black","experiment","legacy","legacy","legacy","0","uniform","1","undefined","1","left","75","75","75","0","0","75","75","0","0","75","75","75","0","75","0","10/07/18 17:07:08","The main experiment item","yes","Sternbergtask.osexp","C:/Users/I. Edwards/Desktop","no","mono","no","18","no","white","no","yes","768","legacy","63","11","C:/Users/I. Edwards/Desktop/kg-subject-1.csv","legacy","9 5 3 8 4","Kafkaesque Koffka","3.2.5","1","y","0","left","left","right","left","NA","858","63295","18392","858","NA","2","legacy","5","1024","2","48000","-16","experiment","1","odd","9","585179","581703","582950","2945","168547","582954","497152","2952","150154","587192","588053","583967","66250","587191","NA","Sternberg task","66","84054","76","yes","1024"
"87.012987013","87.012987013","1104.07792208","1104.07792208","black","experiment","legacy","legacy","legacy","0","uniform","1","undefined","1","left","76","76","76","0","0","76","76","0","0","76","76","76","0","76","0","10/07/18 17:07:08","The main experiment item","yes","Sternbergtask.osexp","C:/Users/I. Edwards/Desktop","no","mono","no","18","no","white","no","yes","768","legacy","64","11","C:/Users/I. Edwards/Desktop/kg-subject-1.csv","legacy","9 1 6 7 8","Kafkaesque Koffka","3.2.5","1","y","0","left","left","right","left","NA","960","63295","18392","960","NA","2","legacy","5","1024","2","48000","-16","experiment","1","odd","9","591542","588064","589314","2945","168547","589319","497152","2952","150154","593555","594518","590330","66250","593554","NA","Sternberg task","67","85014","77","yes","1024"
"87.1794871795","87.1794871795","1099.21794872","1099.21794872","black","experiment","legacy","legacy","legacy","0","uniform","1","undefined","1","left","77","77","77","0","0","77","77","0","0","77","77","77","0","77","0","10/07/18 17:07:08","The main experiment item","yes","Sternbergtask.osexp","C:/Users/I. Edwards/Desktop","no","mono","no","18","no","white","no","yes","768","legacy","65","11","C:/Users/I. Edwards/Desktop/kg-subject-1.csv","legacy","8 9 5 6 7","Kafkaesque Koffka","3.2.5","1","y","0","left","left","right","left","NA","725","63295","18392","725","NA","2","legacy","5","1024","2","48000","-16","experiment","1","odd","8","598014","594529","595785","2945","168547","595789","497152","2952","150154","600026","600754","596801","66250","600026","NA","Sternberg task","68","85739","78","yes","1024"
"86.0759493671","86.0759493671","1099.83544304","1099.83544304","black","experiment","legacy","legacy","legacy","0","uniform","0","undefined","0","left","78","78","78","0","0","78","78","0","0","78","78","78","0","78","0","10/07/18 17:07:08","The main experiment item","yes","Sternbergtask.osexp","C:/Users/I. Edwards/Desktop","no","mono","no","18","no","white","no","yes","768","legacy","66","11","C:/Users/I. Edwards/Desktop/kg-subject-1.csv","legacy","8 1 6","Kafkaesque Koffka","3.2.5","3","y","0","right","left","right","right","NA","1148","63295","18392","1148","NA","2","legacy","3","1024","2","48000","-16","experiment","1","odd","6","604247","600765","602018","2945","168547","602023","497152","2952","150154","606260","607411","603034","66250","606259","NA","Sternberg task","68","86887","79","yes","1024"
"86.25","86.25","1106.6","1106.6","black","experiment","legacy","legacy","legacy","0","uniform","1","undefined","1","right","79","79","79","0","0","79","79","0","0","79","79","79","0","79","0","10/07/18 17:07:08","The main experiment item","yes","Sternbergtask.osexp","C:/Users/I. Edwards/Desktop","no","mono","no","18","no","white","no","yes","768","legacy","67","11","C:/Users/I. Edwards/Desktop/kg-subject-1.csv","legacy","7 1","Kafkaesque Koffka","3.2.5","0","n","0","right","left","right","right","NA","1641","63295","18392","1641","NA","2","legacy","2","1024","2","48000","-16","experiment","1","odd","8","610899","600765","608671","2945","168547","608675","607422","2952","150154","612911","614556","609687","66250","612911","NA","Sternberg task","69","88528","80","yes","1024"
"86.4197530864","86.4197530864","1109.19753086","1109.19753086","black","experiment","legacy","legacy","legacy","0","uniform","1","undefined","1","right","80","80","80","0","0","80","80","0","0","80","80","80","0","80","0","10/07/18 17:07:08","The main experiment item","yes","Sternbergtask.osexp","C:/Users/I. Edwards/Desktop","no","mono","no","18","no","white","no","yes","768","legacy","68","11","C:/Users/I. Edwards/Desktop/kg-subject-1.csv","legacy","8 6 3 4 7","Kafkaesque Koffka","3.2.5","0","n","0","right","left","right","right","NA","1317","63295","18392","1317","NA","2","legacy","5","1024","2","48000","-16","experiment","1","odd","1","618054","614568","615825","2945","168547","615829","607422","2952","150154","620066","621387","616841","66250","620066","NA","Sternberg task","70","89845","81","yes","1024"
"86.5853658537","86.5853658537","1104.2195122","1104.2195122","black","experiment","legacy","legacy","legacy","0","uniform","1","undefined","1","right","81","81","81","0","0","81","81","0","0","81","81","81","0","81","0","10/07/18 17:07:08","The main experiment item","yes","Sternbergtask.osexp","C:/Users/I. Edwards/Desktop","no","mono","no","18","no","white","no","yes","768","legacy","69","11","C:/Users/I. Edwards/Desktop/kg-subject-1.csv","legacy","5 7 3","Kafkaesque Koffka","3.2.5","0","n","0","right","left","right","right","NA","701","63295","18392","701","NA","2","legacy","3","1024","2","48000","-16","experiment","1","odd","9","624881","621397","622653","2945","168547","622657","607422","2952","150154","626894","627598","623669","66250","626893","NA","Sternberg task","71","90546","82","yes","1024"
"86.7469879518","86.7469879518","1104.73493976","1104.73493976","black","experiment","legacy","legacy","legacy","0","uniform","1","undefined","1","left","82","82","82","0","0","82","82","0","0","82","82","82","0","82","0","10/07/18 17:07:08","The main experiment item","yes","Sternbergtask.osexp","C:/Users/I. Edwards/Desktop","no","mono","no","18","no","white","no","yes","768","legacy","70","11","C:/Users/I. Edwards/Desktop/kg-subject-1.csv","legacy","5 2 9 6 1 7","Kafkaesque Koffka","3.2.5","3","y","0","left","left","right","left","NA","1147","63295","18392","1147","NA","2","legacy","6","1024","2","48000","-16","experiment","1","odd","9","631092","627608","628864","2945","168547","628868","607422","2952","150154","633104","634255","629880","66250","633104","NA","Sternberg task","72","91693","83","yes","1024"
"86.9047619048","86.9047619048","1101.6547619","1101.6547619","black","experiment","legacy","legacy","legacy","0","uniform","1","undefined","1","left","83","83","83","0","0","83","83","0","0","83","83","83","0","83","0","10/07/18 17:07:08","The main experiment item","yes","Sternbergtask.osexp","C:/Users/I. Edwards/Desktop","no","mono","no","18","no","white","no","yes","768","legacy","71","11","C:/Users/I. Edwards/Desktop/kg-subject-1.csv","legacy","3 5 9 6 2 4","Kafkaesque Koffka","3.2.5","1","y","0","left","left","right","left","NA","846","63295","18392","846","NA","2","legacy","6","1024","2","48000","-16","experiment","1","odd","3","637751","634266","635522","2945","168547","635527","607422","2952","150154","639765","640615","636540","66250","639763","NA","Sternberg task","73","92539","84","yes","1024"
"87.0588235294","87.0588235294","1102.69411765","1102.69411765","black","experiment","legacy","legacy","legacy","0","uniform","1","undefined","1","left","84","84","84","0","0","84","84","0","0","84","84","84","0","84","0","10/07/18 17:07:08","The main experiment item","yes","Sternbergtask.osexp","C:/Users/I. Edwards/Desktop","no","mono","no","18","no","white","no","yes","768","legacy","72","11","C:/Users/I. Edwards/Desktop/kg-subject-1.csv","legacy","5 7 8 2 3 8","Kafkaesque Koffka","3.2.5","5","y","0","left","left","right","left","NA","1190","63295","18392","1190","NA","2","legacy","6","1024","2","48000","-16","experiment","1","odd","3","644101","640626","641873","2945","168547","641877","607422","2952","150154","646115","647309","642889","66250","646114","NA","Sternberg task","74","93729","85","yes","1024"
"87.2093023256","87.2093023256","1097.05813953","1097.05813953","black","experiment","legacy","legacy","legacy","0","uniform","1","undefined","1","left","85","85","85","0","0","85","85","0","0","85","85","85","0","85","0","10/07/18 17:07:08","The main experiment item","yes","Sternbergtask.osexp","C:/Users/I. Edwards/Desktop","no","mono","no","18","no","white","no","yes","768","legacy","73","11","C:/Users/I. Edwards/Desktop/kg-subject-1.csv","legacy","9 4 2","Kafkaesque Koffka","3.2.5","1","y","0","left","left","right","left","NA","618","63295","18392","618","NA","2","legacy","3","1024","2","48000","-16","experiment","1","odd","9","650800","647319","648571","2945","168547","648575","607422","2952","150154","652810","653432","649587","66250","652809","NA","Sternberg task","75","94347","86","yes","1024"
"87.3563218391","87.3563218391","1099.64367816","1099.64367816","black","experiment","legacy","legacy","legacy","0","uniform","1","undefined","1","right","86","86","86","0","0","86","86","0","0","86","86","86","0","86","0","10/07/18 17:07:08","The main experiment item","yes","Sternbergtask.osexp","C:/Users/I. Edwards/Desktop","no","mono","no","18","no","white","no","yes","768","legacy","74","11","C:/Users/I. Edwards/Desktop/kg-subject-1.csv","legacy","3 9 8 1 6 4","Kafkaesque Koffka","3.2.5","0","n","0","right","left","right","right","NA","1322","63295","18392","1322","NA","2","legacy","6","1024","2","48000","-16","experiment","1","odd","7","656921","653442","654692","2945","168547","654697","607422","2952","150154","658934","660260","655709","66250","658932","NA","Sternberg task","76","95669","87","yes","1024"
"87.5","87.5","1098.56818182","1098.56818182","black","experiment","legacy","legacy","legacy","0","uniform","1","undefined","1","right","87","87","87","0","0","87","87","0","0","87","87","87","0","87","0","10/07/18 17:07:08","The main experiment item","yes","Sternbergtask.osexp","C:/Users/I. Edwards/Desktop","no","mono","no","18","no","white","no","yes","768","legacy","75","11","C:/Users/I. Edwards/Desktop/kg-subject-1.csv","legacy","8 4 3 5","Kafkaesque Koffka","3.2.5","0","n","0","right","left","right","right","NA","1005","63295","18392","1005","NA","2","legacy","4","1024","2","48000","-16","experiment","1","odd","6","663756","660270","661529","2945","168547","661533","607422","2952","150154","665770","666778","662545","66250","665769","NA","Sternberg task","77","96674","88","yes","1024"
"87.6404494382","87.6404494382","1098.82022472","1098.82022472","black","experiment","legacy","legacy","legacy","0","uniform","1","undefined","1","left","88","88","88","0","0","88","88","0","0","88","88","88","0","88","0","10/07/18 17:07:08","The main experiment item","yes","Sternbergtask.osexp","C:/Users/I. Edwards/Desktop","no","mono","no","18","no","white","no","yes","768","legacy","76","11","C:/Users/I. Edwards/Desktop/kg-subject-1.csv","legacy","2 5 4 8 7","Kafkaesque Koffka","3.2.5","3","y","0","left","left","right","left","NA","1121","63295","18392","1121","NA","2","legacy","5","1024","2","48000","-16","experiment","1","odd","4","670270","666789","668042","2945","168547","668046","607422","2952","150154","672283","673408","669059","66250","672283","NA","Sternberg task","78","97795","89","yes","1024"
"87.7777777778","87.7777777778","1096.58888889","1096.58888889","black","experiment","legacy","legacy","legacy","0","uniform","1","undefined","1","left","89","89","89","0","0","89","89","0","0","89","89","89","0","89","0","10/07/18 17:07:08","The main experiment item","yes","Sternbergtask.osexp","C:/Users/I. Edwards/Desktop","no","mono","no","18","no","white","no","yes","768","legacy","77","11","C:/Users/I. Edwards/Desktop/kg-subject-1.csv","legacy","6 8 9 3 4 9","Kafkaesque Koffka","3.2.5","5","y","0","left","left","right","left","NA","898","63295","18392","898","NA","2","legacy","6","1024","2","48000","-16","experiment","1","odd","4","676900","673419","674671","2945","168547","674676","607422","2952","150154","678913","679815","675688","66250","678912","NA","Sternberg task","79","98693","90","yes","1024"
"87.9120879121","87.9120879121","1093.28571429","1093.28571429","black","experiment","legacy","legacy","legacy","0","uniform","1","undefined","1","left","90","90","90","0","0","90","90","0","0","90","90","90","0","90","0","10/07/18 17:07:08","The main experiment item","yes","Sternbergtask.osexp","C:/Users/I. Edwards/Desktop","no","mono","no","18","no","white","no","yes","768","legacy","78","11","C:/Users/I. Edwards/Desktop/kg-subject-1.csv","legacy","8 9 6 1","Kafkaesque Koffka","3.2.5","2","y","0","left","left","right","left","NA","796","63295","18392","796","NA","2","legacy","4","1024","2","48000","-16","experiment","1","odd","9","683306","679826","681077","2945","168547","681082","607422","2952","150154","685320","686120","682094","66250","685318","NA","Sternberg task","80","99489","91","yes","1024"
"86.9565217391","86.9565217391","1090.64130435","1090.64130435","black","experiment","legacy","legacy","legacy","0","uniform","0","undefined","0","right","91","91","91","0","0","91","91","0","0","91","91","91","0","91","0","10/07/18 17:07:08","The main experiment item","yes","Sternbergtask.osexp","C:/Users/I. Edwards/Desktop","no","mono","no","18","no","white","no","yes","768","legacy","79","11","C:/Users/I. Edwards/Desktop/kg-subject-1.csv","legacy","8 5 7 3 6","Kafkaesque Koffka","3.2.5","0","n","0","left","left","right","left","NA","850","63295","18392","850","NA","2","legacy","5","1024","2","48000","-16","experiment","1","odd","9","689618","686131","687390","2945","168547","687395","607422","2952","150154","691632","692486","688407","66250","691631","NA","Sternberg task","80","100339","92","yes","1024"
"87.0967741935","87.0967741935","1091.05376344","1091.05376344","black","experiment","legacy","legacy","legacy","0","uniform","1","undefined","1","right","92","92","92","0","0","92","92","0","0","92","92","92","0","92","0","10/07/18 17:07:08","The main experiment item","yes","Sternbergtask.osexp","C:/Users/I. Edwards/Desktop","no","mono","no","18","no","white","no","yes","768","legacy","80","11","C:/Users/I. Edwards/Desktop/kg-subject-1.csv","legacy","9 7 4 5 8","Kafkaesque Koffka","3.2.5","0","n","0","right","left","right","right","NA","1129","63295","18392","1129","NA","2","legacy","5","1024","2","48000","-16","experiment","1","odd","6","695983","686131","693754","2945","168547","693759","692497","2952","150154","697997","699130","694771","66250","697996","NA","Sternberg task","81","101468","93","yes","1024"
"87.2340425532","87.2340425532","1091.18085106","1091.18085106","black","experiment","legacy","legacy","legacy","0","uniform","1","undefined","1","right","93","93","93","0","0","93","93","0","0","93","93","93","0","93","0","10/07/18 17:07:08","The main experiment item","yes","Sternbergtask.osexp","C:/Users/I. Edwards/Desktop","no","mono","no","18","no","white","no","yes","768","legacy","81","11","C:/Users/I. Edwards/Desktop/kg-subject-1.csv","legacy","6 9 7 3 8 2","Kafkaesque Koffka","3.2.5","0","n","0","right","left","right","right","NA","1103","63295","18392","1103","NA","2","legacy","6","1024","2","48000","-16","experiment","1","odd","5","702625","699140","700397","2945","168547","700401","692497","2952","150154","704637","705744","701413","66250","704637","NA","Sternberg task","82","102571","94","yes","1024"
"87.3684210526","87.3684210526","1089.46315789","1089.46315789","black","experiment","legacy","legacy","legacy","0","uniform","1","undefined","1","left","94","94","94","0","0","94","94","0","0","94","94","94","0","94","0","10/07/18 17:07:08","The main experiment item","yes","Sternbergtask.osexp","C:/Users/I. Edwards/Desktop","no","mono","no","18","no","white","no","yes","768","legacy","82","11","C:/Users/I. Edwards/Desktop/kg-subject-1.csv","legacy","4 9 7 8 5 3","Kafkaesque Koffka","3.2.5","4","y","0","left","left","right","left","NA","928","63295","18392","928","NA","2","legacy","6","1024","2","48000","-16","experiment","1","odd","8","709237","705755","707015","2945","168547","707020","692497","2952","150154","711250","712182","708032","66250","711250","NA","Sternberg task","83","103499","95","yes","1024"
"86.4583333333","86.4583333333","1090.42708333","1090.42708333","black","experiment","legacy","legacy","legacy","0","uniform","0","undefined","0","right","95","95","95","0","0","95","95","0","0","95","95","95","0","95","0","10/07/18 17:07:08","The main experiment item","yes","Sternbergtask.osexp","C:/Users/I. Edwards/Desktop","no","mono","no","18","no","white","no","yes","768","legacy","83","11","C:/Users/I. Edwards/Desktop/kg-subject-1.csv","legacy","4 2 7 6 1 3","Kafkaesque Koffka","3.2.5","0","n","0","left","left","right","left","NA","1182","63295","18392","1182","NA","2","legacy","6","1024","2","48000","-16","experiment","1","odd","8","715685","712193","713454","2945","168547","713459","692497","2952","150154","717698","718884","714472","66250","717696","NA","Sternberg task","83","104681","96","yes","1024"
"86.5979381443","86.5979381443","1097.51546392","1097.51546392","black","experiment","legacy","legacy","legacy","0","uniform","1","undefined","1","right","96","96","96","0","0","96","96","0","0","96","96","96","0","96","0","10/07/18 17:07:08","The main experiment item","yes","Sternbergtask.osexp","C:/Users/I. Edwards/Desktop","no","mono","no","18","no","white","no","yes","768","legacy","84","11","C:/Users/I. Edwards/Desktop/kg-subject-1.csv","legacy","1 7 5 2 9","Kafkaesque Koffka","3.2.5","0","n","0","right","left","right","right","NA","1778","63295","18392","1778","NA","2","legacy","5","1024","2","48000","-16","experiment","1","odd","3","722376","712193","720147","2945","168547","720152","718895","2952","150154","724389","726171","721163","66250","724388","NA","Sternberg task","84","106459","97","yes","1024"
"86.7346938776","86.7346938776","1093.20408163","1093.20408163","black","experiment","legacy","legacy","legacy","0","uniform","1","undefined","1","right","97","97","97","0","0","97","97","0","0","97","97","97","0","97","0","10/07/18 17:07:08","The main experiment item","yes","Sternbergtask.osexp","C:/Users/I. Edwards/Desktop","no","mono","no","18","no","white","no","yes","768","legacy","85","11","C:/Users/I. Edwards/Desktop/kg-subject-1.csv","legacy","1 8 7","Kafkaesque Koffka","3.2.5","0","n","0","right","left","right","right","NA","675","63295","18392","675","NA","2","legacy","3","1024","2","48000","-16","experiment","1","odd","4","729680","726182","727452","2945","168547","727456","718895","2952","150154","731692","732371","728467","66250","731692","NA","Sternberg task","85","107134","98","yes","1024"
"86.8686868687","86.8686868687","1094.14141414","1094.14141414","black","experiment","legacy","legacy","legacy","0","uniform","1","undefined","1","right","98","98","98","0","0","98","98","0","0","98","98","98","0","98","0","10/07/18 17:07:08","The main experiment item","yes","Sternbergtask.osexp","C:/Users/I. Edwards/Desktop","no","mono","no","18","no","white","no","yes","768","legacy","86","11","C:/Users/I. Edwards/Desktop/kg-subject-1.csv","legacy","1 4 9 2 5","Kafkaesque Koffka","3.2.5","0","n","0","right","left","right","right","NA","1186","63295","18392","1186","NA","2","legacy","5","1024","2","48000","-16","experiment","1","odd","7","735867","732382","733639","2945","168547","733643","718895","2952","150154","737881","739071","734654","66250","737879","NA","Sternberg task","86","108320","99","yes","1024"
"87","87","1094.43","1094.43","black","experiment","legacy","legacy","legacy","0","uniform","1","undefined","1","left","99","99","99","0","0","99","99","0","0","99","99","99","0","99","0","10/07/18 17:07:08","The main experiment item","yes","Sternbergtask.osexp","C:/Users/I. Edwards/Desktop","no","mono","no","18","no","white","no","yes","768","legacy","87","11","C:/Users/I. Edwards/Desktop/kg-subject-1.csv","legacy","6 1 2","Kafkaesque Koffka","3.2.5","3","y","0","left","left","right","left","NA","1123","63295","18392","1123","NA","2","legacy","3","1024","2","48000","-16","experiment","1","odd","2","742569","739081","740340","2945","168547","740345","718895","2952","150154","744581","745708","741357","66250","744580","NA","Sternberg task","87","109443","100","yes","1024"
"87.1287128713","87.1287128713","1091.67326733","1091.67326733","black","experiment","legacy","legacy","legacy","0","uniform","1","undefined","1","right","100","100","100","0","0","100","100","0","0","100","100","100","0","100","0","10/07/18 17:07:08","The main experiment item","yes","Sternbergtask.osexp","C:/Users/I. Edwards/Desktop","no","mono","no","18","no","white","no","yes","768","legacy","88","11","C:/Users/I. Edwards/Desktop/kg-subject-1.csv","legacy","6 7 5 9","Kafkaesque Koffka","3.2.5","0","n","0","right","left","right","right","NA","816","63295","18392","816","NA","2","legacy","4","1024","2","48000","-16","experiment","1","odd","2","749200","745718","746970","2945","168547","746976","718895","2952","150154","751213","752034","747988","66250","751211","NA","Sternberg task","88","110259","101","yes","1024"
"87.2549019608","87.2549019608","1090.7254902","1090.7254902","black","experiment","legacy","legacy","legacy","0","uniform","1","undefined","1","right","101","101","101","0","0","101","101","0","0","101","101","101","0","101","0","10/07/18 17:07:08","The main experiment item","yes","Sternbergtask.osexp","C:/Users/I. Edwards/Desktop","no","mono","no","18","no","white","no","yes","768","legacy","89","11","C:/Users/I. Edwards/Desktop/kg-subject-1.csv","legacy","1 4 9 3","Kafkaesque Koffka","3.2.5","0","n","0","right","left","right","right","NA","995","63295","18392","995","NA","2","legacy","4","1024","2","48000","-16","experiment","1","odd","5","755508","752044","753280","2945","168547","753284","718895","2952","150154","757520","758519","754295","66250","757520","NA","Sternberg task","89","111254","102","yes","1024"
"86.4077669903","86.4077669903","1088.77669903","1088.77669903","black","experiment","legacy","legacy","legacy","0","uniform","0","undefined","0","left","102","102","102","0","0","102","102","0","0","102","102","102","0","102","0","10/07/18 17:07:08","The main experiment item","yes","Sternbergtask.osexp","C:/Users/I. Edwards/Desktop","no","mono","no","18","no","white","no","yes","768","legacy","90","11","C:/Users/I. Edwards/Desktop/kg-subject-1.csv","legacy","8 5 1 3 9","Kafkaesque Koffka","3.2.5","4","y","0","right","left","right","right","NA","890","63295","18392","890","NA","2","legacy","5","1024","2","48000","-16","experiment","1","odd","3","762009","758530","759781","2945","168547","759785","718895","2952","150154","764023","764917","760797","66250","764021","NA","Sternberg task","89","112144","103","yes","1024"
"85.5769230769","85.5769230769","1088.80769231","1088.80769231","black","experiment","legacy","legacy","legacy","0","uniform","0","undefined","0","left","103","103","103","0","0","103","103","0","0","103","103","103","0","103","0","10/07/18 17:07:08","The main experiment item","yes","Sternbergtask.osexp","C:/Users/I. Edwards/Desktop","no","mono","no","18","no","white","no","yes","768","legacy","91","11","C:/Users/I. Edwards/Desktop/kg-subject-1.csv","legacy","3 4 9 6 2 9","Kafkaesque Koffka","3.2.5","5","y","0","right","left","right","right","NA","1092","63295","18392","1092","NA","2","legacy","6","1024","2","48000","-16","experiment","1","odd","2","768417","758530","766189","2945","168547","766193","764928","2952","150154","770430","771526","767205","66250","770428","NA","Sternberg task","89","113236","104","yes","1024"
"85.7142857143","85.7142857143","1086.77142857","1086.77142857","black","experiment","legacy","legacy","legacy","0","uniform","1","undefined","1","left","104","104","104","0","0","104","104","0","0","104","104","104","0","104","0","10/07/18 17:07:08","The main experiment item","yes","Sternbergtask.osexp","C:/Users/I. Edwards/Desktop","no","mono","no","18","no","white","no","yes","768","legacy","92","11","C:/Users/I. Edwards/Desktop/kg-subject-1.csv","legacy","8 9 5 7 1 6","Kafkaesque Koffka","3.2.5","4","y","0","left","left","right","left","NA","875","63295","18392","875","NA","2","legacy","6","1024","2","48000","-16","experiment","1","odd","7","775036","758530","772807","2945","168547","772812","771536","2952","150154","777049","777929","773823","66250","777047","NA","Sternberg task","90","114111","105","yes","1024"
"85.8490566038","85.8490566038","1084.80188679","1084.80188679","black","experiment","legacy","legacy","legacy","0","uniform","1","undefined","1","right","105","105","105","0","0","105","105","0","0","105","105","105","0","105","0","10/07/18 17:07:08","The main experiment item","yes","Sternbergtask.osexp","C:/Users/I. Edwards/Desktop","no","mono","no","18","no","white","no","yes","768","legacy","93","11","C:/Users/I. Edwards/Desktop/kg-subject-1.csv","legacy","3 9 1","Kafkaesque Koffka","3.2.5","0","n","0","right","left","right","right","NA","878","63295","18392","878","NA","2","legacy","3","1024","2","48000","-16","experiment","1","odd","7","781428","777939","779199","2945","168547","779204","771536","2952","150154","783440","784322","780215","66250","783439","NA","Sternberg task","91","114989","106","yes","1024"
"85.9813084112","85.9813084112","1081.74766355","1081.74766355","black","experiment","legacy","legacy","legacy","0","uniform","1","undefined","1","right","106","106","106","0","0","106","106","0","0","106","106","106","0","106","0","10/07/18 17:07:08","The main experiment item","yes","Sternbergtask.osexp","C:/Users/I. Edwards/Desktop","no","mono","no","18","no","white","no","yes","768","legacy","94","11","C:/Users/I. Edwards/Desktop/kg-subject-1.csv","legacy","5 9 2 3","Kafkaesque Koffka","3.2.5","0","n","0","right","left","right","right","NA","758","63295","18392","758","NA","2","legacy","4","1024","2","48000","-16","experiment","1","odd","8","787812","784333","785583","2945","168547","785588","771536","2952","150154","789819","790581","786600","66250","789818","NA","Sternberg task","92","115747","107","yes","1024"
"85.1851851852","85.1851851852","1086.2037037","1086.2037037","black","experiment","legacy","legacy","legacy","0","uniform","0","undefined","0","left","107","107","107","0","0","107","107","0","0","107","107","107","0","107","0","10/07/18 17:07:08","The main experiment item","yes","Sternbergtask.osexp","C:/Users/I. Edwards/Desktop","no","mono","no","18","no","white","no","yes","768","legacy","95","11","C:/Users/I. Edwards/Desktop/kg-subject-1.csv","legacy","6 7 8 5","Kafkaesque Koffka","3.2.5","3","y","0","right","left","right","right","NA","1563","63295","18392","1563","NA","2","legacy","4","1024","2","48000","-16","experiment","1","odd","8","794071","790592","791844","2945","168547","791847","771536","2952","150154","796084","797651","792858","66250","796082","NA","Sternberg task","92","117310","108","yes","1024"
"85.3211009174","85.3211009174","1086.11926606","1086.11926606","black","experiment","legacy","legacy","legacy","0","uniform","1","undefined","1","left","108","108","108","0","0","108","108","0","0","108","108","108","0","108","0","10/07/18 17:07:08","The main experiment item","yes","Sternbergtask.osexp","C:/Users/I. Edwards/Desktop","no","mono","no","18","no","white","no","yes","768","legacy","96","11","C:/Users/I. Edwards/Desktop/kg-subject-1.csv","legacy","9 1 7 2","Kafkaesque Koffka","3.2.5","2","y","0","left","left","right","left","NA","1077","63295","18392","1077","NA","2","legacy","4","1024","2","48000","-16","experiment","1","odd","1","801154","790592","798925","2945","168547","798929","797662","2952","150154","803164","804246","799942","66250","803163","NA","Sternberg task","93","118387","109","yes","1024"
"85.4545454545","85.4545454545","1084.35454545","1084.35454545","black","experiment","legacy","legacy","legacy","0","uniform","1","undefined","1","right","109","109","109","0","0","109","109","0","0","109","109","109","0","109","0","10/07/18 17:07:08","The main experiment item","yes","Sternbergtask.osexp","C:/Users/I. Edwards/Desktop","no","mono","no","18","no","white","no","yes","768","legacy","97","11","C:/Users/I. Edwards/Desktop/kg-subject-1.csv","legacy","2 7 5","Kafkaesque Koffka","3.2.5","0","n","0","right","left","right","right","NA","892","63295","18392","892","NA","2","legacy","3","1024","2","48000","-16","experiment","1","odd","8","807739","804256","805509","2945","168547","805514","797662","2952","150154","809753","810650","806527","66250","809752","NA","Sternberg task","94","119279","110","yes","1024"
"85.5855855856","85.5855855856","1085.99099099","1085.99099099","black","experiment","legacy","legacy","legacy","0","uniform","1","undefined","1","right","110","110","110","0","0","110","110","0","0","110","110","110","0","110","0","10/07/18 17:07:08","The main experiment item","yes","Sternbergtask.osexp","C:/Users/I. Edwards/Desktop","no","mono","no","18","no","white","no","yes","768","legacy","98","11","C:/Users/I. Edwards/Desktop/kg-subject-1.csv","legacy","4 2 6 9","Kafkaesque Koffka","3.2.5","0","n","0","right","left","right","right","NA","1266","63295","18392","1266","NA","2","legacy","4","1024","2","48000","-16","experiment","1","odd","7","814159","810662","811929","2945","168547","811934","797662","2952","150154","816172","817443","812946","66250","816171","NA","Sternberg task","95","120545","111","yes","1024"
"85.7142857143","85.7142857143","1082.67857143","1082.67857143","black","experiment","legacy","legacy","legacy","0","uniform","1","undefined","1","right","111","111","111","0","0","111","111","0","0","111","111","111","0","111","0","10/07/18 17:07:08","The main experiment item","yes","Sternbergtask.osexp","C:/Users/I. Edwards/Desktop","no","mono","no","18","no","white","no","yes","768","legacy","99","11","C:/Users/I. Edwards/Desktop/kg-subject-1.csv","legacy","3 4 2","Kafkaesque Koffka","3.2.5","0","n","0","right","left","right","right","NA","715","63295","18392","715","NA","2","legacy","3","1024","2","48000","-16","experiment","1","odd","5","820932","817453","818703","2945","168547","818707","797662","2952","150154","822944","823664","819720","66250","822943","NA","Sternberg task","96","121260","112","yes","1024"
"85.8407079646","85.8407079646","1083.36283186","1083.36283186","black","experiment","legacy","legacy","legacy","0","uniform","1","undefined","1","left","112","112","112","0","0","112","112","0","0","112","112","112","0","112","0","10/07/18 17:07:08","The main experiment item","yes","Sternbergtask.osexp","C:/Users/I. Edwards/Desktop","no","mono","no","18","no","white","no","yes","768","legacy","100","11","C:/Users/I. Edwards/Desktop/kg-subject-1.csv","legacy","6 9 7 4 5 1","Kafkaesque Koffka","3.2.5","2","y","0","left","left","right","left","NA","1160","63295","18392","1160","NA","2","legacy","6","1024","2","48000","-16","experiment","1","odd","9","827142","823674","824930","2945","168547","824935","797662","2952","150154","829154","830318","825938","66250","829154","NA","Sternberg task","97","122420","113","yes","1024"
"85.9649122807","85.9649122807","1082.64035088","1082.64035088","black","experiment","legacy","legacy","legacy","0","uniform","1","undefined","1","left","113","113","113","0","0","113","113","0","0","113","113","113","0","113","0","10/07/18 17:07:08","The main experiment item","yes","Sternbergtask.osexp","C:/Users/I. Edwards/Desktop","no","mono","no","18","no","white","no","yes","768","legacy","101","11","C:/Users/I. Edwards/Desktop/kg-subject-1.csv","legacy","8","Kafkaesque Koffka","3.2.5","1","y","0","left","left","right","left","NA","1001","63295","18392","1001","NA","2","legacy","1","1024","2","48000","-16","experiment","1","odd","8","833820","830331","831590","2945","168547","831595","797662","2952","150154","835824","836830","832607","66250","835823","NA","Sternberg task","98","123421","114","yes","1024"
"85.2173913043","85.2173913043","1082.03478261","1082.03478261","black","experiment","legacy","legacy","legacy","0","uniform","0","undefined","0","left","114","114","114","0","0","114","114","0","0","114","114","114","0","114","0","10/07/18 17:07:08","The main experiment item","yes","Sternbergtask.osexp","C:/Users/I. Edwards/Desktop","no","mono","no","18","no","white","no","yes","768","legacy","102","11","C:/Users/I. Edwards/Desktop/kg-subject-1.csv","legacy","7 8 4 6 9 5","Kafkaesque Koffka","3.2.5","4","y","0","right","left","right","right","NA","1013","63295","18392","1013","NA","2","legacy","6","1024","2","48000","-16","experiment","1","odd","6","840325","836840","838096","2945","168547","838101","797662","2952","150154","842338","843356","839113","66250","842337","NA","Sternberg task","98","124434","115","yes","1024"
"85.3448275862","85.3448275862","1080.27586207","1080.27586207","black","experiment","legacy","legacy","legacy","0","uniform","1","undefined","1","left","115","115","115","0","0","115","115","0","0","115","115","115","0","115","0","10/07/18 17:07:08","The main experiment item","yes","Sternbergtask.osexp","C:/Users/I. Edwards/Desktop","no","mono","no","18","no","white","no","yes","768","legacy","103","11","C:/Users/I. Edwards/Desktop/kg-subject-1.csv","legacy","2 4 8 5 1 3","Kafkaesque Koffka","3.2.5","1","y","0","left","left","right","left","NA","878","63295","18392","878","NA","2","legacy","6","1024","2","48000","-16","experiment","1","odd","2","846867","836840","844638","2945","168547","844642","843367","2952","150154","848878","849761","845655","66250","848878","NA","Sternberg task","99","125312","116","yes","1024"
"85.4700854701","85.4700854701","1076","1076","black","experiment","legacy","legacy","legacy","0","uniform","1","undefined","1","left","116","116","116","0","0","116","116","0","0","116","116","116","0","116","0","10/07/18 17:07:08","The main experiment item","yes","Sternbergtask.osexp","C:/Users/I. Edwards/Desktop","no","mono","no","18","no","white","no","yes","768","legacy","104","11","C:/Users/I. Edwards/Desktop/kg-subject-1.csv","legacy","3 4","Kafkaesque Koffka","3.2.5","1","y","0","left","left","right","left","NA","580","63295","18392","580","NA","2","legacy","2","1024","2","48000","-16","experiment","1","odd","3","853252","849771","851023","2945","168547","851028","843367","2952","150154","855265","855849","852040","66250","855264","NA","Sternberg task","100","125892","117","yes","1024"
"85.593220339","85.593220339","1076.03389831","1076.03389831","black","experiment","legacy","legacy","legacy","0","uniform","1","undefined","1","left","117","117","117","0","0","117","117","0","0","117","117","117","0","117","0","10/07/18 17:07:08","The main experiment item","yes","Sternbergtask.osexp","C:/Users/I. Edwards/Desktop","no","mono","no","18","no","white","no","yes","768","legacy","105","11","C:/Users/I. Edwards/Desktop/kg-subject-1.csv","legacy","4 3 2 5 8","Kafkaesque Koffka","3.2.5","2","y","0","left","left","right","left","NA","1080","63295","18392","1080","NA","2","legacy","5","1024","2","48000","-16","experiment","1","odd","3","859349","855860","857120","2945","168547","857125","843367","2952","150154","861363","862448","858137","66250","861362","NA","Sternberg task","101","126972","118","yes","1024"
"85.7142857143","85.7142857143","1074.34453782","1074.34453782","black","experiment","legacy","legacy","legacy","0","uniform","1","undefined","1","left","118","118","118","0","0","118","118","0","0","118","118","118","0","118","0","10/07/18 17:07:08","The main experiment item","yes","Sternbergtask.osexp","C:/Users/I. Edwards/Desktop","no","mono","no","18","no","white","no","yes","768","legacy","106","11","C:/Users/I. Edwards/Desktop/kg-subject-1.csv","legacy","4 1 8 7 5","Kafkaesque Koffka","3.2.5","3","y","0","left","left","right","left","NA","875","63295","18392","875","NA","2","legacy","5","1024","2","48000","-16","experiment","1","odd","8","865946","862458","863716","2945","168547","863722","843367","2952","150154","867959","868839","864734","66250","867958","NA","Sternberg task","102","127847","119","yes","1024"
"85.8333333333","85.8333333333","1073.325","1073.325","black","experiment","legacy","legacy","legacy","0","uniform","1","undefined","1","right","119","119","119","0","0","119","119","0","0","119","119","119","0","119","0","10/07/18 17:07:08","The main experiment item","yes","Sternbergtask.osexp","C:/Users/I. Edwards/Desktop","no","mono","no","18","no","white","no","yes","768","legacy","107","11","C:/Users/I. Edwards/Desktop/kg-subject-1.csv","legacy","2 3 8 5 6 7","Kafkaesque Koffka","3.2.5","0","n","0","right","left","right","right","NA","952","63295","18392","952","NA","2","legacy","6","1024","2","48000","-16","experiment","1","odd","1","872335","868849","870105","2945","168547","870110","843367","2952","150154","874348","875304","871122","66250","874347","NA","Sternberg task","103","128799","120","yes","1024"
"85.1239669421","85.1239669421","1069.62809917","1069.62809917","black","experiment","legacy","legacy","legacy","0","uniform","0","undefined","0","left","120","120","120","0","0","120","120","0","0","120","120","120","0","120","0","10/07/18 17:07:08","The main experiment item","yes","Sternbergtask.osexp","C:/Users/I. Edwards/Desktop","no","mono","no","18","no","white","no","yes","768","legacy","108","11","C:/Users/I. Edwards/Desktop/kg-subject-1.csv","legacy","8 3","Kafkaesque Koffka","3.2.5","2","y","0","right","left","right","right","NA","626","63295","18392","626","NA","2","legacy","2","1024","2","48000","-16","experiment","1","odd","3","878797","875315","876568","2945","168547","876572","843367","2952","150154","880813","881444","877584","66250","880809","NA","Sternberg task","103","129425","121","yes","1024"
