"acc","accuracy","average_response_time","avg_rt","background","bidi","block","canvas_backend","clock_backend","color_backend","compensation","coordinates","correct","correct_Instruction1","correct_keyboard_response","correct_response","count_CorrectResponse","count_ExperimentLoop","count_Fixation","count_ISI","count_IncorrectFeedback","count_Instruction1","count_Instructions2","count_Memory","count_PracticeLoop","count_Probe","count_Sternburgtask","count_Thankyou","count_XSequence","count_keyboard_response","count_logger","datetime","description","disable_garbage_collection","empty_column","experiment_file","experiment_path","font_bold","font_family","font_italic","font_size","font_underline","foreground","form_clicks","fullscreen","height","keyboard_backend","live_row","live_row_PracticeLoop","logfile","mouse_backend","numberSet","opensesame_codename","opensesame_version","posInSet","present","repeat_cycle","response","response_Instruction1","response_Instructions2","response_Thankyou","response_keyboard_response","response_time","response_time_Instruction1","response_time_Instructions2","response_time_Thankyou","response_time_keyboard_response","round_decimals","sampler_backend","setSize","sound_buf_size","sound_channels","sound_freq","sound_sample_size","start","subject_nr","subject_parity","target","time_CorrectResponse","time_ExperimentLoop","time_Fixation","time_ISI","time_IncorrectFeedback","time_Instruction1","time_Instructions2","time_Memory","time_PracticeLoop","time_Probe","time_Sternburgtask","time_Thankyou","time_XSequence","time_keyboard_response","time_logger","title","total_correct","total_response_time","total_responses","uniform_coordinates","width"
"0","0","2000","2000","black","no","practice","legacy","legacy","legacy","0","uniform","0","undefined","0","right","0","0","0","0","0","0","0","0","0","0","0","0","0","0","0","Tue Oct  2 19:10:41 2018","The main experiment item","yes","NA","Sternburg Task.osexp","/Users/danieldalton","no","mono","no","18","no","white","no","yes","768","legacy","0","0","/Users/danieldalton/subject-1.csv","legacy","4 1 5","Jazzy James","3.1.9","0","n","0","None","right","NA","NA","None","2000","50265","NA","NA","2000","2","legacy","3","1024","2","48000","-16","Sternburgtask","1","odd","2","NA","NA","53340","55571","NA","2010","NA","54353","52291","57588","1978","NA","53329","57589","59589","New experiment","0","2000","1","yes","1024"
"0","0","2000","2000","black","no","practice","legacy","legacy","legacy","0","uniform","0","undefined","0","right","1","0","1","1","1","0","0","1","0","1","0","0","1","1","1","Tue Oct  2 19:10:41 2018","The main experiment item","yes","NA","Sternburg Task.osexp","/Users/danieldalton","no","mono","no","18","no","white","no","yes","768","legacy","1","1","/Users/danieldalton/subject-1.csv","legacy","5","Jazzy James","3.1.9","0","n","0","None","right","NA","NA","None","2000","50265","NA","NA","2000","2","legacy","1","1024","2","48000","-16","Sternburgtask","1","odd","3","NA","NA","60670","62900","59608","2010","NA","61683","52291","64913","1978","NA","60657","64913","66913","New experiment","0","4000","2","yes","1024"
"33.3333333333","33.3333333333","1696","1696","black","no","practice","legacy","legacy","legacy","0","uniform","1","undefined","1","right","2","0","2","2","2","0","0","2","0","2","0","0","2","2","2","Tue Oct  2 19:10:41 2018","The main experiment item","yes","NA","Sternburg Task.osexp","/Users/danieldalton","no","mono","no","18","no","white","no","yes","768","legacy","2","2","/Users/danieldalton/subject-1.csv","legacy","2 1","Jazzy James","3.1.9","0","n","0","right","right","NA","NA","right","1088","50265","NA","NA","1088","2","legacy","2","1024","2","48000","-16","Sternburgtask","1","odd","5","NA","NA","67992","70225","66933","2010","NA","69005","52291","72238","1978","NA","67981","72238","73328","New experiment","1","5088","3","yes","1024"
"50","50","1505","1505","black","no","practice","legacy","legacy","legacy","0","uniform","1","undefined","1","right","3","0","3","3","3","0","0","3","0","3","0","0","3","3","3","Tue Oct  2 19:10:41 2018","The main experiment item","yes","NA","Sternburg Task.osexp","/Users/danieldalton","no","mono","no","18","no","white","no","yes","768","legacy","3","3","/Users/danieldalton/subject-1.csv","legacy","3 1 9 4","Jazzy James","3.1.9","0","n","0","right","right","NA","NA","right","932","50265","NA","NA","932","2","legacy","4","1024","2","48000","-16","Sternburgtask","1","odd","6","73342","NA","74398","76634","66933","2010","NA","75414","52291","78652","1978","NA","74387","78652","79586","New experiment","2","6020","4","yes","1024"
"60","60","1382","1382","black","no","practice","legacy","legacy","legacy","0","uniform","1","undefined","1","left","4","0","4","4","4","0","0","4","0","4","0","0","4","4","4","Tue Oct  2 19:10:41 2018","The main experiment item","yes","NA","Sternburg Task.osexp","/Users/danieldalton","no","mono","no","18","no","white","no","yes","768","legacy","4","4","/Users/danieldalton/subject-1.csv","legacy","2 9 4","Jazzy James","3.1.9","3","y","0","left","right","NA","NA","left","890","50265","NA","NA","890","2","legacy","3","1024","2","48000","-16","Sternburgtask","1","odd","4","79600","NA","80653","82887","66933","2010","NA","81667","52291","84909","1978","NA","80641","84909","85801","New experiment","3","6910","5","yes","1024"
"66.6666666667","66.6666666667","1318.66666667","1318.66666667","black","no","practice","legacy","legacy","legacy","0","uniform","1","undefined","1","right","5","0","5","5","5","0","0","5","0","5","0","0","5","5","5","Tue Oct  2 19:10:41 2018","The main experiment item","yes","NA","Sternburg Task.osexp","/Users/danieldalton","no","mono","no","18","no","white","no","yes","768","legacy","5","5","/Users/danieldalton/subject-1.csv","legacy","5 7 8 4 1 2","Jazzy James","3.1.9","0","n","0","right","right","NA","NA","right","1002","50265","NA","NA","1002","2","legacy","6","1024","2","48000","-16","Sternburgtask","1","odd","6","85815","NA","86868","89101","66933","2010","NA","87885","52291","91116","1978","NA","86858","91117","92121","New experiment","4","7912","6","yes","1024"
"57.1428571429","57.1428571429","1241.42857143","1241.42857143","black","no","practice","legacy","legacy","legacy","0","uniform","0","undefined","0","right","6","0","6","6","6","0","0","6","0","6","0","0","6","6","6","Tue Oct  2 19:10:41 2018","The main experiment item","yes","NA","Sternburg Task.osexp","/Users/danieldalton","no","mono","no","18","no","white","no","yes","768","legacy","6","6","/Users/danieldalton/subject-1.csv","legacy","9 6 7 4 5","Jazzy James","3.1.9","0","n","0","left","right","NA","NA","left","778","50265","NA","NA","778","2","legacy","5","1024","2","48000","-16","Sternburgtask","1","odd","3","92135","NA","93188","95420","66933","2010","NA","94203","52291","97433","1978","NA","93177","97433","98212","New experiment","4","8690","7","yes","1024"
"62.5","62.5","1239","1239","black","no","practice","legacy","legacy","legacy","0","uniform","1","undefined","1","left","7","0","7","7","7","0","0","7","0","7","0","0","7","7","7","Tue Oct  2 19:10:41 2018","The main experiment item","yes","NA","Sternburg Task.osexp","/Users/danieldalton","no","mono","no","18","no","white","no","yes","768","legacy","7","7","/Users/danieldalton/subject-1.csv","legacy","1 5 2 9","Jazzy James","3.1.9","2","y","0","left","right","NA","NA","left","1222","50265","NA","NA","1222","2","legacy","4","1024","2","48000","-16","Sternburgtask","1","odd","5","92135","NA","99279","101512","98226","2010","NA","100294","52291","103525","1978","NA","99268","103525","104748","New experiment","5","9912","8","yes","1024"
"66.6666666667","66.6666666667","1191.11111111","1191.11111111","black","no","practice","legacy","legacy","legacy","0","uniform","1","undefined","1","left","8","0","8","8","8","0","0","8","0","8","0","0","8","8","8","Tue Oct  2 19:10:41 2018","The main experiment item","yes","NA","Sternburg Task.osexp","/Users/danieldalton","no","mono","no","18","no","white","no","yes","768","legacy","8","8","/Users/danieldalton/subject-1.csv","legacy","4 8","Jazzy James","3.1.9","1","y","0","left","right","NA","NA","left","808","50265","NA","NA","808","2","legacy","2","1024","2","48000","-16","Sternburgtask","1","odd","4","104762","NA","105813","108049","98226","2010","NA","106831","52291","110062","1978","NA","105802","110062","110872","New experiment","6","10720","9","yes","1024"
"70","70","1128.3","1128.3","black","no","practice","legacy","legacy","legacy","0","uniform","1","undefined","1","left","9","0","9","9","9","0","0","9","0","9","0","0","9","9","9","Tue Oct  2 19:10:41 2018","The main experiment item","yes","NA","Sternburg Task.osexp","/Users/danieldalton","no","mono","no","18","no","white","no","yes","768","legacy","9","9","/Users/danieldalton/subject-1.csv","legacy","1 7 9 8 5","Jazzy James","3.1.9","4","y","0","left","right","NA","NA","left","563","50265","NA","NA","563","2","legacy","5","1024","2","48000","-16","Sternburgtask","1","odd","8","110886","NA","111941","114175","98226","2010","NA","112955","52291","116190","1978","NA","111929","116191","116756","New experiment","7","11283","10","yes","1024"
"72.7272727273","72.7272727273","1070.27272727","1070.27272727","black","no","practice","legacy","legacy","legacy","0","uniform","1","undefined","1","left","10","0","10","10","10","0","0","10","0","10","0","0","10","10","10","Tue Oct  2 19:10:41 2018","The main experiment item","yes","NA","Sternburg Task.osexp","/Users/danieldalton","no","mono","no","18","no","white","no","yes","768","legacy","10","10","/Users/danieldalton/subject-1.csv","legacy","6","Jazzy James","3.1.9","1","y","0","left","right","NA","NA","left","490","50265","NA","NA","490","2","legacy","1","1024","2","48000","-16","Sternburgtask","1","odd","6","116770","NA","117824","120054","98226","2010","NA","118838","52291","122073","1978","NA","117813","122073","122565","New experiment","8","11773","11","yes","1024"
"75","75","1021.25","1021.25","black","no","practice","legacy","legacy","legacy","0","uniform","1","undefined","1","left","11","0","11","11","11","0","0","11","0","11","0","0","11","11","11","Tue Oct  2 19:10:41 2018","The main experiment item","yes","NA","Sternburg Task.osexp","/Users/danieldalton","no","mono","no","18","no","white","no","yes","768","legacy","11","11","/Users/danieldalton/subject-1.csv","legacy","4 3 1 7 9 8","Jazzy James","3.1.9","1","y","0","left","right","NA","NA","left","482","50265","NA","NA","482","2","legacy","6","1024","2","48000","-16","Sternburgtask","1","odd","4","122582","NA","123634","125868","98226","2010","NA","124651","52291","127882","1978","NA","123623","127883","128368","New experiment","9","12255","12","yes","1024"
"76.9230769231","76.9230769231","1032.84615385","1032.84615385","black","no","experiment","legacy","legacy","legacy","0","uniform","1","undefined","1","right","12","0","12","12","12","0","0","12","0","12","0","0","12","12","12","Tue Oct  2 19:10:41 2018","The main experiment item","yes","NA","Sternburg Task.osexp","/Users/danieldalton","no","mono","no","18","no","white","no","yes","768","legacy","0","11","/Users/danieldalton/subject-1.csv","legacy","8 4 3 5","Jazzy James","3.1.9","0","n","0","right","right","left","NA","right","1172","50265","3969","NA","1172","2","legacy","4","1024","2","48000","-16","Sternburgtask","1","odd","6","128383","133384","133470","135703","98226","2010","129413","134484","52291","137716","1978","NA","133459","137717","138891","New experiment","10","13427","13","yes","1024"
"78.5714285714","78.5714285714","1031.42857143","1031.42857143","black","no","experiment","legacy","legacy","legacy","0","uniform","1","undefined","1","left","13","0","13","13","13","0","0","13","0","13","0","0","13","13","13","Tue Oct  2 19:10:41 2018","The main experiment item","yes","NA","Sternburg Task.osexp","/Users/danieldalton","no","mono","no","18","no","white","no","yes","768","legacy","1","11","/Users/danieldalton/subject-1.csv","legacy","9 3 8 2 1 4","Jazzy James","3.1.9","3","y","0","left","right","left","NA","left","1013","50265","3969","NA","1013","2","legacy","6","1024","2","48000","-16","Sternburgtask","1","odd","8","138905","133384","139959","142188","98226","2010","129413","140976","52291","144204","1978","NA","139948","144205","145220","New experiment","11","14440","14","yes","1024"
"80","80","1019.13333333","1019.13333333","black","no","experiment","legacy","legacy","legacy","0","uniform","1","undefined","1","right","14","0","14","14","14","0","0","14","0","14","0","0","14","14","14","Tue Oct  2 19:10:41 2018","The main experiment item","yes","NA","Sternburg Task.osexp","/Users/danieldalton","no","mono","no","18","no","white","no","yes","768","legacy","2","11","/Users/danieldalton/subject-1.csv","legacy","6 8","Jazzy James","3.1.9","0","n","0","right","right","left","NA","right","847","50265","3969","NA","847","2","legacy","2","1024","2","48000","-16","Sternburgtask","1","odd","9","145234","133384","146287","148526","98226","2010","129413","147303","52291","150548","1978","NA","146274","150548","151397","New experiment","12","15287","15","yes","1024"
"81.25","81.25","1016.4375","1016.4375","black","no","experiment","legacy","legacy","legacy","0","uniform","1","undefined","1","left","15","0","15","15","15","0","0","15","0","15","0","0","15","15","15","Tue Oct  2 19:10:41 2018","The main experiment item","yes","NA","Sternburg Task.osexp","/Users/danieldalton","no","mono","no","18","no","white","no","yes","768","legacy","3","11","/Users/danieldalton/subject-1.csv","legacy","9 3 1 2 5","Jazzy James","3.1.9","4","y","0","left","right","left","NA","left","976","50265","3969","NA","976","2","legacy","5","1024","2","48000","-16","Sternburgtask","1","odd","2","151411","133384","152464","154706","98226","2010","129413","153484","52291","156722","1978","NA","152453","156722","157699","New experiment","13","16263","16","yes","1024"
"76.4705882353","76.4705882353","1013.17647059","1013.17647059","black","no","experiment","legacy","legacy","legacy","0","uniform","0","undefined","0","left","16","0","16","16","16","0","0","16","0","16","0","0","16","16","16","Tue Oct  2 19:10:41 2018","The main experiment item","yes","NA","Sternburg Task.osexp","/Users/danieldalton","no","mono","no","18","no","white","no","yes","768","legacy","4","11","/Users/danieldalton/subject-1.csv","legacy","6 7 9 3 1 2","Jazzy James","3.1.9","1","y","0","right","right","left","NA","right","961","50265","3969","NA","961","2","legacy","6","1024","2","48000","-16","Sternburgtask","1","odd","6","157715","133384","158767","161001","98226","2010","129413","159784","52291","163014","1978","NA","158755","163014","163977","New experiment","13","17224","17","yes","1024"
"77.7777777778","77.7777777778","998.944444444","998.944444444","black","no","experiment","legacy","legacy","legacy","0","uniform","1","undefined","1","left","17","0","17","17","17","0","0","17","0","17","0","0","17","17","17","Tue Oct  2 19:10:41 2018","The main experiment item","yes","NA","Sternburg Task.osexp","/Users/danieldalton","no","mono","no","18","no","white","no","yes","768","legacy","5","11","/Users/danieldalton/subject-1.csv","legacy","3 5 7 1","Jazzy James","3.1.9","3","y","0","left","right","left","NA","left","757","50265","3969","NA","757","2","legacy","4","1024","2","48000","-16","Sternburgtask","1","odd","7","157715","133384","165052","167284","163992","2010","129413","166067","52291","169297","1978","NA","165040","169297","170056","New experiment","14","17981","18","yes","1024"
"73.6842105263","73.6842105263","988.684210526","988.684210526","black","no","experiment","legacy","legacy","legacy","0","uniform","0","undefined","0","right","18","0","18","18","18","0","0","18","0","18","0","0","18","18","18","Tue Oct  2 19:10:41 2018","The main experiment item","yes","NA","Sternburg Task.osexp","/Users/danieldalton","no","mono","no","18","no","white","no","yes","768","legacy","6","11","/Users/danieldalton/subject-1.csv","legacy","5","Jazzy James","3.1.9","0","n","0","left","right","left","NA","left","804","50265","3969","NA","804","2","legacy","1","1024","2","48000","-16","Sternburgtask","1","odd","8","170069","133384","171125","173356","163992","2010","129413","172139","52291","175368","1978","NA","171114","175368","176175","New experiment","14","18785","19","yes","1024"
"75","75","987.05","987.05","black","no","experiment","legacy","legacy","legacy","0","uniform","1","undefined","1","left","19","0","19","19","19","0","0","19","0","19","0","0","19","19","19","Tue Oct  2 19:10:41 2018","The main experiment item","yes","NA","Sternburg Task.osexp","/Users/danieldalton","no","mono","no","18","no","white","no","yes","768","legacy","7","11","/Users/danieldalton/subject-1.csv","legacy","9 1 6 7 8","Jazzy James","3.1.9","1","y","0","left","right","left","NA","left","956","50265","3969","NA","956","2","legacy","5","1024","2","48000","-16","Sternburgtask","1","odd","9","170069","133384","177244","179476","176189","2010","129413","178259","52291","181491","1978","NA","177233","181492","182450","New experiment","15","19741","20","yes","1024"
"76.1904761905","76.1904761905","995.476190476","995.476190476","black","no","experiment","legacy","legacy","legacy","0","uniform","1","undefined","1","left","20","0","20","20","20","0","0","20","0","20","0","0","20","20","20","Tue Oct  2 19:10:41 2018","The main experiment item","yes","NA","Sternburg Task.osexp","/Users/danieldalton","no","mono","no","18","no","white","no","yes","768","legacy","8","11","/Users/danieldalton/subject-1.csv","legacy","4","Jazzy James","3.1.9","1","y","0","left","right","left","NA","left","1164","50265","3969","NA","1164","2","legacy","1","1024","2","48000","-16","Sternburgtask","1","odd","4","182467","133384","183517","185755","176189","2010","129413","184539","52291","187772","1978","NA","183505","187772","188938","New experiment","16","20905","21","yes","1024"
"77.2727272727","77.2727272727","993.590909091","993.590909091","black","no","experiment","legacy","legacy","legacy","0","uniform","1","undefined","1","right","21","0","21","21","21","0","0","21","0","21","0","0","21","21","21","Tue Oct  2 19:10:41 2018","The main experiment item","yes","NA","Sternburg Task.osexp","/Users/danieldalton","no","mono","no","18","no","white","no","yes","768","legacy","9","11","/Users/danieldalton/subject-1.csv","legacy","5 9 2 3","Jazzy James","3.1.9","0","n","0","right","right","left","NA","right","954","50265","3969","NA","954","2","legacy","4","1024","2","48000","-16","Sternburgtask","1","odd","8","188952","133384","190004","192241","176189","2010","129413","191024","52291","194257","1978","NA","189994","194257","195213","New experiment","17","21859","22","yes","1024"
"78.2608695652","78.2608695652","994.304347826","994.304347826","black","no","experiment","legacy","legacy","legacy","0","uniform","1","undefined","1","right","22","0","22","22","22","0","0","22","0","22","0","0","22","22","22","Tue Oct  2 19:10:41 2018","The main experiment item","yes","NA","Sternburg Task.osexp","/Users/danieldalton","no","mono","no","18","no","white","no","yes","768","legacy","10","11","/Users/danieldalton/subject-1.csv","legacy","1 6 4","Jazzy James","3.1.9","0","n","0","right","right","left","NA","right","1010","50265","3969","NA","1010","2","legacy","3","1024","2","48000","-16","Sternburgtask","1","odd","7","195229","133384","196282","198515","176189","2010","129413","197297","52291","200528","1978","NA","196270","200528","201540","New experiment","18","22869","23","yes","1024"
"79.1666666667","79.1666666667","999.208333333","999.208333333","black","no","experiment","legacy","legacy","legacy","0","uniform","1","undefined","1","right","23","0","23","23","23","0","0","23","0","23","0","0","23","23","23","Tue Oct  2 19:10:41 2018","The main experiment item","yes","NA","Sternburg Task.osexp","/Users/danieldalton","no","mono","no","18","no","white","no","yes","768","legacy","11","11","/Users/danieldalton/subject-1.csv","legacy","7 1 8 4 9 3","Jazzy James","3.1.9","0","n","0","right","right","left","NA","right","1112","50265","3969","NA","1112","2","legacy","6","1024","2","48000","-16","Sternburgtask","1","odd","6","201554","133384","202622","204859","176189","2010","129413","203637","52291","206875","1978","NA","202611","206875","207989","New experiment","19","23981","24","yes","1024"
"80","80","1011.4","1011.4","black","no","experiment","legacy","legacy","legacy","0","uniform","1","undefined","1","left","24","0","24","24","24","0","0","24","0","24","0","0","24","24","24","Tue Oct  2 19:10:41 2018","The main experiment item","yes","NA","Sternburg Task.osexp","/Users/danieldalton","no","mono","no","18","no","white","no","yes","768","legacy","12","11","/Users/danieldalton/subject-1.csv","legacy","7","Jazzy James","3.1.9","1","y","0","left","right","left","NA","left","1304","50265","3969","NA","1304","2","legacy","1","1024","2","48000","-16","Sternburgtask","1","odd","7","208002","133384","209058","211289","176189","2010","129413","210072","52291","213311","1978","NA","209046","213311","214616","New experiment","20","25285","25","yes","1024"
"80.7692307692","80.7692307692","1006.11538462","1006.11538462","black","no","experiment","legacy","legacy","legacy","0","uniform","1","undefined","1","right","25","0","25","25","25","0","0","25","0","25","0","0","25","25","25","Tue Oct  2 19:10:41 2018","The main experiment item","yes","NA","Sternburg Task.osexp","/Users/danieldalton","no","mono","no","18","no","white","no","yes","768","legacy","13","11","/Users/danieldalton/subject-1.csv","legacy","1 5 3 2 8","Jazzy James","3.1.9","0","n","0","right","right","left","NA","right","874","50265","3969","NA","874","2","legacy","5","1024","2","48000","-16","Sternburgtask","1","odd","4","214632","133384","215686","217918","176189","2010","129413","216701","52291","219931","1978","NA","215675","219931","220807","New experiment","21","26159","26","yes","1024"
"81.4814814815","81.4814814815","1000.88888889","1000.88888889","black","no","experiment","legacy","legacy","legacy","0","uniform","1","undefined","1","right","26","0","26","26","26","0","0","26","0","26","0","0","26","26","26","Tue Oct  2 19:10:41 2018","The main experiment item","yes","NA","Sternburg Task.osexp","/Users/danieldalton","no","mono","no","18","no","white","no","yes","768","legacy","14","11","/Users/danieldalton/subject-1.csv","legacy","2 7 5","Jazzy James","3.1.9","0","n","0","right","right","left","NA","right","865","50265","3969","NA","865","2","legacy","3","1024","2","48000","-16","Sternburgtask","1","odd","8","220821","133384","221888","224122","176189","2010","129413","222902","52291","226137","1978","NA","221877","226137","227005","New experiment","22","27024","27","yes","1024"
"82.1428571429","82.1428571429","1020.92857143","1020.92857143","black","no","experiment","legacy","legacy","legacy","0","uniform","1","undefined","1","left","27","0","27","27","27","0","0","27","0","27","0","0","27","27","27","Tue Oct  2 19:10:41 2018","The main experiment item","yes","NA","Sternburg Task.osexp","/Users/danieldalton","no","mono","no","18","no","white","no","yes","768","legacy","15","11","/Users/danieldalton/subject-1.csv","legacy","9 4 2","Jazzy James","3.1.9","1","y","0","left","right","left","NA","left","1562","50265","3969","NA","1562","2","legacy","3","1024","2","48000","-16","Sternburgtask","1","odd","9","227019","133384","228069","230305","176189","2010","129413","229086","52291","232318","1978","NA","228058","232318","233882","New experiment","23","28586","28","yes","1024"
"82.7586206897","82.7586206897","1019.62068966","1019.62068966","black","no","experiment","legacy","legacy","legacy","0","uniform","1","undefined","1","left","28","0","28","28","28","0","0","28","0","28","0","0","28","28","28","Tue Oct  2 19:10:41 2018","The main experiment item","yes","NA","Sternburg Task.osexp","/Users/danieldalton","no","mono","no","18","no","white","no","yes","768","legacy","16","11","/Users/danieldalton/subject-1.csv","legacy","4 9 7 8 5 3","Jazzy James","3.1.9","4","y","0","left","right","left","NA","left","983","50265","3969","NA","983","2","legacy","6","1024","2","48000","-16","Sternburgtask","1","odd","8","233896","133384","234949","237188","176189","2010","129413","235971","52291","239201","1978","NA","234938","239201","240186","New experiment","24","29569","29","yes","1024"
"80","80","1003.06666667","1003.06666667","black","no","experiment","legacy","legacy","legacy","0","uniform","0","undefined","0","right","29","0","29","29","29","0","0","29","0","29","0","0","29","29","29","Tue Oct  2 19:10:41 2018","The main experiment item","yes","NA","Sternburg Task.osexp","/Users/danieldalton","no","mono","no","18","no","white","no","yes","768","legacy","17","11","/Users/danieldalton/subject-1.csv","legacy","9 7 4 5 8","Jazzy James","3.1.9","0","n","0","left","right","left","NA","left","523","50265","3969","NA","523","2","legacy","5","1024","2","48000","-16","Sternburgtask","1","odd","6","240199","133384","241253","243481","176189","2010","129413","242264","52291","245493","1978","NA","241242","245494","246019","New experiment","24","30092","30","yes","1024"
"80.6451612903","80.6451612903","1001.12903226","1001.12903226","black","no","experiment","legacy","legacy","legacy","0","uniform","1","undefined","1","right","30","0","30","30","30","0","0","30","0","30","0","0","30","30","30","Tue Oct  2 19:10:41 2018","The main experiment item","yes","NA","Sternburg Task.osexp","/Users/danieldalton","no","mono","no","18","no","white","no","yes","768","legacy","18","11","/Users/danieldalton/subject-1.csv","legacy","2 8 9 4 1","Jazzy James","3.1.9","0","n","0","right","right","left","NA","right","943","50265","3969","NA","943","2","legacy","5","1024","2","48000","-16","Sternburgtask","1","odd","5","240199","133384","247096","249326","246037","2010","129413","248110","52291","251342","1978","NA","247084","251342","252288","New experiment","25","31035","31","yes","1024"
"81.25","81.25","995.0625","995.0625","black","no","experiment","legacy","legacy","legacy","0","uniform","1","undefined","1","right","31","0","31","31","31","0","0","31","0","31","0","0","31","31","31","Tue Oct  2 19:10:41 2018","The main experiment item","yes","NA","Sternburg Task.osexp","/Users/danieldalton","no","mono","no","18","no","white","no","yes","768","legacy","19","11","/Users/danieldalton/subject-1.csv","legacy","5 7 3","Jazzy James","3.1.9","0","n","0","right","right","left","NA","right","807","50265","3969","NA","807","2","legacy","3","1024","2","48000","-16","Sternburgtask","1","odd","9","252303","133384","253358","255597","246037","2010","129413","254378","52291","257612","1978","NA","253347","257612","258421","New experiment","26","31842","32","yes","1024"
"78.7878787879","78.7878787879","994.727272727","994.727272727","black","no","experiment","legacy","legacy","legacy","0","uniform","0","undefined","0","left","32","0","32","32","32","0","0","32","0","32","0","0","32","32","32","Tue Oct  2 19:10:41 2018","The main experiment item","yes","NA","Sternburg Task.osexp","/Users/danieldalton","no","mono","no","18","no","white","no","yes","768","legacy","20","11","/Users/danieldalton/subject-1.csv","legacy","6 1 2","Jazzy James","3.1.9","3","y","0","right","right","left","NA","right","984","50265","3969","NA","984","2","legacy","3","1024","2","48000","-16","Sternburgtask","1","odd","2","258434","133384","259486","261722","246037","2010","129413","260502","52291","263736","1978","NA","259475","263736","264722","New experiment","26","32826","33","yes","1024"
"76.4705882353","76.4705882353","1010.79411765","1010.79411765","black","no","experiment","legacy","legacy","legacy","0","uniform","0","undefined","0","right","33","0","33","33","33","0","0","33","0","33","0","0","33","33","33","Tue Oct  2 19:10:41 2018","The main experiment item","yes","NA","Sternburg Task.osexp","/Users/danieldalton","no","mono","no","18","no","white","no","yes","768","legacy","21","11","/Users/danieldalton/subject-1.csv","legacy","5 3 8 7 2 4","Jazzy James","3.1.9","0","n","0","left","right","left","NA","left","1541","50265","3969","NA","1541","2","legacy","6","1024","2","48000","-16","Sternburgtask","1","odd","9","258434","133384","265788","268021","264736","2010","129413","266805","52291","270035","1978","NA","265777","270035","271579","New experiment","26","34367","34","yes","1024"
"74.2857142857","74.2857142857","1004.6","1004.6","black","no","experiment","legacy","legacy","legacy","0","uniform","0","undefined","0","left","34","0","34","34","34","0","0","34","0","34","0","0","34","34","34","Tue Oct  2 19:10:41 2018","The main experiment item","yes","NA","Sternburg Task.osexp","/Users/danieldalton","no","mono","no","18","no","white","no","yes","768","legacy","22","11","/Users/danieldalton/subject-1.csv","legacy","1 4 9 3 2 5","Jazzy James","3.1.9","3","y","0","right","right","left","NA","right","794","50265","3969","NA","794","2","legacy","6","1024","2","48000","-16","Sternburgtask","1","odd","9","258434","133384","272648","274883","271593","2010","129413","273666","52291","276896","1978","NA","272636","276896","277692","New experiment","26","35161","35","yes","1024"
"75","75","1005.5","1005.5","black","no","experiment","legacy","legacy","legacy","0","uniform","1","undefined","1","left","35","0","35","35","35","0","0","35","0","35","0","0","35","35","35","Tue Oct  2 19:10:41 2018","The main experiment item","yes","NA","Sternburg Task.osexp","/Users/danieldalton","no","mono","no","18","no","white","no","yes","768","legacy","23","11","/Users/danieldalton/subject-1.csv","legacy","2 3","Jazzy James","3.1.9","1","y","0","left","right","left","NA","left","1037","50265","3969","NA","1037","2","legacy","2","1024","2","48000","-16","Sternburgtask","1","odd","2","258434","133384","278768","281001","277708","2010","129413","279786","52291","283014","1978","NA","278757","283015","284055","New experiment","27","36198","36","yes","1024"
"72.972972973","72.972972973","1008.91891892","1008.91891892","black","no","experiment","legacy","legacy","legacy","0","uniform","0","undefined","0","left","36","0","36","36","36","0","0","36","0","36","0","0","36","36","36","Tue Oct  2 19:10:41 2018","The main experiment item","yes","NA","Sternburg Task.osexp","/Users/danieldalton","no","mono","no","18","no","white","no","yes","768","legacy","24","11","/Users/danieldalton/subject-1.csv","legacy","7 1 8 5 6 2","Jazzy James","3.1.9","2","y","0","right","right","left","NA","right","1132","50265","3969","NA","1132","2","legacy","6","1024","2","48000","-16","Sternburgtask","1","odd","1","284069","133384","285121","287350","277708","2010","129413","286137","52291","289366","1978","NA","285110","289366","290500","New experiment","27","37330","37","yes","1024"
"73.6842105263","73.6842105263","1006.71052632","1006.71052632","black","no","experiment","legacy","legacy","legacy","0","uniform","1","undefined","1","left","37","0","37","37","37","0","0","37","0","37","0","0","37","37","37","Tue Oct  2 19:10:41 2018","The main experiment item","yes","NA","Sternburg Task.osexp","/Users/danieldalton","no","mono","no","18","no","white","no","yes","768","legacy","25","11","/Users/danieldalton/subject-1.csv","legacy","6 7 8 5","Jazzy James","3.1.9","3","y","0","left","right","left","NA","left","925","50265","3969","NA","925","2","legacy","4","1024","2","48000","-16","Sternburgtask","1","odd","8","284069","133384","291569","293812","290515","2010","129413","292591","52291","295833","1978","NA","291558","295833","296760","New experiment","28","38255","38","yes","1024"
"74.358974359","74.358974359","998.948717949","998.948717949","black","no","experiment","legacy","legacy","legacy","0","uniform","1","undefined","1","left","38","0","38","38","38","0","0","38","0","38","0","0","38","38","38","Tue Oct  2 19:10:41 2018","The main experiment item","yes","NA","Sternburg Task.osexp","/Users/danieldalton","no","mono","no","18","no","white","no","yes","768","legacy","26","11","/Users/danieldalton/subject-1.csv","legacy","4 1 8 7 5","Jazzy James","3.1.9","3","y","0","left","right","left","NA","left","704","50265","3969","NA","704","2","legacy","5","1024","2","48000","-16","Sternburgtask","1","odd","8","296775","133384","297829","300061","290515","2010","129413","298843","52291","302078","1978","NA","297818","302079","302786","New experiment","29","38959","39","yes","1024"
"75","75","997.725","997.725","black","no","experiment","legacy","legacy","legacy","0","uniform","1","undefined","1","right","39","0","39","39","39","0","0","39","0","39","0","0","39","39","39","Tue Oct  2 19:10:41 2018","The main experiment item","yes","NA","Sternburg Task.osexp","/Users/danieldalton","no","mono","no","18","no","white","no","yes","768","legacy","27","11","/Users/danieldalton/subject-1.csv","legacy","2 6 4 3 9","Jazzy James","3.1.9","0","n","0","right","right","left","NA","right","950","50265","3969","NA","950","2","legacy","5","1024","2","48000","-16","Sternburgtask","1","odd","1","302799","133384","303854","306089","290515","2010","129413","304868","52291","308104","1978","NA","303843","308104","309056","New experiment","30","39909","40","yes","1024"
"73.1707317073","73.1707317073","989.414634146","989.414634146","black","no","experiment","legacy","legacy","legacy","0","uniform","0","undefined","0","right","40","0","40","40","40","0","0","40","0","40","0","0","40","40","40","Tue Oct  2 19:10:41 2018","The main experiment item","yes","NA","Sternburg Task.osexp","/Users/danieldalton","no","mono","no","18","no","white","no","yes","768","legacy","28","11","/Users/danieldalton/subject-1.csv","legacy","7 1 5 6 3","Jazzy James","3.1.9","0","n","0","left","right","left","NA","left","657","50265","3969","NA","657","2","legacy","5","1024","2","48000","-16","Sternburgtask","1","odd","8","309071","133384","310125","312359","290515","2010","129413","311140","52291","314374","1978","NA","310114","314374","315033","New experiment","30","40566","41","yes","1024"
"73.8095238095","73.8095238095","988.214285714","988.214285714","black","no","experiment","legacy","legacy","legacy","0","uniform","1","undefined","1","right","41","0","41","41","41","0","0","41","0","41","0","0","41","41","41","Tue Oct  2 19:10:41 2018","The main experiment item","yes","NA","Sternburg Task.osexp","/Users/danieldalton","no","mono","no","18","no","white","no","yes","768","legacy","29","11","/Users/danieldalton/subject-1.csv","legacy","1 6 4 3 9 7","Jazzy James","3.1.9","0","n","0","right","right","left","NA","right","939","50265","3969","NA","939","2","legacy","6","1024","2","48000","-16","Sternburgtask","1","odd","8","309071","133384","316107","318341","315048","2010","129413","317123","52291","320364","1978","NA","316096","320364","321305","New experiment","31","41505","42","yes","1024"
"72.0930232558","72.0930232558","991.837209302","991.837209302","black","no","experiment","legacy","legacy","legacy","0","uniform","0","undefined","0","right","42","0","42","42","42","0","0","42","0","42","0","0","42","42","42","Tue Oct  2 19:10:41 2018","The main experiment item","yes","NA","Sternburg Task.osexp","/Users/danieldalton","no","mono","no","18","no","white","no","yes","768","legacy","30","11","/Users/danieldalton/subject-1.csv","legacy","7 4 2 8 1 9","Jazzy James","3.1.9","0","n","0","left","right","left","NA","left","1144","50265","3969","NA","1144","2","legacy","6","1024","2","48000","-16","Sternburgtask","1","odd","5","321320","133384","322375","324609","315048","2010","129413","323392","52291","326624","1978","NA","322364","326624","327771","New experiment","31","42649","43","yes","1024"
"72.7272727273","72.7272727273","998.613636364","998.613636364","black","no","experiment","legacy","legacy","legacy","0","uniform","1","undefined","1","left","43","0","43","43","43","0","0","43","0","43","0","0","43","43","43","Tue Oct  2 19:10:41 2018","The main experiment item","yes","NA","Sternburg Task.osexp","/Users/danieldalton","no","mono","no","18","no","white","no","yes","768","legacy","31","11","/Users/danieldalton/subject-1.csv","legacy","4 3 2 5 8","Jazzy James","3.1.9","2","y","0","left","right","left","NA","left","1290","50265","3969","NA","1290","2","legacy","5","1024","2","48000","-16","Sternburgtask","1","odd","3","321320","133384","328839","331076","327785","2010","129413","329856","52291","333093","1978","NA","328828","333093","334386","New experiment","32","43939","44","yes","1024"
"73.3333333333","73.3333333333","994.622222222","994.622222222","black","no","experiment","legacy","legacy","legacy","0","uniform","1","undefined","1","left","44","0","44","44","44","0","0","44","0","44","0","0","44","44","44","Tue Oct  2 19:10:41 2018","The main experiment item","yes","NA","Sternburg Task.osexp","/Users/danieldalton","no","mono","no","18","no","white","no","yes","768","legacy","32","11","/Users/danieldalton/subject-1.csv","legacy","9 5 8 1","Jazzy James","3.1.9","2","y","0","left","right","left","NA","left","819","50265","3969","NA","819","2","legacy","4","1024","2","48000","-16","Sternburgtask","1","odd","5","334405","133384","335463","337695","327785","2010","129413","336478","52291","339708","1978","NA","335452","339708","340530","New experiment","33","44758","45","yes","1024"
"71.7391304348","71.7391304348","996.130434783","996.130434783","black","no","experiment","legacy","legacy","legacy","0","uniform","0","undefined","0","right","45","0","45","45","45","0","0","45","0","45","0","0","45","45","45","Tue Oct  2 19:10:41 2018","The main experiment item","yes","NA","Sternburg Task.osexp","/Users/danieldalton","no","mono","no","18","no","white","no","yes","768","legacy","33","11","/Users/danieldalton/subject-1.csv","legacy","1 4 9 3","Jazzy James","3.1.9","0","n","0","left","right","left","NA","left","1064","50265","3969","NA","1064","2","legacy","4","1024","2","48000","-16","Sternburgtask","1","odd","5","340546","133384","341605","343841","327785","2010","129413","342619","52291","345853","1978","NA","341594","345853","346920","New experiment","33","45822","46","yes","1024"
"70.2127659574","70.2127659574","995.787234043","995.787234043","black","no","experiment","legacy","legacy","legacy","0","uniform","0","undefined","0","left","46","0","46","46","46","0","0","46","0","46","0","0","46","46","46","Tue Oct  2 19:10:41 2018","The main experiment item","yes","NA","Sternburg Task.osexp","/Users/danieldalton","no","mono","no","18","no","white","no","yes","768","legacy","34","11","/Users/danieldalton/subject-1.csv","legacy","8 5 3 7 4 6","Jazzy James","3.1.9","6","y","0","right","right","left","NA","right","980","50265","3969","NA","980","2","legacy","6","1024","2","48000","-16","Sternburgtask","1","odd","6","340546","133384","347987","350221","346934","2010","129413","349003","52291","352235","1978","NA","347975","352235","353218","New experiment","33","46802","47","yes","1024"
"70.8333333333","70.8333333333","992.291666667","992.291666667","black","no","experiment","legacy","legacy","legacy","0","uniform","1","undefined","1","right","47","0","47","47","47","0","0","47","0","47","0","0","47","47","47","Tue Oct  2 19:10:41 2018","The main experiment item","yes","NA","Sternburg Task.osexp","/Users/danieldalton","no","mono","no","18","no","white","no","yes","768","legacy","35","11","/Users/danieldalton/subject-1.csv","legacy","5 2","Jazzy James","3.1.9","0","n","0","right","right","left","NA","right","828","50265","3969","NA","828","2","legacy","2","1024","2","48000","-16","Sternburgtask","1","odd","7","340546","133384","354287","356525","353232","2010","129413","355306","52291","358540","1978","NA","354275","358540","359371","New experiment","34","47630","48","yes","1024"
"69.387755102","69.387755102","984.448979592","984.448979592","black","no","experiment","legacy","legacy","legacy","0","uniform","0","undefined","0","right","48","0","48","48","48","0","0","48","0","48","0","0","48","48","48","Tue Oct  2 19:10:41 2018","The main experiment item","yes","NA","Sternburg Task.osexp","/Users/danieldalton","no","mono","no","18","no","white","no","yes","768","legacy","36","11","/Users/danieldalton/subject-1.csv","legacy","6 9 7 3 8 2","Jazzy James","3.1.9","0","n","0","left","right","left","NA","left","608","50265","3969","NA","608","2","legacy","6","1024","2","48000","-16","Sternburgtask","1","odd","5","359385","133384","360440","362673","353232","2010","129413","361456","52291","364686","1978","NA","360429","364686","365296","New experiment","34","48238","49","yes","1024"
"70","70","989.7","989.7","black","no","experiment","legacy","legacy","legacy","0","uniform","1","undefined","1","left","49","0","49","49","49","0","0","49","0","49","0","0","49","49","49","Tue Oct  2 19:10:41 2018","The main experiment item","yes","NA","Sternburg Task.osexp","/Users/danieldalton","no","mono","no","18","no","white","no","yes","768","legacy","37","11","/Users/danieldalton/subject-1.csv","legacy","4 7 6 8 2 3","Jazzy James","3.1.9","6","y","0","left","right","left","NA","left","1247","50265","3969","NA","1247","2","legacy","6","1024","2","48000","-16","Sternburgtask","1","odd","3","359385","133384","366363","368591","365311","2010","129413","367374","52291","370603","1978","NA","366352","370604","371853","New experiment","35","49485","50","yes","1024"
"68.6274509804","68.6274509804","992.450980392","992.450980392","black","no","experiment","legacy","legacy","legacy","0","uniform","0","undefined","0","right","50","0","50","50","50","0","0","50","0","50","0","0","50","50","50","Tue Oct  2 19:10:41 2018","The main experiment item","yes","NA","Sternburg Task.osexp","/Users/danieldalton","no","mono","no","18","no","white","no","yes","768","legacy","38","11","/Users/danieldalton/subject-1.csv","legacy","9 5 3 2 8 6","Jazzy James","3.1.9","0","n","0","left","right","left","NA","left","1130","50265","3969","NA","1130","2","legacy","6","1024","2","48000","-16","Sternburgtask","1","odd","7","371868","133384","372925","375150","365311","2010","129413","373938","52291","377163","1978","NA","372913","377163","378296","New experiment","35","50615","51","yes","1024"
"69.2307692308","69.2307692308","991.692307692","991.692307692","black","no","experiment","legacy","legacy","legacy","0","uniform","1","undefined","1","left","51","0","51","51","51","0","0","51","0","51","0","0","51","51","51","Tue Oct  2 19:10:41 2018","The main experiment item","yes","NA","Sternburg Task.osexp","/Users/danieldalton","no","mono","no","18","no","white","no","yes","768","legacy","39","11","/Users/danieldalton/subject-1.csv","legacy","9 6 2 4 1","Jazzy James","3.1.9","4","y","0","left","right","left","NA","left","953","50265","3969","NA","953","2","legacy","5","1024","2","48000","-16","Sternburgtask","1","odd","4","371868","133384","379363","381594","378311","2010","129413","380377","52291","383611","1978","NA","379352","383611","384566","New experiment","36","51568","52","yes","1024"
"69.8113207547","69.8113207547","999.79245283","999.79245283","black","no","experiment","legacy","legacy","legacy","0","uniform","1","undefined","1","right","52","0","52","52","52","0","0","52","0","52","0","0","52","52","52","Tue Oct  2 19:10:41 2018","The main experiment item","yes","NA","Sternburg Task.osexp","/Users/danieldalton","no","mono","no","18","no","white","no","yes","768","legacy","40","11","/Users/danieldalton/subject-1.csv","legacy","1","Jazzy James","3.1.9","0","n","0","right","right","left","NA","right","1421","50265","3969","NA","1421","2","legacy","1","1024","2","48000","-16","Sternburgtask","1","odd","7","384580","133384","385634","387869","378311","2010","129413","386649","52291","389880","1978","NA","385623","389880","391303","New experiment","37","52989","53","yes","1024"
"70.3703703704","70.3703703704","1000.03703704","1000.03703704","black","no","experiment","legacy","legacy","legacy","0","uniform","1","undefined","1","left","53","0","53","53","53","0","0","53","0","53","0","0","53","53","53","Tue Oct  2 19:10:41 2018","The main experiment item","yes","NA","Sternburg Task.osexp","/Users/danieldalton","no","mono","no","18","no","white","no","yes","768","legacy","41","11","/Users/danieldalton/subject-1.csv","legacy","8 9 5 7 1 6","Jazzy James","3.1.9","4","y","0","left","right","left","NA","left","1013","50265","3969","NA","1013","2","legacy","6","1024","2","48000","-16","Sternburgtask","1","odd","7","391317","133384","392372","394600","378311","2010","129413","393383","52291","396613","1978","NA","392360","396613","397629","New experiment","38","54002","54","yes","1024"
"70.9090909091","70.9090909091","1007.23636364","1007.23636364","black","no","experiment","legacy","legacy","legacy","0","uniform","1","undefined","1","right","54","0","54","54","54","0","0","54","0","54","0","0","54","54","54","Tue Oct  2 19:10:41 2018","The main experiment item","yes","NA","Sternburg Task.osexp","/Users/danieldalton","no","mono","no","18","no","white","no","yes","768","legacy","42","11","/Users/danieldalton/subject-1.csv","legacy","9","Jazzy James","3.1.9","0","n","0","right","right","left","NA","right","1396","50265","3969","NA","1396","2","legacy","1","1024","2","48000","-16","Sternburgtask","1","odd","6","397644","133384","398696","400931","378311","2010","129413","399710","52291","402944","1978","NA","398684","402944","404343","New experiment","39","55398","55","yes","1024"
"71.4285714286","71.4285714286","1014.375","1014.375","black","no","experiment","legacy","legacy","legacy","0","uniform","1","undefined","1","left","55","0","55","55","55","0","0","55","0","55","0","0","55","55","55","Tue Oct  2 19:10:41 2018","The main experiment item","yes","NA","Sternburg Task.osexp","/Users/danieldalton","no","mono","no","18","no","white","no","yes","768","legacy","43","11","/Users/danieldalton/subject-1.csv","legacy","7 6","Jazzy James","3.1.9","2","y","0","left","right","left","NA","left","1407","50265","3969","NA","1407","2","legacy","2","1024","2","48000","-16","Sternburgtask","1","odd","6","404358","133384","405410","407637","378311","2010","129413","406421","52291","409660","1978","NA","405399","409660","411069","New experiment","40","56805","56","yes","1024"
"70.1754385965","70.1754385965","1011.92982456","1011.92982456","black","no","experiment","legacy","legacy","legacy","0","uniform","0","undefined","0","right","56","0","56","56","56","0","0","56","0","56","0","0","56","56","56","Tue Oct  2 19:10:41 2018","The main experiment item","yes","NA","Sternburg Task.osexp","/Users/danieldalton","no","mono","no","18","no","white","no","yes","768","legacy","44","11","/Users/danieldalton/subject-1.csv","legacy","3 9 8 1 6 4","Jazzy James","3.1.9","0","n","0","left","right","left","NA","left","875","50265","3969","NA","875","2","legacy","6","1024","2","48000","-16","Sternburgtask","1","odd","7","411083","133384","412147","414380","378311","2010","129413","413161","52291","416394","1978","NA","412134","416394","417272","New experiment","40","57680","57","yes","1024"
"70.6896551724","70.6896551724","1013.06896552","1013.06896552","black","no","experiment","legacy","legacy","legacy","0","uniform","1","undefined","1","right","57","0","57","57","57","0","0","57","0","57","0","0","57","57","57","Tue Oct  2 19:10:41 2018","The main experiment item","yes","NA","Sternburg Task.osexp","/Users/danieldalton","no","mono","no","18","no","white","no","yes","768","legacy","45","11","/Users/danieldalton/subject-1.csv","legacy","7 9 1 6","Jazzy James","3.1.9","0","n","0","right","right","left","NA","right","1078","50265","3969","NA","1078","2","legacy","4","1024","2","48000","-16","Sternburgtask","1","odd","4","411083","133384","418344","420579","417286","2010","129413","419361","52291","422593","1978","NA","418332","422593","423673","New experiment","41","58758","58","yes","1024"
"71.186440678","71.186440678","1015.01694915","1015.01694915","black","no","experiment","legacy","legacy","legacy","0","uniform","1","undefined","1","left","58","0","58","58","58","0","0","58","0","58","0","0","58","58","58","Tue Oct  2 19:10:41 2018","The main experiment item","yes","NA","Sternburg Task.osexp","/Users/danieldalton","no","mono","no","18","no","white","no","yes","768","legacy","46","11","/Users/danieldalton/subject-1.csv","legacy","8 5 1 3 9","Jazzy James","3.1.9","4","y","0","left","right","left","NA","left","1128","50265","3969","NA","1128","2","legacy","5","1024","2","48000","-16","Sternburgtask","1","odd","3","423687","133384","424740","426980","417286","2010","129413","425758","52291","428993","1978","NA","424729","428993","430124","New experiment","42","59886","59","yes","1024"
"70","70","1013.26666667","1013.26666667","black","no","experiment","legacy","legacy","legacy","0","uniform","0","undefined","0","right","59","0","59","59","59","0","0","59","0","59","0","0","59","59","59","Tue Oct  2 19:10:41 2018","The main experiment item","yes","NA","Sternburg Task.osexp","/Users/danieldalton","no","mono","no","18","no","white","no","yes","768","legacy","47","11","/Users/danieldalton/subject-1.csv","legacy","4 2 7 6 1 3","Jazzy James","3.1.9","0","n","0","left","right","left","NA","left","910","50265","3969","NA","910","2","legacy","6","1024","2","48000","-16","Sternburgtask","1","odd","8","430138","133384","431192","433424","417286","2010","129413","432208","52291","435443","1978","NA","431181","435443","436355","New experiment","42","60796","60","yes","1024"
"70.4918032787","70.4918032787","1013.90163934","1013.90163934","black","no","experiment","legacy","legacy","legacy","0","uniform","1","undefined","1","right","60","0","60","60","60","0","0","60","0","60","0","0","60","60","60","Tue Oct  2 19:10:41 2018","The main experiment item","yes","NA","Sternburg Task.osexp","/Users/danieldalton","no","mono","no","18","no","white","no","yes","768","legacy","48","11","/Users/danieldalton/subject-1.csv","legacy","7 9","Jazzy James","3.1.9","0","n","0","right","right","left","NA","right","1052","50265","3969","NA","1052","2","legacy","2","1024","2","48000","-16","Sternburgtask","1","odd","1","430138","133384","437421","439655","436369","2010","129413","438438","52291","441668","1978","NA","437410","441668","442722","New experiment","43","61848","61","yes","1024"
"70.9677419355","70.9677419355","1011.85483871","1011.85483871","black","no","experiment","legacy","legacy","legacy","0","uniform","1","undefined","1","right","61","0","61","61","61","0","0","61","0","61","0","0","61","61","61","Tue Oct  2 19:10:41 2018","The main experiment item","yes","NA","Sternburg Task.osexp","/Users/danieldalton","no","mono","no","18","no","white","no","yes","768","legacy","49","11","/Users/danieldalton/subject-1.csv","legacy","6 8 4","Jazzy James","3.1.9","0","n","0","right","right","left","NA","right","887","50265","3969","NA","887","2","legacy","3","1024","2","48000","-16","Sternburgtask","1","odd","1","442739","133384","443793","446029","436369","2010","129413","444812","52291","448042","1978","NA","443779","448043","448933","New experiment","44","62735","62","yes","1024"
"71.4285714286","71.4285714286","1010.6984127","1010.6984127","black","no","experiment","legacy","legacy","legacy","0","uniform","1","undefined","1","right","62","0","62","62","62","0","0","62","0","62","0","0","62","62","62","Tue Oct  2 19:10:41 2018","The main experiment item","yes","NA","Sternburg Task.osexp","/Users/danieldalton","no","mono","no","18","no","white","no","yes","768","legacy","50","11","/Users/danieldalton/subject-1.csv","legacy","4 8 1 2","Jazzy James","3.1.9","0","n","0","right","right","left","NA","right","939","50265","3969","NA","939","2","legacy","4","1024","2","48000","-16","Sternburgtask","1","odd","7","448947","133384","450001","452235","436369","2010","129413","451013","52291","454250","1978","NA","449990","454250","455191","New experiment","45","63674","63","yes","1024"
"70.3125","70.3125","1007.9375","1007.9375","black","no","experiment","legacy","legacy","legacy","0","uniform","0","undefined","0","left","63","0","63","63","63","0","0","63","0","63","0","0","63","63","63","Tue Oct  2 19:10:41 2018","The main experiment item","yes","NA","Sternburg Task.osexp","/Users/danieldalton","no","mono","no","18","no","white","no","yes","768","legacy","51","11","/Users/danieldalton/subject-1.csv","legacy","5 2 9 6 1 7","Jazzy James","3.1.9","3","y","0","right","right","left","NA","right","834","50265","3969","NA","834","2","legacy","6","1024","2","48000","-16","Sternburgtask","1","odd","9","455210","133384","456262","458488","436369","2010","129413","457275","52291","460508","1978","NA","456251","460508","461345","New experiment","45","64508","64","yes","1024"
"70.7692307692","70.7692307692","1000.29230769","1000.29230769","black","no","experiment","legacy","legacy","legacy","0","uniform","1","undefined","1","left","64","0","64","64","64","0","0","64","0","64","0","0","64","64","64","Tue Oct  2 19:10:41 2018","The main experiment item","yes","NA","Sternburg Task.osexp","/Users/danieldalton","no","mono","no","18","no","white","no","yes","768","legacy","52","11","/Users/danieldalton/subject-1.csv","legacy","3 4","Jazzy James","3.1.9","1","y","0","left","right","left","NA","left","511","50265","3969","NA","511","2","legacy","2","1024","2","48000","-16","Sternburgtask","1","odd","3","455210","133384","462446","464678","461391","2010","129413","463462","52291","466701","1978","NA","462435","466701","467215","New experiment","46","65019","65","yes","1024"
"69.696969697","69.696969697","992.954545455","992.954545455","black","no","experiment","legacy","legacy","legacy","0","uniform","0","undefined","0","right","65","0","65","65","65","0","0","65","0","65","0","0","65","65","65","Tue Oct  2 19:10:41 2018","The main experiment item","yes","NA","Sternburg Task.osexp","/Users/danieldalton","no","mono","no","18","no","white","no","yes","768","legacy","53","11","/Users/danieldalton/subject-1.csv","legacy","2 8 7 9 5 3","Jazzy James","3.1.9","0","n","0","left","right","left","NA","left","516","50265","3969","NA","516","2","legacy","6","1024","2","48000","-16","Sternburgtask","1","odd","6","467228","133384","468281","470514","461391","2010","129413","469296","52291","472527","1978","NA","468270","472527","473046","New experiment","46","65535","66","yes","1024"
"70.1492537313","70.1492537313","990.059701493","990.059701493","black","no","experiment","legacy","legacy","legacy","0","uniform","1","undefined","1","left","66","0","66","66","66","0","0","66","0","66","0","0","66","66","66","Tue Oct  2 19:10:41 2018","The main experiment item","yes","NA","Sternburg Task.osexp","/Users/danieldalton","no","mono","no","18","no","white","no","yes","768","legacy","54","11","/Users/danieldalton/subject-1.csv","legacy","5 2 6","Jazzy James","3.1.9","2","y","0","left","right","left","NA","left","799","50265","3969","NA","799","2","legacy","3","1024","2","48000","-16","Sternburgtask","1","odd","2","467228","133384","474113","476353","473060","2010","129413","475133","52291","478367","1978","NA","474102","478367","479169","New experiment","47","66334","67","yes","1024"
"70.5882352941","70.5882352941","989.941176471","989.941176471","black","no","experiment","legacy","legacy","legacy","0","uniform","1","undefined","1","right","67","0","67","67","67","0","0","67","0","67","0","0","67","67","67","Tue Oct  2 19:10:41 2018","The main experiment item","yes","NA","Sternburg Task.osexp","/Users/danieldalton","no","mono","no","18","no","white","no","yes","768","legacy","55","11","/Users/danieldalton/subject-1.csv","legacy","8 9","Jazzy James","3.1.9","0","n","0","right","right","left","NA","right","982","50265","3969","NA","982","2","legacy","2","1024","2","48000","-16","Sternburgtask","1","odd","5","479182","133384","480234","482465","473060","2010","129413","481248","52291","484482","1978","NA","480222","484482","485467","New experiment","48","67316","68","yes","1024"
"71.0144927536","71.0144927536","988.884057971","988.884057971","black","no","experiment","legacy","legacy","legacy","0","uniform","1","undefined","1","right","68","0","68","68","68","0","0","68","0","68","0","0","68","68","68","Tue Oct  2 19:10:41 2018","The main experiment item","yes","NA","Sternburg Task.osexp","/Users/danieldalton","no","mono","no","18","no","white","no","yes","768","legacy","56","11","/Users/danieldalton/subject-1.csv","legacy","6 9 4 5 3 2","Jazzy James","3.1.9","0","n","0","right","right","left","NA","right","917","50265","3969","NA","917","2","legacy","6","1024","2","48000","-16","Sternburgtask","1","odd","8","485482","133384","486535","488779","473060","2010","129413","487559","52291","490792","1978","NA","486523","490792","491712","New experiment","49","68233","69","yes","1024"
"71.4285714286","71.4285714286","983.671428571","983.671428571","black","no","experiment","legacy","legacy","legacy","0","uniform","1","undefined","1","left","69","0","69","69","69","0","0","69","0","69","0","0","69","69","69","Tue Oct  2 19:10:41 2018","The main experiment item","yes","NA","Sternburg Task.osexp","/Users/danieldalton","no","mono","no","18","no","white","no","yes","768","legacy","57","11","/Users/danieldalton/subject-1.csv","legacy","4 6 5 8","Jazzy James","3.1.9","1","y","0","left","right","left","NA","left","624","50265","3969","NA","624","2","legacy","4","1024","2","48000","-16","Sternburgtask","1","odd","4","491728","133384","492780","495013","473060","2010","129413","493795","52291","497025","1978","NA","492769","497025","497652","New experiment","50","68857","70","yes","1024"
"71.8309859155","71.8309859155","980.478873239","980.478873239","black","no","experiment","legacy","legacy","legacy","0","uniform","1","undefined","1","left","70","0","70","70","70","0","0","70","0","70","0","0","70","70","70","Tue Oct  2 19:10:41 2018","The main experiment item","yes","NA","Sternburg Task.osexp","/Users/danieldalton","no","mono","no","18","no","white","no","yes","768","legacy","58","11","/Users/danieldalton/subject-1.csv","legacy","9 8 4","Jazzy James","3.1.9","1","y","0","left","right","left","NA","left","757","50265","3969","NA","757","2","legacy","3","1024","2","48000","-16","Sternburgtask","1","odd","9","497669","133384","498720","500956","473060","2010","129413","499737","52291","502971","1978","NA","498709","502971","503731","New experiment","51","69614","71","yes","1024"
"72.2222222222","72.2222222222","973.916666667","973.916666667","black","no","experiment","legacy","legacy","legacy","0","uniform","1","undefined","1","left","71","0","71","71","71","0","0","71","0","71","0","0","71","71","71","Tue Oct  2 19:10:41 2018","The main experiment item","yes","NA","Sternburg Task.osexp","/Users/danieldalton","no","mono","no","18","no","white","no","yes","768","legacy","59","11","/Users/danieldalton/subject-1.csv","legacy","3 5 4 7","Jazzy James","3.1.9","1","y","0","left","right","left","NA","left","508","50265","3969","NA","508","2","legacy","4","1024","2","48000","-16","Sternburgtask","1","odd","3","503744","133384","504799","507040","473060","2010","129413","505821","52291","509053","1978","NA","504788","509053","509563","New experiment","52","70122","72","yes","1024"
"71.2328767123","71.2328767123","967.739726027","967.739726027","black","no","experiment","legacy","legacy","legacy","0","uniform","0","undefined","0","right","72","0","72","72","72","0","0","72","0","72","0","0","72","72","72","Tue Oct  2 19:10:41 2018","The main experiment item","yes","NA","Sternburg Task.osexp","/Users/danieldalton","no","mono","no","18","no","white","no","yes","768","legacy","60","11","/Users/danieldalton/subject-1.csv","legacy","7 3 2 8","Jazzy James","3.1.9","0","n","0","left","right","left","NA","left","523","50265","3969","NA","523","2","legacy","4","1024","2","48000","-16","Sternburgtask","1","odd","4","509577","133384","510632","512865","473060","2010","129413","511647","52291","514880","1978","NA","510620","514880","515406","New experiment","52","70645","73","yes","1024"
"71.6216216216","71.6216216216","966.756756757","966.756756757","black","no","experiment","legacy","legacy","legacy","0","uniform","1","undefined","1","right","73","0","73","73","73","0","0","73","0","73","0","0","73","73","73","Tue Oct  2 19:10:41 2018","The main experiment item","yes","NA","Sternburg Task.osexp","/Users/danieldalton","no","mono","no","18","no","white","no","yes","768","legacy","61","11","/Users/danieldalton/subject-1.csv","legacy","7 1","Jazzy James","3.1.9","0","n","0","right","right","left","NA","right","895","50265","3969","NA","895","2","legacy","2","1024","2","48000","-16","Sternburgtask","1","odd","8","509577","133384","516472","518711","515420","2010","129413","517493","52291","520724","1978","NA","516461","520724","521622","New experiment","53","71540","74","yes","1024"
"72","72","966.093333333","966.093333333","black","no","experiment","legacy","legacy","legacy","0","uniform","1","undefined","1","right","74","0","74","74","74","0","0","74","0","74","0","0","74","74","74","Tue Oct  2 19:10:41 2018","The main experiment item","yes","NA","Sternburg Task.osexp","/Users/danieldalton","no","mono","no","18","no","white","no","yes","768","legacy","62","11","/Users/danieldalton/subject-1.csv","legacy","9 8 2 7 4","Jazzy James","3.1.9","0","n","0","right","right","left","NA","right","917","50265","3969","NA","917","2","legacy","5","1024","2","48000","-16","Sternburgtask","1","odd","5","521638","133384","522690","524929","515420","2010","129413","523709","52291","526941","1978","NA","522678","526942","527862","New experiment","54","72457","75","yes","1024"
"72.3684210526","72.3684210526","964.763157895","964.763157895","black","no","experiment","legacy","legacy","legacy","0","uniform","1","undefined","1","right","75","0","75","75","75","0","0","75","0","75","0","0","75","75","75","Tue Oct  2 19:10:41 2018","The main experiment item","yes","NA","Sternburg Task.osexp","/Users/danieldalton","no","mono","no","18","no","white","no","yes","768","legacy","63","11","/Users/danieldalton/subject-1.csv","legacy","3 4 2","Jazzy James","3.1.9","0","n","0","right","right","left","NA","right","865","50265","3969","NA","865","2","legacy","3","1024","2","48000","-16","Sternburgtask","1","odd","5","527876","133384","528930","531164","515420","2010","129413","529947","52291","533176","1978","NA","528919","533177","534044","New experiment","55","73322","76","yes","1024"
"71.4285714286","71.4285714286","963.857142857","963.857142857","black","no","experiment","legacy","legacy","legacy","0","uniform","0","undefined","0","left","76","0","76","76","76","0","0","76","0","76","0","0","76","76","76","Tue Oct  2 19:10:41 2018","The main experiment item","yes","NA","Sternburg Task.osexp","/Users/danieldalton","no","mono","no","18","no","white","no","yes","768","legacy","64","11","/Users/danieldalton/subject-1.csv","legacy","6 2","Jazzy James","3.1.9","1","y","0","right","right","left","NA","right","895","50265","3969","NA","895","2","legacy","2","1024","2","48000","-16","Sternburgtask","1","odd","6","534058","133384","535113","537351","515420","2010","129413","536128","52291","539365","1978","NA","535102","539366","540264","New experiment","55","74217","77","yes","1024"
"71.7948717949","71.7948717949","961","961","black","no","experiment","legacy","legacy","legacy","0","uniform","1","undefined","1","left","77","0","77","77","77","0","0","77","0","77","0","0","77","77","77","Tue Oct  2 19:10:41 2018","The main experiment item","yes","NA","Sternburg Task.osexp","/Users/danieldalton","no","mono","no","18","no","white","no","yes","768","legacy","65","11","/Users/danieldalton/subject-1.csv","legacy","2 3 7 4","Jazzy James","3.1.9","1","y","0","left","right","left","NA","left","741","50265","3969","NA","741","2","legacy","4","1024","2","48000","-16","Sternburgtask","1","odd","2","534058","133384","541330","543568","540278","2010","129413","542344","52291","545586","1978","NA","541319","545586","546330","New experiment","56","74958","78","yes","1024"
"72.1518987342","72.1518987342","961.113924051","961.113924051","black","no","experiment","legacy","legacy","legacy","0","uniform","1","undefined","1","right","78","0","78","78","78","0","0","78","0","78","0","0","78","78","78","Tue Oct  2 19:10:41 2018","The main experiment item","yes","NA","Sternburg Task.osexp","/Users/danieldalton","no","mono","no","18","no","white","no","yes","768","legacy","66","11","/Users/danieldalton/subject-1.csv","legacy","6 9 4 5 2","Jazzy James","3.1.9","0","n","0","right","right","left","NA","right","970","50265","3969","NA","970","2","legacy","5","1024","2","48000","-16","Sternburgtask","1","odd","1","546343","133384","547399","549630","540278","2010","129413","548413","52291","551649","1978","NA","547388","551649","552622","New experiment","57","75928","79","yes","1024"
"72.5","72.5","962.0375","962.0375","black","no","experiment","legacy","legacy","legacy","0","uniform","1","undefined","1","left","79","0","79","79","79","0","0","79","0","79","0","0","79","79","79","Tue Oct  2 19:10:41 2018","The main experiment item","yes","NA","Sternburg Task.osexp","/Users/danieldalton","no","mono","no","18","no","white","no","yes","768","legacy","67","11","/Users/danieldalton/subject-1.csv","legacy","7 8 4 6 9 5","Jazzy James","3.1.9","4","y","0","left","right","left","NA","left","1035","50265","3969","NA","1035","2","legacy","6","1024","2","48000","-16","Sternburgtask","1","odd","6","552636","133384","553690","555928","540278","2010","129413","554709","52291","557942","1978","NA","553679","557942","558980","New experiment","58","76963","80","yes","1024"
"72.8395061728","72.8395061728","960.308641975","960.308641975","black","no","experiment","legacy","legacy","legacy","0","uniform","1","undefined","1","right","80","0","80","80","80","0","0","80","0","80","0","0","80","80","80","Tue Oct  2 19:10:41 2018","The main experiment item","yes","NA","Sternburg Task.osexp","/Users/danieldalton","no","mono","no","18","no","white","no","yes","768","legacy","68","11","/Users/danieldalton/subject-1.csv","legacy","8 4 3 9","Jazzy James","3.1.9","0","n","0","right","right","left","NA","right","822","50265","3969","NA","822","2","legacy","4","1024","2","48000","-16","Sternburgtask","1","odd","5","558994","133384","560047","562279","540278","2010","129413","561062","52291","564292","1978","NA","560034","564293","565117","New experiment","59","77785","81","yes","1024"
"73.1707317073","73.1707317073","964.390243902","964.390243902","black","no","experiment","legacy","legacy","legacy","0","uniform","1","undefined","1","left","81","0","81","81","81","0","0","81","0","81","0","0","81","81","81","Tue Oct  2 19:10:41 2018","The main experiment item","yes","NA","Sternburg Task.osexp","/Users/danieldalton","no","mono","no","18","no","white","no","yes","768","legacy","69","11","/Users/danieldalton/subject-1.csv","legacy","8 1 6","Jazzy James","3.1.9","3","y","0","left","right","left","NA","left","1295","50265","3969","NA","1295","2","legacy","3","1024","2","48000","-16","Sternburgtask","1","odd","6","565130","133384","566184","568422","540278","2010","129413","567203","52291","570435","1978","NA","566173","570435","571733","New experiment","60","79080","82","yes","1024"
"72.2891566265","72.2891566265","961.21686747","961.21686747","black","no","experiment","legacy","legacy","legacy","0","uniform","0","undefined","0","right","82","0","82","82","82","0","0","82","0","82","0","0","82","82","82","Tue Oct  2 19:10:41 2018","The main experiment item","yes","NA","Sternburg Task.osexp","/Users/danieldalton","no","mono","no","18","no","white","no","yes","768","legacy","70","11","/Users/danieldalton/subject-1.csv","legacy","3 4 9 6 7 8","Jazzy James","3.1.9","0","n","0","left","right","left","NA","left","701","50265","3969","NA","701","2","legacy","6","1024","2","48000","-16","Sternburgtask","1","odd","2","571747","133384","572801","575040","540278","2010","129413","573818","52291","577051","1978","NA","572790","577051","577756","New experiment","60","79781","83","yes","1024"
"71.4285714286","71.4285714286","961.94047619","961.94047619","black","no","experiment","legacy","legacy","legacy","0","uniform","0","undefined","0","right","83","0","83","83","83","0","0","83","0","83","0","0","83","83","83","Tue Oct  2 19:10:41 2018","The main experiment item","yes","NA","Sternburg Task.osexp","/Users/danieldalton","no","mono","no","18","no","white","no","yes","768","legacy","71","11","/Users/danieldalton/subject-1.csv","legacy","1 7 5 2 9","Jazzy James","3.1.9","0","n","0","left","right","left","NA","left","1022","50265","3969","NA","1022","2","legacy","5","1024","2","48000","-16","Sternburgtask","1","odd","3","571747","133384","578825","581064","577770","2010","129413","579846","52291","583085","1978","NA","578814","583085","584110","New experiment","60","80803","84","yes","1024"
"70.5882352941","70.5882352941","960.317647059","960.317647059","black","no","experiment","legacy","legacy","legacy","0","uniform","0","undefined","0","left","84","0","84","84","84","0","0","84","0","84","0","0","84","84","84","Tue Oct  2 19:10:41 2018","The main experiment item","yes","NA","Sternburg Task.osexp","/Users/danieldalton","no","mono","no","18","no","white","no","yes","768","legacy","72","11","/Users/danieldalton/subject-1.csv","legacy","7 4 2 6 3 5","Jazzy James","3.1.9","6","y","0","right","right","left","NA","right","824","50265","3969","NA","824","2","legacy","6","1024","2","48000","-16","Sternburgtask","1","odd","5","571747","133384","585180","587415","584124","2010","129413","586197","52291","589429","1978","NA","585167","589429","590255","New experiment","60","81627","85","yes","1024"
"70.9302325581","70.9302325581","959.779069767","959.779069767","black","no","experiment","legacy","legacy","legacy","0","uniform","1","undefined","1","right","85","0","85","85","85","0","0","85","0","85","0","0","85","85","85","Tue Oct  2 19:10:41 2018","The main experiment item","yes","NA","Sternburg Task.osexp","/Users/danieldalton","no","mono","no","18","no","white","no","yes","768","legacy","73","11","/Users/danieldalton/subject-1.csv","legacy","1 4 3 6 5","Jazzy James","3.1.9","0","n","0","right","right","left","NA","right","914","50265","3969","NA","914","2","legacy","5","1024","2","48000","-16","Sternburgtask","1","odd","8","571747","133384","591323","593557","590270","2010","129413","592338","52291","595570","1978","NA","591312","595570","596487","New experiment","61","82541","86","yes","1024"
"71.2643678161","71.2643678161","956.931034483","956.931034483","black","no","experiment","legacy","legacy","legacy","0","uniform","1","undefined","1","left","86","0","86","86","86","0","0","86","0","86","0","0","86","86","86","Tue Oct  2 19:10:41 2018","The main experiment item","yes","NA","Sternburg Task.osexp","/Users/danieldalton","no","mono","no","18","no","white","no","yes","768","legacy","74","11","/Users/danieldalton/subject-1.csv","legacy","6 8 9 3 4 9","Jazzy James","3.1.9","5","y","0","left","right","left","NA","left","712","50265","3969","NA","712","2","legacy","6","1024","2","48000","-16","Sternburgtask","1","odd","4","596501","133384","597551","599788","590270","2010","129413","598566","52291","601804","1978","NA","597540","601804","602519","New experiment","62","83253","87","yes","1024"
"71.5909090909","71.5909090909","956.420454545","956.420454545","black","no","experiment","legacy","legacy","legacy","0","uniform","1","undefined","1","left","87","0","87","87","87","0","0","87","0","87","0","0","87","87","87","Tue Oct  2 19:10:41 2018","The main experiment item","yes","NA","Sternburg Task.osexp","/Users/danieldalton","no","mono","no","18","no","white","no","yes","768","legacy","75","11","/Users/danieldalton/subject-1.csv","legacy","8 9 5 6 7","Jazzy James","3.1.9","1","y","0","left","right","left","NA","left","912","50265","3969","NA","912","2","legacy","5","1024","2","48000","-16","Sternburgtask","1","odd","8","602534","133384","603586","605819","590270","2010","129413","604601","52291","607832","1978","NA","603575","607832","608747","New experiment","63","84165","88","yes","1024"
"71.9101123596","71.9101123596","954.786516854","954.786516854","black","no","experiment","legacy","legacy","legacy","0","uniform","1","undefined","1","left","88","0","88","88","88","0","0","88","0","88","0","0","88","88","88","Tue Oct  2 19:10:41 2018","The main experiment item","yes","NA","Sternburg Task.osexp","/Users/danieldalton","no","mono","no","18","no","white","no","yes","768","legacy","76","11","/Users/danieldalton/subject-1.csv","legacy","2 4 6 9","Jazzy James","3.1.9","3","y","0","left","right","left","NA","left","811","50265","3969","NA","811","2","legacy","4","1024","2","48000","-16","Sternburgtask","1","odd","6","608761","133384","609815","612052","590270","2010","129413","610833","52291","614065","1978","NA","609803","614066","614880","New experiment","64","84976","89","yes","1024"
"71.1111111111","71.1111111111","951.811111111","951.811111111","black","no","experiment","legacy","legacy","legacy","0","uniform","0","undefined","0","right","89","0","89","89","89","0","0","89","0","89","0","0","89","89","89","Tue Oct  2 19:10:41 2018","The main experiment item","yes","NA","Sternburg Task.osexp","/Users/danieldalton","no","mono","no","18","no","white","no","yes","768","legacy","77","11","/Users/danieldalton/subject-1.csv","legacy","6 7 5 9","Jazzy James","3.1.9","0","n","0","left","right","left","NA","left","687","50265","3969","NA","687","2","legacy","4","1024","2","48000","-16","Sternburgtask","1","odd","2","614894","133384","615946","618183","590270","2010","129413","616965","52291","620196","1978","NA","615935","620196","620886","New experiment","64","85663","90","yes","1024"
"71.4285714286","71.4285714286","951.318681319","951.318681319","black","no","experiment","legacy","legacy","legacy","0","uniform","1","undefined","1","right","90","0","90","90","90","0","0","90","0","90","0","0","90","90","90","Tue Oct  2 19:10:41 2018","The main experiment item","yes","NA","Sternburg Task.osexp","/Users/danieldalton","no","mono","no","18","no","white","no","yes","768","legacy","78","11","/Users/danieldalton/subject-1.csv","legacy","6 3 1 7 9 8","Jazzy James","3.1.9","0","n","0","right","right","left","NA","right","907","50265","3969","NA","907","2","legacy","6","1024","2","48000","-16","Sternburgtask","1","odd","4","614894","133384","621956","624191","620901","2010","129413","622973","52291","626205","1978","NA","621945","626205","627115","New experiment","65","86570","91","yes","1024"
"71.7391304348","71.7391304348","952.304347826","952.304347826","black","no","experiment","legacy","legacy","legacy","0","uniform","1","undefined","1","right","91","0","91","91","91","0","0","91","0","91","0","0","91","91","91","Tue Oct  2 19:10:41 2018","The main experiment item","yes","NA","Sternburg Task.osexp","/Users/danieldalton","no","mono","no","18","no","white","no","yes","768","legacy","79","11","/Users/danieldalton/subject-1.csv","legacy","3 9 1","Jazzy James","3.1.9","0","n","0","right","right","left","NA","right","1042","50265","3969","NA","1042","2","legacy","3","1024","2","48000","-16","Sternburgtask","1","odd","7","627136","133384","628196","630430","620901","2010","129413","629213","52291","632444","1978","NA","628185","632444","633488","New experiment","66","87612","92","yes","1024"
"72.0430107527","72.0430107527","952.204301075","952.204301075","black","no","experiment","legacy","legacy","legacy","0","uniform","1","undefined","1","right","92","0","92","92","92","0","0","92","0","92","0","0","92","92","92","Tue Oct  2 19:10:41 2018","The main experiment item","yes","NA","Sternburg Task.osexp","/Users/danieldalton","no","mono","no","18","no","white","no","yes","768","legacy","80","11","/Users/danieldalton/subject-1.csv","legacy","6 2 9 3 8 4","Jazzy James","3.1.9","0","n","0","right","right","left","NA","right","943","50265","3969","NA","943","2","legacy","6","1024","2","48000","-16","Sternburgtask","1","odd","1","633503","133384","634559","636795","620901","2010","129413","635573","52291","638808","1978","NA","634548","638808","639754","New experiment","67","88555","93","yes","1024"
"72.3404255319","72.3404255319","953.170212766","953.170212766","black","no","experiment","legacy","legacy","legacy","0","uniform","1","undefined","1","right","93","0","93","93","93","0","0","93","0","93","0","0","93","93","93","Tue Oct  2 19:10:41 2018","The main experiment item","yes","NA","Sternburg Task.osexp","/Users/danieldalton","no","mono","no","18","no","white","no","yes","768","legacy","81","11","/Users/danieldalton/subject-1.csv","legacy","4 1","Jazzy James","3.1.9","0","n","0","right","right","left","NA","right","1043","50265","3969","NA","1043","2","legacy","2","1024","2","48000","-16","Sternburgtask","1","odd","6","639769","133384","640825","643059","620901","2010","129413","641841","52291","645076","1978","NA","640813","645076","646123","New experiment","68","89598","94","yes","1024"
"72.6315789474","72.6315789474","953.978947368","953.978947368","black","no","experiment","legacy","legacy","legacy","0","uniform","1","undefined","1","right","94","0","94","94","94","0","0","94","0","94","0","0","94","94","94","Tue Oct  2 19:10:41 2018","The main experiment item","yes","NA","Sternburg Task.osexp","/Users/danieldalton","no","mono","no","18","no","white","no","yes","768","legacy","82","11","/Users/danieldalton/subject-1.csv","legacy","5 3 2 6 9 8","Jazzy James","3.1.9","0","n","0","right","right","left","NA","right","1030","50265","3969","NA","1030","2","legacy","6","1024","2","48000","-16","Sternburgtask","1","odd","4","646138","133384","647190","649425","620901","2010","129413","648206","52291","651439","1978","NA","647179","651439","652473","New experiment","69","90628","95","yes","1024"
"72.9166666667","72.9166666667","955.0625","955.0625","black","no","experiment","legacy","legacy","legacy","0","uniform","1","undefined","1","left","95","0","95","95","95","0","0","95","0","95","0","0","95","95","95","Tue Oct  2 19:10:41 2018","The main experiment item","yes","NA","Sternburg Task.osexp","/Users/danieldalton","no","mono","no","18","no","white","no","yes","768","legacy","83","11","/Users/danieldalton/subject-1.csv","legacy","7 2 3","Jazzy James","3.1.9","3","y","0","left","right","left","NA","left","1058","50265","3969","NA","1058","2","legacy","3","1024","2","48000","-16","Sternburgtask","1","odd","3","652488","133384","653543","655780","620901","2010","129413","654558","52291","657796","1978","NA","653531","657796","658856","New experiment","70","91686","96","yes","1024"
"73.1958762887","73.1958762887","953.742268041","953.742268041","black","no","experiment","legacy","legacy","legacy","0","uniform","1","undefined","1","right","96","0","96","96","96","0","0","96","0","96","0","0","96","96","96","Tue Oct  2 19:10:41 2018","The main experiment item","yes","NA","Sternburg Task.osexp","/Users/danieldalton","no","mono","no","18","no","white","no","yes","768","legacy","84","11","/Users/danieldalton/subject-1.csv","legacy","1 7 8 3 9","Jazzy James","3.1.9","0","n","0","right","right","left","NA","right","827","50265","3969","NA","827","2","legacy","5","1024","2","48000","-16","Sternburgtask","1","odd","2","658870","133384","659923","662158","620901","2010","129413","660938","52291","664173","1978","NA","659912","664173","665002","New experiment","71","92513","97","yes","1024"
"72.4489795918","72.4489795918","951.408163265","951.408163265","black","no","experiment","legacy","legacy","legacy","0","uniform","0","undefined","0","right","97","0","97","97","97","0","0","97","0","97","0","0","97","97","97","Tue Oct  2 19:10:41 2018","The main experiment item","yes","NA","Sternburg Task.osexp","/Users/danieldalton","no","mono","no","18","no","white","no","yes","768","legacy","85","11","/Users/danieldalton/subject-1.csv","legacy","8 6 3 4 7","Jazzy James","3.1.9","0","n","0","left","right","left","NA","left","725","50265","3969","NA","725","2","legacy","5","1024","2","48000","-16","Sternburgtask","1","odd","1","665016","133384","666068","668306","620901","2010","129413","667085","52291","670319","1978","NA","666057","670319","671047","New experiment","71","93238","98","yes","1024"
"72.7272727273","72.7272727273","951.707070707","951.707070707","black","no","experiment","legacy","legacy","legacy","0","uniform","1","undefined","1","left","98","0","98","98","98","0","0","98","0","98","0","0","98","98","98","Tue Oct  2 19:10:41 2018","The main experiment item","yes","NA","Sternburg Task.osexp","/Users/danieldalton","no","mono","no","18","no","white","no","yes","768","legacy","86","11","/Users/danieldalton/subject-1.csv","legacy","2 4 8 5 1 3","Jazzy James","3.1.9","1","y","0","left","right","left","NA","left","981","50265","3969","NA","981","2","legacy","6","1024","2","48000","-16","Sternburgtask","1","odd","2","665016","133384","672114","674355","671061","2010","129413","673132","52291","676378","1978","NA","672103","676378","677362","New experiment","72","94219","99","yes","1024"
"73","73","954.35","954.35","black","no","experiment","legacy","legacy","legacy","0","uniform","1","undefined","1","left","99","0","99","99","99","0","0","99","0","99","0","0","99","99","99","Tue Oct  2 19:10:41 2018","The main experiment item","yes","NA","Sternburg Task.osexp","/Users/danieldalton","no","mono","no","18","no","white","no","yes","768","legacy","87","11","/Users/danieldalton/subject-1.csv","legacy","3 2 1 4 7","Jazzy James","3.1.9","2","y","0","left","right","left","NA","left","1216","50265","3969","NA","1216","2","legacy","5","1024","2","48000","-16","Sternburgtask","1","odd","2","677376","133384","678430","680661","671061","2010","129413","679445","52291","682678","1978","NA","678419","682678","683897","New experiment","73","95435","100","yes","1024"
"72.2772277228","72.2772277228","954.346534653","954.346534653","black","no","experiment","legacy","legacy","legacy","0","uniform","0","undefined","0","left","100","0","100","100","100","0","0","100","0","100","0","0","100","100","100","Tue Oct  2 19:10:41 2018","The main experiment item","yes","NA","Sternburg Task.osexp","/Users/danieldalton","no","mono","no","18","no","white","no","yes","768","legacy","88","11","/Users/danieldalton/subject-1.csv","legacy","3 5 9 6 2 4","Jazzy James","3.1.9","1","y","0","right","right","left","NA","right","954","50265","3969","NA","954","2","legacy","6","1024","2","48000","-16","Sternburgtask","1","odd","3","683911","133384","684965","687197","671061","2010","129413","685980","52291","689210","1978","NA","684954","689210","690168","New experiment","73","96389","101","yes","1024"
"71.568627451","71.568627451","957.009803922","957.009803922","black","no","experiment","legacy","legacy","legacy","0","uniform","0","undefined","0","left","101","0","101","101","101","0","0","101","0","101","0","0","101","101","101","Tue Oct  2 19:10:41 2018","The main experiment item","yes","NA","Sternburg Task.osexp","/Users/danieldalton","no","mono","no","18","no","white","no","yes","768","legacy","89","11","/Users/danieldalton/subject-1.csv","legacy","9 1 7 2","Jazzy James","3.1.9","2","y","0","right","right","left","NA","right","1226","50265","3969","NA","1226","2","legacy","4","1024","2","48000","-16","Sternburgtask","1","odd","1","683911","133384","691236","693471","690182","2010","129413","692250","52291","695486","1978","NA","691224","695486","696716","New experiment","73","97615","102","yes","1024"
"71.8446601942","71.8446601942","959.514563107","959.514563107","black","no","experiment","legacy","legacy","legacy","0","uniform","1","undefined","1","left","102","0","102","102","102","0","0","102","0","102","0","0","102","102","102","Tue Oct  2 19:10:41 2018","The main experiment item","yes","NA","Sternburg Task.osexp","/Users/danieldalton","no","mono","no","18","no","white","no","yes","768","legacy","90","11","/Users/danieldalton/subject-1.csv","legacy","2 8 5 1","Jazzy James","3.1.9","4","y","0","left","right","left","NA","left","1215","50265","3969","NA","1215","2","legacy","4","1024","2","48000","-16","Sternburgtask","1","odd","1","683911","133384","697784","700021","696730","2010","129413","698802","52291","702037","1978","NA","697773","702037","703256","New experiment","74","98830","103","yes","1024"
"71.1538461538","71.1538461538","961.692307692","961.692307692","black","no","experiment","legacy","legacy","legacy","0","uniform","0","undefined","0","left","103","0","103","103","103","0","0","103","0","103","0","0","103","103","103","Tue Oct  2 19:10:41 2018","The main experiment item","yes","NA","Sternburg Task.osexp","/Users/danieldalton","no","mono","no","18","no","white","no","yes","768","legacy","91","11","/Users/danieldalton/subject-1.csv","legacy","3 9 6 2","Jazzy James","3.1.9","4","y","0","right","right","left","NA","right","1186","50265","3969","NA","1186","2","legacy","4","1024","2","48000","-16","Sternburgtask","1","odd","2","703270","133384","704323","706557","696730","2010","129413","705341","52291","708574","1978","NA","704312","708574","709764","New experiment","74","100016","104","yes","1024"
"71.4285714286","71.4285714286","962.838095238","962.838095238","black","no","experiment","legacy","legacy","legacy","0","uniform","1","undefined","1","right","104","0","104","104","104","0","0","104","0","104","0","0","104","104","104","Tue Oct  2 19:10:41 2018","The main experiment item","yes","NA","Sternburg Task.osexp","/Users/danieldalton","no","mono","no","18","no","white","no","yes","768","legacy","92","11","/Users/danieldalton/subject-1.csv","legacy","4 2 6 9","Jazzy James","3.1.9","0","n","0","right","right","left","NA","right","1082","50265","3969","NA","1082","2","legacy","4","1024","2","48000","-16","Sternburgtask","1","odd","7","703270","133384","710834","713069","709781","2010","129413","711849","52291","715084","1978","NA","710823","715084","716169","New experiment","75","101098","105","yes","1024"
"70.7547169811","70.7547169811","966.650943396","966.650943396","black","no","experiment","legacy","legacy","legacy","0","uniform","0","undefined","0","left","105","0","105","105","105","0","0","105","0","105","0","0","105","105","105","Tue Oct  2 19:10:41 2018","The main experiment item","yes","NA","Sternburg Task.osexp","/Users/danieldalton","no","mono","no","18","no","white","no","yes","768","legacy","93","11","/Users/danieldalton/subject-1.csv","legacy","8 5 4 7 3 1","Jazzy James","3.1.9","2","y","0","right","right","left","NA","right","1367","50265","3969","NA","1367","2","legacy","6","1024","2","48000","-16","Sternburgtask","1","odd","5","716183","133384","717237","719469","709781","2010","129413","718252","52291","721482","1978","NA","717226","721482","722852","New experiment","75","102465","106","yes","1024"
"71.0280373832","71.0280373832","969.009345794","969.009345794","black","no","experiment","legacy","legacy","legacy","0","uniform","1","undefined","1","left","106","0","106","106","106","0","0","106","0","106","0","0","106","106","106","Tue Oct  2 19:10:41 2018","The main experiment item","yes","NA","Sternburg Task.osexp","/Users/danieldalton","no","mono","no","18","no","white","no","yes","768","legacy","94","11","/Users/danieldalton/subject-1.csv","legacy","8","Jazzy James","3.1.9","1","y","0","left","right","left","NA","left","1219","50265","3969","NA","1219","2","legacy","1","1024","2","48000","-16","Sternburgtask","1","odd","8","716183","133384","723918","726149","722867","2010","129413","724932","52291","728167","1978","NA","723907","728168","729390","New experiment","76","103684","107","yes","1024"
"71.2962962963","71.2962962963","968.092592593","968.092592593","black","no","experiment","legacy","legacy","legacy","0","uniform","1","undefined","1","left","107","0","107","107","107","0","0","107","0","107","0","0","107","107","107","Tue Oct  2 19:10:41 2018","The main experiment item","yes","NA","Sternburg Task.osexp","/Users/danieldalton","no","mono","no","18","no","white","no","yes","768","legacy","95","11","/Users/danieldalton/subject-1.csv","legacy","6 5","Jazzy James","3.1.9","2","y","0","left","right","left","NA","left","870","50265","3969","NA","870","2","legacy","2","1024","2","48000","-16","Sternburgtask","1","odd","5","729404","133384","730461","732693","722867","2010","129413","731476","52291","734707","1978","NA","730450","734707","735581","New experiment","77","104554","108","yes","1024"
"71.5596330275","71.5596330275","964.458715596","964.458715596","black","no","experiment","legacy","legacy","legacy","0","uniform","1","undefined","1","left","108","0","108","108","108","0","0","108","0","108","0","0","108","108","108","Tue Oct  2 19:10:41 2018","The main experiment item","yes","NA","Sternburg Task.osexp","/Users/danieldalton","no","mono","no","18","no","white","no","yes","768","legacy","96","11","/Users/danieldalton/subject-1.csv","legacy","8 7 3","Jazzy James","3.1.9","1","y","0","left","right","left","NA","left","572","50265","3969","NA","572","2","legacy","3","1024","2","48000","-16","Sternburgtask","1","odd","8","735599","133384","736651","738882","722867","2010","129413","737665","52291","740895","1978","NA","736640","740895","741469","New experiment","78","105126","109","yes","1024"
"71.8181818182","71.8181818182","962.272727273","962.272727273","black","no","experiment","legacy","legacy","legacy","0","uniform","1","undefined","1","left","109","0","109","109","109","0","0","109","0","109","0","0","109","109","109","Tue Oct  2 19:10:41 2018","The main experiment item","yes","NA","Sternburg Task.osexp","/Users/danieldalton","no","mono","no","18","no","white","no","yes","768","legacy","97","11","/Users/danieldalton/subject-1.csv","legacy","6 9 3 1","Jazzy James","3.1.9","4","y","0","left","right","left","NA","left","724","50265","3969","NA","724","2","legacy","4","1024","2","48000","-16","Sternburgtask","1","odd","1","741484","133384","742537","744766","722867","2010","129413","743551","52291","746778","1978","NA","742526","746778","747506","New experiment","79","105850","110","yes","1024"
"71.1711711712","71.1711711712","962.513513514","962.513513514","black","no","experiment","legacy","legacy","legacy","0","uniform","0","undefined","0","left","110","0","110","110","110","0","0","110","0","110","0","0","110","110","110","Tue Oct  2 19:10:41 2018","The main experiment item","yes","NA","Sternburg Task.osexp","/Users/danieldalton","no","mono","no","18","no","white","no","yes","768","legacy","98","11","/Users/danieldalton/subject-1.csv","legacy","9 5 3 8 4","Jazzy James","3.1.9","1","y","0","right","right","left","NA","right","989","50265","3969","NA","989","2","legacy","5","1024","2","48000","-16","Sternburgtask","1","odd","9","747520","133384","748572","750810","722867","2010","129413","749587","52291","752832","1978","NA","748561","752832","753824","New experiment","79","106839","111","yes","1024"
"71.4285714286","71.4285714286","964.026785714","964.026785714","black","no","experiment","legacy","legacy","legacy","0","uniform","1","undefined","1","right","111","0","111","111","111","0","0","111","0","111","0","0","111","111","111","Tue Oct  2 19:10:41 2018","The main experiment item","yes","NA","Sternburg Task.osexp","/Users/danieldalton","no","mono","no","18","no","white","no","yes","768","legacy","99","11","/Users/danieldalton/subject-1.csv","legacy","1 3 2 6 9","Jazzy James","3.1.9","0","n","0","right","right","left","NA","right","1132","50265","3969","NA","1132","2","legacy","5","1024","2","48000","-16","Sternburgtask","1","odd","5","747520","133384","754893","757124","753839","2010","129413","755907","52291","759136","1978","NA","754882","759137","760272","New experiment","80","107971","112","yes","1024"
"71.6814159292","71.6814159292","966.761061947","966.761061947","black","no","experiment","legacy","legacy","legacy","0","uniform","1","undefined","1","right","112","0","112","112","112","0","0","112","0","112","0","0","112","112","112","Tue Oct  2 19:10:41 2018","The main experiment item","yes","NA","Sternburg Task.osexp","/Users/danieldalton","no","mono","no","18","no","white","no","yes","768","legacy","100","11","/Users/danieldalton/subject-1.csv","legacy","7 8 6 1","Jazzy James","3.1.9","0","n","0","right","right","left","NA","right","1273","50265","3969","NA","1273","2","legacy","4","1024","2","48000","-16","Sternburgtask","1","odd","3","760286","133384","761338","763570","753839","2010","129413","762352","52291","765585","1978","NA","761327","765585","766862","New experiment","81","109244","113","yes","1024"
"71.0526315789","71.0526315789","971.657894737","971.657894737","black","no","experiment","legacy","legacy","legacy","0","uniform","0","undefined","0","right","113","0","113","113","113","0","0","113","0","113","0","0","113","113","113","Tue Oct  2 19:10:41 2018","The main experiment item","yes","NA","Sternburg Task.osexp","/Users/danieldalton","no","mono","no","18","no","white","no","yes","768","legacy","101","11","/Users/danieldalton/subject-1.csv","legacy","1 7 5 2","Jazzy James","3.1.9","0","n","0","left","right","left","NA","left","1525","50265","3969","NA","1525","2","legacy","4","1024","2","48000","-16","Sternburgtask","1","odd","3","766877","133384","767931","770168","753839","2010","129413","768949","52291","772180","1978","NA","767920","772180","773710","New experiment","81","110769","114","yes","1024"
"70.4347826087","70.4347826087","970.869565217","970.869565217","black","no","experiment","legacy","legacy","legacy","0","uniform","0","undefined","0","right","114","0","114","114","114","0","0","114","0","114","0","0","114","114","114","Tue Oct  2 19:10:41 2018","The main experiment item","yes","NA","Sternburg Task.osexp","/Users/danieldalton","no","mono","no","18","no","white","no","yes","768","legacy","102","11","/Users/danieldalton/subject-1.csv","legacy","8 5 4 2 9 6","Jazzy James","3.1.9","0","n","0","left","right","left","NA","left","881","50265","3969","NA","881","2","legacy","6","1024","2","48000","-16","Sternburgtask","1","odd","3","766877","133384","774776","777007","773724","2010","129413","775790","52291","779026","1978","NA","774765","779027","779911","New experiment","81","111650","115","yes","1024"
"70.6896551724","70.6896551724","970.284482759","970.284482759","black","no","experiment","legacy","legacy","legacy","0","uniform","1","undefined","1","right","115","0","115","115","115","0","0","115","0","115","0","0","115","115","115","Tue Oct  2 19:10:41 2018","The main experiment item","yes","NA","Sternburg Task.osexp","/Users/danieldalton","no","mono","no","18","no","white","no","yes","768","legacy","103","11","/Users/danieldalton/subject-1.csv","legacy","2 8 9","Jazzy James","3.1.9","0","n","0","right","right","left","NA","right","903","50265","3969","NA","903","2","legacy","3","1024","2","48000","-16","Sternburgtask","1","odd","6","766877","133384","780976","783217","779925","2010","129413","781996","52291","785237","1978","NA","780965","785237","786145","New experiment","82","112553","116","yes","1024"
"70.0854700855","70.0854700855","969.555555556","969.555555556","black","no","experiment","legacy","legacy","legacy","0","uniform","0","undefined","0","right","116","0","116","116","116","0","0","116","0","116","0","0","116","116","116","Tue Oct  2 19:10:41 2018","The main experiment item","yes","NA","Sternburg Task.osexp","/Users/danieldalton","no","mono","no","18","no","white","no","yes","768","legacy","104","11","/Users/danieldalton/subject-1.csv","legacy","8 2 1 4 5 9","Jazzy James","3.1.9","0","n","0","left","right","left","NA","left","885","50265","3969","NA","885","2","legacy","6","1024","2","48000","-16","Sternburgtask","1","odd","7","786160","133384","787215","789448","779925","2010","129413","788230","52291","791461","1978","NA","787204","791461","792349","New experiment","82","113438","117","yes","1024"
"69.4915254237","69.4915254237","970.449152542","970.449152542","black","no","experiment","legacy","legacy","legacy","0","uniform","0","undefined","0","left","117","0","117","117","117","0","0","117","0","117","0","0","117","117","117","Tue Oct  2 19:10:41 2018","The main experiment item","yes","NA","Sternburg Task.osexp","/Users/danieldalton","no","mono","no","18","no","white","no","yes","768","legacy","105","11","/Users/danieldalton/subject-1.csv","legacy","4 6 2 5 1","Jazzy James","3.1.9","5","y","0","right","right","left","NA","right","1075","50265","3969","NA","1075","2","legacy","5","1024","2","48000","-16","Sternburgtask","1","odd","1","786160","133384","793417","795652","792363","2010","129413","794432","52291","797664","1978","NA","793406","797665","798744","New experiment","82","114513","118","yes","1024"
"68.9075630252","68.9075630252","975.74789916","975.74789916","black","no","experiment","legacy","legacy","legacy","0","uniform","0","undefined","0","left","118","0","118","118","118","0","0","118","0","118","0","0","118","118","118","Tue Oct  2 19:10:41 2018","The main experiment item","yes","NA","Sternburg Task.osexp","/Users/danieldalton","no","mono","no","18","no","white","no","yes","768","legacy","106","11","/Users/danieldalton/subject-1.csv","legacy","5 7 8 2 3 8","Jazzy James","3.1.9","5","y","0","right","right","left","NA","right","1601","50265","3969","NA","1601","2","legacy","6","1024","2","48000","-16","Sternburgtask","1","odd","3","786160","133384","799811","802047","798759","2010","129413","800826","52291","804060","1978","NA","799800","804060","805664","New experiment","82","116114","119","yes","1024"
"68.3333333333","68.3333333333","977.441666667","977.441666667","black","no","experiment","legacy","legacy","legacy","0","uniform","0","undefined","0","left","119","0","119","119","119","0","0","119","0","119","0","0","119","119","119","Tue Oct  2 19:10:41 2018","The main experiment item","yes","NA","Sternburg Task.osexp","/Users/danieldalton","no","mono","no","18","no","white","no","yes","768","legacy","107","11","/Users/danieldalton/subject-1.csv","legacy","8 9 6 1","Jazzy James","3.1.9","2","y","0","right","right","left","NA","right","1179","50265","3969","NA","1179","2","legacy","4","1024","2","48000","-16","Sternburgtask","1","odd","9","786160","133384","806732","808968","805678","2010","129413","807747","52291","810981","1978","NA","806721","810982","812165","New experiment","82","117293","120","yes","1024"
"68.5950413223","68.5950413223","978.223140496","978.223140496","black","no","experiment","legacy","legacy","legacy","0","uniform","1","undefined","1","right","120","0","120","120","120","0","0","120","0","120","0","0","120","120","120","Tue Oct  2 19:10:41 2018","The main experiment item","yes","NA","Sternburg Task.osexp","/Users/danieldalton","no","mono","no","18","no","white","no","yes","768","legacy","108","11","/Users/danieldalton/subject-1.csv","legacy","1 4 9 2 5","Jazzy James","3.1.9","0","n","0","right","right","left","NA","right","1072","50265","3969","NA","1072","2","legacy","5","1024","2","48000","-16","Sternburgtask","1","odd","7","786160","133384","813239","815470","812178","2010","129413","814253","52291","817483","1978","NA","813228","817483","818558","New experiment","83","118365","121","yes","1024"
"68.0327868852","68.0327868852","977.721311475","977.721311475","black","no","experiment","legacy","legacy","legacy","0","uniform","0","undefined","0","right","121","0","121","121","121","0","0","121","0","121","0","0","121","121","121","Tue Oct  2 19:10:41 2018","The main experiment item","yes","NA","Sternburg Task.osexp","/Users/danieldalton","no","mono","no","18","no","white","no","yes","768","legacy","109","11","/Users/danieldalton/subject-1.csv","legacy","6 9 5","Jazzy James","3.1.9","0","n","0","left","right","left","NA","left","917","50265","3969","NA","917","2","legacy","3","1024","2","48000","-16","Sternburgtask","1","odd","8","818572","133384","819625","821863","812178","2010","129413","820641","52291","823880","1978","NA","819614","823880","824800","New experiment","83","119282","122","yes","1024"
