"acc","accuracy","average_response_time","avg_rt","background","block","canvas_backend","clock_backend","color_backend","compensation","coordinates","correct","correct_instruction1","correct_keyboard_response","correct_response","count_ISI","count_correctFeedback","count_expSequence","count_experiment","count_experimentLoop","count_fixation","count_incorrectFeedback","count_instruction1","count_instructions2","count_keyboard_response","count_memorySet","count_new_logger","count_practiceLoop","count_probe","count_thankYou","datetime","description","disable_garbage_collection","experiment_file","experiment_path","font_bold","font_family","font_italic","font_size","font_underline","foreground","form_clicks","fullscreen","height","keyboard_backend","live_row","live_row_practiceLoop","logfile","mouse_backend","numberSet","opensesame_codename","opensesame_version","posInSet","present","repeat_cycle","response","response_instruction1","response_instructions2","response_keyboard_response","response_thankYou","response_time","response_time_instruction1","response_time_instructions2","response_time_keyboard_response","response_time_thankYou","round_decimals","sampler_backend","setSize","sound_buf_size","sound_channels","sound_freq","sound_sample_size","start","subject_nr","subject_parity","target","time_ISI","time_correctFeedback","time_expSequence","time_experiment","time_experimentLoop","time_fixation","time_incorrectFeedback","time_instruction1","time_instructions2","time_keyboard_response","time_memorySet","time_new_logger","time_practiceLoop","time_probe","time_thankYou","title","total_correct","total_response_time","total_responses","uniform_coordinates","width"
"0","0","2000","2000","black","practice","xpyriment","legacy","legacy","0","uniform","0","undefined","0","left","0","0","0","0","0","0","0","0","0","0","0","0","0","0","0","10/07/18 23:05:12","The main experiment item","yes","Sternburgtask.osexp","C:/Users/Owner/Documents","no","mono","no","18","no","white","no","yes","768","legacy","0","0","C:/Users/Owner/Documents/ctsubject-3.csv","xpyriment","1 5 2 9","Kafkaesque Koffka","3.2.5","2","y","0","None","right","NA","None","NA","2000","86748","NA","2000","NA","2","legacy","4","1024","2","48000","-16","experiment","3","odd","5","96321","NA","94034","4673","NA","94084","NA","4709","NA","98326","95117","100326","91459","98326","NA","Sternburg task","0","2000","1","yes","1024"
"50","50","1447.5","1447.5","black","practice","xpyriment","legacy","legacy","0","uniform","1","undefined","1","left","1","1","1","0","0","1","1","0","0","1","1","1","0","1","0","10/07/18 23:05:12","The main experiment item","yes","Sternburgtask.osexp","C:/Users/Owner/Documents","no","mono","no","18","no","white","no","yes","768","legacy","1","1","C:/Users/Owner/Documents/ctsubject-3.csv","xpyriment","4 3 1 7 9 8","Kafkaesque Koffka","3.2.5","1","y","0","left","right","NA","left","NA","895","86748","NA","895","NA","2","legacy","6","1024","2","48000","-16","experiment","3","odd","4","104442","NA","102141","4673","NA","102193","100482","4709","NA","106447","103225","107343","91459","106446","NA","Sternburg task","1","2895","2","yes","1024"
"66.6666666667","66.6666666667","1222","1222","black","practice","xpyriment","legacy","legacy","0","uniform","1","undefined","1","right","2","2","2","0","0","2","2","0","0","2","2","2","0","2","0","10/07/18 23:05:12","The main experiment item","yes","Sternburgtask.osexp","C:/Users/Owner/Documents","no","mono","no","18","no","white","no","yes","768","legacy","2","2","C:/Users/Owner/Documents/ctsubject-3.csv","xpyriment","3 1 9 4","Kafkaesque Koffka","3.2.5","0","n","0","right","right","NA","right","NA","771","86748","NA","771","NA","2","legacy","4","1024","2","48000","-16","experiment","3","odd","6","111350","107381","109032","4673","NA","109103","100482","4709","NA","113354","110133","114125","91459","113354","NA","Sternburg task","2","3666","3","yes","1024"
"75","75","1018","1018","black","practice","xpyriment","legacy","legacy","0","uniform","1","undefined","1","left","3","3","3","0","0","3","3","0","0","3","3","3","0","3","0","10/07/18 23:05:12","The main experiment item","yes","Sternburgtask.osexp","C:/Users/Owner/Documents","no","mono","no","18","no","white","no","yes","768","legacy","3","3","C:/Users/Owner/Documents/ctsubject-3.csv","xpyriment","4 8","Kafkaesque Koffka","3.2.5","1","y","0","left","right","NA","left","NA","406","86748","NA","406","NA","2","legacy","2","1024","2","48000","-16","experiment","3","odd","4","118223","114257","115903","4673","NA","115966","100482","4709","NA","120227","117006","120633","91459","120227","NA","Sternburg task","3","4072","4","yes","1024"
"80","80","935.2","935.2","black","practice","xpyriment","legacy","legacy","0","uniform","1","undefined","1","right","4","4","4","0","0","4","4","0","0","4","4","4","0","4","0","10/07/18 23:05:12","The main experiment item","yes","Sternburgtask.osexp","C:/Users/Owner/Documents","no","mono","no","18","no","white","no","yes","768","legacy","4","4","C:/Users/Owner/Documents/ctsubject-3.csv","xpyriment","4 1 5","Kafkaesque Koffka","3.2.5","0","n","0","right","right","NA","right","NA","604","86748","NA","604","NA","2","legacy","3","1024","2","48000","-16","experiment","3","odd","2","124662","120700","122366","4673","NA","122428","100482","4709","NA","126665","123458","127270","91459","126665","NA","Sternburg task","4","4676","5","yes","1024"
"83.3333333333","83.3333333333","930.333333333","930.333333333","black","practice","xpyriment","legacy","legacy","0","uniform","1","undefined","1","left","5","5","5","0","0","5","5","0","0","5","5","5","0","5","0","10/07/18 23:05:12","The main experiment item","yes","Sternburgtask.osexp","C:/Users/Owner/Documents","no","mono","no","18","no","white","no","yes","768","legacy","5","5","C:/Users/Owner/Documents/ctsubject-3.csv","xpyriment","2 9 4","Kafkaesque Koffka","3.2.5","3","y","0","left","right","NA","left","NA","906","86748","NA","906","NA","2","legacy","3","1024","2","48000","-16","experiment","3","odd","4","131280","127339","128994","4673","NA","129054","100482","4709","NA","133283","130076","134190","91459","133283","NA","Sternburg task","5","5582","6","yes","1024"
"85.7142857143","85.7142857143","895.571428571","895.571428571","black","practice","xpyriment","legacy","legacy","0","uniform","1","undefined","1","right","6","6","6","0","0","6","6","0","0","6","6","6","0","6","0","10/07/18 23:05:12","The main experiment item","yes","Sternburgtask.osexp","C:/Users/Owner/Documents","no","mono","no","18","no","white","no","yes","768","legacy","6","6","C:/Users/Owner/Documents/ctsubject-3.csv","xpyriment","9 6 7 4 5","Kafkaesque Koffka","3.2.5","0","n","0","right","right","NA","right","NA","687","86748","NA","687","NA","2","legacy","5","1024","2","48000","-16","experiment","3","odd","3","138208","134263","135914","4673","NA","135974","100482","4709","NA","140211","137004","140899","91459","140211","NA","Sternburg task","6","6269","7","yes","1024"
"87.5","87.5","916.125","916.125","black","practice","xpyriment","legacy","legacy","0","uniform","1","undefined","1","right","7","7","7","0","0","7","7","0","0","7","7","7","0","7","0","10/07/18 23:05:12","The main experiment item","yes","Sternburgtask.osexp","C:/Users/Owner/Documents","no","mono","no","18","no","white","no","yes","768","legacy","7","7","C:/Users/Owner/Documents/ctsubject-3.csv","xpyriment","5 7 8 4 1 2","Kafkaesque Koffka","3.2.5","0","n","0","right","right","NA","right","NA","1060","86748","NA","1060","NA","2","legacy","6","1024","2","48000","-16","experiment","3","odd","6","144962","140969","142654","4673","NA","142714","100482","4709","NA","146979","143745","148039","91459","146978","NA","Sternburg task","7","7329","8","yes","1024"
"88.8888888889","88.8888888889","874.555555556","874.555555556","black","practice","xpyriment","legacy","legacy","0","uniform","1","undefined","1","left","8","8","8","0","0","8","8","0","0","8","8","8","0","8","0","10/07/18 23:05:12","The main experiment item","yes","Sternburgtask.osexp","C:/Users/Owner/Documents","no","mono","no","18","no","white","no","yes","768","legacy","8","8","C:/Users/Owner/Documents/ctsubject-3.csv","xpyriment","6","Kafkaesque Koffka","3.2.5","1","y","0","left","right","NA","left","NA","542","86748","NA","542","NA","2","legacy","1","1024","2","48000","-16","experiment","3","odd","6","152012","148073","149720","4673","NA","149779","100482","4709","NA","154016","150806","154560","91459","154015","NA","Sternburg task","8","7871","9","yes","1024"
"90","90","846.2","846.2","black","practice","xpyriment","legacy","legacy","0","uniform","1","undefined","1","right","9","9","9","0","0","9","9","0","0","9","9","9","0","9","0","10/07/18 23:05:12","The main experiment item","yes","Sternburgtask.osexp","C:/Users/Owner/Documents","no","mono","no","18","no","white","no","yes","768","legacy","9","9","C:/Users/Owner/Documents/ctsubject-3.csv","xpyriment","5","Kafkaesque Koffka","3.2.5","0","n","0","right","right","NA","right","NA","591","86748","NA","591","NA","2","legacy","1","1024","2","48000","-16","experiment","3","odd","3","158594","154633","156280","4673","NA","156347","100482","4709","NA","160599","157376","161191","91459","160598","NA","Sternburg task","9","8462","10","yes","1024"
"90.9090909091","90.9090909091","811.363636364","811.363636364","black","practice","xpyriment","legacy","legacy","0","uniform","1","undefined","1","right","10","10","10","0","0","10","10","0","0","10","10","10","0","10","0","10/07/18 23:05:12","The main experiment item","yes","Sternburgtask.osexp","C:/Users/Owner/Documents","no","mono","no","18","no","white","no","yes","768","legacy","10","10","C:/Users/Owner/Documents/ctsubject-3.csv","xpyriment","2 1","Kafkaesque Koffka","3.2.5","0","n","0","right","right","NA","right","NA","463","86748","NA","463","NA","2","legacy","2","1024","2","48000","-16","experiment","3","odd","5","165179","161248","162894","4673","NA","162947","100482","4709","NA","167195","163975","167658","91459","167195","NA","Sternburg task","10","8925","11","yes","1024"
"83.3333333333","83.3333333333","813.333333333","813.333333333","black","practice","xpyriment","legacy","legacy","0","uniform","0","undefined","0","left","11","11","11","0","0","11","11","0","0","11","11","11","0","11","0","10/07/18 23:05:12","The main experiment item","yes","Sternburgtask.osexp","C:/Users/Owner/Documents","no","mono","no","18","no","white","no","yes","768","legacy","11","11","C:/Users/Owner/Documents/ctsubject-3.csv","xpyriment","1 7 9 8 5","Kafkaesque Koffka","3.2.5","4","y","0","right","right","NA","right","NA","835","86748","NA","835","NA","2","legacy","5","1024","2","48000","-16","experiment","3","odd","8","171655","167710","169350","4673","NA","169404","100482","4709","NA","173660","170437","174497","91459","173659","NA","Sternburg task","10","9760","12","yes","1024"
"84.6153846154","84.6153846154","790.307692308","790.307692308","black","experiment","xpyriment","legacy","legacy","0","uniform","1","undefined","1","right","12","12","12","0","0","12","12","0","0","12","12","12","0","12","0","10/07/18 23:05:12","The main experiment item","yes","Sternburgtask.osexp","C:/Users/Owner/Documents","no","mono","no","18","no","white","no","yes","768","legacy","0","11","C:/Users/Owner/Documents/ctsubject-3.csv","xpyriment","3 9 1","Kafkaesque Koffka","3.2.5","0","n","0","right","right","left","right","NA","514","86748","13566","514","NA","2","legacy","3","1024","2","48000","-16","experiment","3","odd","7","192181","167710","189879","4673","189215","189938","174567","4709","175648","194185","190977","194701","91459","194184","NA","Sternburg task","11","10274","13","yes","1024"
"85.7142857143","85.7142857143","787.428571429","787.428571429","black","experiment","xpyriment","legacy","legacy","0","uniform","1","undefined","1","left","13","13","13","0","0","13","13","0","0","13","13","13","0","13","0","10/07/18 23:05:12","The main experiment item","yes","Sternburgtask.osexp","C:/Users/Owner/Documents","no","mono","no","18","no","white","no","yes","768","legacy","1","11","C:/Users/Owner/Documents/ctsubject-3.csv","xpyriment","3 5 4 7","Kafkaesque Koffka","3.2.5","1","y","0","left","right","left","left","NA","750","86748","13566","750","NA","2","legacy","4","1024","2","48000","-16","experiment","3","odd","3","198704","194763","196410","4673","189215","196463","174567","4709","175648","200708","197500","201459","91459","200708","NA","Sternburg task","12","11024","14","yes","1024"
"80","80","768.8","768.8","black","experiment","xpyriment","legacy","legacy","0","uniform","0","undefined","0","left","14","14","14","0","0","14","14","0","0","14","14","14","0","14","0","10/07/18 23:05:12","The main experiment item","yes","Sternburgtask.osexp","C:/Users/Owner/Documents","no","mono","no","18","no","white","no","yes","768","legacy","2","11","C:/Users/Owner/Documents/ctsubject-3.csv","xpyriment","6 9 7 4 5 1","Kafkaesque Koffka","3.2.5","2","y","0","right","right","left","right","NA","508","86748","13566","508","NA","2","legacy","6","1024","2","48000","-16","experiment","3","odd","9","205518","201519","203208","4673","189215","203272","174567","4709","175648","207535","204302","208045","91459","207534","NA","Sternburg task","12","11532","15","yes","1024"
"81.25","81.25","749.5625","749.5625","black","experiment","xpyriment","legacy","legacy","0","uniform","1","undefined","1","right","15","15","15","0","0","15","15","0","0","15","15","15","0","15","0","10/07/18 23:05:12","The main experiment item","yes","Sternburgtask.osexp","C:/Users/Owner/Documents","no","mono","no","18","no","white","no","yes","768","legacy","3","11","C:/Users/Owner/Documents/ctsubject-3.csv","xpyriment","1 6 4","Kafkaesque Koffka","3.2.5","0","n","0","right","right","left","right","NA","461","86748","13566","461","NA","2","legacy","3","1024","2","48000","-16","experiment","3","odd","7","212083","201519","209784","4673","189215","209836","208117","4709","175648","214086","210879","214548","91459","214086","NA","Sternburg task","13","11993","16","yes","1024"
"82.3529411765","82.3529411765","743.058823529","743.058823529","black","experiment","xpyriment","legacy","legacy","0","uniform","1","undefined","1","left","16","16","16","0","0","16","16","0","0","16","16","16","0","16","0","10/07/18 23:05:12","The main experiment item","yes","Sternburgtask.osexp","C:/Users/Owner/Documents","no","mono","no","18","no","white","no","yes","768","legacy","4","11","C:/Users/Owner/Documents/ctsubject-3.csv","xpyriment","4 1 5","Kafkaesque Koffka","3.2.5","2","y","0","left","right","left","left","NA","639","86748","13566","639","NA","2","legacy","3","1024","2","48000","-16","experiment","3","odd","1","218584","214624","216271","4673","189215","216335","208117","4709","175648","220587","217367","221228","91459","220587","NA","Sternburg task","14","12632","17","yes","1024"
"83.3333333333","83.3333333333","749.277777778","749.277777778","black","experiment","xpyriment","legacy","legacy","0","uniform","1","undefined","1","left","17","17","17","0","0","17","17","0","0","17","17","17","0","17","0","10/07/18 23:05:12","The main experiment item","yes","Sternburgtask.osexp","C:/Users/Owner/Documents","no","mono","no","18","no","white","no","yes","768","legacy","5","11","C:/Users/Owner/Documents/ctsubject-3.csv","xpyriment","2 6 1 7 4","Kafkaesque Koffka","3.2.5","2","y","0","left","right","left","left","NA","855","86748","13566","855","NA","2","legacy","5","1024","2","48000","-16","experiment","3","odd","6","225274","221289","222964","4673","189215","223017","208117","4709","175648","227277","224057","228132","91459","227277","NA","Sternburg task","15","13487","18","yes","1024"
"84.2105263158","84.2105263158","746.368421053","746.368421053","black","experiment","xpyriment","legacy","legacy","0","uniform","1","undefined","1","left","18","18","18","0","0","18","18","0","0","18","18","18","0","18","0","10/07/18 23:05:12","The main experiment item","yes","Sternburgtask.osexp","C:/Users/Owner/Documents","no","mono","no","18","no","white","no","yes","768","legacy","6","11","C:/Users/Owner/Documents/ctsubject-3.csv","xpyriment","9 5 3 8 4","Kafkaesque Koffka","3.2.5","1","y","0","left","right","left","left","NA","694","86748","13566","694","NA","2","legacy","5","1024","2","48000","-16","experiment","3","odd","9","232161","228185","229850","4673","189215","229914","208117","4709","175648","234177","230945","234872","91459","234177","NA","Sternburg task","16","14181","19","yes","1024"
"85","85","752.1","752.1","black","experiment","xpyriment","legacy","legacy","0","uniform","1","undefined","1","left","19","19","19","0","0","19","19","0","0","19","19","19","0","19","0","10/07/18 23:05:12","The main experiment item","yes","Sternburgtask.osexp","C:/Users/Owner/Documents","no","mono","no","18","no","white","no","yes","768","legacy","7","11","C:/Users/Owner/Documents/ctsubject-3.csv","xpyriment","7 8 4 6 9 5","Kafkaesque Koffka","3.2.5","4","y","0","left","right","left","left","NA","861","86748","13566","861","NA","2","legacy","6","1024","2","48000","-16","experiment","3","odd","6","238883","234934","236572","4673","189215","236637","208117","4709","175648","240900","237666","241761","91459","240899","NA","Sternburg task","17","15042","20","yes","1024"
"80.9523809524","80.9523809524","736.333333333","736.333333333","black","experiment","xpyriment","legacy","legacy","0","uniform","0","undefined","0","left","20","20","20","0","0","20","20","0","0","20","20","20","0","20","0","10/07/18 23:05:12","The main experiment item","yes","Sternburgtask.osexp","C:/Users/Owner/Documents","no","mono","no","18","no","white","no","yes","768","legacy","8","11","C:/Users/Owner/Documents/ctsubject-3.csv","xpyriment","8","Kafkaesque Koffka","3.2.5","1","y","0","right","right","left","right","NA","421","86748","13566","421","NA","2","legacy","1","1024","2","48000","-16","experiment","3","odd","8","245759","241813","243464","4673","189215","243528","208117","4709","175648","247762","244554","248184","91459","247762","NA","Sternburg task","17","15463","21","yes","1024"
"81.8181818182","81.8181818182","745.909090909","745.909090909","black","experiment","xpyriment","legacy","legacy","0","uniform","1","undefined","1","left","21","21","21","0","0","21","21","0","0","21","21","21","0","21","0","10/07/18 23:05:12","The main experiment item","yes","Sternburgtask.osexp","C:/Users/Owner/Documents","no","mono","no","18","no","white","no","yes","768","legacy","9","11","C:/Users/Owner/Documents/ctsubject-3.csv","xpyriment","5 2 9 6 1 7","Kafkaesque Koffka","3.2.5","3","y","0","left","right","left","left","NA","947","86748","13566","947","NA","2","legacy","6","1024","2","48000","-16","experiment","3","odd","9","252213","241813","249905","4673","189215","249968","248255","4709","175648","254229","250996","255178","91459","254229","NA","Sternburg task","18","16410","22","yes","1024"
"82.6086956522","82.6086956522","765.869565217","765.869565217","black","experiment","xpyriment","legacy","legacy","0","uniform","1","undefined","1","left","22","22","22","0","0","22","22","0","0","22","22","22","0","22","0","10/07/18 23:05:12","The main experiment item","yes","Sternburgtask.osexp","C:/Users/Owner/Documents","no","mono","no","18","no","white","no","yes","768","legacy","10","11","C:/Users/Owner/Documents/ctsubject-3.csv","xpyriment","9 5 8 1","Kafkaesque Koffka","3.2.5","2","y","0","left","right","left","left","NA","1205","86748","13566","1205","NA","2","legacy","4","1024","2","48000","-16","experiment","3","odd","5","259204","255244","256893","4673","189215","256958","248255","4709","175648","261209","257987","262414","91459","261208","NA","Sternburg task","19","17615","23","yes","1024"
"83.3333333333","83.3333333333","757.666666667","757.666666667","black","experiment","xpyriment","legacy","legacy","0","uniform","1","undefined","1","left","23","23","23","0","0","23","23","0","0","23","23","23","0","23","0","10/07/18 23:05:12","The main experiment item","yes","Sternburgtask.osexp","C:/Users/Owner/Documents","no","mono","no","18","no","white","no","yes","768","legacy","11","11","C:/Users/Owner/Documents/ctsubject-3.csv","xpyriment","9 8 4","Kafkaesque Koffka","3.2.5","1","y","0","left","right","left","left","NA","569","86748","13566","569","NA","2","legacy","3","1024","2","48000","-16","experiment","3","odd","9","266427","262482","264126","4673","189215","264179","248255","4709","175648","268431","265209","269001","91459","268430","NA","Sternburg task","20","18184","24","yes","1024"
"84","84","758.64","758.64","black","experiment","xpyriment","legacy","legacy","0","uniform","1","undefined","1","right","24","24","24","0","0","24","24","0","0","24","24","24","0","24","0","10/07/18 23:05:12","The main experiment item","yes","Sternburgtask.osexp","C:/Users/Owner/Documents","no","mono","no","18","no","white","no","yes","768","legacy","12","11","C:/Users/Owner/Documents/ctsubject-3.csv","xpyriment","6 9 7 3 8 2","Kafkaesque Koffka","3.2.5","0","n","0","right","right","left","right","NA","782","86748","13566","782","NA","2","legacy","6","1024","2","48000","-16","experiment","3","odd","5","273033","269071","270722","4673","189215","270775","248255","4709","175648","275036","271816","275820","91459","275036","NA","Sternburg task","21","18966","25","yes","1024"
"84.6153846154","84.6153846154","757.884615385","757.884615385","black","experiment","xpyriment","legacy","legacy","0","uniform","1","undefined","1","left","25","25","25","0","0","25","25","0","0","25","25","25","0","25","0","10/07/18 23:05:12","The main experiment item","yes","Sternburgtask.osexp","C:/Users/Owner/Documents","no","mono","no","18","no","white","no","yes","768","legacy","13","11","C:/Users/Owner/Documents/ctsubject-3.csv","xpyriment","8 9 5 6 7","Kafkaesque Koffka","3.2.5","1","y","0","left","right","left","left","NA","739","86748","13566","739","NA","2","legacy","5","1024","2","48000","-16","experiment","3","odd","8","279817","275893","277532","4673","189215","277584","248255","4709","175648","281835","278613","282575","91459","281834","NA","Sternburg task","22","19705","26","yes","1024"
"85.1851851852","85.1851851852","756","756","black","experiment","xpyriment","legacy","legacy","0","uniform","1","undefined","1","right","26","26","26","0","0","26","26","0","0","26","26","26","0","26","0","10/07/18 23:05:12","The main experiment item","yes","Sternburgtask.osexp","C:/Users/Owner/Documents","no","mono","no","18","no","white","no","yes","768","legacy","14","11","C:/Users/Owner/Documents/ctsubject-3.csv","xpyriment","1 8 7","Kafkaesque Koffka","3.2.5","0","n","0","right","right","left","right","NA","707","86748","13566","707","NA","2","legacy","3","1024","2","48000","-16","experiment","3","odd","4","286578","282628","284291","4673","189215","284346","248255","4709","175648","288582","285374","289289","91459","288581","NA","Sternburg task","23","20412","27","yes","1024"
"85.7142857143","85.7142857143","767.857142857","767.857142857","black","experiment","xpyriment","legacy","legacy","0","uniform","1","undefined","1","right","27","27","27","0","0","27","27","0","0","27","27","27","0","27","0","10/07/18 23:05:12","The main experiment item","yes","Sternburgtask.osexp","C:/Users/Owner/Documents","no","mono","no","18","no","white","no","yes","768","legacy","15","11","C:/Users/Owner/Documents/ctsubject-3.csv","xpyriment","8 5 7 3 6","Kafkaesque Koffka","3.2.5","0","n","0","right","right","left","right","NA","1088","86748","13566","1088","NA","2","legacy","5","1024","2","48000","-16","experiment","3","odd","9","293282","289339","290975","4673","189215","291035","248255","4709","175648","295299","292065","296388","91459","295298","NA","Sternburg task","24","21500","28","yes","1024"
"86.2068965517","86.2068965517","767.172413793","767.172413793","black","experiment","xpyriment","legacy","legacy","0","uniform","1","undefined","1","right","28","28","28","0","0","28","28","0","0","28","28","28","0","28","0","10/07/18 23:05:12","The main experiment item","yes","Sternburgtask.osexp","C:/Users/Owner/Documents","no","mono","no","18","no","white","no","yes","768","legacy","16","11","C:/Users/Owner/Documents/ctsubject-3.csv","xpyriment","1 7 5 2","Kafkaesque Koffka","3.2.5","0","n","0","right","right","left","right","NA","748","86748","13566","748","NA","2","legacy","4","1024","2","48000","-16","experiment","3","odd","3","300622","296426","298329","4673","189215","298383","248255","4709","175648","302626","299417","303375","91459","302625","NA","Sternburg task","25","22248","29","yes","1024"
"86.6666666667","86.6666666667","774.166666667","774.166666667","black","experiment","xpyriment","legacy","legacy","0","uniform","1","undefined","1","left","29","29","29","0","0","29","29","0","0","29","29","29","0","29","0","10/07/18 23:05:12","The main experiment item","yes","Sternburgtask.osexp","C:/Users/Owner/Documents","no","mono","no","18","no","white","no","yes","768","legacy","17","11","C:/Users/Owner/Documents/ctsubject-3.csv","xpyriment","4 6 2 5 1","Kafkaesque Koffka","3.2.5","5","y","0","left","right","left","left","NA","977","86748","13566","977","NA","2","legacy","5","1024","2","48000","-16","experiment","3","odd","1","307358","303414","305070","4673","189215","305123","248255","4709","175648","309376","306154","310355","91459","309375","NA","Sternburg task","26","23225","30","yes","1024"
"87.0967741935","87.0967741935","769.35483871","769.35483871","black","experiment","xpyriment","legacy","legacy","0","uniform","1","undefined","1","right","30","30","30","0","0","30","30","0","0","30","30","30","0","30","0","10/07/18 23:05:12","The main experiment item","yes","Sternburgtask.osexp","C:/Users/Owner/Documents","no","mono","no","18","no","white","no","yes","768","legacy","18","11","C:/Users/Owner/Documents/ctsubject-3.csv","xpyriment","5 2","Kafkaesque Koffka","3.2.5","0","n","0","right","right","left","right","NA","625","86748","13566","625","NA","2","legacy","2","1024","2","48000","-16","experiment","3","odd","7","314367","310415","312064","4673","189215","312118","248255","4709","175648","316383","313150","317009","91459","316382","NA","Sternburg task","27","23850","31","yes","1024"
"87.5","87.5","768.875","768.875","black","experiment","xpyriment","legacy","legacy","0","uniform","1","undefined","1","left","31","31","31","0","0","31","31","0","0","31","31","31","0","31","0","10/07/18 23:05:12","The main experiment item","yes","Sternburgtask.osexp","C:/Users/Owner/Documents","no","mono","no","18","no","white","no","yes","768","legacy","19","11","C:/Users/Owner/Documents/ctsubject-3.csv","xpyriment","6 8 9 3 4 9","Kafkaesque Koffka","3.2.5","5","y","0","left","right","left","left","NA","754","86748","13566","754","NA","2","legacy","6","1024","2","48000","-16","experiment","3","odd","4","321073","317094","318764","4673","189215","318828","248255","4709","175648","323089","319856","323844","91459","323089","NA","Sternburg task","28","24604","32","yes","1024"
"87.8787878788","87.8787878788","770","770","black","experiment","xpyriment","legacy","legacy","0","uniform","1","undefined","1","right","32","32","32","0","0","32","32","0","0","32","32","32","0","32","0","10/07/18 23:05:12","The main experiment item","yes","Sternburgtask.osexp","C:/Users/Owner/Documents","no","mono","no","18","no","white","no","yes","768","legacy","20","11","C:/Users/Owner/Documents/ctsubject-3.csv","xpyriment","6 9 4 5 2","Kafkaesque Koffka","3.2.5","0","n","0","right","right","left","right","NA","806","86748","13566","806","NA","2","legacy","5","1024","2","48000","-16","experiment","3","odd","1","327862","323917","325561","4673","189215","325615","248255","4709","175648","329879","326646","330687","91459","329879","NA","Sternburg task","29","25410","33","yes","1024"
"88.2352941176","88.2352941176","772.470588235","772.470588235","black","experiment","xpyriment","legacy","legacy","0","uniform","1","undefined","1","right","33","33","33","0","0","33","33","0","0","33","33","33","0","33","0","10/07/18 23:05:12","The main experiment item","yes","Sternburgtask.osexp","C:/Users/Owner/Documents","no","mono","no","18","no","white","no","yes","768","legacy","21","11","C:/Users/Owner/Documents/ctsubject-3.csv","xpyriment","9 5 3 2 8 6","Kafkaesque Koffka","3.2.5","0","n","0","right","right","left","right","NA","854","86748","13566","854","NA","2","legacy","6","1024","2","48000","-16","experiment","3","odd","7","334718","330742","332405","4673","189215","332471","248255","4709","175648","336735","333501","337590","91459","336734","NA","Sternburg task","30","26264","34","yes","1024"
"88.5714285714","88.5714285714","768.257142857","768.257142857","black","experiment","xpyriment","legacy","legacy","0","uniform","1","undefined","1","right","34","34","34","0","0","34","34","0","0","34","34","34","0","34","0","10/07/18 23:05:12","The main experiment item","yes","Sternburgtask.osexp","C:/Users/Owner/Documents","no","mono","no","18","no","white","no","yes","768","legacy","22","11","C:/Users/Owner/Documents/ctsubject-3.csv","xpyriment","7 9","Kafkaesque Koffka","3.2.5","0","n","0","right","right","left","right","NA","625","86748","13566","625","NA","2","legacy","2","1024","2","48000","-16","experiment","3","odd","1","341823","337883","339539","4673","189215","339591","248255","4709","175648","343841","340619","344467","91459","343840","NA","Sternburg task","31","26889","35","yes","1024"
"88.8888888889","88.8888888889","764.722222222","764.722222222","black","experiment","xpyriment","legacy","legacy","0","uniform","1","undefined","1","right","35","35","35","0","0","35","35","0","0","35","35","35","0","35","0","10/07/18 23:05:12","The main experiment item","yes","Sternburgtask.osexp","C:/Users/Owner/Documents","no","mono","no","18","no","white","no","yes","768","legacy","23","11","C:/Users/Owner/Documents/ctsubject-3.csv","xpyriment","5 9 2 3","Kafkaesque Koffka","3.2.5","0","n","0","right","right","left","right","NA","641","86748","13566","641","NA","2","legacy","4","1024","2","48000","-16","experiment","3","odd","8","348480","344522","346168","4673","189215","346235","248255","4709","175648","350497","347264","351140","91459","350496","NA","Sternburg task","32","27530","36","yes","1024"
"86.4864864865","86.4864864865","766.324324324","766.324324324","black","experiment","xpyriment","legacy","legacy","0","uniform","0","undefined","0","left","36","36","36","0","0","36","36","0","0","36","36","36","0","36","0","10/07/18 23:05:12","The main experiment item","yes","Sternburgtask.osexp","C:/Users/Owner/Documents","no","mono","no","18","no","white","no","yes","768","legacy","24","11","C:/Users/Owner/Documents/ctsubject-3.csv","xpyriment","8 5 4 7 3 1","Kafkaesque Koffka","3.2.5","2","y","0","right","right","left","right","NA","824","86748","13566","824","NA","2","legacy","6","1024","2","48000","-16","experiment","3","odd","5","355122","351191","352835","4673","189215","352888","248255","4709","175648","357125","353918","357951","91459","357125","NA","Sternburg task","32","28354","37","yes","1024"
"86.8421052632","86.8421052632","763.710526316","763.710526316","black","experiment","xpyriment","legacy","legacy","0","uniform","1","undefined","1","right","37","37","37","0","0","37","37","0","0","37","37","37","0","37","0","10/07/18 23:05:12","The main experiment item","yes","Sternburgtask.osexp","C:/Users/Owner/Documents","no","mono","no","18","no","white","no","yes","768","legacy","25","11","C:/Users/Owner/Documents/ctsubject-3.csv","xpyriment","8 5 4 2 9 6","Kafkaesque Koffka","3.2.5","0","n","0","right","right","left","right","NA","667","86748","13566","667","NA","2","legacy","6","1024","2","48000","-16","experiment","3","odd","3","361978","351191","359688","4673","189215","359743","358016","4709","175648","363982","360774","364650","91459","363981","NA","Sternburg task","33","29021","38","yes","1024"
"87.1794871795","87.1794871795","759.641025641","759.641025641","black","experiment","xpyriment","legacy","legacy","0","uniform","1","undefined","1","right","38","38","38","0","0","38","38","0","0","38","38","38","0","38","0","10/07/18 23:05:12","The main experiment item","yes","Sternburgtask.osexp","C:/Users/Owner/Documents","no","mono","no","18","no","white","no","yes","768","legacy","26","11","C:/Users/Owner/Documents/ctsubject-3.csv","xpyriment","2 5 1 4","Kafkaesque Koffka","3.2.5","0","n","0","right","right","left","right","NA","605","86748","13566","605","NA","2","legacy","4","1024","2","48000","-16","experiment","3","odd","6","368682","364722","366382","4673","189215","366435","358016","4709","175648","370687","367465","371293","91459","370687","NA","Sternburg task","34","29626","39","yes","1024"
"87.5","87.5","756.6","756.6","black","experiment","xpyriment","legacy","legacy","0","uniform","1","undefined","1","right","39","39","39","0","0","39","39","0","0","39","39","39","0","39","0","10/07/18 23:05:12","The main experiment item","yes","Sternburgtask.osexp","C:/Users/Owner/Documents","no","mono","no","18","no","white","no","yes","768","legacy","27","11","C:/Users/Owner/Documents/ctsubject-3.csv","xpyriment","6 8 4","Kafkaesque Koffka","3.2.5","0","n","0","right","right","left","right","NA","638","86748","13566","638","NA","2","legacy","3","1024","2","48000","-16","experiment","3","odd","1","375305","371347","372995","4673","189215","373059","358016","4709","175648","377322","374090","377961","91459","377321","NA","Sternburg task","35","30264","40","yes","1024"
"87.8048780488","87.8048780488","755.12195122","755.12195122","black","experiment","xpyriment","legacy","legacy","0","uniform","1","undefined","1","left","40","40","40","0","0","40","40","0","0","40","40","40","0","40","0","10/07/18 23:05:12","The main experiment item","yes","Sternburgtask.osexp","C:/Users/Owner/Documents","no","mono","no","18","no","white","no","yes","768","legacy","28","11","C:/Users/Owner/Documents/ctsubject-3.csv","xpyriment","3 5 7 1","Kafkaesque Koffka","3.2.5","3","y","0","left","right","left","left","NA","696","86748","13566","696","NA","2","legacy","4","1024","2","48000","-16","experiment","3","odd","7","381986","378035","379696","4673","189215","379750","358016","4709","175648","383989","380781","384686","91459","383989","NA","Sternburg task","36","30960","41","yes","1024"
"88.0952380952","88.0952380952","750.619047619","750.619047619","black","experiment","xpyriment","legacy","legacy","0","uniform","1","undefined","1","right","41","41","41","0","0","41","41","0","0","41","41","41","0","41","0","10/07/18 23:05:12","The main experiment item","yes","Sternburgtask.osexp","C:/Users/Owner/Documents","no","mono","no","18","no","white","no","yes","768","legacy","29","11","C:/Users/Owner/Documents/ctsubject-3.csv","xpyriment","1 4 9 3","Kafkaesque Koffka","3.2.5","0","n","0","right","right","left","right","NA","566","86748","13566","566","NA","2","legacy","4","1024","2","48000","-16","experiment","3","odd","5","388735","384758","386425","4673","189215","386488","358016","4709","175648","390740","387516","391307","91459","390739","NA","Sternburg task","37","31526","42","yes","1024"
"88.3720930233","88.3720930233","754.302325581","754.302325581","black","experiment","xpyriment","legacy","legacy","0","uniform","1","undefined","1","left","42","42","42","0","0","42","42","0","0","42","42","42","0","42","0","10/07/18 23:05:12","The main experiment item","yes","Sternburgtask.osexp","C:/Users/Owner/Documents","no","mono","no","18","no","white","no","yes","768","legacy","30","11","C:/Users/Owner/Documents/ctsubject-3.csv","xpyriment","7 6","Kafkaesque Koffka","3.2.5","2","y","0","left","right","left","left","NA","909","86748","13566","909","NA","2","legacy","2","1024","2","48000","-16","experiment","3","odd","6","395293","391361","393006","4673","189215","393060","358016","4709","175648","397297","394089","398207","91459","397296","NA","Sternburg task","38","32435","43","yes","1024"
"88.6363636364","88.6363636364","753","753","black","experiment","xpyriment","legacy","legacy","0","uniform","1","undefined","1","left","43","43","43","0","0","43","43","0","0","43","43","43","0","43","0","10/07/18 23:05:12","The main experiment item","yes","Sternburgtask.osexp","C:/Users/Owner/Documents","no","mono","no","18","no","white","no","yes","768","legacy","31","11","C:/Users/Owner/Documents/ctsubject-3.csv","xpyriment","8 1 6","Kafkaesque Koffka","3.2.5","3","y","0","left","right","left","left","NA","697","86748","13566","697","NA","2","legacy","3","1024","2","48000","-16","experiment","3","odd","6","402216","398262","399901","4673","189215","399960","358016","4709","175648","404220","400999","404919","91459","404220","NA","Sternburg task","39","33132","44","yes","1024"
"88.8888888889","88.8888888889","752.777777778","752.777777778","black","experiment","xpyriment","legacy","legacy","0","uniform","1","undefined","1","right","44","44","44","0","0","44","44","0","0","44","44","44","0","44","0","10/07/18 23:05:12","The main experiment item","yes","Sternburgtask.osexp","C:/Users/Owner/Documents","no","mono","no","18","no","white","no","yes","768","legacy","32","11","C:/Users/Owner/Documents/ctsubject-3.csv","xpyriment","2 8 6 3 1","Kafkaesque Koffka","3.2.5","0","n","0","right","right","left","right","NA","743","86748","13566","743","NA","2","legacy","5","1024","2","48000","-16","experiment","3","odd","7","408903","404951","406590","4673","189215","406656","358016","4709","175648","410919","407688","411663","91459","410919","NA","Sternburg task","40","33875","45","yes","1024"
"89.1304347826","89.1304347826","752.630434783","752.630434783","black","experiment","xpyriment","legacy","legacy","0","uniform","1","undefined","1","left","45","45","45","0","0","45","45","0","0","45","45","45","0","45","0","10/07/18 23:05:12","The main experiment item","yes","Sternburgtask.osexp","C:/Users/Owner/Documents","no","mono","no","18","no","white","no","yes","768","legacy","33","11","C:/Users/Owner/Documents/ctsubject-3.csv","xpyriment","4 1 8 7 5","Kafkaesque Koffka","3.2.5","3","y","0","left","right","left","left","NA","746","86748","13566","746","NA","2","legacy","5","1024","2","48000","-16","experiment","3","odd","8","415678","411715","413372","4673","189215","413429","358016","4709","175648","417683","414461","418432","91459","417682","NA","Sternburg task","41","34621","46","yes","1024"
"87.2340425532","87.2340425532","753.382978723","753.382978723","black","experiment","xpyriment","legacy","legacy","0","uniform","0","undefined","0","right","46","46","46","0","0","46","46","0","0","46","46","46","0","46","0","10/07/18 23:05:12","The main experiment item","yes","Sternburgtask.osexp","C:/Users/Owner/Documents","no","mono","no","18","no","white","no","yes","768","legacy","34","11","C:/Users/Owner/Documents/ctsubject-3.csv","xpyriment","6 9 4 5 3 2","Kafkaesque Koffka","3.2.5","0","n","0","left","right","left","left","NA","788","86748","13566","788","NA","2","legacy","6","1024","2","48000","-16","experiment","3","odd","8","422416","418472","420125","4673","189215","420168","358016","4709","175648","424421","421198","425210","91459","424420","NA","Sternburg task","41","35409","47","yes","1024"
"87.5","87.5","762.666666667","762.666666667","black","experiment","xpyriment","legacy","legacy","0","uniform","1","undefined","1","right","47","47","47","0","0","47","47","0","0","47","47","47","0","47","0","10/07/18 23:05:12","The main experiment item","yes","Sternburgtask.osexp","C:/Users/Owner/Documents","no","mono","no","18","no","white","no","yes","768","legacy","35","11","C:/Users/Owner/Documents/ctsubject-3.csv","xpyriment","4 2 7 6 1 3","Kafkaesque Koffka","3.2.5","0","n","0","right","right","left","right","NA","1199","86748","13566","1199","NA","2","legacy","6","1024","2","48000","-16","experiment","3","odd","8","429221","418472","426921","4673","189215","426977","425243","4709","175648","431238","428006","432439","91459","431238","NA","Sternburg task","42","36608","48","yes","1024"
"87.7551020408","87.7551020408","762.081632653","762.081632653","black","experiment","xpyriment","legacy","legacy","0","uniform","1","undefined","1","right","48","48","48","0","0","48","48","0","0","48","48","48","0","48","0","10/07/18 23:05:12","The main experiment item","yes","Sternburgtask.osexp","C:/Users/Owner/Documents","no","mono","no","18","no","white","no","yes","768","legacy","36","11","C:/Users/Owner/Documents/ctsubject-3.csv","xpyriment","1 5 3 2 8","Kafkaesque Koffka","3.2.5","0","n","0","right","right","left","right","NA","734","86748","13566","734","NA","2","legacy","5","1024","2","48000","-16","experiment","3","odd","4","436460","432500","434170","4673","189215","434214","425243","4709","175648","438477","435244","439212","91459","438476","NA","Sternburg task","43","37342","49","yes","1024"
"88","88","762.12","762.12","black","experiment","xpyriment","legacy","legacy","0","uniform","1","undefined","1","left","49","49","49","0","0","49","49","0","0","49","49","49","0","49","0","10/07/18 23:05:12","The main experiment item","yes","Sternburgtask.osexp","C:/Users/Owner/Documents","no","mono","no","18","no","white","no","yes","768","legacy","37","11","C:/Users/Owner/Documents/ctsubject-3.csv","xpyriment","8 5 3 7 4 6","Kafkaesque Koffka","3.2.5","6","y","0","left","right","left","left","NA","764","86748","13566","764","NA","2","legacy","6","1024","2","48000","-16","experiment","3","odd","6","443218","439265","440938","4673","189215","440984","425243","4709","175648","445221","442014","445986","91459","445221","NA","Sternburg task","44","38106","50","yes","1024"
"88.2352941176","88.2352941176","761.62745098","761.62745098","black","experiment","xpyriment","legacy","legacy","0","uniform","1","undefined","1","right","50","50","50","0","0","50","50","0","0","50","50","50","0","50","0","10/07/18 23:05:12","The main experiment item","yes","Sternburgtask.osexp","C:/Users/Owner/Documents","no","mono","no","18","no","white","no","yes","768","legacy","38","11","C:/Users/Owner/Documents/ctsubject-3.csv","xpyriment","1 4 9 2 5","Kafkaesque Koffka","3.2.5","0","n","0","right","right","left","right","NA","737","86748","13566","737","NA","2","legacy","5","1024","2","48000","-16","experiment","3","odd","7","449975","446041","447697","4673","189215","447741","425243","4709","175648","451978","448771","452717","91459","451978","NA","Sternburg task","45","38843","51","yes","1024"
"88.4615384615","88.4615384615","772.673076923","772.673076923","black","experiment","xpyriment","legacy","legacy","0","uniform","1","undefined","1","left","51","51","51","0","0","51","51","0","0","51","51","51","0","51","0","10/07/18 23:05:12","The main experiment item","yes","Sternburgtask.osexp","C:/Users/Owner/Documents","no","mono","no","18","no","white","no","yes","768","legacy","39","11","C:/Users/Owner/Documents/ctsubject-3.csv","xpyriment","7 4 2 6 3 5","Kafkaesque Koffka","3.2.5","6","y","0","left","right","left","left","NA","1336","86748","13566","1336","NA","2","legacy","6","1024","2","48000","-16","experiment","3","odd","5","456697","452769","454417","4673","189215","454463","425243","4709","175648","458712","455493","460050","91459","458711","NA","Sternburg task","46","40179","52","yes","1024"
"88.679245283","88.679245283","766.113207547","766.113207547","black","experiment","xpyriment","legacy","legacy","0","uniform","1","undefined","1","right","52","52","52","0","0","52","52","0","0","52","52","52","0","52","0","10/07/18 23:05:12","The main experiment item","yes","Sternburgtask.osexp","C:/Users/Owner/Documents","no","mono","no","18","no","white","no","yes","768","legacy","40","11","C:/Users/Owner/Documents/ctsubject-3.csv","xpyriment","1","Kafkaesque Koffka","3.2.5","0","n","0","right","right","left","right","NA","425","86748","13566","425","NA","2","legacy","1","1024","2","48000","-16","experiment","3","odd","7","464068","460108","461772","4673","189215","461823","425243","4709","175648","466084","462852","466511","91459","466084","NA","Sternburg task","47","40604","53","yes","1024"
"87.037037037","87.037037037","771.074074074","771.074074074","black","experiment","xpyriment","legacy","legacy","0","uniform","0","undefined","0","left","53","53","53","0","0","53","53","0","0","53","53","53","0","53","0","10/07/18 23:05:12","The main experiment item","yes","Sternburgtask.osexp","C:/Users/Owner/Documents","no","mono","no","18","no","white","no","yes","768","legacy","41","11","C:/Users/Owner/Documents/ctsubject-3.csv","xpyriment","6 9 3 1","Kafkaesque Koffka","3.2.5","4","y","0","right","right","left","right","NA","1034","86748","13566","1034","NA","2","legacy","4","1024","2","48000","-16","experiment","3","odd","1","470516","466581","468237","4673","189215","468288","425243","4709","175648","472520","469311","473555","91459","472519","NA","Sternburg task","47","41638","54","yes","1024"
"87.2727272727","87.2727272727","772.690909091","772.690909091","black","experiment","xpyriment","legacy","legacy","0","uniform","1","undefined","1","left","54","54","54","0","0","54","54","0","0","54","54","54","0","54","0","10/07/18 23:05:12","The main experiment item","yes","Sternburgtask.osexp","C:/Users/Owner/Documents","no","mono","no","18","no","white","no","yes","768","legacy","42","11","C:/Users/Owner/Documents/ctsubject-3.csv","xpyriment","4 9 7 8 5 3","Kafkaesque Koffka","3.2.5","4","y","0","left","right","left","left","NA","860","86748","13566","860","NA","2","legacy","6","1024","2","48000","-16","experiment","3","odd","8","477582","466581","475275","4673","189215","475326","473622","4709","175648","479586","476366","480447","91459","479585","NA","Sternburg task","48","42498","55","yes","1024"
"87.5","87.5","772.464285714","772.464285714","black","experiment","xpyriment","legacy","legacy","0","uniform","1","undefined","1","right","55","55","55","0","0","55","55","0","0","55","55","55","0","55","0","10/07/18 23:05:12","The main experiment item","yes","Sternburgtask.osexp","C:/Users/Owner/Documents","no","mono","no","18","no","white","no","yes","768","legacy","43","11","C:/Users/Owner/Documents/ctsubject-3.csv","xpyriment","8 4 3 5","Kafkaesque Koffka","3.2.5","0","n","0","right","right","left","right","NA","760","86748","13566","760","NA","2","legacy","4","1024","2","48000","-16","experiment","3","odd","6","484471","480501","482160","4673","189215","482225","473622","4709","175648","486476","483256","487238","91459","486475","NA","Sternburg task","49","43258","56","yes","1024"
"87.7192982456","87.7192982456","777.719298246","777.719298246","black","experiment","xpyriment","legacy","legacy","0","uniform","1","undefined","1","right","56","56","56","0","0","56","56","0","0","56","56","56","0","56","0","10/07/18 23:05:12","The main experiment item","yes","Sternburgtask.osexp","C:/Users/Owner/Documents","no","mono","no","18","no","white","no","yes","768","legacy","44","11","C:/Users/Owner/Documents/ctsubject-3.csv","xpyriment","2 7 5","Kafkaesque Koffka","3.2.5","0","n","0","right","right","left","right","NA","1072","86748","13566","1072","NA","2","legacy","3","1024","2","48000","-16","experiment","3","odd","8","491261","487292","488963","4673","189215","489014","473622","4709","175648","493266","490043","494342","91459","493265","NA","Sternburg task","50","44330","57","yes","1024"
"87.9310344828","87.9310344828","776.913793103","776.913793103","black","experiment","xpyriment","legacy","legacy","0","uniform","1","undefined","1","right","57","57","57","0","0","57","57","0","0","57","57","57","0","57","0","10/07/18 23:05:12","The main experiment item","yes","Sternburgtask.osexp","C:/Users/Owner/Documents","no","mono","no","18","no","white","no","yes","768","legacy","45","11","C:/Users/Owner/Documents/ctsubject-3.csv","xpyriment","1 7 8 3 9","Kafkaesque Koffka","3.2.5","0","n","0","right","right","left","right","NA","731","86748","13566","731","NA","2","legacy","5","1024","2","48000","-16","experiment","3","odd","2","498367","494440","496084","4673","189215","496136","473622","4709","175648","500370","497163","501102","91459","500370","NA","Sternburg task","51","45061","58","yes","1024"
"88.1355932203","88.1355932203","776.661016949","776.661016949","black","experiment","xpyriment","legacy","legacy","0","uniform","1","undefined","1","left","58","58","58","0","0","58","58","0","0","58","58","58","0","58","0","10/07/18 23:05:12","The main experiment item","yes","Sternburgtask.osexp","C:/Users/Owner/Documents","no","mono","no","18","no","white","no","yes","768","legacy","46","11","C:/Users/Owner/Documents/ctsubject-3.csv","xpyriment","8 7 3","Kafkaesque Koffka","3.2.5","1","y","0","left","right","left","left","NA","762","86748","13566","762","NA","2","legacy","3","1024","2","48000","-16","experiment","3","odd","8","505107","501160","502809","4673","189215","502874","473622","4709","175648","507110","503903","507874","91459","507110","NA","Sternburg task","52","45823","59","yes","1024"
"86.6666666667","86.6666666667","781.55","781.55","black","experiment","xpyriment","legacy","legacy","0","uniform","0","undefined","0","left","59","59","59","0","0","59","59","0","0","59","59","59","0","59","0","10/07/18 23:05:12","The main experiment item","yes","Sternburgtask.osexp","C:/Users/Owner/Documents","no","mono","no","18","no","white","no","yes","768","legacy","47","11","C:/Users/Owner/Documents/ctsubject-3.csv","xpyriment","1 4 9 3 2 5","Kafkaesque Koffka","3.2.5","3","y","0","right","right","left","right","NA","1070","86748","13566","1070","NA","2","legacy","6","1024","2","48000","-16","experiment","3","odd","9","511878","507927","509582","4673","189215","509643","473622","4709","175648","513881","510674","514952","91459","513881","NA","Sternburg task","52","46893","60","yes","1024"
"86.8852459016","86.8852459016","781.885245902","781.885245902","black","experiment","xpyriment","legacy","legacy","0","uniform","1","undefined","1","right","60","60","60","0","0","60","60","0","0","60","60","60","0","60","0","10/07/18 23:05:12","The main experiment item","yes","Sternburgtask.osexp","C:/Users/Owner/Documents","no","mono","no","18","no","white","no","yes","768","legacy","48","11","C:/Users/Owner/Documents/ctsubject-3.csv","xpyriment","8 6 3 4 7","Kafkaesque Koffka","3.2.5","0","n","0","right","right","left","right","NA","802","86748","13566","802","NA","2","legacy","5","1024","2","48000","-16","experiment","3","odd","1","518952","507927","516644","4673","189215","516719","514982","4709","175648","520955","517748","521759","91459","520955","NA","Sternburg task","53","47695","61","yes","1024"
"87.0967741935","87.0967741935","779.935483871","779.935483871","black","experiment","xpyriment","legacy","legacy","0","uniform","1","undefined","1","right","61","61","61","0","0","61","61","0","0","61","61","61","0","61","0","10/07/18 23:05:12","The main experiment item","yes","Sternburgtask.osexp","C:/Users/Owner/Documents","no","mono","no","18","no","white","no","yes","768","legacy","49","11","C:/Users/Owner/Documents/ctsubject-3.csv","xpyriment","3 9 8 1 6 4","Kafkaesque Koffka","3.2.5","0","n","0","right","right","left","right","NA","661","86748","13566","661","NA","2","legacy","6","1024","2","48000","-16","experiment","3","odd","7","525791","521830","523471","4673","189215","523544","514982","4709","175648","527794","524575","528457","91459","527794","NA","Sternburg task","54","48356","62","yes","1024"
"87.3015873016","87.3015873016","780.111111111","780.111111111","black","experiment","xpyriment","legacy","legacy","0","uniform","1","undefined","1","right","62","62","62","0","0","62","62","0","0","62","62","62","0","62","0","10/07/18 23:05:12","The main experiment item","yes","Sternburgtask.osexp","C:/Users/Owner/Documents","no","mono","no","18","no","white","no","yes","768","legacy","50","11","C:/Users/Owner/Documents/ctsubject-3.csv","xpyriment","8 2 1 4 5 9","Kafkaesque Koffka","3.2.5","0","n","0","right","right","left","right","NA","791","86748","13566","791","NA","2","legacy","6","1024","2","48000","-16","experiment","3","odd","7","532470","528520","530166","4673","189215","530227","514982","4709","175648","534473","531266","535265","91459","534473","NA","Sternburg task","55","49147","63","yes","1024"
"87.5","87.5","779.34375","779.34375","black","experiment","xpyriment","legacy","legacy","0","uniform","1","undefined","1","left","63","63","63","0","0","63","63","0","0","63","63","63","0","63","0","10/07/18 23:05:12","The main experiment item","yes","Sternburgtask.osexp","C:/Users/Owner/Documents","no","mono","no","18","no","white","no","yes","768","legacy","51","11","C:/Users/Owner/Documents/ctsubject-3.csv","xpyriment","4","Kafkaesque Koffka","3.2.5","1","y","0","left","right","left","left","NA","731","86748","13566","731","NA","2","legacy","1","1024","2","48000","-16","experiment","3","odd","4","539302","535326","536978","4673","189215","537054","514982","4709","175648","541306","538085","542039","91459","541305","NA","Sternburg task","56","49878","64","yes","1024"
"87.6923076923","87.6923076923","782.692307692","782.692307692","black","experiment","xpyriment","legacy","legacy","0","uniform","1","undefined","1","right","64","64","64","0","0","64","64","0","0","64","64","64","0","64","0","10/07/18 23:05:12","The main experiment item","yes","Sternburgtask.osexp","C:/Users/Owner/Documents","no","mono","no","18","no","white","no","yes","768","legacy","52","11","C:/Users/Owner/Documents/ctsubject-3.csv","xpyriment","6 9 5","Kafkaesque Koffka","3.2.5","0","n","0","right","right","left","right","NA","997","86748","13566","997","NA","2","legacy","3","1024","2","48000","-16","experiment","3","odd","8","546109","542160","543808","4673","189215","543871","514982","4709","175648","548113","544904","549112","91459","548113","NA","Sternburg task","57","50875","65","yes","1024"
"86.3636363636","86.3636363636","784.106060606","784.106060606","black","experiment","xpyriment","legacy","legacy","0","uniform","0","undefined","0","left","65","65","65","0","0","65","65","0","0","65","65","65","0","65","0","10/07/18 23:05:12","The main experiment item","yes","Sternburgtask.osexp","C:/Users/Owner/Documents","no","mono","no","18","no","white","no","yes","768","legacy","53","11","C:/Users/Owner/Documents/ctsubject-3.csv","xpyriment","6 1 2","Kafkaesque Koffka","3.2.5","3","y","0","right","right","left","right","NA","876","86748","13566","876","NA","2","legacy","3","1024","2","48000","-16","experiment","3","odd","2","553104","549149","550794","4673","189215","550868","514982","4709","175648","555107","551900","555986","91459","555107","NA","Sternburg task","57","51751","66","yes","1024"
"85.0746268657","85.0746268657","785.179104478","785.179104478","black","experiment","xpyriment","legacy","legacy","0","uniform","0","undefined","0","left","66","66","66","0","0","66","66","0","0","66","66","66","0","66","0","10/07/18 23:05:12","The main experiment item","yes","Sternburgtask.osexp","C:/Users/Owner/Documents","no","mono","no","18","no","white","no","yes","768","legacy","54","11","C:/Users/Owner/Documents/ctsubject-3.csv","xpyriment","9 3 1 2 5","Kafkaesque Koffka","3.2.5","4","y","0","right","right","left","right","NA","856","86748","13566","856","NA","2","legacy","5","1024","2","48000","-16","experiment","3","odd","2","560035","549149","557715","4673","189215","557789","556044","4709","175648","562052","558819","562909","91459","562051","NA","Sternburg task","57","52607","67","yes","1024"
"85.2941176471","85.2941176471","784.867647059","784.867647059","black","experiment","xpyriment","legacy","legacy","0","uniform","1","undefined","1","right","67","67","67","0","0","67","67","0","0","67","67","67","0","67","0","10/07/18 23:05:12","The main experiment item","yes","Sternburgtask.osexp","C:/Users/Owner/Documents","no","mono","no","18","no","white","no","yes","768","legacy","55","11","C:/Users/Owner/Documents/ctsubject-3.csv","xpyriment","1 4 3 6 5","Kafkaesque Koffka","3.2.5","0","n","0","right","right","left","right","NA","764","86748","13566","764","NA","2","legacy","5","1024","2","48000","-16","experiment","3","odd","8","566958","549149","564637","4673","189215","564713","563000","4709","175648","568963","565743","569729","91459","568963","NA","Sternburg task","58","53371","68","yes","1024"
"85.5072463768","85.5072463768","786.47826087","786.47826087","black","experiment","xpyriment","legacy","legacy","0","uniform","1","undefined","1","right","68","68","68","0","0","68","68","0","0","68","68","68","0","68","0","10/07/18 23:05:12","The main experiment item","yes","Sternburgtask.osexp","C:/Users/Owner/Documents","no","mono","no","18","no","white","no","yes","768","legacy","56","11","C:/Users/Owner/Documents/ctsubject-3.csv","xpyriment","6 8","Kafkaesque Koffka","3.2.5","0","n","0","right","right","left","right","NA","896","86748","13566","896","NA","2","legacy","2","1024","2","48000","-16","experiment","3","odd","9","573740","569787","571441","4673","189215","571499","563000","4709","175648","575743","572535","576641","91459","575743","NA","Sternburg task","59","54267","69","yes","1024"
"84.2857142857","84.2857142857","792.457142857","792.457142857","black","experiment","xpyriment","legacy","legacy","0","uniform","0","undefined","0","left","69","69","69","0","0","69","69","0","0","69","69","69","0","69","0","10/07/18 23:05:12","The main experiment item","yes","Sternburgtask.osexp","C:/Users/Owner/Documents","no","mono","no","18","no","white","no","yes","768","legacy","57","11","C:/Users/Owner/Documents/ctsubject-3.csv","xpyriment","5 7 8 2 3 8","Kafkaesque Koffka","3.2.5","5","y","0","right","right","left","right","NA","1205","86748","13566","1205","NA","2","legacy","6","1024","2","48000","-16","experiment","3","odd","3","580672","576712","578363","4673","189215","578422","563000","4709","175648","582676","579455","583883","91459","582676","NA","Sternburg task","59","55472","70","yes","1024"
"84.5070422535","84.5070422535","791.605633803","791.605633803","black","experiment","xpyriment","legacy","legacy","0","uniform","1","undefined","1","right","70","70","70","0","0","70","70","0","0","70","70","70","0","70","0","10/07/18 23:05:12","The main experiment item","yes","Sternburgtask.osexp","C:/Users/Owner/Documents","no","mono","no","18","no","white","no","yes","768","legacy","58","11","C:/Users/Owner/Documents/ctsubject-3.csv","xpyriment","6 7 5 9","Kafkaesque Koffka","3.2.5","0","n","0","right","right","left","right","NA","732","86748","13566","732","NA","2","legacy","4","1024","2","48000","-16","experiment","3","odd","2","587878","576712","585588","4673","189215","585645","583940","4709","175648","589881","586674","590615","91459","589881","NA","Sternburg task","60","56204","71","yes","1024"
"84.7222222222","84.7222222222","789.986111111","789.986111111","black","experiment","xpyriment","legacy","legacy","0","uniform","1","undefined","1","right","71","71","71","0","0","71","71","0","0","71","71","71","0","71","0","10/07/18 23:05:12","The main experiment item","yes","Sternburgtask.osexp","C:/Users/Owner/Documents","no","mono","no","18","no","white","no","yes","768","legacy","59","11","C:/Users/Owner/Documents/ctsubject-3.csv","xpyriment","2 3 8 5 6 7","Kafkaesque Koffka","3.2.5","0","n","0","right","right","left","right","NA","675","86748","13566","675","NA","2","legacy","6","1024","2","48000","-16","experiment","3","odd","1","594751","590689","592399","4673","189215","592518","583940","4709","175648","596754","593547","597431","91459","596754","NA","Sternburg task","61","56879","72","yes","1024"
"84.9315068493","84.9315068493","788.849315068","788.849315068","black","experiment","xpyriment","legacy","legacy","0","uniform","1","undefined","1","right","72","72","72","0","0","72","72","0","0","72","72","72","0","72","0","10/07/18 23:05:12","The main experiment item","yes","Sternburgtask.osexp","C:/Users/Owner/Documents","no","mono","no","18","no","white","no","yes","768","legacy","60","11","C:/Users/Owner/Documents/ctsubject-3.csv","xpyriment","4 2 6 9","Kafkaesque Koffka","3.2.5","0","n","0","right","right","left","right","NA","707","86748","13566","707","NA","2","legacy","4","1024","2","48000","-16","experiment","3","odd","7","601438","597486","599125","4673","189215","599190","583940","4709","175648","603454","600221","604163","91459","603454","NA","Sternburg task","62","57586","73","yes","1024"
"85.1351351351","85.1351351351","786.878378378","786.878378378","black","experiment","xpyriment","legacy","legacy","0","uniform","1","undefined","1","right","73","73","73","0","0","73","73","0","0","73","73","73","0","73","0","10/07/18 23:05:12","The main experiment item","yes","Sternburgtask.osexp","C:/Users/Owner/Documents","no","mono","no","18","no","white","no","yes","768","legacy","61","11","C:/Users/Owner/Documents/ctsubject-3.csv","xpyriment","9","Kafkaesque Koffka","3.2.5","0","n","0","right","right","left","right","NA","643","86748","13566","643","NA","2","legacy","1","1024","2","48000","-16","experiment","3","odd","6","608193","604242","605898","4673","189215","605961","583940","4709","175648","610211","606989","610856","91459","610210","NA","Sternburg task","63","58229","74","yes","1024"
"84","84","785.306666667","785.306666667","black","experiment","xpyriment","legacy","legacy","0","uniform","0","undefined","0","left","74","74","74","0","0","74","74","0","0","74","74","74","0","74","0","10/07/18 23:05:12","The main experiment item","yes","Sternburgtask.osexp","C:/Users/Owner/Documents","no","mono","no","18","no","white","no","yes","768","legacy","62","11","C:/Users/Owner/Documents/ctsubject-3.csv","xpyriment","2 4 8 5 1 3","Kafkaesque Koffka","3.2.5","1","y","0","right","right","left","right","NA","669","86748","13566","669","NA","2","legacy","6","1024","2","48000","-16","experiment","3","odd","2","614867","610925","612572","4673","189215","612632","583940","4709","175648","616883","613663","617554","91459","616883","NA","Sternburg task","63","58898","75","yes","1024"
"84.2105263158","84.2105263158","783.631578947","783.631578947","black","experiment","xpyriment","legacy","legacy","0","uniform","1","undefined","1","right","75","75","75","0","0","75","75","0","0","75","75","75","0","75","0","10/07/18 23:05:12","The main experiment item","yes","Sternburgtask.osexp","C:/Users/Owner/Documents","no","mono","no","18","no","white","no","yes","768","legacy","63","11","C:/Users/Owner/Documents/ctsubject-3.csv","xpyriment","5 3 2 6 9 8","Kafkaesque Koffka","3.2.5","0","n","0","right","right","left","right","NA","658","86748","13566","658","NA","2","legacy","6","1024","2","48000","-16","experiment","3","odd","4","621557","610925","619256","4673","189215","619318","617615","4709","175648","623573","620341","624233","91459","623573","NA","Sternburg task","64","59556","76","yes","1024"
"84.4155844156","84.4155844156","789.766233766","789.766233766","black","experiment","xpyriment","legacy","legacy","0","uniform","1","undefined","1","left","76","76","76","0","0","76","76","0","0","76","76","76","0","76","0","10/07/18 23:05:12","The main experiment item","yes","Sternburgtask.osexp","C:/Users/Owner/Documents","no","mono","no","18","no","white","no","yes","768","legacy","64","11","C:/Users/Owner/Documents/ctsubject-3.csv","xpyriment","3 2 1 4 7","Kafkaesque Koffka","3.2.5","2","y","0","left","right","left","left","NA","1256","86748","13566","1256","NA","2","legacy","5","1024","2","48000","-16","experiment","3","odd","2","628232","624267","625917","4673","189215","625977","617615","4709","175648","630236","627015","631493","91459","630235","NA","Sternburg task","65","60812","77","yes","1024"
"84.6153846154","84.6153846154","793.294871795","793.294871795","black","experiment","xpyriment","legacy","legacy","0","uniform","1","undefined","1","right","77","77","77","0","0","77","77","0","0","77","77","77","0","77","0","10/07/18 23:05:12","The main experiment item","yes","Sternburgtask.osexp","C:/Users/Owner/Documents","no","mono","no","18","no","white","no","yes","768","legacy","65","11","C:/Users/Owner/Documents/ctsubject-3.csv","xpyriment","6 3 1 7 9 8","Kafkaesque Koffka","3.2.5","0","n","0","right","right","left","right","NA","1065","86748","13566","1065","NA","2","legacy","6","1024","2","48000","-16","experiment","3","odd","4","635554","631558","633236","4673","189215","633297","617615","4709","175648","637558","634338","638625","91459","637558","NA","Sternburg task","66","61877","78","yes","1024"
"84.8101265823","84.8101265823","795.17721519","795.17721519","black","experiment","xpyriment","legacy","legacy","0","uniform","1","undefined","1","right","78","78","78","0","0","78","78","0","0","78","78","78","0","78","0","10/07/18 23:05:12","The main experiment item","yes","Sternburgtask.osexp","C:/Users/Owner/Documents","no","mono","no","18","no","white","no","yes","768","legacy","66","11","C:/Users/Owner/Documents/ctsubject-3.csv","xpyriment","1 6 4 3 9 7","Kafkaesque Koffka","3.2.5","0","n","0","right","right","left","right","NA","942","86748","13566","942","NA","2","legacy","6","1024","2","48000","-16","experiment","3","odd","8","642641","638682","640323","4673","189215","640396","617615","4709","175648","644646","641422","645589","91459","644645","NA","Sternburg task","67","62819","79","yes","1024"
"85","85","797.7","797.7","black","experiment","xpyriment","legacy","legacy","0","uniform","1","undefined","1","left","79","79","79","0","0","79","79","0","0","79","79","79","0","79","0","10/07/18 23:05:12","The main experiment item","yes","Sternburgtask.osexp","C:/Users/Owner/Documents","no","mono","no","18","no","white","no","yes","768","legacy","67","11","C:/Users/Owner/Documents/ctsubject-3.csv","xpyriment","8 3","Kafkaesque Koffka","3.2.5","2","y","0","left","right","left","left","NA","997","86748","13566","997","NA","2","legacy","2","1024","2","48000","-16","experiment","3","odd","3","649581","645646","647288","4673","189215","647348","617615","4709","175648","651596","648376","652594","91459","651596","NA","Sternburg task","68","63816","80","yes","1024"
"85.1851851852","85.1851851852","797.864197531","797.864197531","black","experiment","xpyriment","legacy","legacy","0","uniform","1","undefined","1","right","80","80","80","0","0","80","80","0","0","80","80","80","0","80","0","10/07/18 23:05:12","The main experiment item","yes","Sternburgtask.osexp","C:/Users/Owner/Documents","no","mono","no","18","no","white","no","yes","768","legacy","68","11","C:/Users/Owner/Documents/ctsubject-3.csv","xpyriment","3 4 2","Kafkaesque Koffka","3.2.5","0","n","0","right","right","left","right","NA","811","86748","13566","811","NA","2","legacy","3","1024","2","48000","-16","experiment","3","odd","5","656588","652650","654295","4673","189215","654355","617615","4709","175648","658592","655382","659406","91459","658592","NA","Sternburg task","69","64627","81","yes","1024"
"85.3658536585","85.3658536585","796.475609756","796.475609756","black","experiment","xpyriment","legacy","legacy","0","uniform","1","undefined","1","left","81","81","81","0","0","81","81","0","0","81","81","81","0","81","0","10/07/18 23:05:12","The main experiment item","yes","Sternburgtask.osexp","C:/Users/Owner/Documents","no","mono","no","18","no","white","no","yes","768","legacy","69","11","C:/Users/Owner/Documents/ctsubject-3.csv","xpyriment","7","Kafkaesque Koffka","3.2.5","1","y","0","left","right","left","left","NA","684","86748","13566","684","NA","2","legacy","1","1024","2","48000","-16","experiment","3","odd","7","663400","659446","661088","4673","189215","661154","617615","4709","175648","665403","662196","666090","91459","665403","NA","Sternburg task","70","65311","82","yes","1024"
"85.5421686747","85.5421686747","796.445783133","796.445783133","black","experiment","xpyriment","legacy","legacy","0","uniform","1","undefined","1","left","82","82","82","0","0","82","82","0","0","82","82","82","0","82","0","10/07/18 23:05:12","The main experiment item","yes","Sternburgtask.osexp","C:/Users/Owner/Documents","no","mono","no","18","no","white","no","yes","768","legacy","70","11","C:/Users/Owner/Documents/ctsubject-3.csv","xpyriment","6 5","Kafkaesque Koffka","3.2.5","2","y","0","left","right","left","left","NA","794","86748","13566","794","NA","2","legacy","2","1024","2","48000","-16","experiment","3","odd","5","670082","666139","667776","4673","189215","667852","617615","4709","175648","672098","668878","672894","91459","672097","NA","Sternburg task","71","66105","83","yes","1024"
"85.7142857143","85.7142857143","795.452380952","795.452380952","black","experiment","xpyriment","legacy","legacy","0","uniform","1","undefined","1","right","83","83","83","0","0","83","83","0","0","83","83","83","0","83","0","10/07/18 23:05:12","The main experiment item","yes","Sternburgtask.osexp","C:/Users/Owner/Documents","no","mono","no","18","no","white","no","yes","768","legacy","71","11","C:/Users/Owner/Documents/ctsubject-3.csv","xpyriment","8 4 3 9","Kafkaesque Koffka","3.2.5","0","n","0","right","right","left","right","NA","713","86748","13566","713","NA","2","legacy","4","1024","2","48000","-16","experiment","3","odd","5","676903","672960","674613","4673","189215","674675","617615","4709","175648","678921","675699","679635","91459","678920","NA","Sternburg task","72","66818","84","yes","1024"
"84.7058823529","84.7058823529","794.341176471","794.341176471","black","experiment","xpyriment","legacy","legacy","0","uniform","0","undefined","0","left","84","84","84","0","0","84","84","0","0","84","84","84","0","84","0","10/07/18 23:05:12","The main experiment item","yes","Sternburgtask.osexp","C:/Users/Owner/Documents","no","mono","no","18","no","white","no","yes","768","legacy","72","11","C:/Users/Owner/Documents/ctsubject-3.csv","xpyriment","9 6 2 4 1","Kafkaesque Koffka","3.2.5","4","y","0","right","right","left","right","NA","701","86748","13566","701","NA","2","legacy","5","1024","2","48000","-16","experiment","3","odd","4","683635","679694","681331","4673","189215","681392","617615","4709","175648","685639","682432","686341","91459","685638","NA","Sternburg task","72","67519","85","yes","1024"
"84.8837209302","84.8837209302","792.686046512","792.686046512","black","experiment","xpyriment","legacy","legacy","0","uniform","1","undefined","1","right","85","85","85","0","0","85","85","0","0","85","85","85","0","85","0","10/07/18 23:05:12","The main experiment item","yes","Sternburgtask.osexp","C:/Users/Owner/Documents","no","mono","no","18","no","white","no","yes","768","legacy","73","11","C:/Users/Owner/Documents/ctsubject-3.csv","xpyriment","9 8 2 7 4","Kafkaesque Koffka","3.2.5","0","n","0","right","right","left","right","NA","652","86748","13566","652","NA","2","legacy","5","1024","2","48000","-16","experiment","3","odd","5","690352","679694","688056","4673","189215","688118","686417","4709","175648","692355","689148","693010","91459","692355","NA","Sternburg task","73","68171","86","yes","1024"
"85.0574712644","85.0574712644","790.172413793","790.172413793","black","experiment","xpyriment","legacy","legacy","0","uniform","1","undefined","1","right","86","86","86","0","0","86","86","0","0","86","86","86","0","86","0","10/07/18 23:05:12","The main experiment item","yes","Sternburgtask.osexp","C:/Users/Owner/Documents","no","mono","no","18","no","white","no","yes","768","legacy","74","11","C:/Users/Owner/Documents/ctsubject-3.csv","xpyriment","7 1 5 6 3","Kafkaesque Koffka","3.2.5","0","n","0","right","right","left","right","NA","574","86748","13566","574","NA","2","legacy","5","1024","2","48000","-16","experiment","3","odd","8","697056","693080","694743","4673","189215","694803","686417","4709","175648","699073","695842","699649","91459","699072","NA","Sternburg task","74","68745","87","yes","1024"
"85.2272727273","85.2272727273","789.295454545","789.295454545","black","experiment","xpyriment","legacy","legacy","0","uniform","1","undefined","1","right","87","87","87","0","0","87","87","0","0","87","87","87","0","87","0","10/07/18 23:05:12","The main experiment item","yes","Sternburgtask.osexp","C:/Users/Owner/Documents","no","mono","no","18","no","white","no","yes","768","legacy","75","11","C:/Users/Owner/Documents/ctsubject-3.csv","xpyriment","2 8 7 9 5 3","Kafkaesque Koffka","3.2.5","0","n","0","right","right","left","right","NA","713","86748","13566","713","NA","2","legacy","6","1024","2","48000","-16","experiment","3","odd","6","703679","699730","701371","4673","189215","701433","686417","4709","175648","705695","702463","706411","91459","705695","NA","Sternburg task","75","69458","88","yes","1024"
"85.393258427","85.393258427","786.966292135","786.966292135","black","experiment","xpyriment","legacy","legacy","0","uniform","1","undefined","1","left","88","88","88","0","0","88","88","0","0","88","88","88","0","88","0","10/07/18 23:05:12","The main experiment item","yes","Sternburgtask.osexp","C:/Users/Owner/Documents","no","mono","no","18","no","white","no","yes","768","legacy","76","11","C:/Users/Owner/Documents/ctsubject-3.csv","xpyriment","7 1 3","Kafkaesque Koffka","3.2.5","2","y","0","left","right","left","left","NA","582","86748","13566","582","NA","2","legacy","3","1024","2","48000","-16","experiment","3","odd","1","710418","706475","708121","4673","189215","708183","686417","4709","175648","712436","709214","713021","91459","712435","NA","Sternburg task","76","70040","89","yes","1024"
"85.5555555556","85.5555555556","788.866666667","788.866666667","black","experiment","xpyriment","legacy","legacy","0","uniform","1","undefined","1","left","89","89","89","0","0","89","89","0","0","89","89","89","0","89","0","10/07/18 23:05:12","The main experiment item","yes","Sternburgtask.osexp","C:/Users/Owner/Documents","no","mono","no","18","no","white","no","yes","768","legacy","77","11","C:/Users/Owner/Documents/ctsubject-3.csv","xpyriment","3 4 9 6 2 9","Kafkaesque Koffka","3.2.5","5","y","0","left","right","left","left","NA","958","86748","13566","958","NA","2","legacy","6","1024","2","48000","-16","experiment","3","odd","2","717011","713057","714705","4673","189215","714764","686417","4709","175648","719014","715794","719976","91459","719014","NA","Sternburg task","77","70998","90","yes","1024"
"85.7142857143","85.7142857143","786.032967033","786.032967033","black","experiment","xpyriment","legacy","legacy","0","uniform","1","undefined","1","left","90","90","90","0","0","90","90","0","0","90","90","90","0","90","0","10/07/18 23:05:12","The main experiment item","yes","Sternburgtask.osexp","C:/Users/Owner/Documents","no","mono","no","18","no","white","no","yes","768","legacy","78","11","C:/Users/Owner/Documents/ctsubject-3.csv","xpyriment","7 1 8 5 6 2","Kafkaesque Koffka","3.2.5","2","y","0","left","right","left","left","NA","531","86748","13566","531","NA","2","legacy","6","1024","2","48000","-16","experiment","3","odd","1","724007","720066","721708","4673","189215","721769","686417","4709","175648","726010","722802","726543","91459","726010","NA","Sternburg task","78","71529","91","yes","1024"
"85.8695652174","85.8695652174","784.706521739","784.706521739","black","experiment","xpyriment","legacy","legacy","0","uniform","1","undefined","1","left","91","91","91","0","0","91","91","0","0","91","91","91","0","91","0","10/07/18 23:05:12","The main experiment item","yes","Sternburgtask.osexp","C:/Users/Owner/Documents","no","mono","no","18","no","white","no","yes","768","legacy","79","11","C:/Users/Owner/Documents/ctsubject-3.csv","xpyriment","2 4 6 9","Kafkaesque Koffka","3.2.5","3","y","0","left","right","left","left","NA","664","86748","13566","664","NA","2","legacy","4","1024","2","48000","-16","experiment","3","odd","6","730555","726588","728244","4673","189215","728310","686417","4709","175648","732571","729339","733238","91459","732570","NA","Sternburg task","79","72193","92","yes","1024"
"86.0215053763","86.0215053763","780.774193548","780.774193548","black","experiment","xpyriment","legacy","legacy","0","uniform","1","undefined","1","left","92","92","92","0","0","92","92","0","0","92","92","92","0","92","0","10/07/18 23:05:12","The main experiment item","yes","Sternburgtask.osexp","C:/Users/Owner/Documents","no","mono","no","18","no","white","no","yes","768","legacy","80","11","C:/Users/Owner/Documents/ctsubject-3.csv","xpyriment","3 9 6 2","Kafkaesque Koffka","3.2.5","4","y","0","left","right","left","left","NA","419","86748","13566","419","NA","2","legacy","4","1024","2","48000","-16","experiment","3","odd","2","737263","733303","734945","4673","189215","735016","686417","4709","175648","739267","736047","739690","91459","739266","NA","Sternburg task","80","72612","93","yes","1024"
"86.170212766","86.170212766","779.64893617","779.64893617","black","experiment","xpyriment","legacy","legacy","0","uniform","1","undefined","1","left","93","93","93","0","0","93","93","0","0","93","93","93","0","93","0","10/07/18 23:05:12","The main experiment item","yes","Sternburgtask.osexp","C:/Users/Owner/Documents","no","mono","no","18","no","white","no","yes","768","legacy","81","11","C:/Users/Owner/Documents/ctsubject-3.csv","xpyriment","3 5 9 6 2 4","Kafkaesque Koffka","3.2.5","1","y","0","left","right","left","left","NA","675","86748","13566","675","NA","2","legacy","6","1024","2","48000","-16","experiment","3","odd","3","743702","739756","741397","4673","189215","741471","686417","4709","175648","745706","742498","746382","91459","745705","NA","Sternburg task","81","73287","94","yes","1024"
"86.3157894737","86.3157894737","778.852631579","778.852631579","black","experiment","xpyriment","legacy","legacy","0","uniform","1","undefined","1","right","94","94","94","0","0","94","94","0","0","94","94","94","0","94","0","10/07/18 23:05:12","The main experiment item","yes","Sternburgtask.osexp","C:/Users/Owner/Documents","no","mono","no","18","no","white","no","yes","768","legacy","82","11","C:/Users/Owner/Documents/ctsubject-3.csv","xpyriment","7 1 8 4 9 3","Kafkaesque Koffka","3.2.5","0","n","0","right","right","left","right","NA","704","86748","13566","704","NA","2","legacy","6","1024","2","48000","-16","experiment","3","odd","6","750390","746428","748080","4673","189215","748142","686417","4709","175648","752407","749174","753113","91459","752406","NA","Sternburg task","82","73991","95","yes","1024"
"86.4583333333","86.4583333333","779.03125","779.03125","black","experiment","xpyriment","legacy","legacy","0","uniform","1","undefined","1","right","95","95","95","0","0","95","95","0","0","95","95","95","0","95","0","10/07/18 23:05:12","The main experiment item","yes","Sternburgtask.osexp","C:/Users/Owner/Documents","no","mono","no","18","no","white","no","yes","768","legacy","83","11","C:/Users/Owner/Documents/ctsubject-3.csv","xpyriment","8 9","Kafkaesque Koffka","3.2.5","0","n","0","right","right","left","right","NA","796","86748","13566","796","NA","2","legacy","2","1024","2","48000","-16","experiment","3","odd","5","757098","753162","754806","4673","189215","754863","686417","4709","175648","759101","755894","759899","91459","759101","NA","Sternburg task","83","74787","96","yes","1024"
"86.5979381443","86.5979381443","778.474226804","778.474226804","black","experiment","xpyriment","legacy","legacy","0","uniform","1","undefined","1","left","96","96","96","0","0","96","96","0","0","96","96","96","0","96","0","10/07/18 23:05:12","The main experiment item","yes","Sternburgtask.osexp","C:/Users/Owner/Documents","no","mono","no","18","no","white","no","yes","768","legacy","84","11","C:/Users/Owner/Documents/ctsubject-3.csv","xpyriment","3 4","Kafkaesque Koffka","3.2.5","1","y","0","left","right","left","left","NA","725","86748","13566","725","NA","2","legacy","2","1024","2","48000","-16","experiment","3","odd","3","763904","759952","761611","4673","189215","761671","686417","4709","175648","765907","762700","766635","91459","765907","NA","Sternburg task","84","75512","97","yes","1024"
"86.7346938776","86.7346938776","776.336734694","776.336734694","black","experiment","xpyriment","legacy","legacy","0","uniform","1","undefined","1","left","97","97","97","0","0","97","97","0","0","97","97","97","0","97","0","10/07/18 23:05:12","The main experiment item","yes","Sternburgtask.osexp","C:/Users/Owner/Documents","no","mono","no","18","no","white","no","yes","768","legacy","85","11","C:/Users/Owner/Documents/ctsubject-3.csv","xpyriment","2 3","Kafkaesque Koffka","3.2.5","1","y","0","left","right","left","left","NA","569","86748","13566","569","NA","2","legacy","2","1024","2","48000","-16","experiment","3","odd","2","770659","766699","768340","4673","189215","768412","686417","4709","175648","772663","769441","773234","91459","772663","NA","Sternburg task","85","76081","98","yes","1024"
"85.8585858586","85.8585858586","788.696969697","788.696969697","black","experiment","xpyriment","legacy","legacy","0","uniform","0","undefined","0","right","98","98","98","0","0","98","98","0","0","98","98","98","0","98","0","10/07/18 23:05:12","The main experiment item","yes","Sternburgtask.osexp","C:/Users/Owner/Documents","no","mono","no","18","no","white","no","yes","768","legacy","86","11","C:/Users/Owner/Documents/ctsubject-3.csv","xpyriment","1 3 2 6 9","Kafkaesque Koffka","3.2.5","0","n","0","None","right","left","None","NA","2000","86748","13566","2000","NA","2","legacy","5","1024","2","48000","-16","experiment","3","odd","5","777218","773272","774926","4673","189215","774984","686417","4709","175648","779221","776012","781223","91459","779221","NA","Sternburg task","85","78081","99","yes","1024"
"86","86","791","791","black","experiment","xpyriment","legacy","legacy","0","uniform","1","undefined","1","right","99","99","99","0","0","99","99","0","0","99","99","99","0","99","0","10/07/18 23:05:12","The main experiment item","yes","Sternburgtask.osexp","C:/Users/Owner/Documents","no","mono","no","18","no","white","no","yes","768","legacy","87","11","C:/Users/Owner/Documents/ctsubject-3.csv","xpyriment","5 7 3","Kafkaesque Koffka","3.2.5","0","n","0","right","right","left","right","NA","1019","86748","13566","1019","NA","2","legacy","3","1024","2","48000","-16","experiment","3","odd","9","785272","773272","782950","4673","189215","783015","781293","4709","175648","787276","784055","788298","91459","787276","NA","Sternburg task","86","79100","100","yes","1024"
"86.1386138614","86.1386138614","788.02970297","788.02970297","black","experiment","xpyriment","legacy","legacy","0","uniform","1","undefined","1","left","100","100","100","0","0","100","100","0","0","100","100","100","0","100","0","10/07/18 23:05:12","The main experiment item","yes","Sternburgtask.osexp","C:/Users/Owner/Documents","no","mono","no","18","no","white","no","yes","768","legacy","88","11","C:/Users/Owner/Documents/ctsubject-3.csv","xpyriment","2 3 7 4","Kafkaesque Koffka","3.2.5","1","y","0","left","right","left","left","NA","491","86748","13566","491","NA","2","legacy","4","1024","2","48000","-16","experiment","3","odd","2","792311","788350","789997","4673","189215","790056","781293","4709","175648","794314","791094","794808","91459","794314","NA","Sternburg task","87","79591","101","yes","1024"
"85.2941176471","85.2941176471","787.470588235","787.470588235","black","experiment","xpyriment","legacy","legacy","0","uniform","0","undefined","0","left","101","101","101","0","0","101","101","0","0","101","101","101","0","101","0","10/07/18 23:05:12","The main experiment item","yes","Sternburgtask.osexp","C:/Users/Owner/Documents","no","mono","no","18","no","white","no","yes","768","legacy","89","11","C:/Users/Owner/Documents/ctsubject-3.csv","xpyriment","8 9 6 1","Kafkaesque Koffka","3.2.5","2","y","0","right","right","left","right","NA","731","86748","13566","731","NA","2","legacy","4","1024","2","48000","-16","experiment","3","odd","9","798865","794864","796549","4673","189215","796621","781293","4709","175648","800881","797648","801614","91459","800881","NA","Sternburg task","87","80322","102","yes","1024"
"85.4368932039","85.4368932039","784.776699029","784.776699029","black","experiment","xpyriment","legacy","legacy","0","uniform","1","undefined","1","left","102","102","102","0","0","102","102","0","0","102","102","102","0","102","0","10/07/18 23:05:12","The main experiment item","yes","Sternburgtask.osexp","C:/Users/Owner/Documents","no","mono","no","18","no","white","no","yes","768","legacy","90","11","C:/Users/Owner/Documents/ctsubject-3.csv","xpyriment","2 5 4 8 7","Kafkaesque Koffka","3.2.5","3","y","0","left","right","left","left","NA","510","86748","13566","510","NA","2","legacy","5","1024","2","48000","-16","experiment","3","odd","4","805623","794864","803315","4673","189215","803377","801677","4709","175648","807626","804408","808139","91459","807626","NA","Sternburg task","88","80832","103","yes","1024"
"85.5769230769","85.5769230769","784.442307692","784.442307692","black","experiment","xpyriment","legacy","legacy","0","uniform","1","undefined","1","left","103","103","103","0","0","103","103","0","0","103","103","103","0","103","0","10/07/18 23:05:12","The main experiment item","yes","Sternburgtask.osexp","C:/Users/Owner/Documents","no","mono","no","18","no","white","no","yes","768","legacy","91","11","C:/Users/Owner/Documents/ctsubject-3.csv","xpyriment","2 8 5 1","Kafkaesque Koffka","3.2.5","4","y","0","left","right","left","left","NA","750","86748","13566","750","NA","2","legacy","4","1024","2","48000","-16","experiment","3","odd","1","812164","808201","809844","4673","189215","809906","801677","4709","175648","814167","810947","814920","91459","814167","NA","Sternburg task","89","81582","104","yes","1024"
"85.7142857143","85.7142857143","783.847619048","783.847619048","black","experiment","xpyriment","legacy","legacy","0","uniform","1","undefined","1","right","104","104","104","0","0","104","104","0","0","104","104","104","0","104","0","10/07/18 23:05:12","The main experiment item","yes","Sternburgtask.osexp","C:/Users/Owner/Documents","no","mono","no","18","no","white","no","yes","768","legacy","92","11","C:/Users/Owner/Documents/ctsubject-3.csv","xpyriment","7 4 2 8 1 9","Kafkaesque Koffka","3.2.5","0","n","0","right","right","left","right","NA","722","86748","13566","722","NA","2","legacy","6","1024","2","48000","-16","experiment","3","odd","5","818900","814956","816605","4673","189215","816668","801677","4709","175648","820917","817696","821642","91459","820916","NA","Sternburg task","90","82304","105","yes","1024"
"84.9056603774","84.9056603774","783.726415094","783.726415094","black","experiment","xpyriment","legacy","legacy","0","uniform","0","undefined","0","left","105","105","105","0","0","105","105","0","0","105","105","105","0","105","0","10/07/18 23:05:12","The main experiment item","yes","Sternburgtask.osexp","C:/Users/Owner/Documents","no","mono","no","18","no","white","no","yes","768","legacy","93","11","C:/Users/Owner/Documents/ctsubject-3.csv","xpyriment","3 9 7 6 4","Kafkaesque Koffka","3.2.5","3","y","0","right","right","left","right","NA","771","86748","13566","771","NA","2","legacy","5","1024","2","48000","-16","experiment","3","odd","7","825625","821676","823320","4673","189215","823394","801677","4709","175648","827628","824421","828402","91459","827628","NA","Sternburg task","90","83075","106","yes","1024"
"85.046728972","85.046728972","784.186915888","784.186915888","black","experiment","xpyriment","legacy","legacy","0","uniform","1","undefined","1","right","106","106","106","0","0","106","106","0","0","106","106","106","0","106","0","10/07/18 23:05:12","The main experiment item","yes","Sternburgtask.osexp","C:/Users/Owner/Documents","no","mono","no","18","no","white","no","yes","768","legacy","94","11","C:/Users/Owner/Documents/ctsubject-3.csv","xpyriment","4 8 1 2","Kafkaesque Koffka","3.2.5","0","n","0","right","right","left","right","NA","833","86748","13566","833","NA","2","legacy","4","1024","2","48000","-16","experiment","3","odd","7","832396","821676","830096","4673","189215","830164","828443","4709","175648","834412","831191","835247","91459","834412","NA","Sternburg task","91","83908","107","yes","1024"
"85.1851851852","85.1851851852","781.564814815","781.564814815","black","experiment","xpyriment","legacy","legacy","0","uniform","1","undefined","1","left","107","107","107","0","0","107","107","0","0","107","107","107","0","107","0","10/07/18 23:05:12","The main experiment item","yes","Sternburgtask.osexp","C:/Users/Owner/Documents","no","mono","no","18","no","white","no","yes","768","legacy","95","11","C:/Users/Owner/Documents/ctsubject-3.csv","xpyriment","6 2","Kafkaesque Koffka","3.2.5","1","y","0","left","right","left","left","NA","501","86748","13566","501","NA","2","legacy","2","1024","2","48000","-16","experiment","3","odd","6","839420","835475","837124","4673","189215","837188","828443","4709","175648","841423","838216","841927","91459","841423","NA","Sternburg task","92","84409","108","yes","1024"
"85.3211009174","85.3211009174","779.908256881","779.908256881","black","experiment","xpyriment","legacy","legacy","0","uniform","1","undefined","1","right","108","108","108","0","0","108","108","0","0","108","108","108","0","108","0","10/07/18 23:05:12","The main experiment item","yes","Sternburgtask.osexp","C:/Users/Owner/Documents","no","mono","no","18","no","white","no","yes","768","legacy","96","11","C:/Users/Owner/Documents/ctsubject-3.csv","xpyriment","2 8 9","Kafkaesque Koffka","3.2.5","0","n","0","right","right","left","right","NA","601","86748","13566","601","NA","2","legacy","3","1024","2","48000","-16","experiment","3","odd","6","845928","841978","843630","4673","189215","843694","828443","4709","175648","847931","844724","848535","91459","847931","NA","Sternburg task","93","85010","109","yes","1024"
"85.4545454545","85.4545454545","779","779","black","experiment","xpyriment","legacy","legacy","0","uniform","1","undefined","1","right","109","109","109","0","0","109","109","0","0","109","109","109","0","109","0","10/07/18 23:05:12","The main experiment item","yes","Sternburgtask.osexp","C:/Users/Owner/Documents","no","mono","no","18","no","white","no","yes","768","legacy","97","11","C:/Users/Owner/Documents/ctsubject-3.csv","xpyriment","7 8 6 1","Kafkaesque Koffka","3.2.5","0","n","0","right","right","left","right","NA","680","86748","13566","680","NA","2","legacy","4","1024","2","48000","-16","experiment","3","odd","3","852573","848607","850265","4673","189215","850337","828443","4709","175648","854576","851368","855259","91459","854576","NA","Sternburg task","94","85690","110","yes","1024"
"85.5855855856","85.5855855856","778.261261261","778.261261261","black","experiment","xpyriment","legacy","legacy","0","uniform","1","undefined","1","left","110","110","110","0","0","110","110","0","0","110","110","110","0","110","0","10/07/18 23:05:12","The main experiment item","yes","Sternburgtask.osexp","C:/Users/Owner/Documents","no","mono","no","18","no","white","no","yes","768","legacy","98","11","C:/Users/Owner/Documents/ctsubject-3.csv","xpyriment","7 2 3","Kafkaesque Koffka","3.2.5","3","y","0","left","right","left","left","NA","697","86748","13566","697","NA","2","legacy","3","1024","2","48000","-16","experiment","3","odd","3","859372","855330","857049","4673","189215","857125","828443","4709","175648","861388","858154","862088","91459","861387","NA","Sternburg task","95","86387","111","yes","1024"
"85.7142857143","85.7142857143","776.857142857","776.857142857","black","experiment","xpyriment","legacy","legacy","0","uniform","1","undefined","1","left","111","111","111","0","0","111","111","0","0","111","111","111","0","111","0","10/07/18 23:05:12","The main experiment item","yes","Sternburgtask.osexp","C:/Users/Owner/Documents","no","mono","no","18","no","white","no","yes","768","legacy","99","11","C:/Users/Owner/Documents/ctsubject-3.csv","xpyriment","7 8 6 3 1","Kafkaesque Koffka","3.2.5","5","y","0","left","right","left","left","NA","621","86748","13566","621","NA","2","legacy","5","1024","2","48000","-16","experiment","3","odd","1","866061","862114","863764","4673","189215","863827","828443","4709","175648","868077","864857","868701","91459","868077","NA","Sternburg task","96","87008","112","yes","1024"
"84.9557522124","84.9557522124","777.088495575","777.088495575","black","experiment","xpyriment","legacy","legacy","0","uniform","0","undefined","0","left","112","112","112","0","0","112","112","0","0","112","112","112","0","112","0","10/07/18 23:05:12","The main experiment item","yes","Sternburgtask.osexp","C:/Users/Owner/Documents","no","mono","no","18","no","white","no","yes","768","legacy","100","11","C:/Users/Owner/Documents/ctsubject-3.csv","xpyriment","8 9 5 7 1 6","Kafkaesque Koffka","3.2.5","4","y","0","right","right","left","right","NA","803","86748","13566","803","NA","2","legacy","6","1024","2","48000","-16","experiment","3","odd","7","872726","868774","870420","4673","189215","870480","828443","4709","175648","874729","871522","875536","91459","874729","NA","Sternburg task","96","87811","113","yes","1024"
"85.0877192982","85.0877192982","774.614035088","774.614035088","black","experiment","xpyriment","legacy","legacy","0","uniform","1","undefined","1","right","113","113","113","0","0","113","113","0","0","113","113","113","0","113","0","10/07/18 23:05:12","The main experiment item","yes","Sternburgtask.osexp","C:/Users/Owner/Documents","no","mono","no","18","no","white","no","yes","768","legacy","101","11","C:/Users/Owner/Documents/ctsubject-3.csv","xpyriment","5","Kafkaesque Koffka","3.2.5","0","n","0","right","right","left","right","NA","495","86748","13566","495","NA","2","legacy","1","1024","2","48000","-16","experiment","3","odd","8","879542","868774","877244","4673","189215","877306","875598","4709","175648","881546","878337","882042","91459","881545","NA","Sternburg task","97","88306","114","yes","1024"
"85.2173913043","85.2173913043","773.747826087","773.747826087","black","experiment","xpyriment","legacy","legacy","0","uniform","1","undefined","1","right","114","114","114","0","0","114","114","0","0","114","114","114","0","114","0","10/07/18 23:05:12","The main experiment item","yes","Sternburgtask.osexp","C:/Users/Owner/Documents","no","mono","no","18","no","white","no","yes","768","legacy","102","11","C:/Users/Owner/Documents/ctsubject-3.csv","xpyriment","9 7 4 5 8","Kafkaesque Koffka","3.2.5","0","n","0","right","right","left","right","NA","675","86748","13566","675","NA","2","legacy","5","1024","2","48000","-16","experiment","3","odd","6","886063","882120","883767","4673","189215","883828","875598","4709","175648","888080","884859","888756","91459","888079","NA","Sternburg task","98","88981","115","yes","1024"
"85.3448275862","85.3448275862","773.120689655","773.120689655","black","experiment","xpyriment","legacy","legacy","0","uniform","1","undefined","1","right","115","115","115","0","0","115","115","0","0","115","115","115","0","115","0","10/07/18 23:05:12","The main experiment item","yes","Sternburgtask.osexp","C:/Users/Owner/Documents","no","mono","no","18","no","white","no","yes","768","legacy","103","11","C:/Users/Owner/Documents/ctsubject-3.csv","xpyriment","7 9 1 6","Kafkaesque Koffka","3.2.5","0","n","0","right","right","left","right","NA","701","86748","13566","701","NA","2","legacy","4","1024","2","48000","-16","experiment","3","odd","4","892755","888787","890437","4673","189215","890498","875598","4709","175648","894758","891538","895462","91459","894758","NA","Sternburg task","99","89682","116","yes","1024"
"85.4700854701","85.4700854701","771.854700855","771.854700855","black","experiment","xpyriment","legacy","legacy","0","uniform","1","undefined","1","left","116","116","116","0","0","116","116","0","0","116","116","116","0","116","0","10/07/18 23:05:12","The main experiment item","yes","Sternburgtask.osexp","C:/Users/Owner/Documents","no","mono","no","18","no","white","no","yes","768","legacy","104","11","C:/Users/Owner/Documents/ctsubject-3.csv","xpyriment","6 7 8 5","Kafkaesque Koffka","3.2.5","3","y","0","left","right","left","left","NA","625","86748","13566","625","NA","2","legacy","4","1024","2","48000","-16","experiment","3","odd","8","899459","895511","897151","4673","189215","897212","875598","4709","175648","901475","898242","902105","91459","901475","NA","Sternburg task","100","90307","117","yes","1024"
"85.593220339","85.593220339","769.338983051","769.338983051","black","experiment","xpyriment","legacy","legacy","0","uniform","1","undefined","1","right","117","117","117","0","0","117","117","0","0","117","117","117","0","117","0","10/07/18 23:05:12","The main experiment item","yes","Sternburgtask.osexp","C:/Users/Owner/Documents","no","mono","no","18","no","white","no","yes","768","legacy","105","11","C:/Users/Owner/Documents/ctsubject-3.csv","xpyriment","4 1","Kafkaesque Koffka","3.2.5","0","n","0","right","right","left","right","NA","475","86748","13566","475","NA","2","legacy","2","1024","2","48000","-16","experiment","3","odd","6","906150","902156","903845","4673","189215","903919","875598","4709","175648","908153","904945","908631","91459","908153","NA","Sternburg task","101","90782","118","yes","1024"
"85.7142857143","85.7142857143","769.268907563","769.268907563","black","experiment","xpyriment","legacy","legacy","0","uniform","1","undefined","1","right","118","118","118","0","0","118","118","0","0","118","118","118","0","118","0","10/07/18 23:05:12","The main experiment item","yes","Sternburgtask.osexp","C:/Users/Owner/Documents","no","mono","no","18","no","white","no","yes","768","legacy","106","11","C:/Users/Owner/Documents/ctsubject-3.csv","xpyriment","6 2 9 3 8 4","Kafkaesque Koffka","3.2.5","0","n","0","right","right","left","right","NA","761","86748","13566","761","NA","2","legacy","6","1024","2","48000","-16","experiment","3","odd","1","912638","908687","910324","4673","189215","910391","875598","4709","175648","914655","911421","915420","91459","914655","NA","Sternburg task","102","91543","119","yes","1024"
"85.8333333333","85.8333333333","769.975","769.975","black","experiment","xpyriment","legacy","legacy","0","uniform","1","undefined","1","left","119","119","119","0","0","119","119","0","0","119","119","119","0","119","0","10/07/18 23:05:12","The main experiment item","yes","Sternburgtask.osexp","C:/Users/Owner/Documents","no","mono","no","18","no","white","no","yes","768","legacy","107","11","C:/Users/Owner/Documents/ctsubject-3.csv","xpyriment","9 3 8 2 1 4","Kafkaesque Koffka","3.2.5","3","y","0","left","right","left","left","NA","854","86748","13566","854","NA","2","legacy","6","1024","2","48000","-16","experiment","3","odd","8","919436","915476","917130","4673","189215","917190","875598","4709","175648","921439","918232","922297","91459","921439","NA","Sternburg task","103","92397","120","yes","1024"
"85.9504132231","85.9504132231","768.20661157","768.20661157","black","experiment","xpyriment","legacy","legacy","0","uniform","1","undefined","1","left","120","120","120","0","0","120","120","0","0","120","120","120","0","120","0","10/07/18 23:05:12","The main experiment item","yes","Sternburgtask.osexp","C:/Users/Owner/Documents","no","mono","no","18","no","white","no","yes","768","legacy","108","11","C:/Users/Owner/Documents/ctsubject-3.csv","xpyriment","5 7 3 6 2","Kafkaesque Koffka","3.2.5","5","y","0","left","right","left","left","NA","556","86748","13566","556","NA","2","legacy","5","1024","2","48000","-16","experiment","3","odd","2","926319","922367","924004","4673","189215","924064","875598","4709","175648","928323","925103","928885","91459","928323","NA","Sternburg task","104","92953","121","yes","1024"
