"acc","accuracy","average_response_time","avg_rt","background","block","canvas_backend","clock_backend","color_backend","compensation","coordinates","correct","correct_instruction1","correct_keyboard_response","correct_response","count_ISI","count_correctFeedback","count_expSequence","count_experiment","count_experimentLoop","count_fixation","count_incorrectFeedback","count_instruction1","count_instructions2","count_keyboard_response","count_logger","count_memorySet","count_new_sketchpad","count_practiceLoop","count_probe","count_thankYou","datetime","description","disable_garbage_collection","experiment_file","experiment_path","font_bold","font_family","font_italic","font_size","font_underline","foreground","form_clicks","fullscreen","height","keyboard_backend","live_row","live_row_practiceLoop","logfile","mouse_backend","numberSet","opensesame_codename","opensesame_version","posInSet","present","repeat_cycle","response","response_instruction1","response_instructions2","response_keyboard_response","response_new_sketchpad","response_thankYou","response_time","response_time_instruction1","response_time_instructions2","response_time_keyboard_response","response_time_new_sketchpad","response_time_thankYou","round_decimals","sampler_backend","setSize","sound_buf_size","sound_channels","sound_freq","sound_sample_size","start","subject_nr","subject_parity","target","time_ISI","time_correctFeedback","time_expSequence","time_experiment","time_experimentLoop","time_fixation","time_incorrectFeedback","time_instruction1","time_instructions2","time_keyboard_response","time_logger","time_memorySet","time_new_sketchpad","time_practiceLoop","time_probe","time_thankYou","title","total_correct","total_response_time","total_responses","uniform_coordinates","width"
"100","100","558","558","black","practice","legacy","legacy","legacy","0","uniform","1","undefined","1","left","0","0","0","0","0","0","0","0","0","0","0","0","NA","0","0","0","Sun Oct 24 19:38:05 2021","The main experiment item","yes","Sternbergtask.osexp","/Users/mihailcodreanu/Desktop","no","mono","no","18","no","white","no","yes","768","legacy","0","0","/Users/mihailcodreanu/Desktop/MC-subject-2.csv","legacy","4 3 1 7 9 8","Lentiform Loewenfeld","3.3.9","1","y","0","left","return","NA","left","NA","NA","558","37501","NA","558","NA","NA","2","legacy","6","1024","2","48000","-16","experiment","2","even","4","44384","NA","42167","4205","NA","42172","NA","4214","NA","46388","46949","43177","NA","41730","46388","NA","Sternberg task","1","558","1","yes","1024"
"50","50","496.5","496.5","black","practice","legacy","legacy","legacy","0","uniform","0","undefined","0","left","1","1","1","0","0","1","1","0","0","1","1","1","NA","0","1","0","Sun Oct 24 19:38:05 2021","The main experiment item","yes","Sternbergtask.osexp","/Users/mihailcodreanu/Desktop","no","mono","no","18","no","white","no","yes","768","legacy","1","1","/Users/mihailcodreanu/Desktop/MC-subject-2.csv","legacy","6","Lentiform Loewenfeld","3.3.9","1","y","0","right","return","NA","right","NA","NA","435","37501","NA","435","NA","NA","2","legacy","1","1024","2","48000","-16","experiment","2","even","6","50260","46979","48045","4205","NA","48049","NA","4214","NA","52264","52704","49053","NA","41730","52264","NA","Sternberg task","1","993","2","yes","1024"
"66.66666666666667","66.66666666666667","612.6666666666666","612.6666666666666","black","practice","legacy","legacy","legacy","0","uniform","1","undefined","1","right","2","2","2","0","0","2","2","0","0","2","2","2","NA","0","2","0","Sun Oct 24 19:38:05 2021","The main experiment item","yes","Sternbergtask.osexp","/Users/mihailcodreanu/Desktop","no","mono","no","18","no","white","no","yes","768","legacy","2","2","/Users/mihailcodreanu/Desktop/MC-subject-2.csv","legacy","3 1 9 4","Lentiform Loewenfeld","3.3.9","0","n","0","right","return","NA","right","NA","NA","845","37501","NA","845","NA","NA","2","legacy","4","1024","2","48000","-16","experiment","2","even","6","55978","46979","53763","4205","NA","53767","52708","4214","NA","57982","58827","54771","NA","41730","57982","NA","Sternberg task","2","1838","3","yes","1024"
"75","75","585.75","585.75","black","practice","legacy","legacy","legacy","0","uniform","1","undefined","1","right","3","3","3","0","0","3","3","0","0","3","3","3","NA","0","3","0","Sun Oct 24 19:38:05 2021","The main experiment item","yes","Sternbergtask.osexp","/Users/mihailcodreanu/Desktop","no","mono","no","18","no","white","no","yes","768","legacy","3","3","/Users/mihailcodreanu/Desktop/MC-subject-2.csv","legacy","4 1 5","Lentiform Loewenfeld","3.3.9","0","n","0","right","return","NA","right","NA","NA","505","37501","NA","505","NA","NA","2","legacy","3","1024","2","48000","-16","experiment","2","even","2","62109","58834","59893","4205","NA","59897","52708","4214","NA","64114","64619","60902","NA","41730","64114","NA","Sternberg task","3","2343","4","yes","1024"
"60","60","868.6","868.6","black","practice","legacy","legacy","legacy","0","uniform","0","undefined","0","right","4","4","4","0","0","4","4","0","0","4","4","4","NA","0","4","0","Sun Oct 24 19:38:05 2021","The main experiment item","yes","Sternbergtask.osexp","/Users/mihailcodreanu/Desktop","no","mono","no","18","no","white","no","yes","768","legacy","4","4","/Users/mihailcodreanu/Desktop/MC-subject-2.csv","legacy","9 6 7 4 5","Lentiform Loewenfeld","3.3.9","0","n","0","None","return","NA","None","NA","NA","2000","37501","NA","2000","NA","NA","2","legacy","5","1024","2","48000","-16","experiment","2","even","3","67893","64624","65679","4205","NA","65683","52708","4214","NA","69899","71899","66687","NA","41730","69899","NA","Sternberg task","3","4343","5","yes","1024"
"66.66666666666667","66.66666666666667","815.3333333333334","815.3333333333334","black","practice","legacy","legacy","legacy","0","uniform","1","undefined","1","right","5","5","5","0","0","5","5","0","0","5","5","5","NA","0","5","0","Sun Oct 24 19:38:05 2021","The main experiment item","yes","Sternbergtask.osexp","/Users/mihailcodreanu/Desktop","no","mono","no","18","no","white","no","yes","768","legacy","5","5","/Users/mihailcodreanu/Desktop/MC-subject-2.csv","legacy","5 7 8 4 1 2","Lentiform Loewenfeld","3.3.9","0","n","0","right","return","NA","right","NA","NA","549","37501","NA","549","NA","NA","2","legacy","6","1024","2","48000","-16","experiment","2","even","6","75178","64624","72965","4205","NA","72968","71910","4214","NA","77182","77731","73972","NA","41730","77182","NA","Sternberg task","4","4892","6","yes","1024"
"57.142857142857146","57.142857142857146","799.4285714285714","799.4285714285714","black","practice","legacy","legacy","legacy","0","uniform","0","undefined","0","left","6","6","6","0","0","6","6","0","0","6","6","6","NA","0","6","0","Sun Oct 24 19:38:05 2021","The main experiment item","yes","Sternbergtask.osexp","/Users/mihailcodreanu/Desktop","no","mono","no","18","no","white","no","yes","768","legacy","6","6","/Users/mihailcodreanu/Desktop/MC-subject-2.csv","legacy","1 7 9 8 5","Lentiform Loewenfeld","3.3.9","4","y","0","right","return","NA","right","NA","NA","704","37501","NA","704","NA","NA","2","legacy","5","1024","2","48000","-16","experiment","2","even","8","81007","77738","78792","4205","NA","78796","71910","4214","NA","83011","83715","79801","NA","41730","83011","NA","Sternberg task","4","5596","7","yes","1024"
"62.5","62.5","806.75","806.75","black","practice","legacy","legacy","legacy","0","uniform","1","undefined","1","right","7","7","7","0","0","7","7","0","0","7","7","7","NA","0","7","0","Sun Oct 24 19:38:05 2021","The main experiment item","yes","Sternbergtask.osexp","/Users/mihailcodreanu/Desktop","no","mono","no","18","no","white","no","yes","768","legacy","7","7","/Users/mihailcodreanu/Desktop/MC-subject-2.csv","legacy","2 1","Lentiform Loewenfeld","3.3.9","0","n","0","right","return","NA","right","NA","NA","858","37501","NA","858","NA","NA","2","legacy","2","1024","2","48000","-16","experiment","2","even","5","86989","77738","84775","4205","NA","84779","83722","4214","NA","88993","89851","85783","NA","41730","88993","NA","Sternberg task","5","6454","8","yes","1024"
"66.66666666666667","66.66666666666667","765","765","black","practice","legacy","legacy","legacy","0","uniform","1","undefined","1","left","8","8","8","0","0","8","8","0","0","8","8","8","NA","0","8","0","Sun Oct 24 19:38:05 2021","The main experiment item","yes","Sternbergtask.osexp","/Users/mihailcodreanu/Desktop","no","mono","no","18","no","white","no","yes","768","legacy","8","8","/Users/mihailcodreanu/Desktop/MC-subject-2.csv","legacy","1 5 2 9","Lentiform Loewenfeld","3.3.9","2","y","0","left","return","NA","left","NA","NA","431","37501","NA","431","NA","NA","2","legacy","4","1024","2","48000","-16","experiment","2","even","5","93128","89858","90914","4205","NA","90917","83722","4214","NA","95132","95563","91921","NA","41730","95132","NA","Sternberg task","6","6885","9","yes","1024"
"70","70","736.4","736.4","black","practice","legacy","legacy","legacy","0","uniform","1","undefined","1","left","9","9","9","0","0","9","9","0","0","9","9","9","NA","0","9","0","Sun Oct 24 19:38:05 2021","The main experiment item","yes","Sternbergtask.osexp","/Users/mihailcodreanu/Desktop","no","mono","no","18","no","white","no","yes","768","legacy","9","9","/Users/mihailcodreanu/Desktop/MC-subject-2.csv","legacy","2 9 4","Lentiform Loewenfeld","3.3.9","3","y","0","left","return","NA","left","NA","NA","479","37501","NA","479","NA","NA","2","legacy","3","1024","2","48000","-16","experiment","2","even","4","98839","95570","96626","4205","NA","96629","83722","4214","NA","100844","101324","97633","NA","41730","100844","NA","Sternberg task","7","7364","10","yes","1024"
"72.72727272727273","72.72727272727273","701","701","black","practice","legacy","legacy","legacy","0","uniform","1","undefined","1","left","10","10","10","0","0","10","10","0","0","10","10","10","NA","0","10","0","Sun Oct 24 19:38:05 2021","The main experiment item","yes","Sternbergtask.osexp","/Users/mihailcodreanu/Desktop","no","mono","no","18","no","white","no","yes","768","legacy","10","10","/Users/mihailcodreanu/Desktop/MC-subject-2.csv","legacy","4 8","Lentiform Loewenfeld","3.3.9","1","y","0","left","return","NA","left","NA","NA","347","37501","NA","347","NA","NA","2","legacy","2","1024","2","48000","-16","experiment","2","even","4","104596","101330","102384","4205","NA","102388","83722","4214","NA","106600","106947","103392","NA","41730","106600","NA","Sternberg task","8","7711","11","yes","1024"
"75","75","674.8333333333334","674.8333333333334","black","practice","legacy","legacy","legacy","0","uniform","1","undefined","1","right","11","11","11","0","0","11","11","0","0","11","11","11","NA","0","11","0","Sun Oct 24 19:38:05 2021","The main experiment item","yes","Sternbergtask.osexp","/Users/mihailcodreanu/Desktop","no","mono","no","18","no","white","no","yes","768","legacy","11","11","/Users/mihailcodreanu/Desktop/MC-subject-2.csv","legacy","5","Lentiform Loewenfeld","3.3.9","0","n","0","right","return","NA","right","NA","NA","387","37501","NA","387","NA","NA","2","legacy","1","1024","2","48000","-16","experiment","2","even","3","110220","106954","108007","4205","NA","108010","83722","4214","NA","112224","112611","109014","NA","41730","112224","NA","Sternberg task","9","8098","12","yes","1024"
"69.23076923076923","69.23076923076923","668.6153846153846","668.6153846153846","black","experiment","legacy","legacy","legacy","0","uniform","0","undefined","0","left","12","12","12","0","0","12","12","0","0","12","12","12","NA","0","12","0","Sun Oct 24 19:38:05 2021","The main experiment item","yes","Sternbergtask.osexp","/Users/mihailcodreanu/Desktop","no","mono","no","18","no","white","no","yes","768","legacy","0","11","/Users/mihailcodreanu/Desktop/MC-subject-2.csv","legacy","8 5 1 3 9","Lentiform Loewenfeld","3.3.9","4","y","0","right","return","left","right","NA","NA","594","37501","9139","594","NA","NA","2","legacy","5","1024","2","48000","-16","experiment","2","even","3","125053","112617","122838","4205","122787","122842","83722","4214","113648","127057","127651","123847","NA","41730","127057","NA","Sternberg task","9","8692","13","yes","1024"
"71.42857142857143","71.42857142857143","666.2142857142857","666.2142857142857","black","experiment","legacy","legacy","legacy","0","uniform","1","undefined","1","right","13","13","13","0","0","13","13","0","0","13","13","13","NA","0","13","0","Sun Oct 24 19:38:05 2021","The main experiment item","yes","Sternbergtask.osexp","/Users/mihailcodreanu/Desktop","no","mono","no","18","no","white","no","yes","768","legacy","1","11","/Users/mihailcodreanu/Desktop/MC-subject-2.csv","legacy","2 8 6 3 1","Lentiform Loewenfeld","3.3.9","0","n","0","right","return","left","right","NA","NA","635","37501","9139","635","NA","NA","2","legacy","5","1024","2","48000","-16","experiment","2","even","7","130926","112617","128712","4205","122787","128716","127656","4214","113648","132930","133566","129720","NA","41730","132930","NA","Sternberg task","10","9327","14","yes","1024"
"73.33333333333333","73.33333333333333","670.8","670.8","black","experiment","legacy","legacy","legacy","0","uniform","1","undefined","1","right","14","14","14","0","0","14","14","0","0","14","14","14","NA","0","14","0","Sun Oct 24 19:38:05 2021","The main experiment item","yes","Sternbergtask.osexp","/Users/mihailcodreanu/Desktop","no","mono","no","18","no","white","no","yes","768","legacy","2","11","/Users/mihailcodreanu/Desktop/MC-subject-2.csv","legacy","7 3 2 8","Lentiform Loewenfeld","3.3.9","0","n","0","right","return","left","right","NA","NA","735","37501","9139","735","NA","NA","2","legacy","4","1024","2","48000","-16","experiment","2","even","4","136840","133571","134626","4205","122787","134630","127656","4214","113648","138844","139580","135634","NA","41730","138844","NA","Sternberg task","11","10062","15","yes","1024"
"75","75","680.875","680.875","black","experiment","legacy","legacy","legacy","0","uniform","1","undefined","1","right","15","15","15","0","0","15","15","0","0","15","15","15","NA","0","15","0","Sun Oct 24 19:38:05 2021","The main experiment item","yes","Sternbergtask.osexp","/Users/mihailcodreanu/Desktop","no","mono","no","18","no","white","no","yes","768","legacy","3","11","/Users/mihailcodreanu/Desktop/MC-subject-2.csv","legacy","1 7 5 2","Lentiform Loewenfeld","3.3.9","0","n","0","right","return","left","right","NA","NA","832","37501","9139","832","NA","NA","2","legacy","4","1024","2","48000","-16","experiment","2","even","3","142855","139586","140640","4205","122787","140644","127656","4214","113648","144859","145691","141648","NA","41730","144859","NA","Sternberg task","12","10894","16","yes","1024"
"76.47058823529412","76.47058823529412","670.4117647058823","670.4117647058823","black","experiment","legacy","legacy","legacy","0","uniform","1","undefined","1","left","16","16","16","0","0","16","16","0","0","16","16","16","NA","0","16","0","Sun Oct 24 19:38:05 2021","The main experiment item","yes","Sternbergtask.osexp","/Users/mihailcodreanu/Desktop","no","mono","no","18","no","white","no","yes","768","legacy","4","11","/Users/mihailcodreanu/Desktop/MC-subject-2.csv","legacy","4 1 8 7 5","Lentiform Loewenfeld","3.3.9","3","y","0","left","return","left","left","NA","NA","503","37501","9139","503","NA","NA","2","legacy","5","1024","2","48000","-16","experiment","2","even","8","148968","145698","146754","4205","122787","146758","127656","4214","113648","150972","151475","147762","NA","41730","150972","NA","Sternberg task","13","11397","17","yes","1024"
"77.77777777777777","77.77777777777777","671.3333333333334","671.3333333333334","black","experiment","legacy","legacy","legacy","0","uniform","1","undefined","1","left","17","17","17","0","0","17","17","0","0","17","17","17","NA","0","17","0","Sun Oct 24 19:38:05 2021","The main experiment item","yes","Sternbergtask.osexp","/Users/mihailcodreanu/Desktop","no","mono","no","18","no","white","no","yes","768","legacy","5","11","/Users/mihailcodreanu/Desktop/MC-subject-2.csv","legacy","3 2 1 4 7","Lentiform Loewenfeld","3.3.9","2","y","0","left","return","left","left","NA","NA","687","37501","9139","687","NA","NA","2","legacy","5","1024","2","48000","-16","experiment","2","even","2","154752","151482","152537","4205","122787","152541","127656","4214","113648","156756","157444","153545","NA","41730","156756","NA","Sternberg task","14","12084","18","yes","1024"
"78.94736842105263","78.94736842105263","653.6842105263158","653.6842105263158","black","experiment","legacy","legacy","legacy","0","uniform","1","undefined","1","left","18","18","18","0","0","18","18","0","0","18","18","18","NA","0","18","0","Sun Oct 24 19:38:05 2021","The main experiment item","yes","Sternbergtask.osexp","/Users/mihailcodreanu/Desktop","no","mono","no","18","no","white","no","yes","768","legacy","6","11","/Users/mihailcodreanu/Desktop/MC-subject-2.csv","legacy","3 9 7 6 4","Lentiform Loewenfeld","3.3.9","3","y","0","left","return","left","left","NA","NA","336","37501","9139","336","NA","NA","2","legacy","5","1024","2","48000","-16","experiment","2","even","7","160718","157451","158505","4205","122787","158509","127656","4214","113648","162723","163059","159513","NA","41730","162723","NA","Sternberg task","15","12420","19","yes","1024"
"80","80","645.7","645.7","black","experiment","legacy","legacy","legacy","0","uniform","1","undefined","1","left","19","19","19","0","0","19","19","0","0","19","19","19","NA","0","19","0","Sun Oct 24 19:38:05 2021","The main experiment item","yes","Sternbergtask.osexp","/Users/mihailcodreanu/Desktop","no","mono","no","18","no","white","no","yes","768","legacy","7","11","/Users/mihailcodreanu/Desktop/MC-subject-2.csv","legacy","9 4 2","Lentiform Loewenfeld","3.3.9","1","y","0","left","return","left","left","NA","NA","494","37501","9139","494","NA","NA","2","legacy","3","1024","2","48000","-16","experiment","2","even","9","166336","163067","164123","4205","122787","164127","127656","4214","113648","168341","168835","165131","NA","41730","168341","NA","Sternberg task","16","12914","20","yes","1024"
"80.95238095238095","80.95238095238095","662.3809523809524","662.3809523809524","black","experiment","legacy","legacy","legacy","0","uniform","1","undefined","1","right","20","20","20","0","0","20","20","0","0","20","20","20","NA","0","20","0","Sun Oct 24 19:38:05 2021","The main experiment item","yes","Sternbergtask.osexp","/Users/mihailcodreanu/Desktop","no","mono","no","18","no","white","no","yes","768","legacy","8","11","/Users/mihailcodreanu/Desktop/MC-subject-2.csv","legacy","9 7 4 5 8","Lentiform Loewenfeld","3.3.9","0","n","0","right","return","left","right","NA","NA","996","37501","9139","996","NA","NA","2","legacy","5","1024","2","48000","-16","experiment","2","even","6","172107","168842","169894","4205","122787","169898","127656","4214","113648","174111","175108","170903","NA","41730","174111","NA","Sternberg task","17","13910","21","yes","1024"
"81.81818181818181","81.81818181818181","655.5","655.5","black","experiment","legacy","legacy","legacy","0","uniform","1","undefined","1","right","21","21","21","0","0","21","21","0","0","21","21","21","NA","0","21","0","Sun Oct 24 19:38:05 2021","The main experiment item","yes","Sternbergtask.osexp","/Users/mihailcodreanu/Desktop","no","mono","no","18","no","white","no","yes","768","legacy","9","11","/Users/mihailcodreanu/Desktop/MC-subject-2.csv","legacy","7 9","Lentiform Loewenfeld","3.3.9","0","n","0","right","return","left","right","NA","NA","511","37501","9139","511","NA","NA","2","legacy","2","1024","2","48000","-16","experiment","2","even","1","178384","175114","176170","4205","122787","176174","127656","4214","113648","180388","180899","177178","NA","41730","180388","NA","Sternberg task","18","14421","22","yes","1024"
"78.26086956521739","78.26086956521739","651.695652173913","651.695652173913","black","experiment","legacy","legacy","legacy","0","uniform","0","undefined","0","right","22","22","22","0","0","22","22","0","0","22","22","22","NA","0","22","0","Sun Oct 24 19:38:05 2021","The main experiment item","yes","Sternbergtask.osexp","/Users/mihailcodreanu/Desktop","no","mono","no","18","no","white","no","yes","768","legacy","10","11","/Users/mihailcodreanu/Desktop/MC-subject-2.csv","legacy","7 6 4 8 1 2","Lentiform Loewenfeld","3.3.9","0","n","0","left","return","left","left","NA","NA","568","37501","9139","568","NA","NA","2","legacy","6","1024","2","48000","-16","experiment","2","even","9","184175","180904","181960","4205","122787","181964","127656","4214","113648","186179","186747","182968","NA","41730","186179","NA","Sternberg task","18","14989","23","yes","1024"
"79.16666666666667","79.16666666666667","649.4166666666666","649.4166666666666","black","experiment","legacy","legacy","legacy","0","uniform","1","undefined","1","left","23","23","23","0","0","23","23","0","0","23","23","23","NA","0","23","0","Sun Oct 24 19:38:05 2021","The main experiment item","yes","Sternbergtask.osexp","/Users/mihailcodreanu/Desktop","no","mono","no","18","no","white","no","yes","768","legacy","11","11","/Users/mihailcodreanu/Desktop/MC-subject-2.csv","legacy","8 3","Lentiform Loewenfeld","3.3.9","2","y","0","left","return","left","left","NA","NA","597","37501","9139","597","NA","NA","2","legacy","2","1024","2","48000","-16","experiment","2","even","3","190023","180904","187809","4205","122787","187813","186754","4214","113648","192030","192627","188817","NA","41730","192030","NA","Sternberg task","19","15586","24","yes","1024"
"80","80","642.88","642.88","black","experiment","legacy","legacy","legacy","0","uniform","1","undefined","1","left","24","24","24","0","0","24","24","0","0","24","24","24","NA","0","24","0","Sun Oct 24 19:38:05 2021","The main experiment item","yes","Sternbergtask.osexp","/Users/mihailcodreanu/Desktop","no","mono","no","18","no","white","no","yes","768","legacy","12","11","/Users/mihailcodreanu/Desktop/MC-subject-2.csv","legacy","3 5 7 1","Lentiform Loewenfeld","3.3.9","3","y","0","left","return","left","left","NA","NA","486","37501","9139","486","NA","NA","2","legacy","4","1024","2","48000","-16","experiment","2","even","7","195904","192633","193690","4205","122787","193693","186754","4214","113648","197909","198396","194698","NA","41730","197909","NA","Sternberg task","20","16072","25","yes","1024"
"80.76923076923077","80.76923076923077","641.7692307692307","641.7692307692307","black","experiment","legacy","legacy","legacy","0","uniform","1","undefined","1","right","25","25","25","0","0","25","25","0","0","25","25","25","NA","0","25","0","Sun Oct 24 19:38:05 2021","The main experiment item","yes","Sternbergtask.osexp","/Users/mihailcodreanu/Desktop","no","mono","no","18","no","white","no","yes","768","legacy","13","11","/Users/mihailcodreanu/Desktop/MC-subject-2.csv","legacy","4 8 1 2","Lentiform Loewenfeld","3.3.9","0","n","0","right","return","left","right","NA","NA","614","37501","9139","614","NA","NA","2","legacy","4","1024","2","48000","-16","experiment","2","even","7","201673","198402","199459","4205","122787","199463","186754","4214","113648","203677","204292","200467","NA","41730","203677","NA","Sternberg task","21","16686","26","yes","1024"
"81.48148148148148","81.48148148148148","643.2592592592592","643.2592592592592","black","experiment","legacy","legacy","legacy","0","uniform","1","undefined","1","right","26","26","26","0","0","26","26","0","0","26","26","26","NA","0","26","0","Sun Oct 24 19:38:05 2021","The main experiment item","yes","Sternbergtask.osexp","/Users/mihailcodreanu/Desktop","no","mono","no","18","no","white","no","yes","768","legacy","14","11","/Users/mihailcodreanu/Desktop/MC-subject-2.csv","legacy","1 4 9 3","Lentiform Loewenfeld","3.3.9","0","n","0","right","return","left","right","NA","NA","682","37501","9139","682","NA","NA","2","legacy","4","1024","2","48000","-16","experiment","2","even","5","207564","204298","205351","4205","122787","205355","186754","4214","113648","209569","210251","206359","NA","41730","209569","NA","Sternberg task","22","17368","27","yes","1024"
"82.14285714285714","82.14285714285714","638.5357142857143","638.5357142857143","black","experiment","legacy","legacy","legacy","0","uniform","1","undefined","1","left","27","27","27","0","0","27","27","0","0","27","27","27","NA","0","27","0","Sun Oct 24 19:38:05 2021","The main experiment item","yes","Sternbergtask.osexp","/Users/mihailcodreanu/Desktop","no","mono","no","18","no","white","no","yes","768","legacy","15","11","/Users/mihailcodreanu/Desktop/MC-subject-2.csv","legacy","2 3 7 4","Lentiform Loewenfeld","3.3.9","1","y","0","left","return","left","left","NA","NA","511","37501","9139","511","NA","NA","2","legacy","4","1024","2","48000","-16","experiment","2","even","2","213527","210258","211314","4205","122787","211318","186754","4214","113648","215532","216044","212322","NA","41730","215532","NA","Sternberg task","23","17879","28","yes","1024"
"82.75862068965517","82.75862068965517","633.8965517241379","633.8965517241379","black","experiment","legacy","legacy","legacy","0","uniform","1","undefined","1","left","28","28","28","0","0","28","28","0","0","28","28","28","NA","0","28","0","Sun Oct 24 19:38:05 2021","The main experiment item","yes","Sternbergtask.osexp","/Users/mihailcodreanu/Desktop","no","mono","no","18","no","white","no","yes","768","legacy","16","11","/Users/mihailcodreanu/Desktop/MC-subject-2.csv","legacy","6 9 3 1","Lentiform Loewenfeld","3.3.9","4","y","0","left","return","left","left","NA","NA","504","37501","9139","504","NA","NA","2","legacy","4","1024","2","48000","-16","experiment","2","even","1","219319","216050","217106","4205","122787","217109","186754","4214","113648","221323","221827","218113","NA","41730","221323","NA","Sternberg task","24","18383","29","yes","1024"
"83.33333333333333","83.33333333333333","645","645","black","experiment","legacy","legacy","legacy","0","uniform","1","undefined","1","left","29","29","29","0","0","29","29","0","0","29","29","29","NA","0","29","0","Sun Oct 24 19:38:05 2021","The main experiment item","yes","Sternbergtask.osexp","/Users/mihailcodreanu/Desktop","no","mono","no","18","no","white","no","yes","768","legacy","17","11","/Users/mihailcodreanu/Desktop/MC-subject-2.csv","legacy","2 4 8 5 1 3","Lentiform Loewenfeld","3.3.9","1","y","0","left","return","left","left","NA","NA","967","37501","9139","967","NA","NA","2","legacy","6","1024","2","48000","-16","experiment","2","even","2","225104","221834","222890","4205","122787","222893","186754","4214","113648","227108","228076","223898","NA","41730","227108","NA","Sternberg task","25","19350","30","yes","1024"
"83.87096774193549","83.87096774193549","644.5806451612904","644.5806451612904","black","experiment","legacy","legacy","legacy","0","uniform","1","undefined","1","right","30","30","30","0","0","30","30","0","0","30","30","30","NA","0","30","0","Sun Oct 24 19:38:05 2021","The main experiment item","yes","Sternbergtask.osexp","/Users/mihailcodreanu/Desktop","no","mono","no","18","no","white","no","yes","768","legacy","18","11","/Users/mihailcodreanu/Desktop/MC-subject-2.csv","legacy","6 2 9 3 8 4","Lentiform Loewenfeld","3.3.9","0","n","0","right","return","left","right","NA","NA","632","37501","9139","632","NA","NA","2","legacy","6","1024","2","48000","-16","experiment","2","even","1","231351","228082","229137","4205","122787","229141","186754","4214","113648","233355","233988","230145","NA","41730","233355","NA","Sternberg task","26","19982","31","yes","1024"
"84.375","84.375","647.1875","647.1875","black","experiment","legacy","legacy","legacy","0","uniform","1","undefined","1","right","31","31","31","0","0","31","31","0","0","31","31","31","NA","0","31","0","Sun Oct 24 19:38:05 2021","The main experiment item","yes","Sternbergtask.osexp","/Users/mihailcodreanu/Desktop","no","mono","no","18","no","white","no","yes","768","legacy","19","11","/Users/mihailcodreanu/Desktop/MC-subject-2.csv","legacy","1 4 3 6 5","Lentiform Loewenfeld","3.3.9","0","n","0","right","return","left","right","NA","NA","728","37501","9139","728","NA","NA","2","legacy","5","1024","2","48000","-16","experiment","2","even","8","237263","233995","235048","4205","122787","235052","186754","4214","113648","239267","239996","236057","NA","41730","239267","NA","Sternberg task","27","20710","32","yes","1024"
"84.84848484848484","84.84848484848484","648.3939393939394","648.3939393939394","black","experiment","legacy","legacy","legacy","0","uniform","1","undefined","1","right","32","32","32","0","0","32","32","0","0","32","32","32","NA","0","32","0","Sun Oct 24 19:38:05 2021","The main experiment item","yes","Sternbergtask.osexp","/Users/mihailcodreanu/Desktop","no","mono","no","18","no","white","no","yes","768","legacy","20","11","/Users/mihailcodreanu/Desktop/MC-subject-2.csv","legacy","6 3 1 7 9 8","Lentiform Loewenfeld","3.3.9","0","n","0","right","return","left","right","NA","NA","687","37501","9139","687","NA","NA","2","legacy","6","1024","2","48000","-16","experiment","2","even","4","243272","240002","241057","4205","122787","241061","186754","4214","113648","245276","245964","242065","NA","41730","245276","NA","Sternberg task","28","21397","33","yes","1024"
"85.29411764705883","85.29411764705883","642.5","642.5","black","experiment","legacy","legacy","legacy","0","uniform","1","undefined","1","left","33","33","33","0","0","33","33","0","0","33","33","33","NA","0","33","0","Sun Oct 24 19:38:05 2021","The main experiment item","yes","Sternbergtask.osexp","/Users/mihailcodreanu/Desktop","no","mono","no","18","no","white","no","yes","768","legacy","21","11","/Users/mihailcodreanu/Desktop/MC-subject-2.csv","legacy","8 5 4 7 3 1","Lentiform Loewenfeld","3.3.9","2","y","0","left","return","left","left","NA","NA","448","37501","9139","448","NA","NA","2","legacy","6","1024","2","48000","-16","experiment","2","even","5","249239","245970","247026","4205","122787","247030","186754","4214","113648","251243","251692","248034","NA","41730","251243","NA","Sternberg task","29","21845","34","yes","1024"
"85.71428571428571","85.71428571428571","637.2285714285714","637.2285714285714","black","experiment","legacy","legacy","legacy","0","uniform","1","undefined","1","right","34","34","34","0","0","34","34","0","0","34","34","34","NA","0","34","0","Sun Oct 24 19:38:05 2021","The main experiment item","yes","Sternbergtask.osexp","/Users/mihailcodreanu/Desktop","no","mono","no","18","no","white","no","yes","768","legacy","22","11","/Users/mihailcodreanu/Desktop/MC-subject-2.csv","legacy","6 8 4","Lentiform Loewenfeld","3.3.9","0","n","0","right","return","left","right","NA","NA","458","37501","9139","458","NA","NA","2","legacy","3","1024","2","48000","-16","experiment","2","even","1","254965","251698","252751","4205","122787","252755","186754","4214","113648","256969","257428","253759","NA","41730","256969","NA","Sternberg task","30","22303","35","yes","1024"
"86.11111111111111","86.11111111111111","632.0277777777778","632.0277777777778","black","experiment","legacy","legacy","legacy","0","uniform","1","undefined","1","left","35","35","35","0","0","35","35","0","0","35","35","35","NA","0","35","0","Sun Oct 24 19:38:05 2021","The main experiment item","yes","Sternbergtask.osexp","/Users/mihailcodreanu/Desktop","no","mono","no","18","no","white","no","yes","768","legacy","23","11","/Users/mihailcodreanu/Desktop/MC-subject-2.csv","legacy","8","Lentiform Loewenfeld","3.3.9","1","y","0","left","return","left","left","NA","NA","450","37501","9139","450","NA","NA","2","legacy","1","1024","2","48000","-16","experiment","2","even","8","260701","257434","258487","4205","122787","258491","186754","4214","113648","262705","263156","259495","NA","41730","262705","NA","Sternberg task","31","22753","36","yes","1024"
"86.48648648648648","86.48648648648648","627.2432432432432","627.2432432432432","black","experiment","legacy","legacy","legacy","0","uniform","1","undefined","1","right","36","36","36","0","0","36","36","0","0","36","36","36","NA","0","36","0","Sun Oct 24 19:38:05 2021","The main experiment item","yes","Sternbergtask.osexp","/Users/mihailcodreanu/Desktop","no","mono","no","18","no","white","no","yes","768","legacy","24","11","/Users/mihailcodreanu/Desktop/MC-subject-2.csv","legacy","8 6 3 4 7","Lentiform Loewenfeld","3.3.9","0","n","0","right","return","left","right","NA","NA","455","37501","9139","455","NA","NA","2","legacy","5","1024","2","48000","-16","experiment","2","even","1","266432","263162","264218","4205","122787","264222","186754","4214","113648","268436","268892","265226","NA","41730","268436","NA","Sternberg task","32","23208","37","yes","1024"
"84.21052631578948","84.21052631578948","639.7631578947369","639.7631578947369","black","experiment","legacy","legacy","legacy","0","uniform","0","undefined","0","left","37","37","37","0","0","37","37","0","0","37","37","37","NA","0","37","0","Sun Oct 24 19:38:05 2021","The main experiment item","yes","Sternbergtask.osexp","/Users/mihailcodreanu/Desktop","no","mono","no","18","no","white","no","yes","768","legacy","25","11","/Users/mihailcodreanu/Desktop/MC-subject-2.csv","legacy","5 2 9 6 1 7","Lentiform Loewenfeld","3.3.9","3","y","0","right","return","left","right","NA","NA","1103","37501","9139","1103","NA","NA","2","legacy","6","1024","2","48000","-16","experiment","2","even","9","272168","268898","269955","4205","122787","269958","186754","4214","113648","274172","275276","270963","NA","41730","274172","NA","Sternberg task","32","24311","38","yes","1024"
"84.61538461538461","84.61538461538461","639.5641025641025","639.5641025641025","black","experiment","legacy","legacy","legacy","0","uniform","1","undefined","1","left","38","38","38","0","0","38","38","0","0","38","38","38","NA","0","38","0","Sun Oct 24 19:38:05 2021","The main experiment item","yes","Sternbergtask.osexp","/Users/mihailcodreanu/Desktop","no","mono","no","18","no","white","no","yes","768","legacy","26","11","/Users/mihailcodreanu/Desktop/MC-subject-2.csv","legacy","4 6 2 5 1","Lentiform Loewenfeld","3.3.9","5","y","0","left","return","left","left","NA","NA","632","37501","9139","632","NA","NA","2","legacy","5","1024","2","48000","-16","experiment","2","even","1","278551","268898","276337","4205","122787","276341","275282","4214","113648","280555","281187","277345","NA","41730","280555","NA","Sternberg task","33","24943","39","yes","1024"
"85","85","640.25","640.25","black","experiment","legacy","legacy","legacy","0","uniform","1","undefined","1","left","39","39","39","0","0","39","39","0","0","39","39","39","NA","0","39","0","Sun Oct 24 19:38:05 2021","The main experiment item","yes","Sternbergtask.osexp","/Users/mihailcodreanu/Desktop","no","mono","no","18","no","white","no","yes","768","legacy","27","11","/Users/mihailcodreanu/Desktop/MC-subject-2.csv","legacy","9 3 8 2 1 4","Lentiform Loewenfeld","3.3.9","3","y","0","left","return","left","left","NA","NA","667","37501","9139","667","NA","NA","2","legacy","6","1024","2","48000","-16","experiment","2","even","8","284460","281192","282246","4205","122787","282249","275282","4214","113648","286464","287132","283254","NA","41730","286464","NA","Sternberg task","34","25610","40","yes","1024"
"85.36585365853658","85.36585365853658","635.9268292682926","635.9268292682926","black","experiment","legacy","legacy","legacy","0","uniform","1","undefined","1","left","40","40","40","0","0","40","40","0","0","40","40","40","NA","0","40","0","Sun Oct 24 19:38:05 2021","The main experiment item","yes","Sternbergtask.osexp","/Users/mihailcodreanu/Desktop","no","mono","no","18","no","white","no","yes","768","legacy","28","11","/Users/mihailcodreanu/Desktop/MC-subject-2.csv","legacy","6 2","Lentiform Loewenfeld","3.3.9","1","y","0","left","return","left","left","NA","NA","463","37501","9139","463","NA","NA","2","legacy","2","1024","2","48000","-16","experiment","2","even","6","290407","287138","288194","4205","122787","288198","275282","4214","113648","292412","292876","289202","NA","41730","292412","NA","Sternberg task","35","26073","41","yes","1024"
"85.71428571428571","85.71428571428571","634.3333333333334","634.3333333333334","black","experiment","legacy","legacy","legacy","0","uniform","1","undefined","1","right","41","41","41","0","0","41","41","0","0","41","41","41","NA","0","41","0","Sun Oct 24 19:38:05 2021","The main experiment item","yes","Sternbergtask.osexp","/Users/mihailcodreanu/Desktop","no","mono","no","18","no","white","no","yes","768","legacy","29","11","/Users/mihailcodreanu/Desktop/MC-subject-2.csv","legacy","2 7 5","Lentiform Loewenfeld","3.3.9","0","n","0","right","return","left","right","NA","NA","569","37501","9139","569","NA","NA","2","legacy","3","1024","2","48000","-16","experiment","2","even","8","296150","292882","293937","4205","122787","293941","275282","4214","113648","298154","298724","294945","NA","41730","298154","NA","Sternberg task","36","26642","42","yes","1024"
"86.04651162790698","86.04651162790698","632.9767441860465","632.9767441860465","black","experiment","legacy","legacy","legacy","0","uniform","1","undefined","1","left","42","42","42","0","0","42","42","0","0","42","42","42","NA","0","42","0","Sun Oct 24 19:38:05 2021","The main experiment item","yes","Sternbergtask.osexp","/Users/mihailcodreanu/Desktop","no","mono","no","18","no","white","no","yes","768","legacy","30","11","/Users/mihailcodreanu/Desktop/MC-subject-2.csv","legacy","4 6 5 8","Lentiform Loewenfeld","3.3.9","1","y","0","left","return","left","left","NA","NA","576","37501","9139","576","NA","NA","2","legacy","4","1024","2","48000","-16","experiment","2","even","4","301999","298730","299786","4205","122787","299790","275282","4214","113648","304003","304579","300794","NA","41730","304003","NA","Sternberg task","37","27218","43","yes","1024"
"86.36363636363636","86.36363636363636","638.4090909090909","638.4090909090909","black","experiment","legacy","legacy","legacy","0","uniform","1","undefined","1","left","43","43","43","0","0","43","43","0","0","43","43","43","NA","0","43","0","Sun Oct 24 19:38:05 2021","The main experiment item","yes","Sternbergtask.osexp","/Users/mihailcodreanu/Desktop","no","mono","no","18","no","white","no","yes","768","legacy","31","11","/Users/mihailcodreanu/Desktop/MC-subject-2.csv","legacy","9 3 1 2 5","Lentiform Loewenfeld","3.3.9","4","y","0","left","return","left","left","NA","NA","872","37501","9139","872","NA","NA","2","legacy","5","1024","2","48000","-16","experiment","2","even","2","307856","304587","305642","4205","122787","305646","275282","4214","113648","309859","310732","306650","NA","41730","309859","NA","Sternberg task","38","28090","44","yes","1024"
"86.66666666666667","86.66666666666667","634.5333333333333","634.5333333333333","black","experiment","legacy","legacy","legacy","0","uniform","1","undefined","1","left","44","44","44","0","0","44","44","0","0","44","44","44","NA","0","44","0","Sun Oct 24 19:38:05 2021","The main experiment item","yes","Sternbergtask.osexp","/Users/mihailcodreanu/Desktop","no","mono","no","18","no","white","no","yes","768","legacy","32","11","/Users/mihailcodreanu/Desktop/MC-subject-2.csv","legacy","1 4 9 3 2 5","Lentiform Loewenfeld","3.3.9","3","y","0","left","return","left","left","NA","NA","464","37501","9139","464","NA","NA","2","legacy","6","1024","2","48000","-16","experiment","2","even","9","314007","310737","311793","4205","122787","311797","275282","4214","113648","316011","316476","312801","NA","41730","316011","NA","Sternberg task","39","28554","45","yes","1024"
"86.95652173913044","86.95652173913044","635.7391304347826","635.7391304347826","black","experiment","legacy","legacy","legacy","0","uniform","1","undefined","1","left","45","45","45","0","0","45","45","0","0","45","45","45","NA","0","45","0","Sun Oct 24 19:38:05 2021","The main experiment item","yes","Sternbergtask.osexp","/Users/mihailcodreanu/Desktop","no","mono","no","18","no","white","no","yes","768","legacy","33","11","/Users/mihailcodreanu/Desktop/MC-subject-2.csv","legacy","5 7 3 6 2","Lentiform Loewenfeld","3.3.9","5","y","0","left","return","left","left","NA","NA","690","37501","9139","690","NA","NA","2","legacy","5","1024","2","48000","-16","experiment","2","even","2","319748","316482","317536","4205","122787","317540","275282","4214","113648","321753","322444","318543","NA","41730","321753","NA","Sternberg task","40","29244","46","yes","1024"
"87.23404255319149","87.23404255319149","633.2553191489362","633.2553191489362","black","experiment","legacy","legacy","legacy","0","uniform","1","undefined","1","right","46","46","46","0","0","46","46","0","0","46","46","46","NA","0","46","0","Sun Oct 24 19:38:05 2021","The main experiment item","yes","Sternbergtask.osexp","/Users/mihailcodreanu/Desktop","no","mono","no","18","no","white","no","yes","768","legacy","34","11","/Users/mihailcodreanu/Desktop/MC-subject-2.csv","legacy","3 4 2","Lentiform Loewenfeld","3.3.9","0","n","0","right","return","left","right","NA","NA","519","37501","9139","519","NA","NA","2","legacy","3","1024","2","48000","-16","experiment","2","even","5","325719","322450","323506","4205","122787","323510","275282","4214","113648","327724","328244","324514","NA","41730","327724","NA","Sternberg task","41","29763","47","yes","1024"
"87.5","87.5","630.0208333333334","630.0208333333334","black","experiment","legacy","legacy","legacy","0","uniform","1","undefined","1","right","47","47","47","0","0","47","47","0","0","47","47","47","NA","0","47","0","Sun Oct 24 19:38:05 2021","The main experiment item","yes","Sternbergtask.osexp","/Users/mihailcodreanu/Desktop","no","mono","no","18","no","white","no","yes","768","legacy","35","11","/Users/mihailcodreanu/Desktop/MC-subject-2.csv","legacy","7 9 1 6","Lentiform Loewenfeld","3.3.9","0","n","0","right","return","left","right","NA","NA","478","37501","9139","478","NA","NA","2","legacy","4","1024","2","48000","-16","experiment","2","even","4","331521","328250","329306","4205","122787","329310","275282","4214","113648","333525","334004","330315","NA","41730","333525","NA","Sternberg task","42","30241","48","yes","1024"
"87.75510204081633","87.75510204081633","625.7755102040817","625.7755102040817","black","experiment","legacy","legacy","legacy","0","uniform","1","undefined","1","left","48","48","48","0","0","48","48","0","0","48","48","48","NA","0","48","0","Sun Oct 24 19:38:05 2021","The main experiment item","yes","Sternbergtask.osexp","/Users/mihailcodreanu/Desktop","no","mono","no","18","no","white","no","yes","768","legacy","36","11","/Users/mihailcodreanu/Desktop/MC-subject-2.csv","legacy","7 8 4 6 9 5","Lentiform Loewenfeld","3.3.9","4","y","0","left","return","left","left","NA","NA","422","37501","9139","422","NA","NA","2","legacy","6","1024","2","48000","-16","experiment","2","even","6","337281","334011","335067","4205","122787","335071","275282","4214","113648","339285","339708","336075","NA","41730","339285","NA","Sternberg task","43","30663","49","yes","1024"
"88","88","623.14","623.14","black","experiment","legacy","legacy","legacy","0","uniform","1","undefined","1","left","49","49","49","0","0","49","49","0","0","49","49","49","NA","0","49","0","Sun Oct 24 19:38:05 2021","The main experiment item","yes","Sternbergtask.osexp","/Users/mihailcodreanu/Desktop","no","mono","no","18","no","white","no","yes","768","legacy","37","11","/Users/mihailcodreanu/Desktop/MC-subject-2.csv","legacy","7 6","Lentiform Loewenfeld","3.3.9","2","y","0","left","return","left","left","NA","NA","494","37501","9139","494","NA","NA","2","legacy","2","1024","2","48000","-16","experiment","2","even","6","342985","339715","340771","4205","122787","340775","275282","4214","113648","344989","345484","341779","NA","41730","344989","NA","Sternberg task","44","31157","50","yes","1024"
"88.23529411764706","88.23529411764706","621.4313725490196","621.4313725490196","black","experiment","legacy","legacy","legacy","0","uniform","1","undefined","1","right","50","50","50","0","0","50","50","0","0","50","50","50","NA","0","50","0","Sun Oct 24 19:38:05 2021","The main experiment item","yes","Sternbergtask.osexp","/Users/mihailcodreanu/Desktop","no","mono","no","18","no","white","no","yes","768","legacy","38","11","/Users/mihailcodreanu/Desktop/MC-subject-2.csv","legacy","6 9 5","Lentiform Loewenfeld","3.3.9","0","n","0","right","return","left","right","NA","NA","536","37501","9139","536","NA","NA","2","legacy","3","1024","2","48000","-16","experiment","2","even","8","348759","345491","346545","4205","122787","346549","275282","4214","113648","350763","351299","347553","NA","41730","350763","NA","Sternberg task","45","31693","51","yes","1024"
"88.46153846153847","88.46153846153847","619.4615384615385","619.4615384615385","black","experiment","legacy","legacy","legacy","0","uniform","1","undefined","1","left","51","51","51","0","0","51","51","0","0","51","51","51","NA","0","51","0","Sun Oct 24 19:38:05 2021","The main experiment item","yes","Sternbergtask.osexp","/Users/mihailcodreanu/Desktop","no","mono","no","18","no","white","no","yes","768","legacy","39","11","/Users/mihailcodreanu/Desktop/MC-subject-2.csv","legacy","8 9 6 1","Lentiform Loewenfeld","3.3.9","2","y","0","left","return","left","left","NA","NA","519","37501","9139","519","NA","NA","2","legacy","4","1024","2","48000","-16","experiment","2","even","9","354576","351306","352363","4205","122787","352367","275282","4214","113648","356580","357099","353371","NA","41730","356580","NA","Sternberg task","46","32212","52","yes","1024"
"88.67924528301887","88.67924528301887","620.7924528301887","620.7924528301887","black","experiment","legacy","legacy","legacy","0","uniform","1","undefined","1","left","52","52","52","0","0","52","52","0","0","52","52","52","NA","0","52","0","Sun Oct 24 19:38:05 2021","The main experiment item","yes","Sternbergtask.osexp","/Users/mihailcodreanu/Desktop","no","mono","no","18","no","white","no","yes","768","legacy","40","11","/Users/mihailcodreanu/Desktop/MC-subject-2.csv","legacy","8 1 6","Lentiform Loewenfeld","3.3.9","3","y","0","left","return","left","left","NA","NA","690","37501","9139","690","NA","NA","2","legacy","3","1024","2","48000","-16","experiment","2","even","6","360373","357106","358159","4205","122787","358163","275282","4214","113648","362377","363068","359167","NA","41730","362377","NA","Sternberg task","47","32902","53","yes","1024"
"88.88888888888889","88.88888888888889","617.7777777777778","617.7777777777778","black","experiment","legacy","legacy","legacy","0","uniform","1","undefined","1","left","53","53","53","0","0","53","53","0","0","53","53","53","NA","0","53","0","Sun Oct 24 19:38:05 2021","The main experiment item","yes","Sternbergtask.osexp","/Users/mihailcodreanu/Desktop","no","mono","no","18","no","white","no","yes","768","legacy","41","11","/Users/mihailcodreanu/Desktop/MC-subject-2.csv","legacy","6 1 2","Lentiform Loewenfeld","3.3.9","3","y","0","left","return","left","left","NA","NA","458","37501","9139","458","NA","NA","2","legacy","3","1024","2","48000","-16","experiment","2","even","2","366341","363074","364128","4205","122787","364132","275282","4214","113648","368345","368804","365136","NA","41730","368345","NA","Sternberg task","48","33360","54","yes","1024"
"89.0909090909091","89.0909090909091","613.8363636363637","613.8363636363637","black","experiment","legacy","legacy","legacy","0","uniform","1","undefined","1","right","54","54","54","0","0","54","54","0","0","54","54","54","NA","0","54","0","Sun Oct 24 19:38:05 2021","The main experiment item","yes","Sternbergtask.osexp","/Users/mihailcodreanu/Desktop","no","mono","no","18","no","white","no","yes","768","legacy","42","11","/Users/mihailcodreanu/Desktop/MC-subject-2.csv","legacy","5 2","Lentiform Loewenfeld","3.3.9","0","n","0","right","return","left","right","NA","NA","401","37501","9139","401","NA","NA","2","legacy","2","1024","2","48000","-16","experiment","2","even","7","372078","368810","369864","4205","122787","369868","275282","4214","113648","374082","374484","370872","NA","41730","374082","NA","Sternberg task","49","33761","55","yes","1024"
"89.28571428571429","89.28571428571429","615.3035714285714","615.3035714285714","black","experiment","legacy","legacy","legacy","0","uniform","1","undefined","1","right","55","55","55","0","0","55","55","0","0","55","55","55","NA","0","55","0","Sun Oct 24 19:38:05 2021","The main experiment item","yes","Sternbergtask.osexp","/Users/mihailcodreanu/Desktop","no","mono","no","18","no","white","no","yes","768","legacy","43","11","/Users/mihailcodreanu/Desktop/MC-subject-2.csv","legacy","2 6 4 3 9","Lentiform Loewenfeld","3.3.9","0","n","0","right","return","left","right","NA","NA","696","37501","9139","696","NA","NA","2","legacy","5","1024","2","48000","-16","experiment","2","even","1","377759","374491","375545","4205","122787","375549","275282","4214","113648","379763","380460","376553","NA","41730","379763","NA","Sternberg task","50","34457","56","yes","1024"
"89.47368421052632","89.47368421052632","613.1052631578947","613.1052631578947","black","experiment","legacy","legacy","legacy","0","uniform","1","undefined","1","left","56","56","56","0","0","56","56","0","0","56","56","56","NA","0","56","0","Sun Oct 24 19:38:05 2021","The main experiment item","yes","Sternbergtask.osexp","/Users/mihailcodreanu/Desktop","no","mono","no","18","no","white","no","yes","768","legacy","44","11","/Users/mihailcodreanu/Desktop/MC-subject-2.csv","legacy","7 2 3","Lentiform Loewenfeld","3.3.9","3","y","0","left","return","left","left","NA","NA","490","37501","9139","490","NA","NA","2","legacy","3","1024","2","48000","-16","experiment","2","even","3","383733","380466","381520","4205","122787","381524","275282","4214","113648","385737","386228","382528","NA","41730","385737","NA","Sternberg task","51","34947","57","yes","1024"
"89.65517241379311","89.65517241379311","611.2413793103449","611.2413793103449","black","experiment","legacy","legacy","legacy","0","uniform","1","undefined","1","right","57","57","57","0","0","57","57","0","0","57","57","57","NA","0","57","0","Sun Oct 24 19:38:05 2021","The main experiment item","yes","Sternbergtask.osexp","/Users/mihailcodreanu/Desktop","no","mono","no","18","no","white","no","yes","768","legacy","45","11","/Users/mihailcodreanu/Desktop/MC-subject-2.csv","legacy","1","Lentiform Loewenfeld","3.3.9","0","n","0","right","return","left","right","NA","NA","505","37501","9139","505","NA","NA","2","legacy","1","1024","2","48000","-16","experiment","2","even","7","389502","386233","387288","4205","122787","387292","275282","4214","113648","391506","392011","388296","NA","41730","391506","NA","Sternberg task","52","35452","58","yes","1024"
"89.83050847457628","89.83050847457628","610.9322033898305","610.9322033898305","black","experiment","legacy","legacy","legacy","0","uniform","1","undefined","1","left","58","58","58","0","0","58","58","0","0","58","58","58","NA","0","58","0","Sun Oct 24 19:38:05 2021","The main experiment item","yes","Sternbergtask.osexp","/Users/mihailcodreanu/Desktop","no","mono","no","18","no","white","no","yes","768","legacy","46","11","/Users/mihailcodreanu/Desktop/MC-subject-2.csv","legacy","4 3 2 5 8","Lentiform Loewenfeld","3.3.9","2","y","0","left","return","left","left","NA","NA","593","37501","9139","593","NA","NA","2","legacy","5","1024","2","48000","-16","experiment","2","even","3","395286","392018","393072","4205","122787","393076","275282","4214","113648","397290","397884","394080","NA","41730","397290","NA","Sternberg task","53","36045","59","yes","1024"
"90","90","607.7166666666667","607.7166666666667","black","experiment","legacy","legacy","legacy","0","uniform","1","undefined","1","right","59","59","59","0","0","59","59","0","0","59","59","59","NA","0","59","0","Sun Oct 24 19:38:05 2021","The main experiment item","yes","Sternbergtask.osexp","/Users/mihailcodreanu/Desktop","no","mono","no","18","no","white","no","yes","768","legacy","47","11","/Users/mihailcodreanu/Desktop/MC-subject-2.csv","legacy","3 9 1","Lentiform Loewenfeld","3.3.9","0","n","0","right","return","left","right","NA","NA","418","37501","9139","418","NA","NA","2","legacy","3","1024","2","48000","-16","experiment","2","even","7","401156","397890","398944","4205","122787","398948","275282","4214","113648","403161","403580","399952","NA","41730","403161","NA","Sternberg task","54","36463","60","yes","1024"
"90.1639344262295","90.1639344262295","608.1639344262295","608.1639344262295","black","experiment","legacy","legacy","legacy","0","uniform","1","undefined","1","right","60","60","60","0","0","60","60","0","0","60","60","60","NA","0","60","0","Sun Oct 24 19:38:05 2021","The main experiment item","yes","Sternbergtask.osexp","/Users/mihailcodreanu/Desktop","no","mono","no","18","no","white","no","yes","768","legacy","48","11","/Users/mihailcodreanu/Desktop/MC-subject-2.csv","legacy","6 9 7 3 8 2","Lentiform Loewenfeld","3.3.9","0","n","0","right","return","left","right","NA","NA","635","37501","9139","635","NA","NA","2","legacy","6","1024","2","48000","-16","experiment","2","even","5","406852","403586","404639","4205","122787","404642","275282","4214","113648","408856","409492","405646","NA","41730","408856","NA","Sternberg task","55","37098","61","yes","1024"
"90.3225806451613","90.3225806451613","606.3709677419355","606.3709677419355","black","experiment","legacy","legacy","legacy","0","uniform","1","undefined","1","left","61","61","61","0","0","61","61","0","0","61","61","61","NA","0","61","0","Sun Oct 24 19:38:05 2021","The main experiment item","yes","Sternbergtask.osexp","/Users/mihailcodreanu/Desktop","no","mono","no","18","no","white","no","yes","768","legacy","49","11","/Users/mihailcodreanu/Desktop/MC-subject-2.csv","legacy","9 1 7 2","Lentiform Loewenfeld","3.3.9","2","y","0","left","return","left","left","NA","NA","497","37501","9139","497","NA","NA","2","legacy","4","1024","2","48000","-16","experiment","2","even","1","412766","409498","410552","4205","122787","410555","275282","4214","113648","414770","415268","411559","NA","41730","414770","NA","Sternberg task","56","37595","62","yes","1024"
"90.47619047619048","90.47619047619048","607.9206349206349","607.9206349206349","black","experiment","legacy","legacy","legacy","0","uniform","1","undefined","1","left","62","62","62","0","0","62","62","0","0","62","62","62","NA","0","62","0","Sun Oct 24 19:38:05 2021","The main experiment item","yes","Sternbergtask.osexp","/Users/mihailcodreanu/Desktop","no","mono","no","18","no","white","no","yes","768","legacy","50","11","/Users/mihailcodreanu/Desktop/MC-subject-2.csv","legacy","8 9 5 6 7","Lentiform Loewenfeld","3.3.9","1","y","0","left","return","left","left","NA","NA","704","37501","9139","704","NA","NA","2","legacy","5","1024","2","48000","-16","experiment","2","even","8","418543","415274","416330","4205","122787","416333","275282","4214","113648","420547","421252","417337","NA","41730","420547","NA","Sternberg task","57","38299","63","yes","1024"
"90.625","90.625","610.390625","610.390625","black","experiment","legacy","legacy","legacy","0","uniform","1","undefined","1","right","63","63","63","0","0","63","63","0","0","63","63","63","NA","0","63","0","Sun Oct 24 19:38:05 2021","The main experiment item","yes","Sternbergtask.osexp","/Users/mihailcodreanu/Desktop","no","mono","no","18","no","white","no","yes","768","legacy","51","11","/Users/mihailcodreanu/Desktop/MC-subject-2.csv","legacy","5 3 2 6 9 8","Lentiform Loewenfeld","3.3.9","0","n","0","right","return","left","right","NA","NA","766","37501","9139","766","NA","NA","2","legacy","6","1024","2","48000","-16","experiment","2","even","4","424529","421259","422315","4205","122787","422318","275282","4214","113648","426533","427300","423323","NA","41730","426533","NA","Sternberg task","58","39065","64","yes","1024"
"90.76923076923077","90.76923076923077","608.6461538461539","608.6461538461539","black","experiment","legacy","legacy","legacy","0","uniform","1","undefined","1","left","64","64","64","0","0","64","64","0","0","64","64","64","NA","0","64","0","Sun Oct 24 19:38:05 2021","The main experiment item","yes","Sternbergtask.osexp","/Users/mihailcodreanu/Desktop","no","mono","no","18","no","white","no","yes","768","legacy","52","11","/Users/mihailcodreanu/Desktop/MC-subject-2.csv","legacy","3 5 9 6 2 4","Lentiform Loewenfeld","3.3.9","1","y","0","left","return","left","left","NA","NA","497","37501","9139","497","NA","NA","2","legacy","6","1024","2","48000","-16","experiment","2","even","3","430574","427307","428362","4205","122787","428366","275282","4214","113648","432578","433076","429370","NA","41730","432578","NA","Sternberg task","59","39562","65","yes","1024"
"90.9090909090909","90.9090909090909","607.1515151515151","607.1515151515151","black","experiment","legacy","legacy","legacy","0","uniform","1","undefined","1","left","65","65","65","0","0","65","65","0","0","65","65","65","NA","0","65","0","Sun Oct 24 19:38:05 2021","The main experiment item","yes","Sternbergtask.osexp","/Users/mihailcodreanu/Desktop","no","mono","no","18","no","white","no","yes","768","legacy","53","11","/Users/mihailcodreanu/Desktop/MC-subject-2.csv","legacy","3 9 6 2","Lentiform Loewenfeld","3.3.9","4","y","0","left","return","left","left","NA","NA","510","37501","9139","510","NA","NA","2","legacy","4","1024","2","48000","-16","experiment","2","even","2","436353","433085","434139","4205","122787","434143","275282","4214","113648","438357","438868","435147","NA","41730","438357","NA","Sternberg task","60","40072","66","yes","1024"
"91.04477611940298","91.04477611940298","605.2388059701492","605.2388059701492","black","experiment","legacy","legacy","legacy","0","uniform","1","undefined","1","right","66","66","66","0","0","66","66","0","0","66","66","66","NA","0","66","0","Sun Oct 24 19:38:05 2021","The main experiment item","yes","Sternbergtask.osexp","/Users/mihailcodreanu/Desktop","no","mono","no","18","no","white","no","yes","768","legacy","54","11","/Users/mihailcodreanu/Desktop/MC-subject-2.csv","legacy","8 4 3 9","Lentiform Loewenfeld","3.3.9","0","n","0","right","return","left","right","NA","NA","479","37501","9139","479","NA","NA","2","legacy","4","1024","2","48000","-16","experiment","2","even","5","442144","438876","439930","4205","122787","439934","275282","4214","113648","444148","444628","440938","NA","41730","444148","NA","Sternberg task","61","40551","67","yes","1024"
"91.17647058823529","91.17647058823529","603.3970588235294","603.3970588235294","black","experiment","legacy","legacy","legacy","0","uniform","1","undefined","1","left","67","67","67","0","0","67","67","0","0","67","67","67","NA","0","67","0","Sun Oct 24 19:38:05 2021","The main experiment item","yes","Sternbergtask.osexp","/Users/mihailcodreanu/Desktop","no","mono","no","18","no","white","no","yes","768","legacy","55","11","/Users/mihailcodreanu/Desktop/MC-subject-2.csv","legacy","6 8 9 3 4 9","Lentiform Loewenfeld","3.3.9","5","y","0","left","return","left","left","NA","NA","480","37501","9139","480","NA","NA","2","legacy","6","1024","2","48000","-16","experiment","2","even","4","447902","444634","445688","4205","122787","445692","275282","4214","113648","449906","450387","446696","NA","41730","449906","NA","Sternberg task","62","41031","68","yes","1024"
"91.30434782608695","91.30434782608695","605.4782608695652","605.4782608695652","black","experiment","legacy","legacy","legacy","0","uniform","1","undefined","1","right","68","68","68","0","0","68","68","0","0","68","68","68","NA","0","68","0","Sun Oct 24 19:38:05 2021","The main experiment item","yes","Sternbergtask.osexp","/Users/mihailcodreanu/Desktop","no","mono","no","18","no","white","no","yes","768","legacy","56","11","/Users/mihailcodreanu/Desktop/MC-subject-2.csv","legacy","6 7 5 9","Lentiform Loewenfeld","3.3.9","0","n","0","right","return","left","right","NA","NA","747","37501","9139","747","NA","NA","2","legacy","4","1024","2","48000","-16","experiment","2","even","2","453660","450394","451447","4205","122787","451451","275282","4214","113648","455664","456412","452455","NA","41730","455664","NA","Sternberg task","63","41778","69","yes","1024"
"91.42857142857143","91.42857142857143","604.8142857142857","604.8142857142857","black","experiment","legacy","legacy","legacy","0","uniform","1","undefined","1","left","69","69","69","0","0","69","69","0","0","69","69","69","NA","0","69","0","Sun Oct 24 19:38:05 2021","The main experiment item","yes","Sternbergtask.osexp","/Users/mihailcodreanu/Desktop","no","mono","no","18","no","white","no","yes","768","legacy","57","11","/Users/mihailcodreanu/Desktop/MC-subject-2.csv","legacy","6 7 9 3 1 2","Lentiform Loewenfeld","3.3.9","1","y","0","left","return","left","left","NA","NA","559","37501","9139","559","NA","NA","2","legacy","6","1024","2","48000","-16","experiment","2","even","6","459687","456418","457473","4205","122787","457476","275282","4214","113648","461692","462252","458481","NA","41730","461692","NA","Sternberg task","64","42337","70","yes","1024"
"91.54929577464789","91.54929577464789","602.5211267605633","602.5211267605633","black","experiment","legacy","legacy","legacy","0","uniform","1","undefined","1","left","70","70","70","0","0","70","70","0","0","70","70","70","NA","0","70","0","Sun Oct 24 19:38:05 2021","The main experiment item","yes","Sternbergtask.osexp","/Users/mihailcodreanu/Desktop","no","mono","no","18","no","white","no","yes","768","legacy","58","11","/Users/mihailcodreanu/Desktop/MC-subject-2.csv","legacy","7 1 3","Lentiform Loewenfeld","3.3.9","2","y","0","left","return","left","left","NA","NA","442","37501","9139","442","NA","NA","2","legacy","3","1024","2","48000","-16","experiment","2","even","1","465525","462258","463311","4205","122787","463315","275282","4214","113648","467529","467972","464319","NA","41730","467529","NA","Sternberg task","65","42779","71","yes","1024"
"91.66666666666667","91.66666666666667","599.5","599.5","black","experiment","legacy","legacy","legacy","0","uniform","1","undefined","1","left","71","71","71","0","0","71","71","0","0","71","71","71","NA","0","71","0","Sun Oct 24 19:38:05 2021","The main experiment item","yes","Sternbergtask.osexp","/Users/mihailcodreanu/Desktop","no","mono","no","18","no","white","no","yes","768","legacy","59","11","/Users/mihailcodreanu/Desktop/MC-subject-2.csv","legacy","5 2 6","Lentiform Loewenfeld","3.3.9","2","y","0","left","return","left","left","NA","NA","385","37501","9139","385","NA","NA","2","legacy","3","1024","2","48000","-16","experiment","2","even","2","471246","467978","469032","4205","122787","469036","275282","4214","113648","473250","473636","470040","NA","41730","473250","NA","Sternberg task","66","43164","72","yes","1024"
"91.78082191780823","91.78082191780823","597.082191780822","597.082191780822","black","experiment","legacy","legacy","legacy","0","uniform","1","undefined","1","left","72","72","72","0","0","72","72","0","0","72","72","72","NA","0","72","0","Sun Oct 24 19:38:05 2021","The main experiment item","yes","Sternbergtask.osexp","/Users/mihailcodreanu/Desktop","no","mono","no","18","no","white","no","yes","768","legacy","60","11","/Users/mihailcodreanu/Desktop/MC-subject-2.csv","legacy","3 4","Lentiform Loewenfeld","3.3.9","1","y","0","left","return","left","left","NA","NA","423","37501","9139","423","NA","NA","2","legacy","2","1024","2","48000","-16","experiment","2","even","3","476911","473642","474697","4205","122787","474701","275282","4214","113648","478916","479340","475705","NA","41730","478916","NA","Sternberg task","67","43587","73","yes","1024"
"91.89189189189189","91.89189189189189","597.8918918918919","597.8918918918919","black","experiment","legacy","legacy","legacy","0","uniform","1","undefined","1","left","73","73","73","0","0","73","73","0","0","73","73","73","NA","0","73","0","Sun Oct 24 19:38:05 2021","The main experiment item","yes","Sternbergtask.osexp","/Users/mihailcodreanu/Desktop","no","mono","no","18","no","white","no","yes","768","legacy","61","11","/Users/mihailcodreanu/Desktop/MC-subject-2.csv","legacy","2 4 6 9","Lentiform Loewenfeld","3.3.9","3","y","0","left","return","left","left","NA","NA","657","37501","9139","657","NA","NA","2","legacy","4","1024","2","48000","-16","experiment","2","even","6","482614","479347","480401","4205","122787","480405","275282","4214","113648","484618","485276","481409","NA","41730","484617","NA","Sternberg task","68","44244","74","yes","1024"
"92","92","602.04","602.04","black","experiment","legacy","legacy","legacy","0","uniform","1","undefined","1","right","74","74","74","0","0","74","74","0","0","74","74","74","NA","0","74","0","Sun Oct 24 19:38:05 2021","The main experiment item","yes","Sternbergtask.osexp","/Users/mihailcodreanu/Desktop","no","mono","no","18","no","white","no","yes","768","legacy","62","11","/Users/mihailcodreanu/Desktop/MC-subject-2.csv","legacy","8 4 3 5","Lentiform Loewenfeld","3.3.9","0","n","0","right","return","left","right","NA","NA","909","37501","9139","909","NA","NA","2","legacy","4","1024","2","48000","-16","experiment","2","even","6","488551","485282","486337","4205","122787","486340","275282","4214","113648","490558","491468","487345","NA","41730","490558","NA","Sternberg task","69","45153","75","yes","1024"
"92.10526315789474","92.10526315789474","600.4078947368421","600.4078947368421","black","experiment","legacy","legacy","legacy","0","uniform","1","undefined","1","left","75","75","75","0","0","75","75","0","0","75","75","75","NA","0","75","0","Sun Oct 24 19:38:05 2021","The main experiment item","yes","Sternbergtask.osexp","/Users/mihailcodreanu/Desktop","no","mono","no","18","no","white","no","yes","768","legacy","63","11","/Users/mihailcodreanu/Desktop/MC-subject-2.csv","legacy","4 9 7 8 5 3","Lentiform Loewenfeld","3.3.9","4","y","0","left","return","left","left","NA","NA","478","37501","9139","478","NA","NA","2","legacy","6","1024","2","48000","-16","experiment","2","even","8","494745","491475","492531","4205","122787","492535","275282","4214","113648","496749","497228","493539","NA","41730","496749","NA","Sternberg task","70","45631","76","yes","1024"
"92.20779220779221","92.20779220779221","598.7402597402597","598.7402597402597","black","experiment","legacy","legacy","legacy","0","uniform","1","undefined","1","left","76","76","76","0","0","76","76","0","0","76","76","76","NA","0","76","0","Sun Oct 24 19:38:05 2021","The main experiment item","yes","Sternbergtask.osexp","/Users/mihailcodreanu/Desktop","no","mono","no","18","no","white","no","yes","768","legacy","64","11","/Users/mihailcodreanu/Desktop/MC-subject-2.csv","legacy","7 1 8 5 6 2","Lentiform Loewenfeld","3.3.9","2","y","0","left","return","left","left","NA","NA","472","37501","9139","472","NA","NA","2","legacy","6","1024","2","48000","-16","experiment","2","even","1","500503","497234","498289","4205","122787","498293","275282","4214","113648","502507","502980","499297","NA","41730","502507","NA","Sternberg task","71","46103","77","yes","1024"
"92.3076923076923","92.3076923076923","599.1923076923077","599.1923076923077","black","experiment","legacy","legacy","legacy","0","uniform","1","undefined","1","right","77","77","77","0","0","77","77","0","0","77","77","77","NA","0","77","0","Sun Oct 24 19:38:05 2021","The main experiment item","yes","Sternbergtask.osexp","/Users/mihailcodreanu/Desktop","no","mono","no","18","no","white","no","yes","768","legacy","65","11","/Users/mihailcodreanu/Desktop/MC-subject-2.csv","legacy","3 9 8 1 6 4","Lentiform Loewenfeld","3.3.9","0","n","0","right","return","left","right","NA","NA","634","37501","9139","634","NA","NA","2","legacy","6","1024","2","48000","-16","experiment","2","even","7","506253","502986","504040","4205","122787","504044","275282","4214","113648","508257","508892","505048","NA","41730","508257","NA","Sternberg task","72","46737","78","yes","1024"
"92.40506329113924","92.40506329113924","598.6835443037975","598.6835443037975","black","experiment","legacy","legacy","legacy","0","uniform","1","undefined","1","right","78","78","78","0","0","78","78","0","0","78","78","78","NA","0","78","0","Sun Oct 24 19:38:05 2021","The main experiment item","yes","Sternbergtask.osexp","/Users/mihailcodreanu/Desktop","no","mono","no","18","no","white","no","yes","768","legacy","66","11","/Users/mihailcodreanu/Desktop/MC-subject-2.csv","legacy","1 4 9 2 5","Lentiform Loewenfeld","3.3.9","0","n","0","right","return","left","right","NA","NA","559","37501","9139","559","NA","NA","2","legacy","5","1024","2","48000","-16","experiment","2","even","7","512168","508897","509954","4205","122787","509957","275282","4214","113648","514172","514731","510962","NA","41730","514172","NA","Sternberg task","73","47296","79","yes","1024"
"92.5","92.5","600.875","600.875","black","experiment","legacy","legacy","legacy","0","uniform","1","undefined","1","left","79","79","79","0","0","79","79","0","0","79","79","79","NA","0","79","0","Sun Oct 24 19:38:05 2021","The main experiment item","yes","Sternbergtask.osexp","/Users/mihailcodreanu/Desktop","no","mono","no","18","no","white","no","yes","768","legacy","67","11","/Users/mihailcodreanu/Desktop/MC-subject-2.csv","legacy","9 8 4","Lentiform Loewenfeld","3.3.9","1","y","0","left","return","left","left","NA","NA","774","37501","9139","774","NA","NA","2","legacy","3","1024","2","48000","-16","experiment","2","even","9","518008","514738","515794","4205","122787","515798","275282","4214","113648","520013","520788","516802","NA","41730","520013","NA","Sternberg task","74","48070","80","yes","1024"
"92.5925925925926","92.5925925925926","599.9506172839506","599.9506172839506","black","experiment","legacy","legacy","legacy","0","uniform","1","undefined","1","right","80","80","80","0","0","80","80","0","0","80","80","80","NA","0","80","0","Sun Oct 24 19:38:05 2021","The main experiment item","yes","Sternbergtask.osexp","/Users/mihailcodreanu/Desktop","no","mono","no","18","no","white","no","yes","768","legacy","68","11","/Users/mihailcodreanu/Desktop/MC-subject-2.csv","legacy","8 2 1 4 5 9","Lentiform Loewenfeld","3.3.9","0","n","0","right","return","left","right","NA","NA","526","37501","9139","526","NA","NA","2","legacy","6","1024","2","48000","-16","experiment","2","even","7","524063","520796","521850","4205","122787","521854","275282","4214","113648","526068","526595","522858","NA","41730","526068","NA","Sternberg task","75","48596","81","yes","1024"
"92.6829268292683","92.6829268292683","597.5243902439024","597.5243902439024","black","experiment","legacy","legacy","legacy","0","uniform","1","undefined","1","left","81","81","81","0","0","81","81","0","0","81","81","81","NA","0","81","0","Sun Oct 24 19:38:05 2021","The main experiment item","yes","Sternbergtask.osexp","/Users/mihailcodreanu/Desktop","no","mono","no","18","no","white","no","yes","768","legacy","69","11","/Users/mihailcodreanu/Desktop/MC-subject-2.csv","legacy","8 5 3 7 4 6","Lentiform Loewenfeld","3.3.9","6","y","0","left","return","left","left","NA","NA","401","37501","9139","401","NA","NA","2","legacy","6","1024","2","48000","-16","experiment","2","even","6","529869","526602","527655","4205","122787","527658","275282","4214","113648","531874","532276","528663","NA","41730","531874","NA","Sternberg task","76","48997","82","yes","1024"
"92.7710843373494","92.7710843373494","595.9879518072289","595.9879518072289","black","experiment","legacy","legacy","legacy","0","uniform","1","undefined","1","right","82","82","82","0","0","82","82","0","0","82","82","82","NA","0","82","0","Sun Oct 24 19:38:05 2021","The main experiment item","yes","Sternbergtask.osexp","/Users/mihailcodreanu/Desktop","no","mono","no","18","no","white","no","yes","768","legacy","70","11","/Users/mihailcodreanu/Desktop/MC-subject-2.csv","legacy","8 9","Lentiform Loewenfeld","3.3.9","0","n","0","right","return","left","right","NA","NA","470","37501","9139","470","NA","NA","2","legacy","2","1024","2","48000","-16","experiment","2","even","5","535553","532282","533340","4205","122787","533344","275282","4214","113648","537557","538028","534348","NA","41730","537557","NA","Sternberg task","77","49467","83","yes","1024"
"92.85714285714286","92.85714285714286","595.2738095238095","595.2738095238095","black","experiment","legacy","legacy","legacy","0","uniform","1","undefined","1","left","83","83","83","0","0","83","83","0","0","83","83","83","NA","0","83","0","Sun Oct 24 19:38:05 2021","The main experiment item","yes","Sternbergtask.osexp","/Users/mihailcodreanu/Desktop","no","mono","no","18","no","white","no","yes","768","legacy","71","11","/Users/mihailcodreanu/Desktop/MC-subject-2.csv","legacy","6 9 7 4 5 1","Lentiform Loewenfeld","3.3.9","2","y","0","left","return","left","left","NA","NA","536","37501","9139","536","NA","NA","2","legacy","6","1024","2","48000","-16","experiment","2","even","9","541303","538034","539089","4205","122787","539093","275282","4214","113648","543307","543844","540097","NA","41730","543307","NA","Sternberg task","78","50003","84","yes","1024"
"92.94117647058823","92.94117647058823","593.3294117647059","593.3294117647059","black","experiment","legacy","legacy","legacy","0","uniform","1","undefined","1","left","84","84","84","0","0","84","84","0","0","84","84","84","NA","0","84","0","Sun Oct 24 19:38:05 2021","The main experiment item","yes","Sternbergtask.osexp","/Users/mihailcodreanu/Desktop","no","mono","no","18","no","white","no","yes","768","legacy","72","11","/Users/mihailcodreanu/Desktop/MC-subject-2.csv","legacy","4","Lentiform Loewenfeld","3.3.9","1","y","0","left","return","left","left","NA","NA","430","37501","9139","430","NA","NA","2","legacy","1","1024","2","48000","-16","experiment","2","even","4","547121","543851","544907","4205","122787","544912","275282","4214","113648","549125","549556","545916","NA","41730","549125","NA","Sternberg task","79","50433","85","yes","1024"
"93.02325581395348","93.02325581395348","596.7325581395348","596.7325581395348","black","experiment","legacy","legacy","legacy","0","uniform","1","undefined","1","left","85","85","85","0","0","85","85","0","0","85","85","85","NA","0","85","0","Sun Oct 24 19:38:05 2021","The main experiment item","yes","Sternbergtask.osexp","/Users/mihailcodreanu/Desktop","no","mono","no","18","no","white","no","yes","768","legacy","73","11","/Users/mihailcodreanu/Desktop/MC-subject-2.csv","legacy","3 4 9 6 2 9","Lentiform Loewenfeld","3.3.9","5","y","0","left","return","left","left","NA","NA","886","37501","9139","886","NA","NA","2","legacy","6","1024","2","48000","-16","experiment","2","even","2","552833","549563","550620","4205","122787","550624","275282","4214","113648","554837","555724","551628","NA","41730","554837","NA","Sternberg task","80","51319","86","yes","1024"
"93.10344827586206","93.10344827586206","594.735632183908","594.735632183908","black","experiment","legacy","legacy","legacy","0","uniform","1","undefined","1","right","86","86","86","0","0","86","86","0","0","86","86","86","NA","0","86","0","Sun Oct 24 19:38:05 2021","The main experiment item","yes","Sternbergtask.osexp","/Users/mihailcodreanu/Desktop","no","mono","no","18","no","white","no","yes","768","legacy","74","11","/Users/mihailcodreanu/Desktop/MC-subject-2.csv","legacy","5","Lentiform Loewenfeld","3.3.9","0","n","0","right","return","left","right","NA","NA","423","37501","9139","423","NA","NA","2","legacy","1","1024","2","48000","-16","experiment","2","even","8","559000","555730","556786","4205","122787","556789","275282","4214","113648","561004","561428","557794","NA","41730","561004","NA","Sternberg task","81","51742","87","yes","1024"
"93.18181818181819","93.18181818181819","594.2272727272727","594.2272727272727","black","experiment","legacy","legacy","legacy","0","uniform","1","undefined","1","left","87","87","87","0","0","87","87","0","0","87","87","87","NA","0","87","0","Sun Oct 24 19:38:05 2021","The main experiment item","yes","Sternbergtask.osexp","/Users/mihailcodreanu/Desktop","no","mono","no","18","no","white","no","yes","768","legacy","75","11","/Users/mihailcodreanu/Desktop/MC-subject-2.csv","legacy","6 7 8 5","Lentiform Loewenfeld","3.3.9","3","y","0","left","return","left","left","NA","NA","550","37501","9139","550","NA","NA","2","legacy","4","1024","2","48000","-16","experiment","2","even","8","564705","561434","562491","4205","122787","562494","275282","4214","113648","566709","567260","563499","NA","41730","566709","NA","Sternberg task","82","52292","88","yes","1024"
"93.25842696629213","93.25842696629213","595.4494382022472","595.4494382022472","black","experiment","legacy","legacy","legacy","0","uniform","1","undefined","1","right","88","88","88","0","0","88","88","0","0","88","88","88","NA","0","88","0","Sun Oct 24 19:38:05 2021","The main experiment item","yes","Sternbergtask.osexp","/Users/mihailcodreanu/Desktop","no","mono","no","18","no","white","no","yes","768","legacy","76","11","/Users/mihailcodreanu/Desktop/MC-subject-2.csv","legacy","2 5 1 4","Lentiform Loewenfeld","3.3.9","0","n","0","right","return","left","right","NA","NA","703","37501","9139","703","NA","NA","2","legacy","4","1024","2","48000","-16","experiment","2","even","6","570536","567266","568322","4205","122787","568326","275282","4214","113648","572540","573244","569330","NA","41730","572540","NA","Sternberg task","83","52995","89","yes","1024"
"93.33333333333333","93.33333333333333","596.0222222222222","596.0222222222222","black","experiment","legacy","legacy","legacy","0","uniform","1","undefined","1","right","89","89","89","0","0","89","89","0","0","89","89","89","NA","0","89","0","Sun Oct 24 19:38:05 2021","The main experiment item","yes","Sternbergtask.osexp","/Users/mihailcodreanu/Desktop","no","mono","no","18","no","white","no","yes","768","legacy","77","11","/Users/mihailcodreanu/Desktop/MC-subject-2.csv","legacy","6 9 4 5 3 2","Lentiform Loewenfeld","3.3.9","0","n","0","right","return","left","right","NA","NA","647","37501","9139","647","NA","NA","2","legacy","6","1024","2","48000","-16","experiment","2","even","8","576520","573250","574306","4205","122787","574310","275282","4214","113648","578524","579172","575314","NA","41730","578524","NA","Sternberg task","84","53642","90","yes","1024"
"93.4065934065934","93.4065934065934","593.978021978022","593.978021978022","black","experiment","legacy","legacy","legacy","0","uniform","1","undefined","1","left","90","90","90","0","0","90","90","0","0","90","90","90","NA","0","90","0","Sun Oct 24 19:38:05 2021","The main experiment item","yes","Sternbergtask.osexp","/Users/mihailcodreanu/Desktop","no","mono","no","18","no","white","no","yes","768","legacy","78","11","/Users/mihailcodreanu/Desktop/MC-subject-2.csv","legacy","4 1 5","Lentiform Loewenfeld","3.3.9","2","y","0","left","return","left","left","NA","NA","410","37501","9139","410","NA","NA","2","legacy","3","1024","2","48000","-16","experiment","2","even","1","582445","579177","580231","4205","122787","580235","275282","4214","113648","584449","584860","581239","NA","41730","584449","NA","Sternberg task","85","54052","91","yes","1024"
"93.47826086956522","93.47826086956522","594.9891304347826","594.9891304347826","black","experiment","legacy","legacy","legacy","0","uniform","1","undefined","1","right","91","91","91","0","0","91","91","0","0","91","91","91","NA","0","91","0","Sun Oct 24 19:38:05 2021","The main experiment item","yes","Sternbergtask.osexp","/Users/mihailcodreanu/Desktop","no","mono","no","18","no","white","no","yes","768","legacy","79","11","/Users/mihailcodreanu/Desktop/MC-subject-2.csv","legacy","1 7 5 2 9","Lentiform Loewenfeld","3.3.9","0","n","0","right","return","left","right","NA","NA","687","37501","9139","687","NA","NA","2","legacy","5","1024","2","48000","-16","experiment","2","even","3","588136","584867","585922","4205","122787","585926","275282","4214","113648","590140","590828","586930","NA","41730","590140","NA","Sternberg task","86","54739","92","yes","1024"
"93.54838709677419","93.54838709677419","595.3010752688172","595.3010752688172","black","experiment","legacy","legacy","legacy","0","uniform","1","undefined","1","right","92","92","92","0","0","92","92","0","0","92","92","92","NA","0","92","0","Sun Oct 24 19:38:05 2021","The main experiment item","yes","Sternbergtask.osexp","/Users/mihailcodreanu/Desktop","no","mono","no","18","no","white","no","yes","768","legacy","80","11","/Users/mihailcodreanu/Desktop/MC-subject-2.csv","legacy","9 5 3 2 8 6","Lentiform Loewenfeld","3.3.9","0","n","0","right","return","left","right","NA","NA","624","37501","9139","624","NA","NA","2","legacy","6","1024","2","48000","-16","experiment","2","even","7","594103","590834","591889","4205","122787","591892","275282","4214","113648","596107","596732","592897","NA","41730","596107","NA","Sternberg task","87","55363","93","yes","1024"
"93.61702127659575","93.61702127659575","595.936170212766","595.936170212766","black","experiment","legacy","legacy","legacy","0","uniform","1","undefined","1","right","93","93","93","0","0","93","93","0","0","93","93","93","NA","0","93","0","Sun Oct 24 19:38:05 2021","The main experiment item","yes","Sternbergtask.osexp","/Users/mihailcodreanu/Desktop","no","mono","no","18","no","white","no","yes","768","legacy","81","11","/Users/mihailcodreanu/Desktop/MC-subject-2.csv","legacy","8 5 7 3 6","Lentiform Loewenfeld","3.3.9","0","n","0","right","return","left","right","NA","NA","655","37501","9139","655","NA","NA","2","legacy","5","1024","2","48000","-16","experiment","2","even","9","600007","596738","597793","4205","122787","597797","275282","4214","113648","602012","602668","598801","NA","41730","602012","NA","Sternberg task","88","56018","94","yes","1024"
"93.6842105263158","93.6842105263158","595.2","595.2","black","experiment","legacy","legacy","legacy","0","uniform","1","undefined","1","left","94","94","94","0","0","94","94","0","0","94","94","94","NA","0","94","0","Sun Oct 24 19:38:05 2021","The main experiment item","yes","Sternbergtask.osexp","/Users/mihailcodreanu/Desktop","no","mono","no","18","no","white","no","yes","768","legacy","82","11","/Users/mihailcodreanu/Desktop/MC-subject-2.csv","legacy","9 5 3 8 4","Lentiform Loewenfeld","3.3.9","1","y","0","left","return","left","left","NA","NA","526","37501","9139","526","NA","NA","2","legacy","5","1024","2","48000","-16","experiment","2","even","9","605945","602675","603730","4205","122787","603734","275282","4214","113648","607949","608476","604738","NA","41730","607949","NA","Sternberg task","89","56544","95","yes","1024"
"93.75","93.75","593.9166666666666","593.9166666666666","black","experiment","legacy","legacy","legacy","0","uniform","1","undefined","1","right","95","95","95","0","0","95","95","0","0","95","95","95","NA","0","95","0","Sun Oct 24 19:38:05 2021","The main experiment item","yes","Sternbergtask.osexp","/Users/mihailcodreanu/Desktop","no","mono","no","18","no","white","no","yes","768","legacy","83","11","/Users/mihailcodreanu/Desktop/MC-subject-2.csv","legacy","7 1 5 6 3","Lentiform Loewenfeld","3.3.9","0","n","0","right","return","left","right","NA","NA","472","37501","9139","472","NA","NA","2","legacy","5","1024","2","48000","-16","experiment","2","even","8","611751","608482","609538","4205","122787","609542","275282","4214","113648","613755","614228","610545","NA","41730","613755","NA","Sternberg task","90","57016","96","yes","1024"
"92.78350515463917","92.78350515463917","592.7525773195877","592.7525773195877","black","experiment","legacy","legacy","legacy","0","uniform","0","undefined","0","right","96","96","96","0","0","96","96","0","0","96","96","96","NA","0","96","0","Sun Oct 24 19:38:05 2021","The main experiment item","yes","Sternbergtask.osexp","/Users/mihailcodreanu/Desktop","no","mono","no","18","no","white","no","yes","768","legacy","84","11","/Users/mihailcodreanu/Desktop/MC-subject-2.csv","legacy","6 9 4 5 2","Lentiform Loewenfeld","3.3.9","0","n","0","left","return","left","left","NA","NA","481","37501","9139","481","NA","NA","2","legacy","5","1024","2","48000","-16","experiment","2","even","1","617502","614234","615288","4205","122787","615292","275282","4214","113648","619506","619988","616296","NA","41730","619506","NA","Sternberg task","90","57497","97","yes","1024"
"92.85714285714286","92.85714285714286","591.4387755102041","591.4387755102041","black","experiment","legacy","legacy","legacy","0","uniform","1","undefined","1","left","97","97","97","0","0","97","97","0","0","97","97","97","NA","0","97","0","Sun Oct 24 19:38:05 2021","The main experiment item","yes","Sternbergtask.osexp","/Users/mihailcodreanu/Desktop","no","mono","no","18","no","white","no","yes","768","legacy","85","11","/Users/mihailcodreanu/Desktop/MC-subject-2.csv","legacy","4 7 6 8 2 3","Lentiform Loewenfeld","3.3.9","6","y","0","left","return","left","left","NA","NA","464","37501","9139","464","NA","NA","2","legacy","6","1024","2","48000","-16","experiment","2","even","3","623262","614234","621048","4205","122787","621052","619994","4214","113648","625267","625732","622056","NA","41730","625267","NA","Sternberg task","91","57961","98","yes","1024"
"92.92929292929293","92.92929292929293","591.7878787878788","591.7878787878788","black","experiment","legacy","legacy","legacy","0","uniform","1","undefined","1","right","98","98","98","0","0","98","98","0","0","98","98","98","NA","0","98","0","Sun Oct 24 19:38:05 2021","The main experiment item","yes","Sternbergtask.osexp","/Users/mihailcodreanu/Desktop","no","mono","no","18","no","white","no","yes","768","legacy","86","11","/Users/mihailcodreanu/Desktop/MC-subject-2.csv","legacy","2 3 8 5 6 7","Lentiform Loewenfeld","3.3.9","0","n","0","right","return","left","right","NA","NA","626","37501","9139","626","NA","NA","2","legacy","6","1024","2","48000","-16","experiment","2","even","1","629005","625737","626791","4205","122787","626795","619994","4214","113648","631009","631636","627799","NA","41730","631009","NA","Sternberg task","92","58587","99","yes","1024"
"93","93","590.44","590.44","black","experiment","legacy","legacy","legacy","0","uniform","1","undefined","1","left","99","99","99","0","0","99","99","0","0","99","99","99","NA","0","99","0","Sun Oct 24 19:38:05 2021","The main experiment item","yes","Sternbergtask.osexp","/Users/mihailcodreanu/Desktop","no","mono","no","18","no","white","no","yes","768","legacy","87","11","/Users/mihailcodreanu/Desktop/MC-subject-2.csv","legacy","8 9 5 7 1 6","Lentiform Loewenfeld","3.3.9","4","y","0","left","return","left","left","NA","NA","457","37501","9139","457","NA","NA","2","legacy","6","1024","2","48000","-16","experiment","2","even","7","634910","631641","632697","4205","122787","632700","619994","4214","113648","636914","637372","633704","NA","41730","636914","NA","Sternberg task","93","59044","100","yes","1024"
"93.06930693069307","93.06930693069307","593.3168316831683","593.3168316831683","black","experiment","legacy","legacy","legacy","0","uniform","1","undefined","1","right","100","100","100","0","0","100","100","0","0","100","100","100","NA","0","100","0","Sun Oct 24 19:38:05 2021","The main experiment item","yes","Sternbergtask.osexp","/Users/mihailcodreanu/Desktop","no","mono","no","18","no","white","no","yes","768","legacy","88","11","/Users/mihailcodreanu/Desktop/MC-subject-2.csv","legacy","8 5 4 2 9 6","Lentiform Loewenfeld","3.3.9","0","n","0","right","return","left","right","NA","NA","881","37501","9139","881","NA","NA","2","legacy","6","1024","2","48000","-16","experiment","2","even","3","640646","637378","638432","4205","122787","638436","619994","4214","113648","642650","643532","639440","NA","41730","642650","NA","Sternberg task","94","59925","101","yes","1024"
"93.13725490196079","93.13725490196079","593.0784313725491","593.0784313725491","black","experiment","legacy","legacy","legacy","0","uniform","1","undefined","1","right","101","101","101","0","0","101","101","0","0","101","101","101","NA","0","101","0","Sun Oct 24 19:38:05 2021","The main experiment item","yes","Sternbergtask.osexp","/Users/mihailcodreanu/Desktop","no","mono","no","18","no","white","no","yes","768","legacy","89","11","/Users/mihailcodreanu/Desktop/MC-subject-2.csv","legacy","4 2 6 9","Lentiform Loewenfeld","3.3.9","0","n","0","right","return","left","right","NA","NA","569","37501","9139","569","NA","NA","2","legacy","4","1024","2","48000","-16","experiment","2","even","7","646806","643536","644592","4205","122787","644596","619994","4214","113648","648810","649380","645600","NA","41730","648810","NA","Sternberg task","95","60494","102","yes","1024"
"93.20388349514563","93.20388349514563","596.1456310679612","596.1456310679612","black","experiment","legacy","legacy","legacy","0","uniform","1","undefined","1","right","102","102","102","0","0","102","102","0","0","102","102","102","NA","0","102","0","Sun Oct 24 19:38:05 2021","The main experiment item","yes","Sternbergtask.osexp","/Users/mihailcodreanu/Desktop","no","mono","no","18","no","white","no","yes","768","legacy","90","11","/Users/mihailcodreanu/Desktop/MC-subject-2.csv","legacy","1 7 8 3 9","Lentiform Loewenfeld","3.3.9","0","n","0","right","return","left","right","NA","NA","909","37501","9139","909","NA","NA","2","legacy","5","1024","2","48000","-16","experiment","2","even","2","652658","649387","650444","4205","122787","650448","619994","4214","113648","654662","655572","651452","NA","41730","654662","NA","Sternberg task","96","61403","103","yes","1024"
"92.3076923076923","92.3076923076923","595.5673076923077","595.5673076923077","black","experiment","legacy","legacy","legacy","0","uniform","0","undefined","0","left","103","103","103","0","0","103","103","0","0","103","103","103","NA","0","103","0","Sun Oct 24 19:38:05 2021","The main experiment item","yes","Sternbergtask.osexp","/Users/mihailcodreanu/Desktop","no","mono","no","18","no","white","no","yes","768","legacy","91","11","/Users/mihailcodreanu/Desktop/MC-subject-2.csv","legacy","7 8 6 3 1","Lentiform Loewenfeld","3.3.9","5","y","0","right","return","left","right","NA","NA","536","37501","9139","536","NA","NA","2","legacy","5","1024","2","48000","-16","experiment","2","even","1","658847","655577","656633","4205","122787","656637","619994","4214","113648","660851","661388","657641","NA","41730","660851","NA","Sternberg task","96","61939","104","yes","1024"
"91.42857142857143","91.42857142857143","597.9333333333333","597.9333333333333","black","experiment","legacy","legacy","legacy","0","uniform","0","undefined","0","right","104","104","104","0","0","104","104","0","0","104","104","104","NA","0","104","0","Sun Oct 24 19:38:05 2021","The main experiment item","yes","Sternbergtask.osexp","/Users/mihailcodreanu/Desktop","no","mono","no","18","no","white","no","yes","768","legacy","92","11","/Users/mihailcodreanu/Desktop/MC-subject-2.csv","legacy","5 3 8 7 2 4","Lentiform Loewenfeld","3.3.9","0","n","0","left","return","left","left","NA","NA","844","37501","9139","844","NA","NA","2","legacy","6","1024","2","48000","-16","experiment","2","even","9","664667","655577","662453","4205","122787","662457","661395","4214","113648","666671","667516","663461","NA","41730","666671","NA","Sternberg task","96","62783","105","yes","1024"
"91.50943396226415","91.50943396226415","598.3207547169811","598.3207547169811","black","experiment","legacy","legacy","legacy","0","uniform","1","undefined","1","left","105","105","105","0","0","105","105","0","0","105","105","105","NA","0","105","0","Sun Oct 24 19:38:05 2021","The main experiment item","yes","Sternbergtask.osexp","/Users/mihailcodreanu/Desktop","no","mono","no","18","no","white","no","yes","768","legacy","93","11","/Users/mihailcodreanu/Desktop/MC-subject-2.csv","legacy","2 5 4 8 7","Lentiform Loewenfeld","3.3.9","3","y","0","left","return","left","left","NA","NA","639","37501","9139","639","NA","NA","2","legacy","5","1024","2","48000","-16","experiment","2","even","4","670792","655577","668578","4205","122787","668582","667522","4214","113648","672796","673436","669586","NA","41730","672796","NA","Sternberg task","97","63422","106","yes","1024"
"91.58878504672897","91.58878504672897","598.2056074766355","598.2056074766355","black","experiment","legacy","legacy","legacy","0","uniform","1","undefined","1","right","106","106","106","0","0","106","106","0","0","106","106","106","NA","0","106","0","Sun Oct 24 19:38:05 2021","The main experiment item","yes","Sternbergtask.osexp","/Users/mihailcodreanu/Desktop","no","mono","no","18","no","white","no","yes","768","legacy","94","11","/Users/mihailcodreanu/Desktop/MC-subject-2.csv","legacy","2 8 9 4 1","Lentiform Loewenfeld","3.3.9","0","n","0","right","return","left","right","NA","NA","586","37501","9139","586","NA","NA","2","legacy","5","1024","2","48000","-16","experiment","2","even","5","676709","673442","674495","4205","122787","674499","667522","4214","113648","678713","679300","675503","NA","41730","678713","NA","Sternberg task","98","64008","107","yes","1024"
"91.66666666666667","91.66666666666667","596.8333333333334","596.8333333333334","black","experiment","legacy","legacy","legacy","0","uniform","1","undefined","1","left","107","107","107","0","0","107","107","0","0","107","107","107","NA","0","107","0","Sun Oct 24 19:38:05 2021","The main experiment item","yes","Sternbergtask.osexp","/Users/mihailcodreanu/Desktop","no","mono","no","18","no","white","no","yes","768","legacy","95","11","/Users/mihailcodreanu/Desktop/MC-subject-2.csv","legacy","2 6 1 7 4","Lentiform Loewenfeld","3.3.9","2","y","0","left","return","left","left","NA","NA","450","37501","9139","450","NA","NA","2","legacy","5","1024","2","48000","-16","experiment","2","even","6","682573","679306","680359","4205","122787","680363","667522","4214","113648","684577","685028","681367","NA","41730","684577","NA","Sternberg task","99","64458","108","yes","1024"
"91.74311926605505","91.74311926605505","597.3669724770642","597.3669724770642","black","experiment","legacy","legacy","legacy","0","uniform","1","undefined","1","right","108","108","108","0","0","108","108","0","0","108","108","108","NA","0","108","0","Sun Oct 24 19:38:05 2021","The main experiment item","yes","Sternbergtask.osexp","/Users/mihailcodreanu/Desktop","no","mono","no","18","no","white","no","yes","768","legacy","96","11","/Users/mihailcodreanu/Desktop/MC-subject-2.csv","legacy","1 6 4","Lentiform Loewenfeld","3.3.9","0","n","0","right","return","left","right","NA","NA","655","37501","9139","655","NA","NA","2","legacy","3","1024","2","48000","-16","experiment","2","even","7","688303","685033","686088","4205","122787","686092","667522","4214","113648","690307","690964","687096","NA","41730","690307","NA","Sternberg task","100","65113","109","yes","1024"
"91.81818181818181","91.81818181818181","595.5818181818182","595.5818181818182","black","experiment","legacy","legacy","legacy","0","uniform","1","undefined","1","left","109","109","109","0","0","109","109","0","0","109","109","109","NA","0","109","0","Sun Oct 24 19:38:05 2021","The main experiment item","yes","Sternbergtask.osexp","/Users/mihailcodreanu/Desktop","no","mono","no","18","no","white","no","yes","768","legacy","97","11","/Users/mihailcodreanu/Desktop/MC-subject-2.csv","legacy","7 4 2 6 3 5","Lentiform Loewenfeld","3.3.9","6","y","0","left","return","left","left","NA","NA","401","37501","9139","401","NA","NA","2","legacy","6","1024","2","48000","-16","experiment","2","even","5","694238","690971","692025","4205","122787","692028","667522","4214","113648","696242","696644","693032","NA","41730","696242","NA","Sternberg task","101","65514","110","yes","1024"
"91.89189189189189","91.89189189189189","594.927927927928","594.927927927928","black","experiment","legacy","legacy","legacy","0","uniform","1","undefined","1","right","110","110","110","0","0","110","110","0","0","110","110","110","NA","0","110","0","Sun Oct 24 19:38:05 2021","The main experiment item","yes","Sternbergtask.osexp","/Users/mihailcodreanu/Desktop","no","mono","no","18","no","white","no","yes","768","legacy","98","11","/Users/mihailcodreanu/Desktop/MC-subject-2.csv","legacy","1 3 2 6 9","Lentiform Loewenfeld","3.3.9","0","n","0","right","return","left","right","NA","NA","523","37501","9139","523","NA","NA","2","legacy","5","1024","2","48000","-16","experiment","2","even","5","699916","696648","697702","4205","122787","697706","667522","4214","113648","701920","702444","698710","NA","41730","701920","NA","Sternberg task","102","66037","111","yes","1024"
"91.96428571428571","91.96428571428571","593.9821428571429","593.9821428571429","black","experiment","legacy","legacy","legacy","0","uniform","1","undefined","1","right","111","111","111","0","0","111","111","0","0","111","111","111","NA","0","111","0","Sun Oct 24 19:38:05 2021","The main experiment item","yes","Sternbergtask.osexp","/Users/mihailcodreanu/Desktop","no","mono","no","18","no","white","no","yes","768","legacy","99","11","/Users/mihailcodreanu/Desktop/MC-subject-2.csv","legacy","9 8 2 7 4","Lentiform Loewenfeld","3.3.9","0","n","0","right","return","left","right","NA","NA","489","37501","9139","489","NA","NA","2","legacy","5","1024","2","48000","-16","experiment","2","even","5","705718","702451","703503","4205","122787","703507","667522","4214","113648","707722","708212","704511","NA","41730","707722","NA","Sternberg task","103","66526","112","yes","1024"
"92.03539823008849","92.03539823008849","593.0619469026549","593.0619469026549","black","experiment","legacy","legacy","legacy","0","uniform","1","undefined","1","right","112","112","112","0","0","112","112","0","0","112","112","112","NA","0","112","0","Sun Oct 24 19:38:05 2021","The main experiment item","yes","Sternbergtask.osexp","/Users/mihailcodreanu/Desktop","no","mono","no","18","no","white","no","yes","768","legacy","100","11","/Users/mihailcodreanu/Desktop/MC-subject-2.csv","legacy","5 7 3","Lentiform Loewenfeld","3.3.9","0","n","0","right","return","left","right","NA","NA","490","37501","9139","490","NA","NA","2","legacy","3","1024","2","48000","-16","experiment","2","even","9","711485","708218","709271","4205","122787","709275","667522","4214","113648","713489","713980","710279","NA","41730","713489","NA","Sternberg task","104","67016","113","yes","1024"
"92.10526315789474","92.10526315789474","591.921052631579","591.921052631579","black","experiment","legacy","legacy","legacy","0","uniform","1","undefined","1","right","113","113","113","0","0","113","113","0","0","113","113","113","NA","0","113","0","Sun Oct 24 19:38:05 2021","The main experiment item","yes","Sternbergtask.osexp","/Users/mihailcodreanu/Desktop","no","mono","no","18","no","white","no","yes","768","legacy","101","11","/Users/mihailcodreanu/Desktop/MC-subject-2.csv","legacy","7 1","Lentiform Loewenfeld","3.3.9","0","n","0","right","return","left","right","NA","NA","463","37501","9139","463","NA","NA","2","legacy","2","1024","2","48000","-16","experiment","2","even","8","717256","713986","715041","4205","122787","715045","667522","4214","113648","719260","719724","716049","NA","41730","719260","NA","Sternberg task","105","67479","114","yes","1024"
