"acc","accuracy","average_response_time","avg_rt","background","block","canvas_backend","clock_backend","color_backend","compensation","coordinates","correct","correct_instruction1","correct_keyboard_response","correct_response","count_ISI","count_correctFeedback","count_expSequence","count_experiment","count_experimentLoop","count_fixation","count_incorrectFeedback","count_instruction1","count_instructions2","count_keyboard_response","count_logger","count_memorySet","count_practiceLoop","count_probe","count_thankYou","datetime","description","disable_garbage_collection","experiment_file","experiment_path","font_bold","font_family","font_italic","font_size","font_underline","foreground","form_clicks","fullscreen","height","keyboard_backend","live_row","live_row_practiceLoop","logfile","mouse_backend","numberSet","opensesame_codename","opensesame_version","posInSet","present","repeat_cycle","response","response_instruction1","response_instructions2","response_keyboard_response","response_thankYou","response_time","response_time_instruction1","response_time_instructions2","response_time_keyboard_response","response_time_thankYou","round_decimals","sampler_backend","setSize","sound_buf_size","sound_channels","sound_freq","sound_sample_size","start","subject_nr","subject_parity","target","time_ISI","time_correctFeedback","time_expSequence","time_experiment","time_experimentLoop","time_fixation","time_incorrectFeedback","time_instruction1","time_instructions2","time_keyboard_response","time_logger","time_memorySet","time_practiceLoop","time_probe","time_thankYou","title","total_correct","total_response_time","total_responses","uniform_coordinates","width"
"100","100","975","975","black","practice","legacy","legacy","legacy","0","uniform","1","undefined","1","right","0","0","0","0","0","0","0","0","0","0","0","0","0","0","0","Sun Oct 24 21:17:06 2021","The main experiment item","yes","Sternbergtask.osexp","C:\Users\19565\Desktop","no","mono","no","18","no","white","no","yes","768","legacy","0","0","C:/Users/19565/Desktop/Lab 3/MR-subject-4.csv","legacy","3 1 9 4","Lentiform Loewenfeld","3.3.9","0","n","0","right","right","NA","right","NA","975","183749","NA","975","NA","2","legacy","4","1024","2","48000","-16","experiment","4","even","6","191397","NA","189186","4183","NA","189189","NA","4187","NA","193401","194376","190193","187937","193401","NA","Sternberg task","1","975","1","yes","1024"
"100","100","923.5","923.5","black","practice","legacy","legacy","legacy","0","uniform","1","undefined","1","left","1","1","1","0","0","1","1","0","0","1","1","1","0","1","0","Sun Oct 24 21:17:06 2021","The main experiment item","yes","Sternbergtask.osexp","C:\Users\19565\Desktop","no","mono","no","18","no","white","no","yes","768","legacy","1","1","C:/Users/19565/Desktop/Lab 3/MR-subject-4.csv","legacy","6","Lentiform Loewenfeld","3.3.9","1","y","0","left","right","NA","left","NA","872","183749","NA","872","NA","2","legacy","1","1024","2","48000","-16","experiment","4","even","6","197794","194443","195582","4183","NA","195584","NA","4187","NA","199798","200671","196589","187937","199798","NA","Sternberg task","2","1847","2","yes","1024"
"100","100","982.6666666666666","982.6666666666666","black","practice","legacy","legacy","legacy","0","uniform","1","undefined","1","right","2","2","2","0","0","2","2","0","0","2","2","2","0","2","0","Sun Oct 24 21:17:06 2021","The main experiment item","yes","Sternbergtask.osexp","C:\Users\19565\Desktop","no","mono","no","18","no","white","no","yes","768","legacy","2","2","C:/Users/19565/Desktop/Lab 3/MR-subject-4.csv","legacy","2 1","Lentiform Loewenfeld","3.3.9","0","n","0","right","right","NA","right","NA","1101","183749","NA","1101","NA","2","legacy","2","1024","2","48000","-16","experiment","4","even","5","204092","200695","201881","4183","NA","201884","NA","4187","NA","206096","207198","202888","187937","206096","NA","Sternberg task","3","2948","3","yes","1024"
"100","100","1040.5","1040.5","black","practice","legacy","legacy","legacy","0","uniform","1","undefined","1","left","3","3","3","0","0","3","3","0","0","3","3","3","0","3","0","Sun Oct 24 21:17:06 2021","The main experiment item","yes","Sternbergtask.osexp","C:\Users\19565\Desktop","no","mono","no","18","no","white","no","yes","768","legacy","3","3","C:/Users/19565/Desktop/Lab 3/MR-subject-4.csv","legacy","4 3 1 7 9 8","Lentiform Loewenfeld","3.3.9","1","y","0","left","right","NA","left","NA","1214","183749","NA","1214","NA","2","legacy","6","1024","2","48000","-16","experiment","4","even","4","210640","207207","208428","4183","NA","208430","NA","4187","NA","212645","213860","209434","187937","212645","NA","Sternberg task","4","4162","4","yes","1024"
"100","100","971.2","971.2","black","practice","legacy","legacy","legacy","0","uniform","1","undefined","1","left","4","4","4","0","0","4","4","0","0","4","4","4","0","4","0","Sun Oct 24 21:17:06 2021","The main experiment item","yes","Sternbergtask.osexp","C:\Users\19565\Desktop","no","mono","no","18","no","white","no","yes","768","legacy","4","4","C:/Users/19565/Desktop/Lab 3/MR-subject-4.csv","legacy","2 9 4","Lentiform Loewenfeld","3.3.9","3","y","0","left","right","NA","left","NA","694","183749","NA","694","NA","2","legacy","3","1024","2","48000","-16","experiment","4","even","4","217323","213868","215111","4183","NA","215113","NA","4187","NA","219328","220022","216117","187937","219327","NA","Sternberg task","5","4856","5","yes","1024"
"83.33333333333333","83.33333333333333","1142.6666666666667","1142.6666666666667","black","practice","legacy","legacy","legacy","0","uniform","0","undefined","0","right","5","5","5","0","0","5","5","0","0","5","5","5","0","5","0","Sun Oct 24 21:17:06 2021","The main experiment item","yes","Sternbergtask.osexp","C:\Users\19565\Desktop","no","mono","no","18","no","white","no","yes","768","legacy","5","5","C:/Users/19565/Desktop/Lab 3/MR-subject-4.csv","legacy","4 1 5","Lentiform Loewenfeld","3.3.9","0","n","0","None","right","NA","None","NA","2000","183749","NA","2000","NA","2","legacy","3","1024","2","48000","-16","experiment","4","even","2","223449","220031","221239","4183","NA","221243","NA","4187","NA","225454","227454","222246","187937","225454","NA","Sternberg task","5","6856","6","yes","1024"
"85.71428571428571","85.71428571428571","1101.142857142857","1101.142857142857","black","practice","legacy","legacy","legacy","0","uniform","1","undefined","1","right","6","6","6","0","0","6","6","0","0","6","6","6","0","6","0","Sun Oct 24 21:17:06 2021","The main experiment item","yes","Sternbergtask.osexp","C:\Users\19565\Desktop","no","mono","no","18","no","white","no","yes","768","legacy","6","6","C:/Users/19565/Desktop/Lab 3/MR-subject-4.csv","legacy","5","Lentiform Loewenfeld","3.3.9","0","n","0","right","right","NA","right","NA","852","183749","NA","852","NA","2","legacy","1","1024","2","48000","-16","experiment","4","even","3","230881","220031","228668","4183","NA","228671","227462","4187","NA","232885","233738","229676","187937","232884","NA","Sternberg task","6","7708","7","yes","1024"
"75","75","1158","1158","black","practice","legacy","legacy","legacy","0","uniform","0","undefined","0","right","7","7","7","0","0","7","7","0","0","7","7","7","0","7","0","Sun Oct 24 21:17:06 2021","The main experiment item","yes","Sternbergtask.osexp","C:\Users\19565\Desktop","no","mono","no","18","no","white","no","yes","768","legacy","7","7","C:/Users/19565/Desktop/Lab 3/MR-subject-4.csv","legacy","9 6 7 4 5","Lentiform Loewenfeld","3.3.9","0","n","0","left","right","NA","left","NA","1556","183749","NA","1556","NA","2","legacy","5","1024","2","48000","-16","experiment","4","even","3","237150","233744","234938","4183","NA","234941","227462","4187","NA","239155","240711","235945","187937","239154","NA","Sternberg task","6","9264","8","yes","1024"
"77.77777777777777","77.77777777777777","1169.4444444444443","1169.4444444444443","black","practice","legacy","legacy","legacy","0","uniform","1","undefined","1","left","8","8","8","0","0","8","8","0","0","8","8","8","0","8","0","Sun Oct 24 21:17:06 2021","The main experiment item","yes","Sternbergtask.osexp","C:\Users\19565\Desktop","no","mono","no","18","no","white","no","yes","768","legacy","8","8","C:/Users/19565/Desktop/Lab 3/MR-subject-4.csv","legacy","4 8","Lentiform Loewenfeld","3.3.9","1","y","0","left","right","NA","left","NA","1261","183749","NA","1261","NA","2","legacy","2","1024","2","48000","-16","experiment","4","even","4","244092","233744","241881","4183","NA","241883","240717","4187","NA","246097","247358","242887","187937","246097","NA","Sternberg task","7","10525","9","yes","1024"
"80","80","1234.5","1234.5","black","practice","legacy","legacy","legacy","0","uniform","1","undefined","1","left","9","9","9","0","0","9","9","0","0","9","9","9","0","9","0","Sun Oct 24 21:17:06 2021","The main experiment item","yes","Sternbergtask.osexp","C:\Users\19565\Desktop","no","mono","no","18","no","white","no","yes","768","legacy","9","9","C:/Users/19565/Desktop/Lab 3/MR-subject-4.csv","legacy","1 5 2 9","Lentiform Loewenfeld","3.3.9","2","y","0","left","right","NA","left","NA","1820","183749","NA","1820","NA","2","legacy","4","1024","2","48000","-16","experiment","4","even","5","250793","247382","248580","4183","NA","248584","240717","4187","NA","252799","254620","249589","187937","252798","NA","Sternberg task","8","12345","10","yes","1024"
"72.72727272727273","72.72727272727273","1304.090909090909","1304.090909090909","black","practice","legacy","legacy","legacy","0","uniform","0","undefined","0","right","10","10","10","0","0","10","10","0","0","10","10","10","0","10","0","Sun Oct 24 21:17:06 2021","The main experiment item","yes","Sternbergtask.osexp","C:\Users\19565\Desktop","no","mono","no","18","no","white","no","yes","768","legacy","10","10","C:/Users/19565/Desktop/Lab 3/MR-subject-4.csv","legacy","5 7 8 4 1 2","Lentiform Loewenfeld","3.3.9","0","n","0","None","right","NA","None","NA","2000","183749","NA","2000","NA","2","legacy","6","1024","2","48000","-16","experiment","4","even","6","257999","254628","255788","4183","NA","255790","240717","4187","NA","260003","262003","256795","187937","260003","NA","Sternberg task","8","14345","11","yes","1024"
"75","75","1249.3333333333333","1249.3333333333333","black","practice","legacy","legacy","legacy","0","uniform","1","undefined","1","left","11","11","11","0","0","11","11","0","0","11","11","11","0","11","0","Sun Oct 24 21:17:06 2021","The main experiment item","yes","Sternbergtask.osexp","C:\Users\19565\Desktop","no","mono","no","18","no","white","no","yes","768","legacy","11","11","C:/Users/19565/Desktop/Lab 3/MR-subject-4.csv","legacy","1 7 9 8 5","Lentiform Loewenfeld","3.3.9","4","y","0","left","right","NA","left","NA","647","183749","NA","647","NA","2","legacy","5","1024","2","48000","-16","experiment","4","even","8","265452","254628","263241","4183","NA","263244","262028","4187","NA","267456","268104","264248","187937","267456","NA","Sternberg task","9","14992","12","yes","1024"
"76.92307692307692","76.92307692307692","1200.1538461538462","1200.1538461538462","black","experiment","legacy","legacy","legacy","0","uniform","1","undefined","1","right","12","12","12","0","0","12","12","0","0","12","12","12","0","12","0","Sun Oct 24 21:17:06 2021","The main experiment item","yes","Sternbergtask.osexp","C:\Users\19565\Desktop","no","mono","no","18","no","white","no","yes","768","legacy","0","11","C:/Users/19565/Desktop/Lab 3/MR-subject-4.csv","legacy","5","Lentiform Loewenfeld","3.3.9","0","n","0","right","right","left","right","NA","610","183749","1375","610","NA","2","legacy","1","1024","2","48000","-16","experiment","4","even","8","273009","268130","270798","4183","270583","270801","262028","4187","269207","275014","275625","271805","187937","275013","NA","Sternberg task","10","15602","13","yes","1024"
"78.57142857142857","78.57142857142857","1162.5714285714287","1162.5714285714287","black","experiment","legacy","legacy","legacy","0","uniform","1","undefined","1","left","13","13","13","0","0","13","13","0","0","13","13","13","0","13","0","Sun Oct 24 21:17:06 2021","The main experiment item","yes","Sternbergtask.osexp","C:\Users\19565\Desktop","no","mono","no","18","no","white","no","yes","768","legacy","1","11","C:/Users/19565/Desktop/Lab 3/MR-subject-4.csv","legacy","4 6 5 8","Lentiform Loewenfeld","3.3.9","1","y","0","left","right","left","left","NA","674","183749","1375","674","NA","2","legacy","4","1024","2","48000","-16","experiment","4","even","4","279083","275634","276869","4183","270583","276874","262028","4187","269207","281087","281762","277878","187937","281087","NA","Sternberg task","11","16276","14","yes","1024"
"80","80","1140.8666666666666","1140.8666666666666","black","experiment","legacy","legacy","legacy","0","uniform","1","undefined","1","left","14","14","14","0","0","14","14","0","0","14","14","14","0","14","0","Sun Oct 24 21:17:06 2021","The main experiment item","yes","Sternbergtask.osexp","C:\Users\19565\Desktop","no","mono","no","18","no","white","no","yes","768","legacy","2","11","C:/Users/19565/Desktop/Lab 3/MR-subject-4.csv","legacy","9 4 2","Lentiform Loewenfeld","3.3.9","1","y","0","left","right","left","left","NA","837","183749","1375","837","NA","2","legacy","3","1024","2","48000","-16","experiment","4","even","9","285119","281769","282906","4183","270583","282909","262028","4187","269207","287124","287962","283913","187937","287124","NA","Sternberg task","12","17113","15","yes","1024"
"81.25","81.25","1105.875","1105.875","black","experiment","legacy","legacy","legacy","0","uniform","1","undefined","1","left","15","15","15","0","0","15","15","0","0","15","15","15","0","15","0","Sun Oct 24 21:17:06 2021","The main experiment item","yes","Sternbergtask.osexp","C:\Users\19565\Desktop","no","mono","no","18","no","white","no","yes","768","legacy","3","11","C:/Users/19565/Desktop/Lab 3/MR-subject-4.csv","legacy","9 5 8 1","Lentiform Loewenfeld","3.3.9","2","y","0","left","right","left","left","NA","581","183749","1375","581","NA","2","legacy","4","1024","2","48000","-16","experiment","4","even","5","291318","287969","289107","4183","270583","289109","262028","4187","269207","293323","293906","290114","187937","293322","NA","Sternberg task","13","17694","16","yes","1024"
"82.3529411764706","82.3529411764706","1096.4705882352941","1096.4705882352941","black","experiment","legacy","legacy","legacy","0","uniform","1","undefined","1","right","16","16","16","0","0","16","16","0","0","16","16","16","0","16","0","Sun Oct 24 21:17:06 2021","The main experiment item","yes","Sternbergtask.osexp","C:\Users\19565\Desktop","no","mono","no","18","no","white","no","yes","768","legacy","4","11","C:/Users/19565/Desktop/Lab 3/MR-subject-4.csv","legacy","8 6 3 4 7","Lentiform Loewenfeld","3.3.9","0","n","0","right","right","left","right","NA","946","183749","1375","946","NA","2","legacy","5","1024","2","48000","-16","experiment","4","even","1","297344","293912","295131","4183","270583","295134","262028","4187","269207","299349","300295","296138","187937","299349","NA","Sternberg task","14","18640","17","yes","1024"
"83.33333333333333","83.33333333333333","1089.2222222222222","1089.2222222222222","black","experiment","legacy","legacy","legacy","0","uniform","1","undefined","1","right","17","17","17","0","0","17","17","0","0","17","17","17","0","17","0","Sun Oct 24 21:17:06 2021","The main experiment item","yes","Sternbergtask.osexp","C:\Users\19565\Desktop","no","mono","no","18","no","white","no","yes","768","legacy","5","11","C:/Users/19565/Desktop/Lab 3/MR-subject-4.csv","legacy","7 1","Lentiform Loewenfeld","3.3.9","0","n","0","right","right","left","right","NA","966","183749","1375","966","NA","2","legacy","2","1024","2","48000","-16","experiment","4","even","8","303714","300302","301501","4183","270583","301504","262028","4187","269207","305718","306685","302509","187937","305718","NA","Sternberg task","15","19606","18","yes","1024"
"84.21052631578948","84.21052631578948","1080.7368421052631","1080.7368421052631","black","experiment","legacy","legacy","legacy","0","uniform","1","undefined","1","right","18","18","18","0","0","18","18","0","0","18","18","18","0","18","0","Sun Oct 24 21:17:06 2021","The main experiment item","yes","Sternbergtask.osexp","C:\Users\19565\Desktop","no","mono","no","18","no","white","no","yes","768","legacy","6","11","C:/Users/19565/Desktop/Lab 3/MR-subject-4.csv","legacy","1 4 9 3","Lentiform Loewenfeld","3.3.9","0","n","0","right","right","left","right","NA","928","183749","1375","928","NA","2","legacy","4","1024","2","48000","-16","experiment","4","even","5","310113","306693","307901","4183","270583","307904","262028","4187","269207","312117","313046","308908","187937","312117","NA","Sternberg task","16","20534","19","yes","1024"
"85","85","1062.3","1062.3","black","experiment","legacy","legacy","legacy","0","uniform","1","undefined","1","left","19","19","19","0","0","19","19","0","0","19","19","19","0","19","0","Sun Oct 24 21:17:06 2021","The main experiment item","yes","Sternbergtask.osexp","C:\Users\19565\Desktop","no","mono","no","18","no","white","no","yes","768","legacy","7","11","C:/Users/19565/Desktop/Lab 3/MR-subject-4.csv","legacy","7","Lentiform Loewenfeld","3.3.9","1","y","0","left","right","left","left","NA","712","183749","1375","712","NA","2","legacy","1","1024","2","48000","-16","experiment","4","even","7","316521","313071","314309","4183","270583","314313","262028","4187","269207","318527","319240","315317","187937","318526","NA","Sternberg task","17","21246","20","yes","1024"
"80.95238095238095","80.95238095238095","1057.6666666666667","1057.6666666666667","black","experiment","legacy","legacy","legacy","0","uniform","0","undefined","0","right","20","20","20","0","0","20","20","0","0","20","20","20","0","20","0","Sun Oct 24 21:17:06 2021","The main experiment item","yes","Sternbergtask.osexp","C:\Users\19565\Desktop","no","mono","no","18","no","white","no","yes","768","legacy","8","11","C:/Users/19565/Desktop/Lab 3/MR-subject-4.csv","legacy","4 2 7 6 1 3","Lentiform Loewenfeld","3.3.9","0","n","0","left","right","left","left","NA","965","183749","1375","965","NA","2","legacy","6","1024","2","48000","-16","experiment","4","even","8","322597","319248","320385","4183","270583","320388","262028","4187","269207","324602","325568","321393","187937","324601","NA","Sternberg task","17","22211","21","yes","1024"
"81.81818181818181","81.81818181818181","1071","1071","black","experiment","legacy","legacy","legacy","0","uniform","1","undefined","1","right","21","21","21","0","0","21","21","0","0","21","21","21","0","21","0","Sun Oct 24 21:17:06 2021","The main experiment item","yes","Sternbergtask.osexp","C:\Users\19565\Desktop","no","mono","no","18","no","white","no","yes","768","legacy","9","11","C:/Users/19565/Desktop/Lab 3/MR-subject-4.csv","legacy","3 4 9 6 7 8","Lentiform Loewenfeld","3.3.9","0","n","0","right","right","left","right","NA","1351","183749","1375","1351","NA","2","legacy","6","1024","2","48000","-16","experiment","4","even","2","328983","319248","326771","4183","270583","326775","325575","4187","269207","330987","332339","327779","187937","330987","NA","Sternberg task","18","23562","22","yes","1024"
"78.26086956521739","78.26086956521739","1097.3478260869565","1097.3478260869565","black","experiment","legacy","legacy","legacy","0","uniform","0","undefined","0","right","22","22","22","0","0","22","22","0","0","22","22","22","0","22","0","Sun Oct 24 21:17:06 2021","The main experiment item","yes","Sternbergtask.osexp","C:\Users\19565\Desktop","no","mono","no","18","no","white","no","yes","768","legacy","10","11","C:/Users/19565/Desktop/Lab 3/MR-subject-4.csv","legacy","8 4 3 9","Lentiform Loewenfeld","3.3.9","0","n","0","left","right","left","left","NA","1677","183749","1375","1677","NA","2","legacy","4","1024","2","48000","-16","experiment","4","even","5","335747","332364","333534","4183","270583","333537","325575","4187","269207","337750","339428","334543","187937","337750","NA","Sternberg task","18","25239","23","yes","1024"
"79.16666666666667","79.16666666666667","1078.5833333333333","1078.5833333333333","black","experiment","legacy","legacy","legacy","0","uniform","1","undefined","1","left","23","23","23","0","0","23","23","0","0","23","23","23","0","23","0","Sun Oct 24 21:17:06 2021","The main experiment item","yes","Sternbergtask.osexp","C:\Users\19565\Desktop","no","mono","no","18","no","white","no","yes","768","legacy","11","11","C:/Users/19565/Desktop/Lab 3/MR-subject-4.csv","legacy","7 1 3","Lentiform Loewenfeld","3.3.9","2","y","0","left","right","left","left","NA","647","183749","1375","647","NA","2","legacy","3","1024","2","48000","-16","experiment","4","even","1","342835","332364","340625","4183","270583","340627","339436","4187","269207","344840","345488","341631","187937","344839","NA","Sternberg task","19","25886","24","yes","1024"
"80","80","1068.8","1068.8","black","experiment","legacy","legacy","legacy","0","uniform","1","undefined","1","left","24","24","24","0","0","24","24","0","0","24","24","24","0","24","0","Sun Oct 24 21:17:06 2021","The main experiment item","yes","Sternbergtask.osexp","C:\Users\19565\Desktop","no","mono","no","18","no","white","no","yes","768","legacy","12","11","C:/Users/19565/Desktop/Lab 3/MR-subject-4.csv","legacy","6 8 9 3 4 9","Lentiform Loewenfeld","3.3.9","5","y","0","left","right","left","left","NA","834","183749","1375","834","NA","2","legacy","6","1024","2","48000","-16","experiment","4","even","4","348848","345494","346638","4183","270583","346640","339436","4187","269207","350853","351688","347644","187937","350853","NA","Sternberg task","20","26720","25","yes","1024"
"80.76923076923077","80.76923076923077","1055.7307692307693","1055.7307692307693","black","experiment","legacy","legacy","legacy","0","uniform","1","undefined","1","right","25","25","25","0","0","25","25","0","0","25","25","25","0","25","0","Sun Oct 24 21:17:06 2021","The main experiment item","yes","Sternbergtask.osexp","C:\Users\19565\Desktop","no","mono","no","18","no","white","no","yes","768","legacy","13","11","C:/Users/19565/Desktop/Lab 3/MR-subject-4.csv","legacy","6 2 9 3 8 4","Lentiform Loewenfeld","3.3.9","0","n","0","right","right","left","right","NA","729","183749","1375","729","NA","2","legacy","6","1024","2","48000","-16","experiment","4","even","1","355066","351712","352855","4183","270583","352858","339436","4187","269207","357071","357801","353862","187937","357070","NA","Sternberg task","21","27449","26","yes","1024"
"81.48148148148148","81.48148148148148","1045.0740740740741","1045.0740740740741","black","experiment","legacy","legacy","legacy","0","uniform","1","undefined","1","left","26","26","26","0","0","26","26","0","0","26","26","26","0","26","0","Sun Oct 24 21:17:06 2021","The main experiment item","yes","Sternbergtask.osexp","C:\Users\19565\Desktop","no","mono","no","18","no","white","no","yes","768","legacy","14","11","C:/Users/19565/Desktop/Lab 3/MR-subject-4.csv","legacy","8 1 6","Lentiform Loewenfeld","3.3.9","3","y","0","left","right","left","left","NA","768","183749","1375","768","NA","2","legacy","3","1024","2","48000","-16","experiment","4","even","6","361150","357807","358939","4183","270583","358942","339436","4187","269207","363156","363925","359946","187937","363155","NA","Sternberg task","22","28217","27","yes","1024"
"82.14285714285714","82.14285714285714","1041.857142857143","1041.857142857143","black","experiment","legacy","legacy","legacy","0","uniform","1","undefined","1","left","27","27","27","0","0","27","27","0","0","27","27","27","0","27","0","Sun Oct 24 21:17:06 2021","The main experiment item","yes","Sternbergtask.osexp","C:\Users\19565\Desktop","no","mono","no","18","no","white","no","yes","768","legacy","15","11","C:/Users/19565/Desktop/Lab 3/MR-subject-4.csv","legacy","2 4 8 5 1 3","Lentiform Loewenfeld","3.3.9","1","y","0","left","right","left","left","NA","955","183749","1375","955","NA","2","legacy","6","1024","2","48000","-16","experiment","4","even","2","367383","363931","365169","4183","270583","365174","339436","4187","269207","369387","370342","366178","187937","369387","NA","Sternberg task","23","29172","28","yes","1024"
"82.75862068965517","82.75862068965517","1030.5862068965516","1030.5862068965516","black","experiment","legacy","legacy","legacy","0","uniform","1","undefined","1","right","28","28","28","0","0","28","28","0","0","28","28","28","0","28","0","Sun Oct 24 21:17:06 2021","The main experiment item","yes","Sternbergtask.osexp","C:\Users\19565\Desktop","no","mono","no","18","no","white","no","yes","768","legacy","16","11","C:/Users/19565/Desktop/Lab 3/MR-subject-4.csv","legacy","6 8","Lentiform Loewenfeld","3.3.9","0","n","0","right","right","left","right","NA","715","183749","1375","715","NA","2","legacy","2","1024","2","48000","-16","experiment","4","even","9","373767","370349","371555","4183","270583","371557","339436","4187","269207","375772","376487","372561","187937","375771","NA","Sternberg task","24","29887","29","yes","1024"
"83.33333333333333","83.33333333333333","1014.5666666666667","1014.5666666666667","black","experiment","legacy","legacy","legacy","0","uniform","1","undefined","1","left","29","29","29","0","0","29","29","0","0","29","29","29","0","29","0","Sun Oct 24 21:17:06 2021","The main experiment item","yes","Sternbergtask.osexp","C:\Users\19565\Desktop","no","mono","no","18","no","white","no","yes","768","legacy","17","11","C:/Users/19565/Desktop/Lab 3/MR-subject-4.csv","legacy","8 9 5 7 1 6","Lentiform Loewenfeld","3.3.9","4","y","0","left","right","left","left","NA","550","183749","1375","550","NA","2","legacy","6","1024","2","48000","-16","experiment","4","even","7","379893","376495","377681","4183","270583","377684","339436","4187","269207","381896","382446","378688","187937","381896","NA","Sternberg task","25","30437","30","yes","1024"
"83.87096774193549","83.87096774193549","1003.516129032258","1003.516129032258","black","experiment","legacy","legacy","legacy","0","uniform","1","undefined","1","right","30","30","30","0","0","30","30","0","0","30","30","30","0","30","0","Sun Oct 24 21:17:06 2021","The main experiment item","yes","Sternbergtask.osexp","C:\Users\19565\Desktop","no","mono","no","18","no","white","no","yes","768","legacy","18","11","C:/Users/19565/Desktop/Lab 3/MR-subject-4.csv","legacy","5 2","Lentiform Loewenfeld","3.3.9","0","n","0","right","right","left","right","NA","672","183749","1375","672","NA","2","legacy","2","1024","2","48000","-16","experiment","4","even","7","385898","382453","383686","4183","270583","383688","339436","4187","269207","387902","388575","384693","187937","387902","NA","Sternberg task","26","31109","31","yes","1024"
"84.375","84.375","1001.125","1001.125","black","experiment","legacy","legacy","legacy","0","uniform","1","undefined","1","right","31","31","31","0","0","31","31","0","0","31","31","31","0","31","0","Sun Oct 24 21:17:06 2021","The main experiment item","yes","Sternbergtask.osexp","C:\Users\19565\Desktop","no","mono","no","18","no","white","no","yes","768","legacy","19","11","C:/Users/19565/Desktop/Lab 3/MR-subject-4.csv","legacy","2 7 5","Lentiform Loewenfeld","3.3.9","0","n","0","right","right","left","right","NA","927","183749","1375","927","NA","2","legacy","3","1024","2","48000","-16","experiment","4","even","8","392008","388580","389793","4183","270583","389797","339436","4187","269207","394013","394941","390802","187937","394013","NA","Sternberg task","27","32036","32","yes","1024"
"84.84848484848484","84.84848484848484","990.1818181818181","990.1818181818181","black","experiment","legacy","legacy","legacy","0","uniform","1","undefined","1","left","32","32","32","0","0","32","32","0","0","32","32","32","0","32","0","Sun Oct 24 21:17:06 2021","The main experiment item","yes","Sternbergtask.osexp","C:\Users\19565\Desktop","no","mono","no","18","no","white","no","yes","768","legacy","20","11","C:/Users/19565/Desktop/Lab 3/MR-subject-4.csv","legacy","3 5 4 7","Lentiform Loewenfeld","3.3.9","1","y","0","left","right","left","left","NA","640","183749","1375","640","NA","2","legacy","4","1024","2","48000","-16","experiment","4","even","3","398361","394948","396148","4183","270583","396152","339436","4187","269207","400366","401008","397155","187937","400366","NA","Sternberg task","28","32676","33","yes","1024"
"85.29411764705883","85.29411764705883","981.3235294117648","981.3235294117648","black","experiment","legacy","legacy","legacy","0","uniform","1","undefined","1","left","33","33","33","0","0","33","33","0","0","33","33","33","0","33","0","Sun Oct 24 21:17:06 2021","The main experiment item","yes","Sternbergtask.osexp","C:\Users\19565\Desktop","no","mono","no","18","no","white","no","yes","768","legacy","21","11","C:/Users/19565/Desktop/Lab 3/MR-subject-4.csv","legacy","9 1 6 7 8","Lentiform Loewenfeld","3.3.9","1","y","0","left","right","left","left","NA","689","183749","1375","689","NA","2","legacy","5","1024","2","48000","-16","experiment","4","even","9","404489","401017","402276","4183","270583","402280","339436","4187","269207","406494","407184","403285","187937","406494","NA","Sternberg task","29","33365","34","yes","1024"
"85.71428571428571","85.71428571428571","971.9714285714285","971.9714285714285","black","experiment","legacy","legacy","legacy","0","uniform","1","undefined","1","right","34","34","34","0","0","34","34","0","0","34","34","34","0","34","0","Sun Oct 24 21:17:06 2021","The main experiment item","yes","Sternbergtask.osexp","C:\Users\19565\Desktop","no","mono","no","18","no","white","no","yes","768","legacy","22","11","C:/Users/19565/Desktop/Lab 3/MR-subject-4.csv","legacy","1 7 5 2 9","Lentiform Loewenfeld","3.3.9","0","n","0","right","right","left","right","NA","654","183749","1375","654","NA","2","legacy","5","1024","2","48000","-16","experiment","4","even","3","410624","407194","408412","4183","270583","408416","339436","4187","269207","412629","413284","409420","187937","412628","NA","Sternberg task","30","34019","35","yes","1024"
"86.11111111111111","86.11111111111111","968.2222222222222","968.2222222222222","black","experiment","legacy","legacy","legacy","0","uniform","1","undefined","1","right","35","35","35","0","0","35","35","0","0","35","35","35","0","35","0","Sun Oct 24 21:17:06 2021","The main experiment item","yes","Sternbergtask.osexp","C:\Users\19565\Desktop","no","mono","no","18","no","white","no","yes","768","legacy","23","11","C:/Users/19565/Desktop/Lab 3/MR-subject-4.csv","legacy","7 9 1 6","Lentiform Loewenfeld","3.3.9","0","n","0","right","right","left","right","NA","837","183749","1375","837","NA","2","legacy","4","1024","2","48000","-16","experiment","4","even","4","416697","413308","414484","4183","270583","414488","339436","4187","269207","418701","419538","415492","187937","418701","NA","Sternberg task","31","34856","36","yes","1024"
"86.48648648648648","86.48648648648648","965.6216216216217","965.6216216216217","black","experiment","legacy","legacy","legacy","0","uniform","1","undefined","1","left","36","36","36","0","0","36","36","0","0","36","36","36","0","36","0","Sun Oct 24 21:17:06 2021","The main experiment item","yes","Sternbergtask.osexp","C:\Users\19565\Desktop","no","mono","no","18","no","white","no","yes","768","legacy","24","11","C:/Users/19565/Desktop/Lab 3/MR-subject-4.csv","legacy","9 5 3 8 4","Lentiform Loewenfeld","3.3.9","1","y","0","left","right","left","left","NA","872","183749","1375","872","NA","2","legacy","5","1024","2","48000","-16","experiment","4","even","9","422912","419545","420699","4183","270583","420701","339436","4187","269207","424918","425791","421705","187937","424917","NA","Sternberg task","32","35728","37","yes","1024"
"86.84210526315789","86.84210526315789","965.3421052631579","965.3421052631579","black","experiment","legacy","legacy","legacy","0","uniform","1","undefined","1","right","37","37","37","0","0","37","37","0","0","37","37","37","0","37","0","Sun Oct 24 21:17:06 2021","The main experiment item","yes","Sternbergtask.osexp","C:\Users\19565\Desktop","no","mono","no","18","no","white","no","yes","768","legacy","25","11","C:/Users/19565/Desktop/Lab 3/MR-subject-4.csv","legacy","7 1 5 6 3","Lentiform Loewenfeld","3.3.9","0","n","0","right","right","left","right","NA","955","183749","1375","955","NA","2","legacy","5","1024","2","48000","-16","experiment","4","even","8","429211","425797","426999","4183","270583","427003","339436","4187","269207","431217","432173","428007","187937","431216","NA","Sternberg task","33","36683","38","yes","1024"
"87.17948717948718","87.17948717948718","959.8717948717949","959.8717948717949","black","experiment","legacy","legacy","legacy","0","uniform","1","undefined","1","left","38","38","38","0","0","38","38","0","0","38","38","38","0","38","0","Sun Oct 24 21:17:06 2021","The main experiment item","yes","Sternbergtask.osexp","C:\Users\19565\Desktop","no","mono","no","18","no","white","no","yes","768","legacy","26","11","C:/Users/19565/Desktop/Lab 3/MR-subject-4.csv","legacy","8 5 1 3 9","Lentiform Loewenfeld","3.3.9","4","y","0","left","right","left","left","NA","752","183749","1375","752","NA","2","legacy","5","1024","2","48000","-16","experiment","4","even","3","435630","432197","433419","4183","270583","433422","339436","4187","269207","437635","438388","434426","187937","437634","NA","Sternberg task","34","37435","39","yes","1024"
"87.5","87.5","955.45","955.45","black","experiment","legacy","legacy","legacy","0","uniform","1","undefined","1","right","39","39","39","0","0","39","39","0","0","39","39","39","0","39","0","Sun Oct 24 21:17:06 2021","The main experiment item","yes","Sternbergtask.osexp","C:\Users\19565\Desktop","no","mono","no","18","no","white","no","yes","768","legacy","27","11","C:/Users/19565/Desktop/Lab 3/MR-subject-4.csv","legacy","4 2 6 9","Lentiform Loewenfeld","3.3.9","0","n","0","right","right","left","right","NA","783","183749","1375","783","NA","2","legacy","4","1024","2","48000","-16","experiment","4","even","7","441842","438413","439631","4183","270583","439634","339436","4187","269207","443848","444633","440638","187937","443847","NA","Sternberg task","35","38218","40","yes","1024"
"85.36585365853658","85.36585365853658","954.0243902439024","954.0243902439024","black","experiment","legacy","legacy","legacy","0","uniform","0","undefined","0","left","40","40","40","0","0","40","40","0","0","40","40","40","0","40","0","Sun Oct 24 21:17:06 2021","The main experiment item","yes","Sternbergtask.osexp","C:\Users\19565\Desktop","no","mono","no","18","no","white","no","yes","768","legacy","28","11","C:/Users/19565/Desktop/Lab 3/MR-subject-4.csv","legacy","3 4 9 6 2 9","Lentiform Loewenfeld","3.3.9","5","y","0","right","right","left","right","NA","897","183749","1375","897","NA","2","legacy","6","1024","2","48000","-16","experiment","4","even","2","448107","444639","445893","4183","270583","445896","339436","4187","269207","450112","451011","446900","187937","450112","NA","Sternberg task","35","39115","41","yes","1024"
"85.71428571428571","85.71428571428571","948.452380952381","948.452380952381","black","experiment","legacy","legacy","legacy","0","uniform","1","undefined","1","left","41","41","41","0","0","41","41","0","0","41","41","41","0","41","0","Sun Oct 24 21:17:06 2021","The main experiment item","yes","Sternbergtask.osexp","C:\Users\19565\Desktop","no","mono","no","18","no","white","no","yes","768","legacy","29","11","C:/Users/19565/Desktop/Lab 3/MR-subject-4.csv","legacy","4 1 8 7 5","Lentiform Loewenfeld","3.3.9","3","y","0","left","right","left","left","NA","720","183749","1375","720","NA","2","legacy","5","1024","2","48000","-16","experiment","4","even","8","454423","444639","452213","4183","270583","452215","451017","4187","269207","456428","457149","453219","187937","456427","NA","Sternberg task","36","39835","42","yes","1024"
"83.72093023255815","83.72093023255815","947.1395348837209","947.1395348837209","black","experiment","legacy","legacy","legacy","0","uniform","0","undefined","0","left","42","42","42","0","0","42","42","0","0","42","42","42","0","42","0","Sun Oct 24 21:17:06 2021","The main experiment item","yes","Sternbergtask.osexp","C:\Users\19565\Desktop","no","mono","no","18","no","white","no","yes","768","legacy","30","11","C:/Users/19565/Desktop/Lab 3/MR-subject-4.csv","legacy","7 1 8 5 6 2","Lentiform Loewenfeld","3.3.9","2","y","0","right","right","left","right","NA","892","183749","1375","892","NA","2","legacy","6","1024","2","48000","-16","experiment","4","even","1","460558","457155","458347","4183","270583","458349","451017","4187","269207","462564","463457","459354","187937","462563","NA","Sternberg task","36","40727","43","yes","1024"
"84.0909090909091","84.0909090909091","940.7045454545455","940.7045454545455","black","experiment","legacy","legacy","legacy","0","uniform","1","undefined","1","left","43","43","43","0","0","43","43","0","0","43","43","43","0","43","0","Sun Oct 24 21:17:06 2021","The main experiment item","yes","Sternbergtask.osexp","C:\Users\19565\Desktop","no","mono","no","18","no","white","no","yes","768","legacy","31","11","C:/Users/19565/Desktop/Lab 3/MR-subject-4.csv","legacy","7 2 3","Lentiform Loewenfeld","3.3.9","3","y","0","left","right","left","left","NA","664","183749","1375","664","NA","2","legacy","3","1024","2","48000","-16","experiment","4","even","3","466905","457155","464692","4183","270583","464696","463481","4187","269207","468911","469577","465700","187937","468911","NA","Sternberg task","37","41391","44","yes","1024"
"84.44444444444444","84.44444444444444","936.8666666666667","936.8666666666667","black","experiment","legacy","legacy","legacy","0","uniform","1","undefined","1","right","44","44","44","0","0","44","44","0","0","44","44","44","0","44","0","Sun Oct 24 21:17:06 2021","The main experiment item","yes","Sternbergtask.osexp","C:\Users\19565\Desktop","no","mono","no","18","no","white","no","yes","768","legacy","32","11","C:/Users/19565/Desktop/Lab 3/MR-subject-4.csv","legacy","9 5 3 2 8 6","Lentiform Loewenfeld","3.3.9","0","n","0","right","right","left","right","NA","768","183749","1375","768","NA","2","legacy","6","1024","2","48000","-16","experiment","4","even","7","472952","469587","470740","4183","270583","470743","463481","4187","269207","474956","475725","471748","187937","474956","NA","Sternberg task","38","42159","45","yes","1024"
"84.78260869565217","84.78260869565217","934.8260869565217","934.8260869565217","black","experiment","legacy","legacy","legacy","0","uniform","1","undefined","1","left","45","45","45","0","0","45","45","0","0","45","45","45","0","45","0","Sun Oct 24 21:17:06 2021","The main experiment item","yes","Sternbergtask.osexp","C:\Users\19565\Desktop","no","mono","no","18","no","white","no","yes","768","legacy","33","11","C:/Users/19565/Desktop/Lab 3/MR-subject-4.csv","legacy","8 5 3 7 4 6","Lentiform Loewenfeld","3.3.9","6","y","0","left","right","left","left","NA","843","183749","1375","843","NA","2","legacy","6","1024","2","48000","-16","experiment","4","even","6","479136","475731","476924","4183","270583","476928","463481","4187","269207","481140","481984","477932","187937","481140","NA","Sternberg task","39","43002","46","yes","1024"
"85.1063829787234","85.1063829787234","934.6382978723404","934.6382978723404","black","experiment","legacy","legacy","legacy","0","uniform","1","undefined","1","left","46","46","46","0","0","46","46","0","0","46","46","46","0","46","0","Sun Oct 24 21:17:06 2021","The main experiment item","yes","Sternbergtask.osexp","C:\Users\19565\Desktop","no","mono","no","18","no","white","no","yes","768","legacy","34","11","C:/Users/19565/Desktop/Lab 3/MR-subject-4.csv","legacy","3 9 6 2","Lentiform Loewenfeld","3.3.9","4","y","0","left","right","left","left","NA","926","183749","1375","926","NA","2","legacy","4","1024","2","48000","-16","experiment","4","even","2","485407","481991","483195","4183","270583","483198","463481","4187","269207","487411","488338","484202","187937","487411","NA","Sternberg task","40","43928","47","yes","1024"
"85.41666666666667","85.41666666666667","930.5208333333334","930.5208333333334","black","experiment","legacy","legacy","legacy","0","uniform","1","undefined","1","left","47","47","47","0","0","47","47","0","0","47","47","47","0","47","0","Sun Oct 24 21:17:06 2021","The main experiment item","yes","Sternbergtask.osexp","C:\Users\19565\Desktop","no","mono","no","18","no","white","no","yes","768","legacy","35","11","C:/Users/19565/Desktop/Lab 3/MR-subject-4.csv","legacy","9 8 4","Lentiform Loewenfeld","3.3.9","1","y","0","left","right","left","left","NA","737","183749","1375","737","NA","2","legacy","3","1024","2","48000","-16","experiment","4","even","9","491784","488346","489573","4183","270583","489576","463481","4187","269207","493788","494526","490580","187937","493788","NA","Sternberg task","41","44665","48","yes","1024"
"85.71428571428571","85.71428571428571","925.7142857142857","925.7142857142857","black","experiment","legacy","legacy","legacy","0","uniform","1","undefined","1","left","48","48","48","0","0","48","48","0","0","48","48","48","0","48","0","Sun Oct 24 21:17:06 2021","The main experiment item","yes","Sternbergtask.osexp","C:\Users\19565\Desktop","no","mono","no","18","no","white","no","yes","768","legacy","36","11","C:/Users/19565/Desktop/Lab 3/MR-subject-4.csv","legacy","4 1 5","Lentiform Loewenfeld","3.3.9","2","y","0","left","right","left","left","NA","695","183749","1375","695","NA","2","legacy","3","1024","2","48000","-16","experiment","4","even","1","497910","494533","495700","4183","270583","495702","463481","4187","269207","499915","500611","496706","187937","499914","NA","Sternberg task","42","45360","49","yes","1024"
"84","84","919.58","919.58","black","experiment","legacy","legacy","legacy","0","uniform","0","undefined","0","right","49","49","49","0","0","49","49","0","0","49","49","49","0","49","0","Sun Oct 24 21:17:06 2021","The main experiment item","yes","Sternbergtask.osexp","C:\Users\19565\Desktop","no","mono","no","18","no","white","no","yes","768","legacy","37","11","C:/Users/19565/Desktop/Lab 3/MR-subject-4.csv","legacy","9 7 4 5 8","Lentiform Loewenfeld","3.3.9","0","n","0","left","right","left","left","NA","619","183749","1375","619","NA","2","legacy","5","1024","2","48000","-16","experiment","4","even","6","504028","500618","501816","4183","270583","501819","463481","4187","269207","506033","506654","502823","187937","506033","NA","Sternberg task","42","45979","50","yes","1024"
"84.31372549019608","84.31372549019608","917.4705882352941","917.4705882352941","black","experiment","legacy","legacy","legacy","0","uniform","1","undefined","1","right","50","50","50","0","0","50","50","0","0","50","50","50","0","50","0","Sun Oct 24 21:17:06 2021","The main experiment item","yes","Sternbergtask.osexp","C:\Users\19565\Desktop","no","mono","no","18","no","white","no","yes","768","legacy","38","11","C:/Users/19565/Desktop/Lab 3/MR-subject-4.csv","legacy","2 5 1 4","Lentiform Loewenfeld","3.3.9","0","n","0","right","right","left","right","NA","812","183749","1375","812","NA","2","legacy","4","1024","2","48000","-16","experiment","4","even","6","510135","500618","507920","4183","270583","507924","506663","4187","269207","512139","512953","508929","187937","512139","NA","Sternberg task","43","46791","51","yes","1024"
"84.61538461538461","84.61538461538461","917.5961538461538","917.5961538461538","black","experiment","legacy","legacy","legacy","0","uniform","1","undefined","1","right","51","51","51","0","0","51","51","0","0","51","51","51","0","51","0","Sun Oct 24 21:17:06 2021","The main experiment item","yes","Sternbergtask.osexp","C:\Users\19565\Desktop","no","mono","no","18","no","white","no","yes","768","legacy","39","11","C:/Users/19565/Desktop/Lab 3/MR-subject-4.csv","legacy","1 5 3 2 8","Lentiform Loewenfeld","3.3.9","0","n","0","right","right","left","right","NA","924","183749","1375","924","NA","2","legacy","5","1024","2","48000","-16","experiment","4","even","4","516410","512962","514198","4183","270583","514202","506663","4187","269207","518415","519341","515206","187937","518415","NA","Sternberg task","44","47715","52","yes","1024"
"83.01886792452831","83.01886792452831","914.6603773584906","914.6603773584906","black","experiment","legacy","legacy","legacy","0","uniform","0","undefined","0","left","52","52","52","0","0","52","52","0","0","52","52","52","0","52","0","Sun Oct 24 21:17:06 2021","The main experiment item","yes","Sternbergtask.osexp","C:\Users\19565\Desktop","no","mono","no","18","no","white","no","yes","768","legacy","40","11","C:/Users/19565/Desktop/Lab 3/MR-subject-4.csv","legacy","5 2 6","Lentiform Loewenfeld","3.3.9","2","y","0","right","right","left","right","NA","762","183749","1375","762","NA","2","legacy","3","1024","2","48000","-16","experiment","4","even","2","522769","519351","520554","4183","270583","520558","506663","4187","269207","524774","525537","521565","187937","524774","NA","Sternberg task","44","48477","53","yes","1024"
"83.33333333333333","83.33333333333333","914.3703703703703","914.3703703703703","black","experiment","legacy","legacy","legacy","0","uniform","1","undefined","1","right","53","53","53","0","0","53","53","0","0","53","53","53","0","53","0","Sun Oct 24 21:17:06 2021","The main experiment item","yes","Sternbergtask.osexp","C:\Users\19565\Desktop","no","mono","no","18","no","white","no","yes","768","legacy","41","11","C:/Users/19565/Desktop/Lab 3/MR-subject-4.csv","legacy","1 4 9 2 5","Lentiform Loewenfeld","3.3.9","0","n","0","right","right","left","right","NA","899","183749","1375","899","NA","2","legacy","5","1024","2","48000","-16","experiment","4","even","7","528982","519351","526770","4183","270583","526773","525544","4187","269207","530986","531886","527777","187937","530986","NA","Sternberg task","45","49376","54","yes","1024"
"83.63636363636364","83.63636363636364","910.0363636363636","910.0363636363636","black","experiment","legacy","legacy","legacy","0","uniform","1","undefined","1","left","54","54","54","0","0","54","54","0","0","54","54","54","0","54","0","Sun Oct 24 21:17:06 2021","The main experiment item","yes","Sternbergtask.osexp","C:\Users\19565\Desktop","no","mono","no","18","no","white","no","yes","768","legacy","42","11","C:/Users/19565/Desktop/Lab 3/MR-subject-4.csv","legacy","8 5 4 7 3 1","Lentiform Loewenfeld","3.3.9","2","y","0","left","right","left","left","NA","676","183749","1375","676","NA","2","legacy","6","1024","2","48000","-16","experiment","4","even","5","535248","531896","533038","4183","270583","533040","525544","4187","269207","537253","537930","534044","187937","537253","NA","Sternberg task","46","50052","55","yes","1024"
"83.92857142857143","83.92857142857143","910.3392857142857","910.3392857142857","black","experiment","legacy","legacy","legacy","0","uniform","1","undefined","1","right","55","55","55","0","0","55","55","0","0","55","55","55","0","55","0","Sun Oct 24 21:17:06 2021","The main experiment item","yes","Sternbergtask.osexp","C:\Users\19565\Desktop","no","mono","no","18","no","white","no","yes","768","legacy","43","11","C:/Users/19565/Desktop/Lab 3/MR-subject-4.csv","legacy","4 8 1 2","Lentiform Loewenfeld","3.3.9","0","n","0","right","right","left","right","NA","927","183749","1375","927","NA","2","legacy","4","1024","2","48000","-16","experiment","4","even","7","541390","537936","539176","4183","270583","539180","525544","4187","269207","543394","544323","540186","187937","543394","NA","Sternberg task","47","50979","56","yes","1024"
"84.21052631578948","84.21052631578948","909.4035087719299","909.4035087719299","black","experiment","legacy","legacy","legacy","0","uniform","1","undefined","1","right","56","56","56","0","0","56","56","0","0","56","56","56","0","56","0","Sun Oct 24 21:17:06 2021","The main experiment item","yes","Sternbergtask.osexp","C:\Users\19565\Desktop","no","mono","no","18","no","white","no","yes","768","legacy","44","11","C:/Users/19565/Desktop/Lab 3/MR-subject-4.csv","legacy","7 4 2 8 1 9","Lentiform Loewenfeld","3.3.9","0","n","0","right","right","left","right","NA","857","183749","1375","857","NA","2","legacy","6","1024","2","48000","-16","experiment","4","even","5","547708","544333","545498","4183","270583","545500","525544","4187","269207","549714","550573","546504","187937","549714","NA","Sternberg task","48","51836","57","yes","1024"
"84.48275862068965","84.48275862068965","907.2758620689655","907.2758620689655","black","experiment","legacy","legacy","legacy","0","uniform","1","undefined","1","left","57","57","57","0","0","57","57","0","0","57","57","57","0","57","0","Sun Oct 24 21:17:06 2021","The main experiment item","yes","Sternbergtask.osexp","C:\Users\19565\Desktop","no","mono","no","18","no","white","no","yes","768","legacy","45","11","C:/Users/19565/Desktop/Lab 3/MR-subject-4.csv","legacy","2 8 5 1","Lentiform Loewenfeld","3.3.9","4","y","0","left","right","left","left","NA","786","183749","1375","786","NA","2","legacy","4","1024","2","48000","-16","experiment","4","even","1","553944","550581","551733","4183","270583","551736","525544","4187","269207","555947","556735","552740","187937","555947","NA","Sternberg task","49","52622","58","yes","1024"
"84.7457627118644","84.7457627118644","904.6101694915254","904.6101694915254","black","experiment","legacy","legacy","legacy","0","uniform","1","undefined","1","left","58","58","58","0","0","58","58","0","0","58","58","58","0","58","0","Sun Oct 24 21:17:06 2021","The main experiment item","yes","Sternbergtask.osexp","C:\Users\19565\Desktop","no","mono","no","18","no","white","no","yes","768","legacy","46","11","C:/Users/19565/Desktop/Lab 3/MR-subject-4.csv","legacy","6 7 8 5","Lentiform Loewenfeld","3.3.9","3","y","0","left","right","left","left","NA","750","183749","1375","750","NA","2","legacy","4","1024","2","48000","-16","experiment","4","even","8","560180","556741","557966","4183","270583","557969","525544","4187","269207","562185","562937","558973","187937","562185","NA","Sternberg task","50","53372","59","yes","1024"
"85","85","902.4666666666667","902.4666666666667","black","experiment","legacy","legacy","legacy","0","uniform","1","undefined","1","right","59","59","59","0","0","59","59","0","0","59","59","59","0","59","0","Sun Oct 24 21:17:06 2021","The main experiment item","yes","Sternbergtask.osexp","C:\Users\19565\Desktop","no","mono","no","18","no","white","no","yes","768","legacy","47","11","C:/Users/19565/Desktop/Lab 3/MR-subject-4.csv","legacy","1 7 8 3 9","Lentiform Loewenfeld","3.3.9","0","n","0","right","right","left","right","NA","776","183749","1375","776","NA","2","legacy","5","1024","2","48000","-16","experiment","4","even","2","566352","562946","564139","4183","270583","564142","525544","4187","269207","568357","569135","565147","187937","568357","NA","Sternberg task","51","54148","60","yes","1024"
"85.24590163934427","85.24590163934427","900.8196721311475","900.8196721311475","black","experiment","legacy","legacy","legacy","0","uniform","1","undefined","1","right","60","60","60","0","0","60","60","0","0","60","60","60","0","60","0","Sun Oct 24 21:17:06 2021","The main experiment item","yes","Sternbergtask.osexp","C:\Users\19565\Desktop","no","mono","no","18","no","white","no","yes","768","legacy","48","11","C:/Users/19565/Desktop/Lab 3/MR-subject-4.csv","legacy","1 4 3 6 5","Lentiform Loewenfeld","3.3.9","0","n","0","right","right","left","right","NA","802","183749","1375","802","NA","2","legacy","5","1024","2","48000","-16","experiment","4","even","8","572521","569146","570310","4183","270583","570312","525544","4187","269207","574527","575329","571316","187937","574527","NA","Sternberg task","52","54950","61","yes","1024"
"85.48387096774194","85.48387096774194","899.1290322580645","899.1290322580645","black","experiment","legacy","legacy","legacy","0","uniform","1","undefined","1","left","61","61","61","0","0","61","61","0","0","61","61","61","0","61","0","Sun Oct 24 21:17:06 2021","The main experiment item","yes","Sternbergtask.osexp","C:\Users\19565\Desktop","no","mono","no","18","no","white","no","yes","768","legacy","49","11","C:/Users/19565/Desktop/Lab 3/MR-subject-4.csv","legacy","4 9 7 8 5 3","Lentiform Loewenfeld","3.3.9","4","y","0","left","right","left","left","NA","796","183749","1375","796","NA","2","legacy","6","1024","2","48000","-16","experiment","4","even","8","578754","575336","576543","4183","270583","576546","525544","4187","269207","580759","581556","577550","187937","580758","NA","Sternberg task","53","55746","62","yes","1024"
"85.71428571428571","85.71428571428571","894.6507936507936","894.6507936507936","black","experiment","legacy","legacy","legacy","0","uniform","1","undefined","1","right","62","62","62","0","0","62","62","0","0","62","62","62","0","62","0","Sun Oct 24 21:17:06 2021","The main experiment item","yes","Sternbergtask.osexp","C:\Users\19565\Desktop","no","mono","no","18","no","white","no","yes","768","legacy","50","11","C:/Users/19565/Desktop/Lab 3/MR-subject-4.csv","legacy","1 3 2 6 9","Lentiform Loewenfeld","3.3.9","0","n","0","right","right","left","right","NA","617","183749","1375","617","NA","2","legacy","5","1024","2","48000","-16","experiment","4","even","5","584988","581565","582776","4183","270583","582779","525544","4187","269207","586993","587612","583784","187937","586993","NA","Sternberg task","54","56363","63","yes","1024"
"85.9375","85.9375","891.203125","891.203125","black","experiment","legacy","legacy","legacy","0","uniform","1","undefined","1","left","63","63","63","0","0","63","63","0","0","63","63","63","0","63","0","Sun Oct 24 21:17:06 2021","The main experiment item","yes","Sternbergtask.osexp","C:\Users\19565\Desktop","no","mono","no","18","no","white","no","yes","768","legacy","51","11","C:/Users/19565/Desktop/Lab 3/MR-subject-4.csv","legacy","8","Lentiform Loewenfeld","3.3.9","1","y","0","left","right","left","left","NA","674","183749","1375","674","NA","2","legacy","1","1024","2","48000","-16","experiment","4","even","8","591060","587622","588848","4183","270583","588850","525544","4187","269207","593066","593741","589855","187937","593064","NA","Sternberg task","55","57037","64","yes","1024"
"86.15384615384616","86.15384615384616","897.1384615384616","897.1384615384616","black","experiment","legacy","legacy","legacy","0","uniform","1","undefined","1","right","64","64","64","0","0","64","64","0","0","64","64","64","0","64","0","Sun Oct 24 21:17:06 2021","The main experiment item","yes","Sternbergtask.osexp","C:\Users\19565\Desktop","no","mono","no","18","no","white","no","yes","768","legacy","52","11","C:/Users/19565/Desktop/Lab 3/MR-subject-4.csv","legacy","8 9","Lentiform Loewenfeld","3.3.9","0","n","0","right","right","left","right","NA","1277","183749","1375","1277","NA","2","legacy","2","1024","2","48000","-16","experiment","4","even","5","597169","593748","594960","4183","270583","594962","525544","4187","269207","599173","600451","595965","187937","599173","NA","Sternberg task","56","58314","65","yes","1024"
"84.84848484848484","84.84848484848484","904.2121212121212","904.2121212121212","black","experiment","legacy","legacy","legacy","0","uniform","0","undefined","0","right","65","65","65","0","0","65","65","0","0","65","65","65","0","65","0","Sun Oct 24 21:17:06 2021","The main experiment item","yes","Sternbergtask.osexp","C:\Users\19565\Desktop","no","mono","no","18","no","white","no","yes","768","legacy","53","11","C:/Users/19565/Desktop/Lab 3/MR-subject-4.csv","legacy","2 3 8 5 6 7","Lentiform Loewenfeld","3.3.9","0","n","0","left","right","left","left","NA","1364","183749","1375","1364","NA","2","legacy","6","1024","2","48000","-16","experiment","4","even","1","603852","600460","601640","4183","270583","601643","525544","4187","269207","605858","607224","602648","187937","605857","NA","Sternberg task","56","59678","66","yes","1024"
"85.07462686567165","85.07462686567165","903.7014925373135","903.7014925373135","black","experiment","legacy","legacy","legacy","0","uniform","1","undefined","1","right","66","66","66","0","0","66","66","0","0","66","66","66","0","66","0","Sun Oct 24 21:17:06 2021","The main experiment item","yes","Sternbergtask.osexp","C:\Users\19565\Desktop","no","mono","no","18","no","white","no","yes","768","legacy","54","11","C:/Users/19565/Desktop/Lab 3/MR-subject-4.csv","legacy","6 9 5","Lentiform Loewenfeld","3.3.9","0","n","0","right","right","left","right","NA","870","183749","1375","870","NA","2","legacy","3","1024","2","48000","-16","experiment","4","even","8","610687","600460","608472","4183","270583","608477","607233","4187","269207","612691","613562","609480","187937","612691","NA","Sternberg task","57","60548","67","yes","1024"
"85.29411764705883","85.29411764705883","902.1911764705883","902.1911764705883","black","experiment","legacy","legacy","legacy","0","uniform","1","undefined","1","right","67","67","67","0","0","67","67","0","0","67","67","67","0","67","0","Sun Oct 24 21:17:06 2021","The main experiment item","yes","Sternbergtask.osexp","C:\Users\19565\Desktop","no","mono","no","18","no","white","no","yes","768","legacy","55","11","C:/Users/19565/Desktop/Lab 3/MR-subject-4.csv","legacy","3 9 1","Lentiform Loewenfeld","3.3.9","0","n","0","right","right","left","right","NA","801","183749","1375","801","NA","2","legacy","3","1024","2","48000","-16","experiment","4","even","7","616986","613569","614776","4183","270583","614778","607233","4187","269207","618990","619794","615782","187937","618990","NA","Sternberg task","58","61349","68","yes","1024"
"84.05797101449275","84.05797101449275","918.1014492753624","918.1014492753624","black","experiment","legacy","legacy","legacy","0","uniform","0","undefined","0","right","68","68","68","0","0","68","68","0","0","68","68","68","0","68","0","Sun Oct 24 21:17:06 2021","The main experiment item","yes","Sternbergtask.osexp","C:\Users\19565\Desktop","no","mono","no","18","no","white","no","yes","768","legacy","56","11","C:/Users/19565/Desktop/Lab 3/MR-subject-4.csv","legacy","1 6 4","Lentiform Loewenfeld","3.3.9","0","n","0","None","right","left","None","NA","2000","183749","1375","2000","NA","2","legacy","3","1024","2","48000","-16","experiment","4","even","7","623229","619803","621017","4183","270583","621020","607233","4187","269207","625234","627234","622025","187937","625234","NA","Sternberg task","58","63349","69","yes","1024"
"84.28571428571429","84.28571428571429","913.5142857142857","913.5142857142857","black","experiment","legacy","legacy","legacy","0","uniform","1","undefined","1","left","69","69","69","0","0","69","69","0","0","69","69","69","0","69","0","Sun Oct 24 21:17:06 2021","The main experiment item","yes","Sternbergtask.osexp","C:\Users\19565\Desktop","no","mono","no","18","no","white","no","yes","768","legacy","57","11","C:/Users/19565/Desktop/Lab 3/MR-subject-4.csv","legacy","7 6","Lentiform Loewenfeld","3.3.9","2","y","0","left","right","left","left","NA","597","183749","1375","597","NA","2","legacy","2","1024","2","48000","-16","experiment","4","even","6","630636","619803","628424","4183","270583","628427","627241","4187","269207","632640","633238","629432","187937","632640","NA","Sternberg task","59","63946","70","yes","1024"
"83.09859154929578","83.09859154929578","912.8732394366198","912.8732394366198","black","experiment","legacy","legacy","legacy","0","uniform","0","undefined","0","right","70","70","70","0","0","70","70","0","0","70","70","70","0","70","0","Sun Oct 24 21:17:06 2021","The main experiment item","yes","Sternbergtask.osexp","C:\Users\19565\Desktop","no","mono","no","18","no","white","no","yes","768","legacy","58","11","C:/Users/19565/Desktop/Lab 3/MR-subject-4.csv","legacy","7 1 8 4 9 3","Lentiform Loewenfeld","3.3.9","0","n","0","left","right","left","left","NA","868","183749","1375","868","NA","2","legacy","6","1024","2","48000","-16","experiment","4","even","6","636629","633262","634417","4183","270583","634420","627241","4187","269207","638634","639504","635424","187937","638634","NA","Sternberg task","59","64814","71","yes","1024"
"81.94444444444444","81.94444444444444","914.1111111111111","914.1111111111111","black","experiment","legacy","legacy","legacy","0","uniform","0","undefined","0","right","71","71","71","0","0","71","71","0","0","71","71","71","0","71","0","Sun Oct 24 21:17:06 2021","The main experiment item","yes","Sternbergtask.osexp","C:\Users\19565\Desktop","no","mono","no","18","no","white","no","yes","768","legacy","59","11","C:/Users/19565/Desktop/Lab 3/MR-subject-4.csv","legacy","2 8 9","Lentiform Loewenfeld","3.3.9","0","n","0","left","right","left","left","NA","1002","183749","1375","1002","NA","2","legacy","3","1024","2","48000","-16","experiment","4","even","6","642918","633262","640707","4183","270583","640709","639510","4187","269207","644922","645924","641713","187937","644922","NA","Sternberg task","59","65816","72","yes","1024"
"82.1917808219178","82.1917808219178","919.4657534246576","919.4657534246576","black","experiment","legacy","legacy","legacy","0","uniform","1","undefined","1","right","72","72","72","0","0","72","72","0","0","72","72","72","0","72","0","Sun Oct 24 21:17:06 2021","The main experiment item","yes","Sternbergtask.osexp","C:\Users\19565\Desktop","no","mono","no","18","no","white","no","yes","768","legacy","60","11","C:/Users/19565/Desktop/Lab 3/MR-subject-4.csv","legacy","8 2 1 4 5 9","Lentiform Loewenfeld","3.3.9","0","n","0","right","right","left","right","NA","1305","183749","1375","1305","NA","2","legacy","6","1024","2","48000","-16","experiment","4","even","7","649285","633262","647074","4183","270583","647076","645931","4187","269207","651289","652596","648080","187937","651289","NA","Sternberg task","60","67121","73","yes","1024"
"82.43243243243244","82.43243243243244","915.9054054054054","915.9054054054054","black","experiment","legacy","legacy","legacy","0","uniform","1","undefined","1","left","73","73","73","0","0","73","73","0","0","73","73","73","0","73","0","Sun Oct 24 21:17:06 2021","The main experiment item","yes","Sternbergtask.osexp","C:\Users\19565\Desktop","no","mono","no","18","no","white","no","yes","768","legacy","61","11","C:/Users/19565/Desktop/Lab 3/MR-subject-4.csv","legacy","7 4 2 6 3 5","Lentiform Loewenfeld","3.3.9","6","y","0","left","right","left","left","NA","656","183749","1375","656","NA","2","legacy","6","1024","2","48000","-16","experiment","4","even","5","656022","652605","653812","4183","270583","653815","645931","4187","269207","658027","658684","654817","187937","658027","NA","Sternberg task","61","67777","74","yes","1024"
"82.66666666666667","82.66666666666667","911.3466666666667","911.3466666666667","black","experiment","legacy","legacy","legacy","0","uniform","1","undefined","1","left","74","74","74","0","0","74","74","0","0","74","74","74","0","74","0","Sun Oct 24 21:17:06 2021","The main experiment item","yes","Sternbergtask.osexp","C:\Users\19565\Desktop","no","mono","no","18","no","white","no","yes","768","legacy","62","11","C:/Users/19565/Desktop/Lab 3/MR-subject-4.csv","legacy","2 3","Lentiform Loewenfeld","3.3.9","1","y","0","left","right","left","left","NA","574","183749","1375","574","NA","2","legacy","2","1024","2","48000","-16","experiment","4","even","2","662084","658691","659872","4183","270583","659875","645931","4187","269207","664088","664664","660879","187937","664088","NA","Sternberg task","62","68351","75","yes","1024"
"82.89473684210526","82.89473684210526","912.0131578947369","912.0131578947369","black","experiment","legacy","legacy","legacy","0","uniform","1","undefined","1","right","75","75","75","0","0","75","75","0","0","75","75","75","0","75","0","Sun Oct 24 21:17:06 2021","The main experiment item","yes","Sternbergtask.osexp","C:\Users\19565\Desktop","no","mono","no","18","no","white","no","yes","768","legacy","63","11","C:/Users/19565/Desktop/Lab 3/MR-subject-4.csv","legacy","6 9 7 3 8 2","Lentiform Loewenfeld","3.3.9","0","n","0","right","right","left","right","NA","962","183749","1375","962","NA","2","legacy","6","1024","2","48000","-16","experiment","4","even","5","668107","664673","665895","4183","270583","665898","645931","4187","269207","670112","671074","666903","187937","670112","NA","Sternberg task","63","69313","76","yes","1024"
"83.11688311688312","83.11688311688312","913.7402597402597","913.7402597402597","black","experiment","legacy","legacy","legacy","0","uniform","1","undefined","1","right","76","76","76","0","0","76","76","0","0","76","76","76","0","76","0","Sun Oct 24 21:17:06 2021","The main experiment item","yes","Sternbergtask.osexp","C:\Users\19565\Desktop","no","mono","no","18","no","white","no","yes","768","legacy","64","11","C:/Users/19565/Desktop/Lab 3/MR-subject-4.csv","legacy","2 8 7 9 5 3","Lentiform Loewenfeld","3.3.9","0","n","0","right","right","left","right","NA","1045","183749","1375","1045","NA","2","legacy","6","1024","2","48000","-16","experiment","4","even","6","674442","671081","672231","4183","270583","672233","645931","4187","269207","676446","677492","673237","187937","676446","NA","Sternberg task","64","70358","77","yes","1024"
"83.33333333333333","83.33333333333333","917.0512820512821","917.0512820512821","black","experiment","legacy","legacy","legacy","0","uniform","1","undefined","1","left","77","77","77","0","0","77","77","0","0","77","77","77","0","77","0","Sun Oct 24 21:17:06 2021","The main experiment item","yes","Sternbergtask.osexp","C:\Users\19565\Desktop","no","mono","no","18","no","white","no","yes","768","legacy","65","11","C:/Users/19565/Desktop/Lab 3/MR-subject-4.csv","legacy","6 9 3 1","Lentiform Loewenfeld","3.3.9","4","y","0","left","right","left","left","NA","1172","183749","1375","1172","NA","2","legacy","4","1024","2","48000","-16","experiment","4","even","1","680912","677499","678701","4183","270583","678703","645931","4187","269207","682916","684089","679707","187937","682916","NA","Sternberg task","65","71530","78","yes","1024"
"83.54430379746836","83.54430379746836","914.6455696202531","914.6455696202531","black","experiment","legacy","legacy","legacy","0","uniform","1","undefined","1","left","78","78","78","0","0","78","78","0","0","78","78","78","0","78","0","Sun Oct 24 21:17:06 2021","The main experiment item","yes","Sternbergtask.osexp","C:\Users\19565\Desktop","no","mono","no","18","no","white","no","yes","768","legacy","66","11","C:/Users/19565/Desktop/Lab 3/MR-subject-4.csv","legacy","8 9 6 1","Lentiform Loewenfeld","3.3.9","2","y","0","left","right","left","left","NA","727","183749","1375","727","NA","2","legacy","4","1024","2","48000","-16","experiment","4","even","9","687542","684095","685325","4183","270583","685330","645931","4187","269207","689546","690275","686336","187937","689546","NA","Sternberg task","66","72257","79","yes","1024"
"83.75","83.75","911.2125","911.2125","black","experiment","legacy","legacy","legacy","0","uniform","1","undefined","1","left","79","79","79","0","0","79","79","0","0","79","79","79","0","79","0","Sun Oct 24 21:17:06 2021","The main experiment item","yes","Sternbergtask.osexp","C:\Users\19565\Desktop","no","mono","no","18","no","white","no","yes","768","legacy","67","11","C:/Users/19565/Desktop/Lab 3/MR-subject-4.csv","legacy","6 2","Lentiform Loewenfeld","3.3.9","1","y","0","left","right","left","left","NA","640","183749","1375","640","NA","2","legacy","2","1024","2","48000","-16","experiment","4","even","6","693716","690283","691503","4183","270583","691507","645931","4187","269207","695720","696361","692512","187937","695720","NA","Sternberg task","67","72897","80","yes","1024"
"83.95061728395062","83.95061728395062","911.5802469135803","911.5802469135803","black","experiment","legacy","legacy","legacy","0","uniform","1","undefined","1","right","80","80","80","0","0","80","80","0","0","80","80","80","0","80","0","Sun Oct 24 21:17:06 2021","The main experiment item","yes","Sternbergtask.osexp","C:\Users\19565\Desktop","no","mono","no","18","no","white","no","yes","768","legacy","68","11","C:/Users/19565/Desktop/Lab 3/MR-subject-4.csv","legacy","8 5 7 3 6","Lentiform Loewenfeld","3.3.9","0","n","0","right","right","left","right","NA","941","183749","1375","941","NA","2","legacy","5","1024","2","48000","-16","experiment","4","even","9","699754","696371","697541","4183","270583","697544","645931","4187","269207","701759","702704","698549","187937","701758","NA","Sternberg task","68","73838","81","yes","1024"
"84.14634146341463","84.14634146341463","917.829268292683","917.829268292683","black","experiment","legacy","legacy","legacy","0","uniform","1","undefined","1","right","81","81","81","0","0","81","81","0","0","81","81","81","0","81","0","Sun Oct 24 21:17:06 2021","The main experiment item","yes","Sternbergtask.osexp","C:\Users\19565\Desktop","no","mono","no","18","no","white","no","yes","768","legacy","69","11","C:/Users/19565/Desktop/Lab 3/MR-subject-4.csv","legacy","1 6 4 3 9 7","Lentiform Loewenfeld","3.3.9","0","n","0","right","right","left","right","NA","1424","183749","1375","1424","NA","2","legacy","6","1024","2","48000","-16","experiment","4","even","8","706149","702727","703938","4183","270583","703941","645931","4187","269207","708154","709579","704945","187937","708154","NA","Sternberg task","69","75262","82","yes","1024"
"84.33734939759036","84.33734939759036","916.9397590361446","916.9397590361446","black","experiment","legacy","legacy","legacy","0","uniform","1","undefined","1","right","82","82","82","0","0","82","82","0","0","82","82","82","0","82","0","Sun Oct 24 21:17:06 2021","The main experiment item","yes","Sternbergtask.osexp","C:\Users\19565\Desktop","no","mono","no","18","no","white","no","yes","768","legacy","70","11","C:/Users/19565/Desktop/Lab 3/MR-subject-4.csv","legacy","2 8 9 4 1","Lentiform Loewenfeld","3.3.9","0","n","0","right","right","left","right","NA","844","183749","1375","844","NA","2","legacy","5","1024","2","48000","-16","experiment","4","even","5","712956","709585","710745","4183","270583","710747","645931","4187","269207","714960","715806","711750","187937","714960","NA","Sternberg task","70","76106","83","yes","1024"
"84.52380952380952","84.52380952380952","918.1428571428571","918.1428571428571","black","experiment","legacy","legacy","legacy","0","uniform","1","undefined","1","left","83","83","83","0","0","83","83","0","0","83","83","83","0","83","0","Sun Oct 24 21:17:06 2021","The main experiment item","yes","Sternbergtask.osexp","C:\Users\19565\Desktop","no","mono","no","18","no","white","no","yes","768","legacy","71","11","C:/Users/19565/Desktop/Lab 3/MR-subject-4.csv","legacy","3 9 7 6 4","Lentiform Loewenfeld","3.3.9","3","y","0","left","right","left","left","NA","1018","183749","1375","1018","NA","2","legacy","5","1024","2","48000","-16","experiment","4","even","7","719184","715812","716973","4183","270583","716976","645931","4187","269207","721189","722210","717980","187937","721189","NA","Sternberg task","71","77124","84","yes","1024"
"84.70588235294117","84.70588235294117","917.8823529411765","917.8823529411765","black","experiment","legacy","legacy","legacy","0","uniform","1","undefined","1","left","84","84","84","0","0","84","84","0","0","84","84","84","0","84","0","Sun Oct 24 21:17:06 2021","The main experiment item","yes","Sternbergtask.osexp","C:\Users\19565\Desktop","no","mono","no","18","no","white","no","yes","768","legacy","72","11","C:/Users/19565/Desktop/Lab 3/MR-subject-4.csv","legacy","3 5 7 1","Lentiform Loewenfeld","3.3.9","3","y","0","left","right","left","left","NA","896","183749","1375","896","NA","2","legacy","4","1024","2","48000","-16","experiment","4","even","7","725616","722219","723403","4183","270583","723406","645931","4187","269207","727621","728520","724411","187937","727619","NA","Sternberg task","72","78020","85","yes","1024"
"84.88372093023256","84.88372093023256","914.9186046511628","914.9186046511628","black","experiment","legacy","legacy","legacy","0","uniform","1","undefined","1","right","85","85","85","0","0","85","85","0","0","85","85","85","0","85","0","Sun Oct 24 21:17:06 2021","The main experiment item","yes","Sternbergtask.osexp","C:\Users\19565\Desktop","no","mono","no","18","no","white","no","yes","768","legacy","73","11","C:/Users/19565/Desktop/Lab 3/MR-subject-4.csv","legacy","6 8 4","Lentiform Loewenfeld","3.3.9","0","n","0","right","right","left","right","NA","663","183749","1375","663","NA","2","legacy","3","1024","2","48000","-16","experiment","4","even","1","731930","728544","729718","4183","270583","729722","645931","4187","269207","733935","734600","730726","187937","733934","NA","Sternberg task","73","78683","86","yes","1024"
"85.05747126436782","85.05747126436782","910.9080459770115","910.9080459770115","black","experiment","legacy","legacy","legacy","0","uniform","1","undefined","1","left","86","86","86","0","0","86","86","0","0","86","86","86","0","86","0","Sun Oct 24 21:17:06 2021","The main experiment item","yes","Sternbergtask.osexp","C:\Users\19565\Desktop","no","mono","no","18","no","white","no","yes","768","legacy","74","11","C:/Users/19565/Desktop/Lab 3/MR-subject-4.csv","legacy","8 3","Lentiform Loewenfeld","3.3.9","2","y","0","left","right","left","left","NA","566","183749","1375","566","NA","2","legacy","2","1024","2","48000","-16","experiment","4","even","3","738028","734609","735816","4183","270583","735820","645931","4187","269207","740035","740603","736824","187937","740034","NA","Sternberg task","74","79249","87","yes","1024"
"85.22727272727273","85.22727272727273","907.9772727272727","907.9772727272727","black","experiment","legacy","legacy","legacy","0","uniform","1","undefined","1","left","87","87","87","0","0","87","87","0","0","87","87","87","0","87","0","Sun Oct 24 21:17:06 2021","The main experiment item","yes","Sternbergtask.osexp","C:\Users\19565\Desktop","no","mono","no","18","no","white","no","yes","768","legacy","75","11","C:/Users/19565/Desktop/Lab 3/MR-subject-4.csv","legacy","6 5","Lentiform Loewenfeld","3.3.9","2","y","0","left","right","left","left","NA","653","183749","1375","653","NA","2","legacy","2","1024","2","48000","-16","experiment","4","even","5","744048","740612","741835","4183","270583","741838","645931","4187","269207","746054","746709","742843","187937","746054","NA","Sternberg task","75","79902","88","yes","1024"
"85.3932584269663","85.3932584269663","905.8089887640449","905.8089887640449","black","experiment","legacy","legacy","legacy","0","uniform","1","undefined","1","left","88","88","88","0","0","88","88","0","0","88","88","88","0","88","0","Sun Oct 24 21:17:06 2021","The main experiment item","yes","Sternbergtask.osexp","C:\Users\19565\Desktop","no","mono","no","18","no","white","no","yes","768","legacy","76","11","C:/Users/19565/Desktop/Lab 3/MR-subject-4.csv","legacy","8 7 3","Lentiform Loewenfeld","3.3.9","1","y","0","left","right","left","left","NA","715","183749","1375","715","NA","2","legacy","3","1024","2","48000","-16","experiment","4","even","8","750144","746714","747933","4183","270583","747937","645931","4187","269207","752149","752866","748941","187937","752149","NA","Sternberg task","76","80617","89","yes","1024"
"85.55555555555556","85.55555555555556","901.7666666666667","901.7666666666667","black","experiment","legacy","legacy","legacy","0","uniform","1","undefined","1","left","89","89","89","0","0","89","89","0","0","89","89","89","0","89","0","Sun Oct 24 21:17:06 2021","The main experiment item","yes","Sternbergtask.osexp","C:\Users\19565\Desktop","no","mono","no","18","no","white","no","yes","768","legacy","77","11","C:/Users/19565/Desktop/Lab 3/MR-subject-4.csv","legacy","6 9 7 4 5 1","Lentiform Loewenfeld","3.3.9","2","y","0","left","right","left","left","NA","542","183749","1375","542","NA","2","legacy","6","1024","2","48000","-16","experiment","4","even","9","756268","752871","754057","4183","270583","754059","645931","4187","269207","758272","758817","755063","187937","758272","NA","Sternberg task","77","81159","90","yes","1024"
"85.71428571428571","85.71428571428571","900.7252747252747","900.7252747252747","black","experiment","legacy","legacy","legacy","0","uniform","1","undefined","1","left","90","90","90","0","0","90","90","0","0","90","90","90","0","90","0","Sun Oct 24 21:17:06 2021","The main experiment item","yes","Sternbergtask.osexp","C:\Users\19565\Desktop","no","mono","no","18","no","white","no","yes","768","legacy","78","11","C:/Users/19565/Desktop/Lab 3/MR-subject-4.csv","legacy","3 2 1 4 7","Lentiform Loewenfeld","3.3.9","2","y","0","left","right","left","left","NA","807","183749","1375","807","NA","2","legacy","5","1024","2","48000","-16","experiment","4","even","2","762220","758826","760009","4183","270583","760011","645931","4187","269207","764226","765034","761015","187937","764225","NA","Sternberg task","78","81966","91","yes","1024"
"85.8695652173913","85.8695652173913","897.8260869565217","897.8260869565217","black","experiment","legacy","legacy","legacy","0","uniform","1","undefined","1","left","91","91","91","0","0","91","91","0","0","91","91","91","0","91","0","Sun Oct 24 21:17:06 2021","The main experiment item","yes","Sternbergtask.osexp","C:\Users\19565\Desktop","no","mono","no","18","no","white","no","yes","768","legacy","79","11","C:/Users/19565/Desktop/Lab 3/MR-subject-4.csv","legacy","9 3 1 2 5","Lentiform Loewenfeld","3.3.9","4","y","0","left","right","left","left","NA","634","183749","1375","634","NA","2","legacy","5","1024","2","48000","-16","experiment","4","even","2","768430","765039","766215","4183","270583","766220","645931","4187","269207","770435","771070","767226","187937","770435","NA","Sternberg task","79","82600","92","yes","1024"
"86.02150537634408","86.02150537634408","893.1720430107526","893.1720430107526","black","experiment","legacy","legacy","legacy","0","uniform","1","undefined","1","left","92","92","92","0","0","92","92","0","0","92","92","92","0","92","0","Sun Oct 24 21:17:06 2021","The main experiment item","yes","Sternbergtask.osexp","C:\Users\19565\Desktop","no","mono","no","18","no","white","no","yes","768","legacy","80","11","C:/Users/19565/Desktop/Lab 3/MR-subject-4.csv","legacy","4","Lentiform Loewenfeld","3.3.9","1","y","0","left","right","left","left","NA","465","183749","1375","465","NA","2","legacy","1","1024","2","48000","-16","experiment","4","even","4","774476","771076","772264","4183","270583","772266","645931","4187","269207","776482","776948","773271","187937","776482","NA","Sternberg task","80","83065","93","yes","1024"
"86.17021276595744","86.17021276595744","892.6914893617021","892.6914893617021","black","experiment","legacy","legacy","legacy","0","uniform","1","undefined","1","right","93","93","93","0","0","93","93","0","0","93","93","93","0","93","0","Sun Oct 24 21:17:06 2021","The main experiment item","yes","Sternbergtask.osexp","C:\Users\19565\Desktop","no","mono","no","18","no","white","no","yes","768","legacy","81","11","C:/Users/19565/Desktop/Lab 3/MR-subject-4.csv","legacy","3 4 2","Lentiform Loewenfeld","3.3.9","0","n","0","right","right","left","right","NA","848","183749","1375","848","NA","2","legacy","3","1024","2","48000","-16","experiment","4","even","5","780432","776955","778218","4183","270583","778223","645931","4187","269207","782438","783289","779227","187937","782438","NA","Sternberg task","81","83913","94","yes","1024"
"86.3157894736842","86.3157894736842","895.2210526315789","895.2210526315789","black","experiment","legacy","legacy","legacy","0","uniform","1","undefined","1","right","94","94","94","0","0","94","94","0","0","94","94","94","0","94","0","Sun Oct 24 21:17:06 2021","The main experiment item","yes","Sternbergtask.osexp","C:\Users\19565\Desktop","no","mono","no","18","no","white","no","yes","768","legacy","82","11","C:/Users/19565/Desktop/Lab 3/MR-subject-4.csv","legacy","1 8 7","Lentiform Loewenfeld","3.3.9","0","n","0","right","right","left","right","NA","1133","183749","1375","1133","NA","2","legacy","3","1024","2","48000","-16","experiment","4","even","4","786694","783314","784484","4183","270583","784488","645931","4187","269207","788698","789832","785490","187937","788698","NA","Sternberg task","82","85046","95","yes","1024"
"86.45833333333333","86.45833333333333","893.0729166666666","893.0729166666666","black","experiment","legacy","legacy","legacy","0","uniform","1","undefined","1","left","95","95","95","0","0","95","95","0","0","95","95","95","0","95","0","Sun Oct 24 21:17:06 2021","The main experiment item","yes","Sternbergtask.osexp","C:\Users\19565\Desktop","no","mono","no","18","no","white","no","yes","768","legacy","83","11","C:/Users/19565/Desktop/Lab 3/MR-subject-4.csv","legacy","2 6 1 7 4","Lentiform Loewenfeld","3.3.9","2","y","0","left","right","left","left","NA","689","183749","1375","689","NA","2","legacy","5","1024","2","48000","-16","experiment","4","even","6","793264","789838","791050","4183","270583","791054","645931","4187","269207","795268","795958","792058","187937","795268","NA","Sternberg task","83","85735","96","yes","1024"
"85.56701030927834","85.56701030927834","896.340206185567","896.340206185567","black","experiment","legacy","legacy","legacy","0","uniform","0","undefined","0","right","96","96","96","0","0","96","96","0","0","96","96","96","0","96","0","Sun Oct 24 21:17:06 2021","The main experiment item","yes","Sternbergtask.osexp","C:\Users\19565\Desktop","no","mono","no","18","no","white","no","yes","768","legacy","84","11","C:/Users/19565/Desktop/Lab 3/MR-subject-4.csv","legacy","5 3 2 6 9 8","Lentiform Loewenfeld","3.3.9","0","n","0","left","right","left","left","NA","1210","183749","1375","1210","NA","2","legacy","6","1024","2","48000","-16","experiment","4","even","4","799404","795964","797192","4183","270583","797195","645931","4187","269207","801409","802623","798199","187937","801408","NA","Sternberg task","83","86945","97","yes","1024"
"85.71428571428571","85.71428571428571","896.9897959183673","896.9897959183673","black","experiment","legacy","legacy","legacy","0","uniform","1","undefined","1","right","97","97","97","0","0","97","97","0","0","97","97","97","0","97","0","Sun Oct 24 21:17:06 2021","The main experiment item","yes","Sternbergtask.osexp","C:\Users\19565\Desktop","no","mono","no","18","no","white","no","yes","768","legacy","85","11","C:/Users/19565/Desktop/Lab 3/MR-subject-4.csv","legacy","6 9 4 5 2","Lentiform Loewenfeld","3.3.9","0","n","0","right","right","left","right","NA","960","183749","1375","960","NA","2","legacy","5","1024","2","48000","-16","experiment","4","even","1","806015","795964","803802","4183","270583","803805","802629","4187","269207","808021","808983","804811","187937","808020","NA","Sternberg task","84","87905","98","yes","1024"
"85.85858585858585","85.85858585858585","897.5050505050505","897.5050505050505","black","experiment","legacy","legacy","legacy","0","uniform","1","undefined","1","left","98","98","98","0","0","98","98","0","0","98","98","98","0","98","0","Sun Oct 24 21:17:06 2021","The main experiment item","yes","Sternbergtask.osexp","C:\Users\19565\Desktop","no","mono","no","18","no","white","no","yes","768","legacy","86","11","C:/Users/19565/Desktop/Lab 3/MR-subject-4.csv","legacy","5 7 3 6 2","Lentiform Loewenfeld","3.3.9","5","y","0","left","right","left","left","NA","948","183749","1375","948","NA","2","legacy","5","1024","2","48000","-16","experiment","4","even","2","812385","808988","810174","4183","270583","810176","802629","4187","269207","814390","815341","811180","187937","814389","NA","Sternberg task","85","88853","99","yes","1024"
"85","85","899.74","899.74","black","experiment","legacy","legacy","legacy","0","uniform","0","undefined","0","right","99","99","99","0","0","99","99","0","0","99","99","99","0","99","0","Sun Oct 24 21:17:06 2021","The main experiment item","yes","Sternbergtask.osexp","C:\Users\19565\Desktop","no","mono","no","18","no","white","no","yes","768","legacy","87","11","C:/Users/19565/Desktop/Lab 3/MR-subject-4.csv","legacy","7 3 2 8","Lentiform Loewenfeld","3.3.9","0","n","0","left","right","left","left","NA","1121","183749","1375","1121","NA","2","legacy","4","1024","2","48000","-16","experiment","4","even","4","818782","815350","816569","4183","270583","816574","802629","4187","269207","820788","821912","817578","187937","820787","NA","Sternberg task","85","89974","100","yes","1024"
"85.14851485148515","85.14851485148515","897.4554455445544","897.4554455445544","black","experiment","legacy","legacy","legacy","0","uniform","1","undefined","1","left","100","100","100","0","0","100","100","0","0","100","100","100","0","100","0","Sun Oct 24 21:17:06 2021","The main experiment item","yes","Sternbergtask.osexp","C:\Users\19565\Desktop","no","mono","no","18","no","white","no","yes","768","legacy","88","11","C:/Users/19565/Desktop/Lab 3/MR-subject-4.csv","legacy","5 7 8 2 3 8","Lentiform Loewenfeld","3.3.9","5","y","0","left","right","left","left","NA","669","183749","1375","669","NA","2","legacy","6","1024","2","48000","-16","experiment","4","even","3","825276","815350","823064","4183","270583","823066","821921","4187","269207","827279","827950","824071","187937","827279","NA","Sternberg task","86","90643","101","yes","1024"
"85.29411764705883","85.29411764705883","898.3725490196078","898.3725490196078","black","experiment","legacy","legacy","legacy","0","uniform","1","undefined","1","right","101","101","101","0","0","101","101","0","0","101","101","101","0","101","0","Sun Oct 24 21:17:06 2021","The main experiment item","yes","Sternbergtask.osexp","C:\Users\19565\Desktop","no","mono","no","18","no","white","no","yes","768","legacy","89","11","C:/Users/19565/Desktop/Lab 3/MR-subject-4.csv","legacy","3 9 8 1 6 4","Lentiform Loewenfeld","3.3.9","0","n","0","right","right","left","right","NA","991","183749","1375","991","NA","2","legacy","6","1024","2","48000","-16","experiment","4","even","7","831340","827955","829127","4183","270583","829131","821921","4187","269207","833345","834338","830135","187937","833345","NA","Sternberg task","87","91634","102","yes","1024"
"85.4368932038835","85.4368932038835","897.1941747572815","897.1941747572815","black","experiment","legacy","legacy","legacy","0","uniform","1","undefined","1","right","102","102","102","0","0","102","102","0","0","102","102","102","0","102","0","Sun Oct 24 21:17:06 2021","The main experiment item","yes","Sternbergtask.osexp","C:\Users\19565\Desktop","no","mono","no","18","no","white","no","yes","768","legacy","90","11","C:/Users/19565/Desktop/Lab 3/MR-subject-4.csv","legacy","9","Lentiform Loewenfeld","3.3.9","0","n","0","right","right","left","right","NA","777","183749","1375","777","NA","2","legacy","1","1024","2","48000","-16","experiment","4","even","6","837719","834344","835508","4183","270583","835510","821921","4187","269207","839725","840504","836515","187937","839725","NA","Sternberg task","88","92411","103","yes","1024"
"85.57692307692308","85.57692307692308","894.8076923076923","894.8076923076923","black","experiment","legacy","legacy","legacy","0","uniform","1","undefined","1","left","103","103","103","0","0","103","103","0","0","103","103","103","0","103","0","Sun Oct 24 21:17:06 2021","The main experiment item","yes","Sternbergtask.osexp","C:\Users\19565\Desktop","no","mono","no","18","no","white","no","yes","768","legacy","91","11","C:/Users/19565/Desktop/Lab 3/MR-subject-4.csv","legacy","7 8 6 3 1","Lentiform Loewenfeld","3.3.9","5","y","0","left","right","left","left","NA","649","183749","1375","649","NA","2","legacy","5","1024","2","48000","-16","experiment","4","even","1","843938","840510","841726","4183","270583","841729","821921","4187","269207","845942","846594","842733","187937","845942","NA","Sternberg task","89","93060","104","yes","1024"
"84.76190476190476","84.76190476190476","895.1238095238095","895.1238095238095","black","experiment","legacy","legacy","legacy","0","uniform","0","undefined","0","left","104","104","104","0","0","104","104","0","0","104","104","104","0","104","0","Sun Oct 24 21:17:06 2021","The main experiment item","yes","Sternbergtask.osexp","C:\Users\19565\Desktop","no","mono","no","18","no","white","no","yes","768","legacy","92","11","C:/Users/19565/Desktop/Lab 3/MR-subject-4.csv","legacy","5 2 9 6 1 7","Lentiform Loewenfeld","3.3.9","3","y","0","right","right","left","right","NA","928","183749","1375","928","NA","2","legacy","6","1024","2","48000","-16","experiment","4","even","9","850023","846604","847810","4183","270583","847812","821921","4187","269207","852028","852958","848818","187937","852027","NA","Sternberg task","89","93988","105","yes","1024"
"84.90566037735849","84.90566037735849","891.7264150943396","891.7264150943396","black","experiment","legacy","legacy","legacy","0","uniform","1","undefined","1","left","105","105","105","0","0","105","105","0","0","105","105","105","0","105","0","Sun Oct 24 21:17:06 2021","The main experiment item","yes","Sternbergtask.osexp","C:\Users\19565\Desktop","no","mono","no","18","no","white","no","yes","768","legacy","93","11","C:/Users/19565/Desktop/Lab 3/MR-subject-4.csv","legacy","1 4 9 3 2 5","Lentiform Loewenfeld","3.3.9","3","y","0","left","right","left","left","NA","535","183749","1375","535","NA","2","legacy","6","1024","2","48000","-16","experiment","4","even","9","856356","846604","854144","4183","270583","854146","852967","4187","269207","858362","858899","855151","187937","858361","NA","Sternberg task","90","94523","106","yes","1024"
"85.04672897196262","85.04672897196262","888.981308411215","888.981308411215","black","experiment","legacy","legacy","legacy","0","uniform","1","undefined","1","left","106","106","106","0","0","106","106","0","0","106","106","106","0","106","0","Sun Oct 24 21:17:06 2021","The main experiment item","yes","Sternbergtask.osexp","C:\Users\19565\Desktop","no","mono","no","18","no","white","no","yes","768","legacy","94","11","C:/Users/19565/Desktop/Lab 3/MR-subject-4.csv","legacy","2 3 7 4","Lentiform Loewenfeld","3.3.9","1","y","0","left","right","left","left","NA","598","183749","1375","598","NA","2","legacy","4","1024","2","48000","-16","experiment","4","even","2","862295","858906","860084","4183","270583","860086","852967","4187","269207","864301","864900","861090","187937","864300","NA","Sternberg task","91","95121","107","yes","1024"
"85.18518518518519","85.18518518518519","886.8518518518518","886.8518518518518","black","experiment","legacy","legacy","legacy","0","uniform","1","undefined","1","left","107","107","107","0","0","107","107","0","0","107","107","107","0","107","0","Sun Oct 24 21:17:06 2021","The main experiment item","yes","Sternbergtask.osexp","C:\Users\19565\Desktop","no","mono","no","18","no","white","no","yes","768","legacy","95","11","C:/Users/19565/Desktop/Lab 3/MR-subject-4.csv","legacy","6 1 2","Lentiform Loewenfeld","3.3.9","3","y","0","left","right","left","left","NA","659","183749","1375","659","NA","2","legacy","3","1024","2","48000","-16","experiment","4","even","2","868341","864907","866128","4183","270583","866132","852967","4187","269207","870346","871006","867136","187937","870345","NA","Sternberg task","92","95780","108","yes","1024"
"85.3211009174312","85.3211009174312","883.954128440367","883.954128440367","black","experiment","legacy","legacy","legacy","0","uniform","1","undefined","1","left","108","108","108","0","0","108","108","0","0","108","108","108","0","108","0","Sun Oct 24 21:17:06 2021","The main experiment item","yes","Sternbergtask.osexp","C:\Users\19565\Desktop","no","mono","no","18","no","white","no","yes","768","legacy","96","11","C:/Users/19565/Desktop/Lab 3/MR-subject-4.csv","legacy","6 7 9 3 1 2","Lentiform Loewenfeld","3.3.9","1","y","0","left","right","left","left","NA","571","183749","1375","571","NA","2","legacy","6","1024","2","48000","-16","experiment","4","even","6","874364","871013","872152","4183","270583","872154","852967","4187","269207","876368","876940","873159","187937","876368","NA","Sternberg task","93","96351","109","yes","1024"
"85.45454545454545","85.45454545454545","882.5","882.5","black","experiment","legacy","legacy","legacy","0","uniform","1","undefined","1","right","109","109","109","0","0","109","109","0","0","109","109","109","0","109","0","Sun Oct 24 21:17:06 2021","The main experiment item","yes","Sternbergtask.osexp","C:\Users\19565\Desktop","no","mono","no","18","no","white","no","yes","768","legacy","97","11","C:/Users/19565/Desktop/Lab 3/MR-subject-4.csv","legacy","1","Lentiform Loewenfeld","3.3.9","0","n","0","right","right","left","right","NA","724","183749","1375","724","NA","2","legacy","1","1024","2","48000","-16","experiment","4","even","7","880296","876947","878085","4183","270583","878087","852967","4187","269207","882302","883029","879092","187937","882301","NA","Sternberg task","94","97075","110","yes","1024"
"85.58558558558559","85.58558558558559","881.9009009009009","881.9009009009009","black","experiment","legacy","legacy","legacy","0","uniform","1","undefined","1","left","110","110","110","0","0","110","110","0","0","110","110","110","0","110","0","Sun Oct 24 21:17:06 2021","The main experiment item","yes","Sternbergtask.osexp","C:\Users\19565\Desktop","no","mono","no","18","no","white","no","yes","768","legacy","98","11","C:/Users/19565/Desktop/Lab 3/MR-subject-4.csv","legacy","8 9 5 6 7","Lentiform Loewenfeld","3.3.9","1","y","0","left","right","left","left","NA","816","183749","1375","816","NA","2","legacy","5","1024","2","48000","-16","experiment","4","even","8","886488","883053","884275","4183","270583","884279","852967","4187","269207","888494","889312","885283","187937","888494","NA","Sternberg task","95","97891","111","yes","1024"
"85.71428571428571","85.71428571428571","881.3214285714286","881.3214285714286","black","experiment","legacy","legacy","legacy","0","uniform","1","undefined","1","right","111","111","111","0","0","111","111","0","0","111","111","111","0","111","0","Sun Oct 24 21:17:06 2021","The main experiment item","yes","Sternbergtask.osexp","C:\Users\19565\Desktop","no","mono","no","18","no","white","no","yes","768","legacy","99","11","C:/Users/19565/Desktop/Lab 3/MR-subject-4.csv","legacy","9 8 2 7 4","Lentiform Loewenfeld","3.3.9","0","n","0","right","right","left","right","NA","817","183749","1375","817","NA","2","legacy","5","1024","2","48000","-16","experiment","4","even","5","892730","889318","890518","4183","270583","890521","852967","4187","269207","894736","895555","891525","187937","894736","NA","Sternberg task","96","98708","112","yes","1024"
"84.95575221238938","84.95575221238938","882.1769911504425","882.1769911504425","black","experiment","legacy","legacy","legacy","0","uniform","0","undefined","0","right","112","112","112","0","0","112","112","0","0","112","112","112","0","112","0","Sun Oct 24 21:17:06 2021","The main experiment item","yes","Sternbergtask.osexp","C:\Users\19565\Desktop","no","mono","no","18","no","white","no","yes","768","legacy","100","11","C:/Users/19565/Desktop/Lab 3/MR-subject-4.csv","legacy","5 9 2 3","Lentiform Loewenfeld","3.3.9","0","n","0","left","right","left","left","NA","978","183749","1375","978","NA","2","legacy","4","1024","2","48000","-16","experiment","4","even","8","898983","895564","896771","4183","270583","896774","852967","4187","269207","900988","901967","897778","187937","900988","NA","Sternberg task","96","99686","113","yes","1024"
"85.08771929824562","85.08771929824562","882.280701754386","882.280701754386","black","experiment","legacy","legacy","legacy","0","uniform","1","undefined","1","right","113","113","113","0","0","113","113","0","0","113","113","113","0","113","0","Sun Oct 24 21:17:06 2021","The main experiment item","yes","Sternbergtask.osexp","C:\Users\19565\Desktop","no","mono","no","18","no","white","no","yes","768","legacy","101","11","C:/Users/19565/Desktop/Lab 3/MR-subject-4.csv","legacy","6 3 1 7 9 8","Lentiform Loewenfeld","3.3.9","0","n","0","right","right","left","right","NA","894","183749","1375","894","NA","2","legacy","6","1024","2","48000","-16","experiment","4","even","4","905429","895564","903216","4183","270583","903221","901973","4187","269207","907433","908328","904226","187937","907433","NA","Sternberg task","97","100580","114","yes","1024"
"85.21739130434783","85.21739130434783","881.6782608695652","881.6782608695652","black","experiment","legacy","legacy","legacy","0","uniform","1","undefined","1","right","114","114","114","0","0","114","114","0","0","114","114","114","0","114","0","Sun Oct 24 21:17:06 2021","The main experiment item","yes","Sternbergtask.osexp","C:\Users\19565\Desktop","no","mono","no","18","no","white","no","yes","768","legacy","102","11","C:/Users/19565/Desktop/Lab 3/MR-subject-4.csv","legacy","6 7 5 9","Lentiform Loewenfeld","3.3.9","0","n","0","right","right","left","right","NA","813","183749","1375","813","NA","2","legacy","4","1024","2","48000","-16","experiment","4","even","2","911786","908337","909572","4183","270583","909576","901973","4187","269207","913790","914606","910581","187937","913790","NA","Sternberg task","98","101393","115","yes","1024"
"85.34482758620689","85.34482758620689","880.5689655172414","880.5689655172414","black","experiment","legacy","legacy","legacy","0","uniform","1","undefined","1","right","115","115","115","0","0","115","115","0","0","115","115","115","0","115","0","Sun Oct 24 21:17:06 2021","The main experiment item","yes","Sternbergtask.osexp","C:\Users\19565\Desktop","no","mono","no","18","no","white","no","yes","768","legacy","103","11","C:/Users/19565/Desktop/Lab 3/MR-subject-4.csv","legacy","8 4 3 5","Lentiform Loewenfeld","3.3.9","0","n","0","right","right","left","right","NA","753","183749","1375","753","NA","2","legacy","4","1024","2","48000","-16","experiment","4","even","6","918035","914614","915824","4183","270583","915827","901973","4187","269207","920039","920793","916831","187937","920039","NA","Sternberg task","99","102146","116","yes","1024"
"84.61538461538461","84.61538461538461","879.3247863247864","879.3247863247864","black","experiment","legacy","legacy","legacy","0","uniform","0","undefined","0","left","116","116","116","0","0","116","116","0","0","116","116","116","0","116","0","Sun Oct 24 21:17:06 2021","The main experiment item","yes","Sternbergtask.osexp","C:\Users\19565\Desktop","no","mono","no","18","no","white","no","yes","768","legacy","104","11","C:/Users/19565/Desktop/Lab 3/MR-subject-4.csv","legacy","3 5 9 6 2 4","Lentiform Loewenfeld","3.3.9","1","y","0","right","right","left","right","NA","735","183749","1375","735","NA","2","legacy","6","1024","2","48000","-16","experiment","4","even","3","924207","920800","921995","4183","270583","921999","901973","4187","269207","926212","926950","923003","187937","926212","NA","Sternberg task","99","102881","117","yes","1024"
"83.89830508474576","83.89830508474576","879.1949152542373","879.1949152542373","black","experiment","legacy","legacy","legacy","0","uniform","0","undefined","0","right","117","117","117","0","0","117","117","0","0","117","117","117","0","117","0","Sun Oct 24 21:17:06 2021","The main experiment item","yes","Sternbergtask.osexp","C:\Users\19565\Desktop","no","mono","no","18","no","white","no","yes","768","legacy","105","11","C:/Users/19565/Desktop/Lab 3/MR-subject-4.csv","legacy","2 8 6 3 1","Lentiform Loewenfeld","3.3.9","0","n","0","left","right","left","left","NA","864","183749","1375","864","NA","2","legacy","5","1024","2","48000","-16","experiment","4","even","7","930378","920800","928165","4183","270583","928168","926959","4187","269207","932382","933248","929172","187937","932381","NA","Sternberg task","99","103745","118","yes","1024"
