acc,accuracy,average_response_time,avg_rt,background,block,canvas_backend,clock_backend,color_backend,compensation,coordinates,correct,correct_Instruction1,correct_keyboard_response,correct_response,count_ISI,count_Instruction1,count_Instructions2,count_correctFeedback,count_expSequence,count_experiment,count_experimentLoop,count_fixation,count_incorrectFeedback,count_keyboard_response,count_logger,count_memorySet,count_practiceloop,count_probe,count_thankYou,datetime,description,disable_garbage_collection,experiment_file,experiment_path,font_bold,font_family,font_italic,font_size,font_underline,foreground,form_clicks,fullscreen,height,keyboard_backend,live_row,live_row_practiceloop,logfile,mouse_backend,numberSet,opensesame_codename,opensesame_version,posInSet,present,repeat_cycle,response,response_Instruction1,response_Instructions2,response_keyboard_response,response_thankYou,response_time,response_time_Instruction1,response_time_Instructions2,response_time_keyboard_response,response_time_thankYou,round_decimals,sampler_backend,setSize,sound_buf_size,sound_channels,sound_freq,sound_sample_size,start,subject_nr,subject_parity,target,time_ISI,time_Instruction1,time_Instructions2,time_correctFeedback,time_expSequence,time_experiment,time_experimentLoop,time_fixation,time_incorrectFeedback,time_keyboard_response,time_logger,time_memorySet,time_practiceloop,time_probe,time_thankYou,title,total_correct,total_response_time,total_responses,uniform_coordinates,width
0,0,2000,2000,black,practice,legacy,legacy,legacy,0,uniform,0,undefined,0,right,0,0,0,0,0,0,0,0,0,0,0,0,0,0,0,Sun Oct 27 19:01:07 2019,The main experiment item,yes,SternnbergTask.osexp,/Users/kaylicolpitts/Desktop/adv quant/lab 3,no,mono,no,18,no,white,no,yes,768,legacy,0,0,/Users/kaylicolpitts/Desktop/adv quant/lab 3/KC-subject-2.csv,legacy,4 1 5,Kafkaesque Koffka,3.2.8,0,n,0,None,left,NA,None,NA,2000,37077,NA,2000,NA,2,legacy,3,1024,2,48000,-16,experiment,2,even,2,43557,3836,NA,NA,41319,3817,NA,41331,NA,45571,47571,42343,40925,45571,NA,Sternberg Task,0,2000,1,yes,1024
0,0,2000,2000,black,practice,legacy,legacy,legacy,0,uniform,0,undefined,0,right,1,0,0,1,1,0,0,1,1,1,1,1,0,1,0,Sun Oct 27 19:01:07 2019,The main experiment item,yes,SternnbergTask.osexp,/Users/kaylicolpitts/Desktop/adv quant/lab 3,no,mono,no,18,no,white,no,yes,768,legacy,1,1,/Users/kaylicolpitts/Desktop/adv quant/lab 3/KC-subject-2.csv,legacy,5,Kafkaesque Koffka,3.2.8,0,n,0,None,left,NA,None,NA,2000,37077,NA,2000,NA,2,legacy,1,1024,2,48000,-16,experiment,2,even,3,51013,3836,NA,NA,48773,3817,NA,48784,47640,53025,55025,49799,40925,53025,NA,Sternberg Task,0,4000,2,yes,1024
0,0,2000,2000,black,practice,legacy,legacy,legacy,0,uniform,0,undefined,0,left,2,0,0,2,2,0,0,2,2,2,2,2,0,2,0,Sun Oct 27 19:01:07 2019,The main experiment item,yes,SternnbergTask.osexp,/Users/kaylicolpitts/Desktop/adv quant/lab 3,no,mono,no,18,no,white,no,yes,768,legacy,2,2,/Users/kaylicolpitts/Desktop/adv quant/lab 3/KC-subject-2.csv,legacy,4 3 1 7 9 8,Kafkaesque Koffka,3.2.8,1,y,0,None,left,NA,None,NA,2000,37077,NA,2000,NA,2,legacy,6,1024,2,48000,-16,experiment,2,even,4,58390,3836,NA,NA,56149,3817,NA,56163,55039,60402,62402,57175,40925,60402,NA,Sternberg Task,0,6000,3,yes,1024
0,0,2000,2000,black,practice,legacy,legacy,legacy,0,uniform,0,undefined,0,left,3,0,0,3,3,0,0,3,3,3,3,3,0,3,0,Sun Oct 27 19:01:07 2019,The main experiment item,yes,SternnbergTask.osexp,/Users/kaylicolpitts/Desktop/adv quant/lab 3,no,mono,no,18,no,white,no,yes,768,legacy,3,3,/Users/kaylicolpitts/Desktop/adv quant/lab 3/KC-subject-2.csv,legacy,6,Kafkaesque Koffka,3.2.8,1,y,0,None,left,NA,None,NA,2000,37077,NA,2000,NA,2,legacy,1,1024,2,48000,-16,experiment,2,even,6,65765,3836,NA,NA,63524,3817,NA,63536,62419,67778,69778,64550,40925,67778,NA,Sternberg Task,0,8000,4,yes,1024
0,0,1783.2,1783.2,black,practice,legacy,legacy,legacy,0,uniform,0,undefined,0,left,4,0,0,4,4,0,0,4,4,4,4,4,0,4,0,Sun Oct 27 19:01:07 2019,The main experiment item,yes,SternnbergTask.osexp,/Users/kaylicolpitts/Desktop/adv quant/lab 3,no,mono,no,18,no,white,no,yes,768,legacy,4,4,/Users/kaylicolpitts/Desktop/adv quant/lab 3/KC-subject-2.csv,legacy,2 9 4,Kafkaesque Koffka,3.2.8,3,y,0,right,left,NA,right,NA,916,37077,NA,916,NA,2,legacy,3,1024,2,48000,-16,experiment,2,even,4,73138,3836,NA,NA,70897,3817,NA,70912,69792,75152,76069,71925,40925,75152,NA,Sternberg Task,0,8916,5,yes,1024
0,0,1819.333333,1819.333333,black,practice,legacy,legacy,legacy,0,uniform,0,undefined,0,left,5,0,0,5,5,0,0,5,5,5,5,5,0,5,0,Sun Oct 27 19:01:07 2019,The main experiment item,yes,SternnbergTask.osexp,/Users/kaylicolpitts/Desktop/adv quant/lab 3,no,mono,no,18,no,white,no,yes,768,legacy,5,5,/Users/kaylicolpitts/Desktop/adv quant/lab 3/KC-subject-2.csv,legacy,1 5 2 9,Kafkaesque Koffka,3.2.8,2,y,0,None,left,NA,None,NA,2000,37077,NA,2000,NA,2,legacy,4,1024,2,48000,-16,experiment,2,even,5,79430,3836,NA,NA,77191,3817,NA,77203,76084,81442,83442,78216,40925,81442,NA,Sternberg Task,0,10916,6,yes,1024
14.28571429,14.28571429,1644.285714,1644.285714,black,practice,legacy,legacy,legacy,0,uniform,1,undefined,1,right,6,0,0,6,6,0,0,6,6,6,6,6,0,6,0,Sun Oct 27 19:01:07 2019,The main experiment item,yes,SternnbergTask.osexp,/Users/kaylicolpitts/Desktop/adv quant/lab 3,no,mono,no,18,no,white,no,yes,768,legacy,6,6,/Users/kaylicolpitts/Desktop/adv quant/lab 3/KC-subject-2.csv,legacy,3 1 9 4,Kafkaesque Koffka,3.2.8,0,n,0,right,left,NA,right,NA,594,37077,NA,594,NA,2,legacy,4,1024,2,48000,-16,experiment,2,even,6,86801,3836,NA,NA,84562,3817,NA,84574,83456,88813,89408,85587,40925,88813,NA,Sternberg Task,1,11510,7,yes,1024
25,25,1544.125,1544.125,black,practice,legacy,legacy,legacy,0,uniform,1,undefined,1,left,7,0,0,7,7,0,0,7,7,7,7,7,0,7,0,Sun Oct 27 19:01:07 2019,The main experiment item,yes,SternnbergTask.osexp,/Users/kaylicolpitts/Desktop/adv quant/lab 3,no,mono,no,18,no,white,no,yes,768,legacy,7,7,/Users/kaylicolpitts/Desktop/adv quant/lab 3/KC-subject-2.csv,legacy,1 7 9 8 5,Kafkaesque Koffka,3.2.8,4,y,0,left,left,NA,left,NA,843,37077,NA,843,NA,2,legacy,5,1024,2,48000,-16,experiment,2,even,8,92773,3836,NA,89425,90532,3817,NA,90544,83456,94786,95631,91556,40925,94786,NA,Sternberg Task,2,12353,8,yes,1024
33.33333333,33.33333333,1443.333333,1443.333333,black,practice,legacy,legacy,legacy,0,uniform,1,undefined,1,right,8,0,0,8,8,0,0,8,8,8,8,8,0,8,0,Sun Oct 27 19:01:07 2019,The main experiment item,yes,SternnbergTask.osexp,/Users/kaylicolpitts/Desktop/adv quant/lab 3,no,mono,no,18,no,white,no,yes,768,legacy,8,8,/Users/kaylicolpitts/Desktop/adv quant/lab 3/KC-subject-2.csv,legacy,9 6 7 4 5,Kafkaesque Koffka,3.2.8,0,n,0,right,left,NA,right,NA,637,37077,NA,637,NA,2,legacy,5,1024,2,48000,-16,experiment,2,even,3,98994,3836,NA,95648,96756,3817,NA,96768,83456,101006,101645,97780,40925,101005,NA,Sternberg Task,3,12990,9,yes,1024
40,40,1363.6,1363.6,black,practice,legacy,legacy,legacy,0,uniform,1,undefined,1,right,9,0,0,9,9,0,0,9,9,9,9,9,0,9,0,Sun Oct 27 19:01:07 2019,The main experiment item,yes,SternnbergTask.osexp,/Users/kaylicolpitts/Desktop/adv quant/lab 3,no,mono,no,18,no,white,no,yes,768,legacy,9,9,/Users/kaylicolpitts/Desktop/adv quant/lab 3/KC-subject-2.csv,legacy,5 7 8 4 1 2,Kafkaesque Koffka,3.2.8,0,n,0,right,left,NA,right,NA,646,37077,NA,646,NA,2,legacy,6,1024,2,48000,-16,experiment,2,even,6,105009,3836,NA,101660,102771,3817,NA,102783,83456,107021,107668,103795,40925,107021,NA,Sternberg Task,4,13636,10,yes,1024
45.45454545,45.45454545,1288.272727,1288.272727,black,practice,legacy,legacy,legacy,0,uniform,1,undefined,1,right,10,0,0,10,10,0,0,10,10,10,10,10,0,10,0,Sun Oct 27 19:01:07 2019,The main experiment item,yes,SternnbergTask.osexp,/Users/kaylicolpitts/Desktop/adv quant/lab 3,no,mono,no,18,no,white,no,yes,768,legacy,10,10,/Users/kaylicolpitts/Desktop/adv quant/lab 3/KC-subject-2.csv,legacy,2 1,Kafkaesque Koffka,3.2.8,0,n,0,right,left,NA,right,NA,535,37077,NA,535,NA,2,legacy,2,1024,2,48000,-16,experiment,2,even,5,111029,3836,NA,107685,108791,3817,NA,108803,83456,113041,113577,109815,40925,113041,NA,Sternberg Task,5,14171,11,yes,1024
50,50,1247.166667,1247.166667,black,practice,legacy,legacy,legacy,0,uniform,1,undefined,1,left,11,0,0,11,11,0,0,11,11,11,11,11,0,11,0,Sun Oct 27 19:01:07 2019,The main experiment item,yes,SternnbergTask.osexp,/Users/kaylicolpitts/Desktop/adv quant/lab 3,no,mono,no,18,no,white,no,yes,768,legacy,11,11,/Users/kaylicolpitts/Desktop/adv quant/lab 3/KC-subject-2.csv,legacy,4 8,Kafkaesque Koffka,3.2.8,1,y,0,left,left,NA,left,NA,795,37077,NA,795,NA,2,legacy,2,1024,2,48000,-16,experiment,2,even,4,116944,3836,NA,113592,114705,3817,NA,114717,83456,118956,119753,115732,40925,118956,NA,Sternberg Task,6,14966,12,yes,1024
53.84615385,53.84615385,1207.384615,1207.384615,black,experiment,legacy,legacy,legacy,0,uniform,1,undefined,1,left,12,0,0,12,12,0,0,12,12,12,12,12,0,12,0,Sun Oct 27 19:01:07 2019,The main experiment item,yes,SternnbergTask.osexp,/Users/kaylicolpitts/Desktop/adv quant/lab 3,no,mono,no,18,no,white,no,yes,768,legacy,0,11,/Users/kaylicolpitts/Desktop/adv quant/lab 3/KC-subject-2.csv,legacy,3 2 1 4 7,Kafkaesque Koffka,3.2.8,2,y,0,left,left,left,left,NA,730,37077,13572,730,NA,2,legacy,5,1024,2,48000,-16,experiment,2,even,2,136743,3836,120804,119768,134504,3817,134377,134516,83456,138755,139486,135528,40925,138755,NA,Sternberg Task,7,15696,13,yes,1024
57.14285714,57.14285714,1166.642857,1166.642857,black,experiment,legacy,legacy,legacy,0,uniform,1,undefined,1,left,13,0,0,13,13,0,0,13,13,13,13,13,0,13,0,Sun Oct 27 19:01:07 2019,The main experiment item,yes,SternnbergTask.osexp,/Users/kaylicolpitts/Desktop/adv quant/lab 3,no,mono,no,18,no,white,no,yes,768,legacy,1,11,/Users/kaylicolpitts/Desktop/adv quant/lab 3/KC-subject-2.csv,legacy,9 4 2,Kafkaesque Koffka,3.2.8,1,y,0,left,left,left,left,NA,637,37077,13572,637,NA,2,legacy,3,1024,2,48000,-16,experiment,2,even,9,142849,3836,120804,139503,140610,3817,134377,140622,83456,144861,145500,141634,40925,144861,NA,Sternberg Task,8,16333,14,yes,1024
60,60,1122.6,1122.6,black,experiment,legacy,legacy,legacy,0,uniform,1,undefined,1,right,14,0,0,14,14,0,0,14,14,14,14,14,0,14,0,Sun Oct 27 19:01:07 2019,The main experiment item,yes,SternnbergTask.osexp,/Users/kaylicolpitts/Desktop/adv quant/lab 3,no,mono,no,18,no,white,no,yes,768,legacy,2,11,/Users/kaylicolpitts/Desktop/adv quant/lab 3/KC-subject-2.csv,legacy,8 4 3 9,Kafkaesque Koffka,3.2.8,0,n,0,right,left,left,right,NA,506,37077,13572,506,NA,2,legacy,4,1024,2,48000,-16,experiment,2,even,5,148864,3836,120804,145519,146625,3817,134377,146637,83456,150876,151383,147649,40925,150876,NA,Sternberg Task,9,16839,15,yes,1024
62.5,62.5,1087.125,1087.125,black,experiment,legacy,legacy,legacy,0,uniform,1,undefined,1,right,15,0,0,15,15,0,0,15,15,15,15,15,0,15,0,Sun Oct 27 19:01:07 2019,The main experiment item,yes,SternnbergTask.osexp,/Users/kaylicolpitts/Desktop/adv quant/lab 3,no,mono,no,18,no,white,no,yes,768,legacy,3,11,/Users/kaylicolpitts/Desktop/adv quant/lab 3/KC-subject-2.csv,legacy,1 4 9 2 5,Kafkaesque Koffka,3.2.8,0,n,0,right,left,left,right,NA,555,37077,13572,555,NA,2,legacy,5,1024,2,48000,-16,experiment,2,even,7,154744,3836,120804,151397,152505,3817,134377,152517,83456,156758,157315,153529,40925,156757,NA,Sternberg Task,10,17394,16,yes,1024
64.70588235,64.70588235,1056.235294,1056.235294,black,experiment,legacy,legacy,legacy,0,uniform,1,undefined,1,left,16,0,0,16,16,0,0,16,16,16,16,16,0,16,0,Sun Oct 27 19:01:07 2019,The main experiment item,yes,SternnbergTask.osexp,/Users/kaylicolpitts/Desktop/adv quant/lab 3,no,mono,no,18,no,white,no,yes,768,legacy,4,11,/Users/kaylicolpitts/Desktop/adv quant/lab 3/KC-subject-2.csv,legacy,9 5 3 8 4,Kafkaesque Koffka,3.2.8,1,y,0,left,left,left,left,NA,562,37077,13572,562,NA,2,legacy,5,1024,2,48000,-16,experiment,2,even,9,160678,3836,120804,157332,158439,3817,134377,158450,83456,162692,163256,159463,40925,162692,NA,Sternberg Task,11,17956,17,yes,1024
66.66666667,66.66666667,1030.611111,1030.611111,black,experiment,legacy,legacy,legacy,0,uniform,1,undefined,1,right,17,0,0,17,17,0,0,17,17,17,17,17,0,17,0,Sun Oct 27 19:01:07 2019,The main experiment item,yes,SternnbergTask.osexp,/Users/kaylicolpitts/Desktop/adv quant/lab 3,no,mono,no,18,no,white,no,yes,768,legacy,5,11,/Users/kaylicolpitts/Desktop/adv quant/lab 3/KC-subject-2.csv,legacy,4 2 7 6 1 3,Kafkaesque Koffka,3.2.8,0,n,0,right,left,left,right,NA,595,37077,13572,595,NA,2,legacy,6,1024,2,48000,-16,experiment,2,even,8,166616,3836,120804,163270,164377,3817,134377,164389,83456,168628,169224,165402,40925,168628,NA,Sternberg Task,12,18551,18,yes,1024
68.42105263,68.42105263,1006.894737,1006.894737,black,experiment,legacy,legacy,legacy,0,uniform,1,undefined,1,right,18,0,0,18,18,0,0,18,18,18,18,18,0,18,0,Sun Oct 27 19:01:07 2019,The main experiment item,yes,SternnbergTask.osexp,/Users/kaylicolpitts/Desktop/adv quant/lab 3,no,mono,no,18,no,white,no,yes,768,legacy,6,11,/Users/kaylicolpitts/Desktop/adv quant/lab 3/KC-subject-2.csv,legacy,6 3 1 7 9 8,Kafkaesque Koffka,3.2.8,0,n,0,right,left,left,right,NA,580,37077,13572,580,NA,2,legacy,6,1024,2,48000,-16,experiment,2,even,4,172584,3836,120804,169238,170346,3817,134377,170358,83456,174596,175178,171370,40925,174596,NA,Sternberg Task,13,19131,19,yes,1024
70,70,986.35,986.35,black,experiment,legacy,legacy,legacy,0,uniform,1,undefined,1,left,19,0,0,19,19,0,0,19,19,19,19,19,0,19,0,Sun Oct 27 19:01:07 2019,The main experiment item,yes,SternnbergTask.osexp,/Users/kaylicolpitts/Desktop/adv quant/lab 3,no,mono,no,18,no,white,no,yes,768,legacy,7,11,/Users/kaylicolpitts/Desktop/adv quant/lab 3/KC-subject-2.csv,legacy,7,Kafkaesque Koffka,3.2.8,1,y,0,left,left,left,left,NA,596,37077,13572,596,NA,2,legacy,1,1024,2,48000,-16,experiment,2,even,7,178539,3836,120804,175196,176301,3817,134377,176313,83456,180551,181149,177325,40925,180551,NA,Sternberg Task,14,19727,20,yes,1024
71.42857143,71.42857143,962.1428571,962.1428571,black,experiment,legacy,legacy,legacy,0,uniform,1,undefined,1,right,20,0,0,20,20,0,0,20,20,20,20,20,0,20,0,Sun Oct 27 19:01:07 2019,The main experiment item,yes,SternnbergTask.osexp,/Users/kaylicolpitts/Desktop/adv quant/lab 3,no,mono,no,18,no,white,no,yes,768,legacy,8,11,/Users/kaylicolpitts/Desktop/adv quant/lab 3/KC-subject-2.csv,legacy,4 8 1 2,Kafkaesque Koffka,3.2.8,0,n,0,right,left,left,right,NA,478,37077,13572,478,NA,2,legacy,4,1024,2,48000,-16,experiment,2,even,7,184513,3836,120804,181163,182274,3817,134377,182286,83456,186526,187006,183299,40925,186525,NA,Sternberg Task,15,20205,21,yes,1024
72.72727273,72.72727273,950.4090909,950.4090909,black,experiment,legacy,legacy,legacy,0,uniform,1,undefined,1,right,21,0,0,21,21,0,0,21,21,21,21,21,0,21,0,Sun Oct 27 19:01:07 2019,The main experiment item,yes,SternnbergTask.osexp,/Users/kaylicolpitts/Desktop/adv quant/lab 3,no,mono,no,18,no,white,no,yes,768,legacy,9,11,/Users/kaylicolpitts/Desktop/adv quant/lab 3/KC-subject-2.csv,legacy,2 6 4 3 9,Kafkaesque Koffka,3.2.8,0,n,0,right,left,left,right,NA,704,37077,13572,704,NA,2,legacy,5,1024,2,48000,-16,experiment,2,even,1,190367,3836,120804,187022,188129,3817,134377,188141,83456,192379,193085,189153,40925,192379,NA,Sternberg Task,16,20909,22,yes,1024
73.91304348,73.91304348,928.8695652,928.8695652,black,experiment,legacy,legacy,legacy,0,uniform,1,undefined,1,left,22,0,0,22,22,0,0,22,22,22,22,22,0,22,0,Sun Oct 27 19:01:07 2019,The main experiment item,yes,SternnbergTask.osexp,/Users/kaylicolpitts/Desktop/adv quant/lab 3,no,mono,no,18,no,white,no,yes,768,legacy,10,11,/Users/kaylicolpitts/Desktop/adv quant/lab 3/KC-subject-2.csv,legacy,3 5 9 6 2 4,Kafkaesque Koffka,3.2.8,1,y,0,left,left,left,left,NA,455,37077,13572,455,NA,2,legacy,6,1024,2,48000,-16,experiment,2,even,3,196448,3836,120804,193100,194209,3817,134377,194221,83456,198460,198916,195233,40925,198460,NA,Sternberg Task,17,21364,23,yes,1024
75,75,917.5,917.5,black,experiment,legacy,legacy,legacy,0,uniform,1,undefined,1,right,23,0,0,23,23,0,0,23,23,23,23,23,0,23,0,Sun Oct 27 19:01:07 2019,The main experiment item,yes,SternnbergTask.osexp,/Users/kaylicolpitts/Desktop/adv quant/lab 3,no,mono,no,18,no,white,no,yes,768,legacy,11,11,/Users/kaylicolpitts/Desktop/adv quant/lab 3/KC-subject-2.csv,legacy,7 1 5 6 3,Kafkaesque Koffka,3.2.8,0,n,0,right,left,left,right,NA,656,37077,13572,656,NA,2,legacy,5,1024,2,48000,-16,experiment,2,even,8,202275,3836,120804,198930,200036,3817,134377,200048,83456,204287,204945,201061,40925,204287,NA,Sternberg Task,18,22020,24,yes,1024
76,76,913.12,913.12,black,experiment,legacy,legacy,legacy,0,uniform,1,undefined,1,left,24,0,0,24,24,0,0,24,24,24,24,24,0,24,0,Sun Oct 27 19:01:07 2019,The main experiment item,yes,SternnbergTask.osexp,/Users/kaylicolpitts/Desktop/adv quant/lab 3,no,mono,no,18,no,white,no,yes,768,legacy,12,11,/Users/kaylicolpitts/Desktop/adv quant/lab 3/KC-subject-2.csv,legacy,9 3 1 2 5,Kafkaesque Koffka,3.2.8,4,y,0,left,left,left,left,NA,808,37077,13572,808,NA,2,legacy,5,1024,2,48000,-16,experiment,2,even,2,208305,3836,120804,204960,206066,3817,134377,206078,83456,210317,211128,207090,40925,210317,NA,Sternberg Task,19,22828,25,yes,1024
73.07692308,73.07692308,899.9615385,899.9615385,black,experiment,legacy,legacy,legacy,0,uniform,0,undefined,0,left,25,0,0,25,25,0,0,25,25,25,25,25,0,25,0,Sun Oct 27 19:01:07 2019,The main experiment item,yes,SternnbergTask.osexp,/Users/kaylicolpitts/Desktop/adv quant/lab 3,no,mono,no,18,no,white,no,yes,768,legacy,13,11,/Users/kaylicolpitts/Desktop/adv quant/lab 3/KC-subject-2.csv,legacy,2 8 5 1,Kafkaesque Koffka,3.2.8,4,y,0,right,left,left,right,NA,571,37077,13572,571,NA,2,legacy,4,1024,2,48000,-16,experiment,2,even,1,214489,3836,120804,211143,212250,3817,134377,212262,83456,216502,217075,213275,40925,216502,NA,Sternberg Task,19,23399,26,yes,1024
74.07407407,74.07407407,885.8888889,885.8888889,black,experiment,legacy,legacy,legacy,0,uniform,1,undefined,1,right,26,0,0,26,26,0,0,26,26,26,26,26,0,26,0,Sun Oct 27 19:01:07 2019,The main experiment item,yes,SternnbergTask.osexp,/Users/kaylicolpitts/Desktop/adv quant/lab 3,no,mono,no,18,no,white,no,yes,768,legacy,14,11,/Users/kaylicolpitts/Desktop/adv quant/lab 3/KC-subject-2.csv,legacy,3 4 9 6 7 8,Kafkaesque Koffka,3.2.8,0,n,0,right,left,left,right,NA,520,37077,13572,520,NA,2,legacy,6,1024,2,48000,-16,experiment,2,even,2,220444,3836,120804,211143,218200,3817,134377,218213,217092,222456,222977,219229,40925,222456,NA,Sternberg Task,20,23919,27,yes,1024
75,75,873.2857143,873.2857143,black,experiment,legacy,legacy,legacy,0,uniform,1,undefined,1,right,27,0,0,27,27,0,0,27,27,27,27,27,0,27,0,Sun Oct 27 19:01:07 2019,The main experiment item,yes,SternnbergTask.osexp,/Users/kaylicolpitts/Desktop/adv quant/lab 3,no,mono,no,18,no,white,no,yes,768,legacy,15,11,/Users/kaylicolpitts/Desktop/adv quant/lab 3/KC-subject-2.csv,legacy,6 8 4,Kafkaesque Koffka,3.2.8,0,n,0,right,left,left,right,NA,533,37077,13572,533,NA,2,legacy,3,1024,2,48000,-16,experiment,2,even,1,226334,3836,120804,222992,224096,3817,134377,224108,217092,228347,228881,225120,40925,228346,NA,Sternberg Task,21,24452,28,yes,1024
72.4137931,72.4137931,862.0689655,862.0689655,black,experiment,legacy,legacy,legacy,0,uniform,0,undefined,0,left,28,0,0,28,28,0,0,28,28,28,28,28,0,28,0,Sun Oct 27 19:01:07 2019,The main experiment item,yes,SternnbergTask.osexp,/Users/kaylicolpitts/Desktop/adv quant/lab 3,no,mono,no,18,no,white,no,yes,768,legacy,16,11,/Users/kaylicolpitts/Desktop/adv quant/lab 3/KC-subject-2.csv,legacy,4 7 6 8 2 3,Kafkaesque Koffka,3.2.8,6,y,0,right,left,left,right,NA,548,37077,13572,548,NA,2,legacy,6,1024,2,48000,-16,experiment,2,even,3,232240,3836,120804,228896,230002,3817,134377,230014,217092,234252,234801,231026,40925,234252,NA,Sternberg Task,21,25000,29,yes,1024
73.33333333,73.33333333,855.1333333,855.1333333,black,experiment,legacy,legacy,legacy,0,uniform,1,undefined,1,right,29,0,0,29,29,0,0,29,29,29,29,29,0,29,0,Sun Oct 27 19:01:07 2019,The main experiment item,yes,SternnbergTask.osexp,/Users/kaylicolpitts/Desktop/adv quant/lab 3,no,mono,no,18,no,white,no,yes,768,legacy,17,11,/Users/kaylicolpitts/Desktop/adv quant/lab 3/KC-subject-2.csv,legacy,1 6 4 3 9 7,Kafkaesque Koffka,3.2.8,0,n,0,right,left,left,right,NA,654,37077,13572,654,NA,2,legacy,6,1024,2,48000,-16,experiment,2,even,8,238163,3836,120804,228896,235924,3817,134377,235936,234816,240176,240832,236948,40925,240175,NA,Sternberg Task,22,25654,30,yes,1024
74.19354839,74.19354839,849.6451613,849.6451613,black,experiment,legacy,legacy,legacy,0,uniform,1,undefined,1,left,30,0,0,30,30,0,0,30,30,30,30,30,0,30,0,Sun Oct 27 19:01:07 2019,The main experiment item,yes,SternnbergTask.osexp,/Users/kaylicolpitts/Desktop/adv quant/lab 3,no,mono,no,18,no,white,no,yes,768,legacy,18,11,/Users/kaylicolpitts/Desktop/adv quant/lab 3/KC-subject-2.csv,legacy,8 9 5 7 1 6,Kafkaesque Koffka,3.2.8,4,y,0,left,left,left,left,NA,685,37077,13572,685,NA,2,legacy,6,1024,2,48000,-16,experiment,2,even,7,244189,3836,120804,240846,241953,3817,134377,241965,234816,246203,246890,242977,40925,246202,NA,Sternberg Task,23,26339,31,yes,1024
75,75,838.84375,838.84375,black,experiment,legacy,legacy,legacy,0,uniform,1,undefined,1,left,31,0,0,31,31,0,0,31,31,31,31,31,0,31,0,Sun Oct 27 19:01:07 2019,The main experiment item,yes,SternnbergTask.osexp,/Users/kaylicolpitts/Desktop/adv quant/lab 3,no,mono,no,18,no,white,no,yes,768,legacy,19,11,/Users/kaylicolpitts/Desktop/adv quant/lab 3/KC-subject-2.csv,legacy,6 7 9 3 1 2,Kafkaesque Koffka,3.2.8,1,y,0,left,left,left,left,NA,504,37077,13572,504,NA,2,legacy,6,1024,2,48000,-16,experiment,2,even,6,250254,3836,120804,246908,248015,3817,134377,248027,234816,252266,252772,249039,40925,252266,NA,Sternberg Task,24,26843,32,yes,1024
75.75757576,75.75757576,830.7272727,830.7272727,black,experiment,legacy,legacy,legacy,0,uniform,1,undefined,1,left,32,0,0,32,32,0,0,32,32,32,32,32,0,32,0,Sun Oct 27 19:01:07 2019,The main experiment item,yes,SternnbergTask.osexp,/Users/kaylicolpitts/Desktop/adv quant/lab 3,no,mono,no,18,no,white,no,yes,768,legacy,20,11,/Users/kaylicolpitts/Desktop/adv quant/lab 3/KC-subject-2.csv,legacy,9 6 2 4 1,Kafkaesque Koffka,3.2.8,4,y,0,left,left,left,left,NA,571,37077,13572,571,NA,2,legacy,5,1024,2,48000,-16,experiment,2,even,4,256135,3836,120804,252786,253894,3817,134377,253909,234816,258147,258720,254921,40925,258147,NA,Sternberg Task,25,27414,33,yes,1024
76.47058824,76.47058824,822.7941176,822.7941176,black,experiment,legacy,legacy,legacy,0,uniform,1,undefined,1,left,33,0,0,33,33,0,0,33,33,33,33,33,0,33,0,Sun Oct 27 19:01:07 2019,The main experiment item,yes,SternnbergTask.osexp,/Users/kaylicolpitts/Desktop/adv quant/lab 3,no,mono,no,18,no,white,no,yes,768,legacy,21,11,/Users/kaylicolpitts/Desktop/adv quant/lab 3/KC-subject-2.csv,legacy,6 1 2,Kafkaesque Koffka,3.2.8,3,y,0,left,left,left,left,NA,561,37077,13572,561,NA,2,legacy,3,1024,2,48000,-16,experiment,2,even,2,262080,3836,120804,258734,259841,3817,134377,259853,234816,264092,264655,260865,40925,264092,NA,Sternberg Task,26,27975,34,yes,1024
77.14285714,77.14285714,816.4285714,816.4285714,black,experiment,legacy,legacy,legacy,0,uniform,1,undefined,1,left,34,0,0,34,34,0,0,34,34,34,34,34,0,34,0,Sun Oct 27 19:01:07 2019,The main experiment item,yes,SternnbergTask.osexp,/Users/kaylicolpitts/Desktop/adv quant/lab 3,no,mono,no,18,no,white,no,yes,768,legacy,22,11,/Users/kaylicolpitts/Desktop/adv quant/lab 3/KC-subject-2.csv,legacy,8 5 3 7 4 6,Kafkaesque Koffka,3.2.8,6,y,0,left,left,left,left,NA,600,37077,13572,600,NA,2,legacy,6,1024,2,48000,-16,experiment,2,even,6,268016,3836,120804,264670,265779,3817,134377,265791,234816,270029,270631,266803,40925,270029,NA,Sternberg Task,27,28575,35,yes,1024
77.77777778,77.77777778,809.4722222,809.4722222,black,experiment,legacy,legacy,legacy,0,uniform,1,undefined,1,left,35,0,0,35,35,0,0,35,35,35,35,35,0,35,0,Sun Oct 27 19:01:07 2019,The main experiment item,yes,SternnbergTask.osexp,/Users/kaylicolpitts/Desktop/adv quant/lab 3,no,mono,no,18,no,white,no,yes,768,legacy,23,11,/Users/kaylicolpitts/Desktop/adv quant/lab 3/KC-subject-2.csv,legacy,3 5 7 1,Kafkaesque Koffka,3.2.8,3,y,0,left,left,left,left,NA,566,37077,13572,566,NA,2,legacy,4,1024,2,48000,-16,experiment,2,even,7,273992,3836,120804,270646,271754,3817,134377,271766,234816,276003,276571,272778,40925,276003,NA,Sternberg Task,28,29141,36,yes,1024
78.37837838,78.37837838,807.4594595,807.4594595,black,experiment,legacy,legacy,legacy,0,uniform,1,undefined,1,right,36,0,0,36,36,0,0,36,36,36,36,36,0,36,0,Sun Oct 27 19:01:07 2019,The main experiment item,yes,SternnbergTask.osexp,/Users/kaylicolpitts/Desktop/adv quant/lab 3,no,mono,no,18,no,white,no,yes,768,legacy,24,11,/Users/kaylicolpitts/Desktop/adv quant/lab 3/KC-subject-2.csv,legacy,1 8 7,Kafkaesque Koffka,3.2.8,0,n,0,right,left,left,right,NA,735,37077,13572,735,NA,2,legacy,3,1024,2,48000,-16,experiment,2,even,4,279934,3836,120804,276587,277695,3817,134377,277708,234816,281946,282682,278720,40925,281946,NA,Sternberg Task,29,29876,37,yes,1024
78.94736842,78.94736842,801.2631579,801.2631579,black,experiment,legacy,legacy,legacy,0,uniform,1,undefined,1,right,37,0,0,37,37,0,0,37,37,37,37,37,0,37,0,Sun Oct 27 19:01:07 2019,The main experiment item,yes,SternnbergTask.osexp,/Users/kaylicolpitts/Desktop/adv quant/lab 3,no,mono,no,18,no,white,no,yes,768,legacy,25,11,/Users/kaylicolpitts/Desktop/adv quant/lab 3/KC-subject-2.csv,legacy,4 1,Kafkaesque Koffka,3.2.8,0,n,0,right,left,left,right,NA,572,37077,13572,572,NA,2,legacy,2,1024,2,48000,-16,experiment,2,even,6,286068,3836,120804,282697,283826,3817,134377,283840,234816,288080,288654,284854,40925,288080,NA,Sternberg Task,30,30448,38,yes,1024
79.48717949,79.48717949,798.5897436,798.5897436,black,experiment,legacy,legacy,legacy,0,uniform,1,undefined,1,left,38,0,0,38,38,0,0,38,38,38,38,38,0,38,0,Sun Oct 27 19:01:07 2019,The main experiment item,yes,SternnbergTask.osexp,/Users/kaylicolpitts/Desktop/adv quant/lab 3,no,mono,no,18,no,white,no,yes,768,legacy,26,11,/Users/kaylicolpitts/Desktop/adv quant/lab 3/KC-subject-2.csv,legacy,6 9 7 4 5 1,Kafkaesque Koffka,3.2.8,2,y,0,left,left,left,left,NA,697,37077,13572,697,NA,2,legacy,6,1024,2,48000,-16,experiment,2,even,9,292015,3836,120804,288669,289778,3817,134377,289790,234816,294028,294727,290802,40925,294028,NA,Sternberg Task,31,31145,39,yes,1024
80,80,794.85,794.85,black,experiment,legacy,legacy,legacy,0,uniform,1,undefined,1,right,39,0,0,39,39,0,0,39,39,39,39,39,0,39,0,Sun Oct 27 19:01:07 2019,The main experiment item,yes,SternnbergTask.osexp,/Users/kaylicolpitts/Desktop/adv quant/lab 3,no,mono,no,18,no,white,no,yes,768,legacy,27,11,/Users/kaylicolpitts/Desktop/adv quant/lab 3/KC-subject-2.csv,legacy,6 8,Kafkaesque Koffka,3.2.8,0,n,0,right,left,left,right,NA,649,37077,13572,649,NA,2,legacy,2,1024,2,48000,-16,experiment,2,even,9,298087,3836,120804,294741,295850,3817,134377,295861,234816,300099,300750,296874,40925,300099,NA,Sternberg Task,32,31794,40,yes,1024
80.48780488,80.48780488,787.902439,787.902439,black,experiment,legacy,legacy,legacy,0,uniform,1,undefined,1,right,40,0,0,40,40,0,0,40,40,40,40,40,0,40,0,Sun Oct 27 19:01:07 2019,The main experiment item,yes,SternnbergTask.osexp,/Users/kaylicolpitts/Desktop/adv quant/lab 3,no,mono,no,18,no,white,no,yes,768,legacy,28,11,/Users/kaylicolpitts/Desktop/adv quant/lab 3/KC-subject-2.csv,legacy,6 7 5 9,Kafkaesque Koffka,3.2.8,0,n,0,right,left,left,right,NA,510,37077,13572,510,NA,2,legacy,4,1024,2,48000,-16,experiment,2,even,2,304109,3836,120804,300764,301871,3817,134377,301883,234816,306121,306633,302895,40925,306120,NA,Sternberg Task,33,32304,41,yes,1024
80.95238095,80.95238095,782.047619,782.047619,black,experiment,legacy,legacy,legacy,0,uniform,1,undefined,1,left,41,0,0,41,41,0,0,41,41,41,41,41,0,41,0,Sun Oct 27 19:01:07 2019,The main experiment item,yes,SternnbergTask.osexp,/Users/kaylicolpitts/Desktop/adv quant/lab 3,no,mono,no,18,no,white,no,yes,768,legacy,29,11,/Users/kaylicolpitts/Desktop/adv quant/lab 3/KC-subject-2.csv,legacy,8 5 4 7 3 1,Kafkaesque Koffka,3.2.8,2,y,0,left,left,left,left,NA,542,37077,13572,542,NA,2,legacy,6,1024,2,48000,-16,experiment,2,even,5,309998,3836,120804,306648,307759,3817,134377,307771,234816,312010,312553,308783,40925,312010,NA,Sternberg Task,34,32846,42,yes,1024
79.06976744,79.06976744,780.6976744,780.6976744,black,experiment,legacy,legacy,legacy,0,uniform,0,undefined,0,left,42,0,0,42,42,0,0,42,42,42,42,42,0,42,0,Sun Oct 27 19:01:07 2019,The main experiment item,yes,SternnbergTask.osexp,/Users/kaylicolpitts/Desktop/adv quant/lab 3,no,mono,no,18,no,white,no,yes,768,legacy,30,11,/Users/kaylicolpitts/Desktop/adv quant/lab 3/KC-subject-2.csv,legacy,2 3 7 4,Kafkaesque Koffka,3.2.8,1,y,0,right,left,left,right,NA,724,37077,13572,724,NA,2,legacy,4,1024,2,48000,-16,experiment,2,even,2,315917,3836,120804,312567,313679,3817,134377,313691,234816,317930,318657,314703,40925,317930,NA,Sternberg Task,34,33570,43,yes,1024
79.54545455,79.54545455,778.1818182,778.1818182,black,experiment,legacy,legacy,legacy,0,uniform,1,undefined,1,right,43,0,0,43,43,0,0,43,43,43,43,43,0,43,0,Sun Oct 27 19:01:07 2019,The main experiment item,yes,SternnbergTask.osexp,/Users/kaylicolpitts/Desktop/adv quant/lab 3,no,mono,no,18,no,white,no,yes,768,legacy,31,11,/Users/kaylicolpitts/Desktop/adv quant/lab 3/KC-subject-2.csv,legacy,9 8 2 7 4,Kafkaesque Koffka,3.2.8,0,n,0,right,left,left,right,NA,670,37077,13572,670,NA,2,legacy,5,1024,2,48000,-16,experiment,2,even,5,322018,3836,120804,312567,319779,3817,134377,319791,318671,324030,324701,320803,40925,324030,NA,Sternberg Task,35,34240,44,yes,1024
80,80,779.5111111,779.5111111,black,experiment,legacy,legacy,legacy,0,uniform,1,undefined,1,right,44,0,0,44,44,0,0,44,44,44,44,44,0,44,0,Sun Oct 27 19:01:07 2019,The main experiment item,yes,SternnbergTask.osexp,/Users/kaylicolpitts/Desktop/adv quant/lab 3,no,mono,no,18,no,white,no,yes,768,legacy,32,11,/Users/kaylicolpitts/Desktop/adv quant/lab 3/KC-subject-2.csv,legacy,5 9 2 3,Kafkaesque Koffka,3.2.8,0,n,0,right,left,left,right,NA,838,37077,13572,838,NA,2,legacy,4,1024,2,48000,-16,experiment,2,even,8,328063,3836,120804,324716,325823,3817,134377,325835,318671,330078,330918,326849,40925,330077,NA,Sternberg Task,36,35078,45,yes,1024
80.43478261,80.43478261,773.8043478,773.8043478,black,experiment,legacy,legacy,legacy,0,uniform,1,undefined,1,right,45,0,0,45,45,0,0,45,45,45,45,45,0,45,0,Sun Oct 27 19:01:07 2019,The main experiment item,yes,SternnbergTask.osexp,/Users/kaylicolpitts/Desktop/adv quant/lab 3,no,mono,no,18,no,white,no,yes,768,legacy,33,11,/Users/kaylicolpitts/Desktop/adv quant/lab 3/KC-subject-2.csv,legacy,2 3 8 5 6 7,Kafkaesque Koffka,3.2.8,0,n,0,right,left,left,right,NA,517,37077,13572,517,NA,2,legacy,6,1024,2,48000,-16,experiment,2,even,1,334276,3836,120804,330932,332040,3817,134377,332051,318671,336290,336809,333063,40925,336290,NA,Sternberg Task,37,35595,46,yes,1024
80.85106383,80.85106383,769.2553191,769.2553191,black,experiment,legacy,legacy,legacy,0,uniform,1,undefined,1,right,46,0,0,46,46,0,0,46,46,46,46,46,0,46,0,Sun Oct 27 19:01:07 2019,The main experiment item,yes,SternnbergTask.osexp,/Users/kaylicolpitts/Desktop/adv quant/lab 3,no,mono,no,18,no,white,no,yes,768,legacy,34,11,/Users/kaylicolpitts/Desktop/adv quant/lab 3/KC-subject-2.csv,legacy,9 5 3 2 8 6,Kafkaesque Koffka,3.2.8,0,n,0,right,left,left,right,NA,560,37077,13572,560,NA,2,legacy,6,1024,2,48000,-16,experiment,2,even,7,340168,3836,120804,336823,337930,3817,134377,337942,318671,342180,342741,338954,40925,342180,NA,Sternberg Task,38,36155,47,yes,1024
81.25,81.25,763.625,763.625,black,experiment,legacy,legacy,legacy,0,uniform,1,undefined,1,left,47,0,0,47,47,0,0,47,47,47,47,47,0,47,0,Sun Oct 27 19:01:07 2019,The main experiment item,yes,SternnbergTask.osexp,/Users/kaylicolpitts/Desktop/adv quant/lab 3,no,mono,no,18,no,white,no,yes,768,legacy,35,11,/Users/kaylicolpitts/Desktop/adv quant/lab 3/KC-subject-2.csv,legacy,4 1 8 7 5,Kafkaesque Koffka,3.2.8,3,y,0,left,left,left,left,NA,499,37077,13572,499,NA,2,legacy,5,1024,2,48000,-16,experiment,2,even,8,346100,3836,120804,342756,343862,3817,134377,343874,318671,348115,348616,344886,40925,348114,NA,Sternberg Task,39,36654,48,yes,1024
81.63265306,81.63265306,757.4489796,757.4489796,black,experiment,legacy,legacy,legacy,0,uniform,1,undefined,1,right,48,0,0,48,48,0,0,48,48,48,48,48,0,48,0,Sun Oct 27 19:01:07 2019,The main experiment item,yes,SternnbergTask.osexp,/Users/kaylicolpitts/Desktop/adv quant/lab 3,no,mono,no,18,no,white,no,yes,768,legacy,36,11,/Users/kaylicolpitts/Desktop/adv quant/lab 3/KC-subject-2.csv,legacy,7 8 6 1,Kafkaesque Koffka,3.2.8,0,n,0,right,left,left,right,NA,461,37077,13572,461,NA,2,legacy,4,1024,2,48000,-16,experiment,2,even,3,351976,3836,120804,348629,349738,3817,134377,349750,318671,353988,354451,350762,40925,353988,NA,Sternberg Task,40,37115,49,yes,1024
82,82,754.38,754.38,black,experiment,legacy,legacy,legacy,0,uniform,1,undefined,1,left,49,0,0,49,49,0,0,49,49,49,49,49,0,49,0,Sun Oct 27 19:01:07 2019,The main experiment item,yes,SternnbergTask.osexp,/Users/kaylicolpitts/Desktop/adv quant/lab 3,no,mono,no,18,no,white,no,yes,768,legacy,37,11,/Users/kaylicolpitts/Desktop/adv quant/lab 3/KC-subject-2.csv,legacy,4 1 5,Kafkaesque Koffka,3.2.8,2,y,0,left,left,left,left,NA,604,37077,13572,604,NA,2,legacy,3,1024,2,48000,-16,experiment,2,even,1,357810,3836,120804,354465,355571,3817,134377,355582,318671,359822,360428,356595,40925,359822,NA,Sternberg Task,41,37719,50,yes,1024
82.35294118,82.35294118,748.5490196,748.5490196,black,experiment,legacy,legacy,legacy,0,uniform,1,undefined,1,right,50,0,0,50,50,0,0,50,50,50,50,50,0,50,0,Sun Oct 27 19:01:07 2019,The main experiment item,yes,SternnbergTask.osexp,/Users/kaylicolpitts/Desktop/adv quant/lab 3,no,mono,no,18,no,white,no,yes,768,legacy,38,11,/Users/kaylicolpitts/Desktop/adv quant/lab 3/KC-subject-2.csv,legacy,1,Kafkaesque Koffka,3.2.8,0,n,0,right,left,left,right,NA,457,37077,13572,457,NA,2,legacy,1,1024,2,48000,-16,experiment,2,even,7,363787,3836,120804,360443,361547,3817,134377,361559,318671,365800,366259,362571,40925,365800,NA,Sternberg Task,42,38176,51,yes,1024
82.69230769,82.69230769,744.4038462,744.4038462,black,experiment,legacy,legacy,legacy,0,uniform,1,undefined,1,left,51,0,0,51,51,0,0,51,51,51,51,51,0,51,0,Sun Oct 27 19:01:07 2019,The main experiment item,yes,SternnbergTask.osexp,/Users/kaylicolpitts/Desktop/adv quant/lab 3,no,mono,no,18,no,white,no,yes,768,legacy,39,11,/Users/kaylicolpitts/Desktop/adv quant/lab 3/KC-subject-2.csv,legacy,2 3,Kafkaesque Koffka,3.2.8,1,y,0,left,left,left,left,NA,533,37077,13572,533,NA,2,legacy,2,1024,2,48000,-16,experiment,2,even,2,369617,3836,120804,366273,367379,3817,134377,367391,318671,371629,372163,368403,40925,371629,NA,Sternberg Task,43,38709,52,yes,1024
83.01886792,83.01886792,741.7735849,741.7735849,black,experiment,legacy,legacy,legacy,0,uniform,1,undefined,1,left,52,0,0,52,52,0,0,52,52,52,52,52,0,52,0,Sun Oct 27 19:01:07 2019,The main experiment item,yes,SternnbergTask.osexp,/Users/kaylicolpitts/Desktop/adv quant/lab 3,no,mono,no,18,no,white,no,yes,768,legacy,40,11,/Users/kaylicolpitts/Desktop/adv quant/lab 3/KC-subject-2.csv,legacy,5 7 3 6 2,Kafkaesque Koffka,3.2.8,5,y,0,left,left,left,left,NA,605,37077,13572,605,NA,2,legacy,5,1024,2,48000,-16,experiment,2,even,2,375525,3836,120804,372177,373285,3817,134377,373297,318671,377540,378148,374312,40925,377540,NA,Sternberg Task,44,39314,53,yes,1024
83.33333333,83.33333333,739.5555556,739.5555556,black,experiment,legacy,legacy,legacy,0,uniform,1,undefined,1,left,53,0,0,53,53,0,0,53,53,53,53,53,0,53,0,Sun Oct 27 19:01:07 2019,The main experiment item,yes,SternnbergTask.osexp,/Users/kaylicolpitts/Desktop/adv quant/lab 3,no,mono,no,18,no,white,no,yes,768,legacy,41,11,/Users/kaylicolpitts/Desktop/adv quant/lab 3/KC-subject-2.csv,legacy,4 3 2 5 8,Kafkaesque Koffka,3.2.8,2,y,0,left,left,left,left,NA,622,37077,13572,622,NA,2,legacy,5,1024,2,48000,-16,experiment,2,even,3,381506,3836,120804,378162,379268,3817,134377,379280,318671,383518,384142,380292,40925,383518,NA,Sternberg Task,45,39936,54,yes,1024
83.63636364,83.63636364,734.0363636,734.0363636,black,experiment,legacy,legacy,legacy,0,uniform,1,undefined,1,left,54,0,0,54,54,0,0,54,54,54,54,54,0,54,0,Sun Oct 27 19:01:07 2019,The main experiment item,yes,SternnbergTask.osexp,/Users/kaylicolpitts/Desktop/adv quant/lab 3,no,mono,no,18,no,white,no,yes,768,legacy,42,11,/Users/kaylicolpitts/Desktop/adv quant/lab 3/KC-subject-2.csv,legacy,7 1 8 5 6 2,Kafkaesque Koffka,3.2.8,2,y,0,left,left,left,left,NA,436,37077,13572,436,NA,2,legacy,6,1024,2,48000,-16,experiment,2,even,1,387501,3836,120804,384157,385263,3817,134377,385275,318671,389514,389952,386288,40925,389514,NA,Sternberg Task,46,40372,55,yes,1024
83.92857143,83.92857143,730.9107143,730.9107143,black,experiment,legacy,legacy,legacy,0,uniform,1,undefined,1,left,55,0,0,55,55,0,0,55,55,55,55,55,0,55,0,Sun Oct 27 19:01:07 2019,The main experiment item,yes,SternnbergTask.osexp,/Users/kaylicolpitts/Desktop/adv quant/lab 3,no,mono,no,18,no,white,no,yes,768,legacy,43,11,/Users/kaylicolpitts/Desktop/adv quant/lab 3/KC-subject-2.csv,legacy,7 8 4 6 9 5,Kafkaesque Koffka,3.2.8,4,y,0,left,left,left,left,NA,559,37077,13572,559,NA,2,legacy,6,1024,2,48000,-16,experiment,2,even,6,393310,3836,120804,389966,391071,3817,134377,391082,318671,395322,395882,392096,40925,395322,NA,Sternberg Task,47,40931,56,yes,1024
82.45614035,82.45614035,753.1754386,753.1754386,black,experiment,legacy,legacy,legacy,0,uniform,0,undefined,0,right,56,0,0,56,56,0,0,56,56,56,56,56,0,56,0,Sun Oct 27 19:01:07 2019,The main experiment item,yes,SternnbergTask.osexp,/Users/kaylicolpitts/Desktop/adv quant/lab 3,no,mono,no,18,no,white,no,yes,768,legacy,44,11,/Users/kaylicolpitts/Desktop/adv quant/lab 3/KC-subject-2.csv,legacy,1 6 4,Kafkaesque Koffka,3.2.8,0,n,0,None,left,left,None,NA,2000,37077,13572,2000,NA,2,legacy,3,1024,2,48000,-16,experiment,2,even,7,399240,3836,120804,395899,397003,3817,134377,397014,318671,401252,403252,398026,40925,401252,NA,Sternberg Task,47,42931,57,yes,1024
82.75862069,82.75862069,747.7068966,747.7068966,black,experiment,legacy,legacy,legacy,0,uniform,1,undefined,1,left,57,0,0,57,57,0,0,57,57,57,57,57,0,57,0,Sun Oct 27 19:01:07 2019,The main experiment item,yes,SternnbergTask.osexp,/Users/kaylicolpitts/Desktop/adv quant/lab 3,no,mono,no,18,no,white,no,yes,768,legacy,45,11,/Users/kaylicolpitts/Desktop/adv quant/lab 3/KC-subject-2.csv,legacy,2 4 8 5 1 3,Kafkaesque Koffka,3.2.8,1,y,0,left,left,left,left,NA,436,37077,13572,436,NA,2,legacy,6,1024,2,48000,-16,experiment,2,even,2,406611,3836,120804,395899,404373,3817,134377,404385,403267,408624,409062,405397,40925,408624,NA,Sternberg Task,48,43367,58,yes,1024
83.05084746,83.05084746,742.3898305,742.3898305,black,experiment,legacy,legacy,legacy,0,uniform,1,undefined,1,left,58,0,0,58,58,0,0,58,58,58,58,58,0,58,0,Sun Oct 27 19:01:07 2019,The main experiment item,yes,SternnbergTask.osexp,/Users/kaylicolpitts/Desktop/adv quant/lab 3,no,mono,no,18,no,white,no,yes,768,legacy,46,11,/Users/kaylicolpitts/Desktop/adv quant/lab 3/KC-subject-2.csv,legacy,7 8 6 3 1,Kafkaesque Koffka,3.2.8,5,y,0,left,left,left,left,NA,434,37077,13572,434,NA,2,legacy,5,1024,2,48000,-16,experiment,2,even,1,412424,3836,120804,409078,410186,3817,134377,410197,403267,414437,414873,411210,40925,414437,NA,Sternberg Task,49,43801,59,yes,1024
83.33333333,83.33333333,738.7666667,738.7666667,black,experiment,legacy,legacy,legacy,0,uniform,1,undefined,1,left,59,0,0,59,59,0,0,59,59,59,59,59,0,59,0,Sun Oct 27 19:01:07 2019,The main experiment item,yes,SternnbergTask.osexp,/Users/kaylicolpitts/Desktop/adv quant/lab 3,no,mono,no,18,no,white,no,yes,768,legacy,47,11,/Users/kaylicolpitts/Desktop/adv quant/lab 3/KC-subject-2.csv,legacy,3 4,Kafkaesque Koffka,3.2.8,1,y,0,left,left,left,left,NA,525,37077,13572,525,NA,2,legacy,2,1024,2,48000,-16,experiment,2,even,3,418228,3836,120804,414887,415992,3817,134377,416002,403267,420242,420769,417014,40925,420242,NA,Sternberg Task,50,44326,60,yes,1024
83.60655738,83.60655738,735.8196721,735.8196721,black,experiment,legacy,legacy,legacy,0,uniform,1,undefined,1,right,60,0,0,60,60,0,0,60,60,60,60,60,0,60,0,Sun Oct 27 19:01:07 2019,The main experiment item,yes,SternnbergTask.osexp,/Users/kaylicolpitts/Desktop/adv quant/lab 3,no,mono,no,18,no,white,no,yes,768,legacy,48,11,/Users/kaylicolpitts/Desktop/adv quant/lab 3/KC-subject-2.csv,legacy,2 8 6 3 1,Kafkaesque Koffka,3.2.8,0,n,0,right,left,left,right,NA,559,37077,13572,559,NA,2,legacy,5,1024,2,48000,-16,experiment,2,even,7,424126,3836,120804,420783,421889,3817,134377,421901,403267,426138,426700,422913,40925,426138,NA,Sternberg Task,51,44885,61,yes,1024
83.87096774,83.87096774,731.9516129,731.9516129,black,experiment,legacy,legacy,legacy,0,uniform,1,undefined,1,right,61,0,0,61,61,0,0,61,61,61,61,61,0,61,0,Sun Oct 27 19:01:07 2019,The main experiment item,yes,SternnbergTask.osexp,/Users/kaylicolpitts/Desktop/adv quant/lab 3,no,mono,no,18,no,white,no,yes,768,legacy,49,11,/Users/kaylicolpitts/Desktop/adv quant/lab 3/KC-subject-2.csv,legacy,1 7 5 2 9,Kafkaesque Koffka,3.2.8,0,n,0,right,left,left,right,NA,496,37077,13572,496,NA,2,legacy,5,1024,2,48000,-16,experiment,2,even,3,430063,3836,120804,426717,427827,3817,134377,427838,403267,432075,432573,428850,40925,432075,NA,Sternberg Task,52,45381,62,yes,1024
84.12698413,84.12698413,727.7460317,727.7460317,black,experiment,legacy,legacy,legacy,0,uniform,1,undefined,1,right,62,0,0,62,62,0,0,62,62,62,62,62,0,62,0,Sun Oct 27 19:01:07 2019,The main experiment item,yes,SternnbergTask.osexp,/Users/kaylicolpitts/Desktop/adv quant/lab 3,no,mono,no,18,no,white,no,yes,768,legacy,50,11,/Users/kaylicolpitts/Desktop/adv quant/lab 3/KC-subject-2.csv,legacy,5 2,Kafkaesque Koffka,3.2.8,0,n,0,right,left,left,right,NA,467,37077,13572,467,NA,2,legacy,2,1024,2,48000,-16,experiment,2,even,7,435933,3836,120804,432588,433695,3817,134377,433707,403267,437945,438414,434719,40925,437945,NA,Sternberg Task,53,45848,63,yes,1024
84.375,84.375,723.09375,723.09375,black,experiment,legacy,legacy,legacy,0,uniform,1,undefined,1,left,63,0,0,63,63,0,0,63,63,63,63,63,0,63,0,Sun Oct 27 19:01:07 2019,The main experiment item,yes,SternnbergTask.osexp,/Users/kaylicolpitts/Desktop/adv quant/lab 3,no,mono,no,18,no,white,no,yes,768,legacy,51,11,/Users/kaylicolpitts/Desktop/adv quant/lab 3/KC-subject-2.csv,legacy,4,Kafkaesque Koffka,3.2.8,1,y,0,left,left,left,left,NA,430,37077,13572,430,NA,2,legacy,1,1024,2,48000,-16,experiment,2,even,4,441782,3836,120804,438430,439542,3817,134377,439554,403267,443794,444227,440566,40925,443794,NA,Sternberg Task,54,46278,64,yes,1024
84.61538462,84.61538462,720.9230769,720.9230769,black,experiment,legacy,legacy,legacy,0,uniform,1,undefined,1,right,64,0,0,64,64,0,0,64,64,64,64,64,0,64,0,Sun Oct 27 19:01:07 2019,The main experiment item,yes,SternnbergTask.osexp,/Users/kaylicolpitts/Desktop/adv quant/lab 3,no,mono,no,18,no,white,no,yes,768,legacy,52,11,/Users/kaylicolpitts/Desktop/adv quant/lab 3/KC-subject-2.csv,legacy,9 7 4 5 8,Kafkaesque Koffka,3.2.8,0,n,0,right,left,left,right,NA,582,37077,13572,582,NA,2,legacy,5,1024,2,48000,-16,experiment,2,even,6,447586,3836,120804,444241,445348,3817,134377,445360,403267,449598,450181,446372,40925,449598,NA,Sternberg Task,55,46860,65,yes,1024
84.84848485,84.84848485,718.3787879,718.3787879,black,experiment,legacy,legacy,legacy,0,uniform,1,undefined,1,left,65,0,0,65,65,0,0,65,65,65,65,65,0,65,0,Sun Oct 27 19:01:07 2019,The main experiment item,yes,SternnbergTask.osexp,/Users/kaylicolpitts/Desktop/adv quant/lab 3,no,mono,no,18,no,white,no,yes,768,legacy,53,11,/Users/kaylicolpitts/Desktop/adv quant/lab 3/KC-subject-2.csv,legacy,9 1 6 7 8,Kafkaesque Koffka,3.2.8,1,y,0,left,left,left,left,NA,553,37077,13572,553,NA,2,legacy,5,1024,2,48000,-16,experiment,2,even,9,453542,3836,120804,450196,451302,3817,134377,451315,403267,455558,456114,452328,40925,455557,NA,Sternberg Task,56,47413,66,yes,1024
83.58208955,83.58208955,722.119403,722.119403,black,experiment,legacy,legacy,legacy,0,uniform,0,undefined,0,right,66,0,0,66,66,0,0,66,66,66,66,66,0,66,0,Sun Oct 27 19:01:07 2019,The main experiment item,yes,SternnbergTask.osexp,/Users/kaylicolpitts/Desktop/adv quant/lab 3,no,mono,no,18,no,white,no,yes,768,legacy,54,11,/Users/kaylicolpitts/Desktop/adv quant/lab 3/KC-subject-2.csv,legacy,7 1,Kafkaesque Koffka,3.2.8,0,n,0,left,left,left,left,NA,969,37077,13572,969,NA,2,legacy,2,1024,2,48000,-16,experiment,2,even,8,459475,3836,120804,456130,457237,3817,134377,457249,403267,461487,462458,458261,40925,461487,NA,Sternberg Task,56,48382,67,yes,1024
83.82352941,83.82352941,720.0441176,720.0441176,black,experiment,legacy,legacy,legacy,0,uniform,1,undefined,1,right,67,0,0,67,67,0,0,67,67,67,67,67,0,67,0,Sun Oct 27 19:01:07 2019,The main experiment item,yes,SternnbergTask.osexp,/Users/kaylicolpitts/Desktop/adv quant/lab 3,no,mono,no,18,no,white,no,yes,768,legacy,55,11,/Users/kaylicolpitts/Desktop/adv quant/lab 3/KC-subject-2.csv,legacy,5 3 8 7 2 4,Kafkaesque Koffka,3.2.8,0,n,0,right,left,left,right,NA,581,37077,13572,581,NA,2,legacy,6,1024,2,48000,-16,experiment,2,even,9,465818,3836,120804,456130,463579,3817,134377,463591,462472,467832,468415,464604,40925,467832,NA,Sternberg Task,57,48963,68,yes,1024
84.05797101,84.05797101,719.057971,719.057971,black,experiment,legacy,legacy,legacy,0,uniform,1,undefined,1,right,68,0,0,68,68,0,0,68,68,68,68,68,0,68,0,Sun Oct 27 19:01:07 2019,The main experiment item,yes,SternnbergTask.osexp,/Users/kaylicolpitts/Desktop/adv quant/lab 3,no,mono,no,18,no,white,no,yes,768,legacy,56,11,/Users/kaylicolpitts/Desktop/adv quant/lab 3/KC-subject-2.csv,legacy,6 9 5,Kafkaesque Koffka,3.2.8,0,n,0,right,left,left,right,NA,652,37077,13572,652,NA,2,legacy,3,1024,2,48000,-16,experiment,2,even,8,471780,3836,120804,468430,469536,3817,134377,469548,462472,473792,474446,470565,40925,473792,NA,Sternberg Task,58,49615,69,yes,1024
84.28571429,84.28571429,719.0142857,719.0142857,black,experiment,legacy,legacy,legacy,0,uniform,1,undefined,1,right,69,0,0,69,69,0,0,69,69,69,69,69,0,69,0,Sun Oct 27 19:01:07 2019,The main experiment item,yes,SternnbergTask.osexp,/Users/kaylicolpitts/Desktop/adv quant/lab 3,no,mono,no,18,no,white,no,yes,768,legacy,57,11,/Users/kaylicolpitts/Desktop/adv quant/lab 3/KC-subject-2.csv,legacy,7 3 2 8,Kafkaesque Koffka,3.2.8,0,n,0,right,left,left,right,NA,716,37077,13572,716,NA,2,legacy,4,1024,2,48000,-16,experiment,2,even,4,477805,3836,120804,474460,475566,3817,134377,475579,462472,479817,480535,476591,40925,479817,NA,Sternberg Task,59,50331,70,yes,1024
84.50704225,84.50704225,716.056338,716.056338,black,experiment,legacy,legacy,legacy,0,uniform,1,undefined,1,right,70,0,0,70,70,0,0,70,70,70,70,70,0,70,0,Sun Oct 27 19:01:07 2019,The main experiment item,yes,SternnbergTask.osexp,/Users/kaylicolpitts/Desktop/adv quant/lab 3,no,mono,no,18,no,white,no,yes,768,legacy,58,11,/Users/kaylicolpitts/Desktop/adv quant/lab 3/KC-subject-2.csv,legacy,8 9,Kafkaesque Koffka,3.2.8,0,n,0,right,left,left,right,NA,509,37077,13572,509,NA,2,legacy,2,1024,2,48000,-16,experiment,2,even,5,483893,3836,120804,480549,481655,3817,134377,481667,462472,485908,486419,482680,40925,485908,NA,Sternberg Task,60,50840,71,yes,1024
84.72222222,84.72222222,713.75,713.75,black,experiment,legacy,legacy,legacy,0,uniform,1,undefined,1,right,71,0,0,71,71,0,0,71,71,71,71,71,0,71,0,Sun Oct 27 19:01:07 2019,The main experiment item,yes,SternnbergTask.osexp,/Users/kaylicolpitts/Desktop/adv quant/lab 3,no,mono,no,18,no,white,no,yes,768,legacy,59,11,/Users/kaylicolpitts/Desktop/adv quant/lab 3/KC-subject-2.csv,legacy,8 5 7 3 6,Kafkaesque Koffka,3.2.8,0,n,0,right,left,left,right,NA,550,37077,13572,550,NA,2,legacy,5,1024,2,48000,-16,experiment,2,even,9,489779,3836,120804,486434,487540,3817,134377,487552,462472,491790,492342,488564,40925,491790,NA,Sternberg Task,61,51390,72,yes,1024
84.93150685,84.93150685,711.4520548,711.4520548,black,experiment,legacy,legacy,legacy,0,uniform,1,undefined,1,left,72,0,0,72,72,0,0,72,72,72,72,72,0,72,0,Sun Oct 27 19:01:07 2019,The main experiment item,yes,SternnbergTask.osexp,/Users/kaylicolpitts/Desktop/adv quant/lab 3,no,mono,no,18,no,white,no,yes,768,legacy,60,11,/Users/kaylicolpitts/Desktop/adv quant/lab 3/KC-subject-2.csv,legacy,2 6 1 7 4,Kafkaesque Koffka,3.2.8,2,y,0,left,left,left,left,NA,546,37077,13572,546,NA,2,legacy,5,1024,2,48000,-16,experiment,2,even,6,495700,3836,120804,492356,493461,3817,134377,493473,462472,497712,498261,494486,40925,497712,NA,Sternberg Task,62,51936,73,yes,1024
85.13513514,85.13513514,708.3108108,708.3108108,black,experiment,legacy,legacy,legacy,0,uniform,1,undefined,1,right,73,0,0,73,73,0,0,73,73,73,73,73,0,73,0,Sun Oct 27 19:01:07 2019,The main experiment item,yes,SternnbergTask.osexp,/Users/kaylicolpitts/Desktop/adv quant/lab 3,no,mono,no,18,no,white,no,yes,768,legacy,61,11,/Users/kaylicolpitts/Desktop/adv quant/lab 3/KC-subject-2.csv,legacy,1 4 9 3,Kafkaesque Koffka,3.2.8,0,n,0,right,left,left,right,NA,479,37077,13572,479,NA,2,legacy,4,1024,2,48000,-16,experiment,2,even,5,501623,3836,120804,498277,499384,3817,134377,499396,462472,503635,504131,500409,40925,503635,NA,Sternberg Task,63,52415,74,yes,1024
85.33333333,85.33333333,705.5733333,705.5733333,black,experiment,legacy,legacy,legacy,0,uniform,1,undefined,1,right,74,0,0,74,74,0,0,74,74,74,74,74,0,74,0,Sun Oct 27 19:01:07 2019,The main experiment item,yes,SternnbergTask.osexp,/Users/kaylicolpitts/Desktop/adv quant/lab 3,no,mono,no,18,no,white,no,yes,768,legacy,62,11,/Users/kaylicolpitts/Desktop/adv quant/lab 3/KC-subject-2.csv,legacy,5 7 3,Kafkaesque Koffka,3.2.8,0,n,0,right,left,left,right,NA,503,37077,13572,503,NA,2,legacy,3,1024,2,48000,-16,experiment,2,even,9,507495,3836,120804,504150,505257,3817,134377,505269,462472,509507,510013,506281,40925,509507,NA,Sternberg Task,64,52918,75,yes,1024
84.21052632,84.21052632,704.4473684,704.4473684,black,experiment,legacy,legacy,legacy,0,uniform,0,undefined,0,left,75,0,0,75,75,0,0,75,75,75,75,75,0,75,0,Sun Oct 27 19:01:07 2019,The main experiment item,yes,SternnbergTask.osexp,/Users/kaylicolpitts/Desktop/adv quant/lab 3,no,mono,no,18,no,white,no,yes,768,legacy,63,11,/Users/kaylicolpitts/Desktop/adv quant/lab 3/KC-subject-2.csv,legacy,9 3 8 2 1 4,Kafkaesque Koffka,3.2.8,3,y,0,right,left,left,right,NA,620,37077,13572,620,NA,2,legacy,6,1024,2,48000,-16,experiment,2,even,8,513376,3836,120804,510029,511136,3817,134377,511149,462472,515388,516012,512162,40925,515388,NA,Sternberg Task,64,53538,76,yes,1024
84.41558442,84.41558442,702.7922078,702.7922078,black,experiment,legacy,legacy,legacy,0,uniform,1,undefined,1,left,76,0,0,76,76,0,0,76,76,76,76,76,0,76,0,Sun Oct 27 19:01:07 2019,The main experiment item,yes,SternnbergTask.osexp,/Users/kaylicolpitts/Desktop/adv quant/lab 3,no,mono,no,18,no,white,no,yes,768,legacy,64,11,/Users/kaylicolpitts/Desktop/adv quant/lab 3/KC-subject-2.csv,legacy,9 5 8 1,Kafkaesque Koffka,3.2.8,2,y,0,left,left,left,left,NA,577,37077,13572,577,NA,2,legacy,4,1024,2,48000,-16,experiment,2,even,5,519376,3836,120804,510029,517134,3817,134377,517147,516028,521392,521971,518161,40925,521391,NA,Sternberg Task,65,54115,77,yes,1024
84.61538462,84.61538462,700.3461538,700.3461538,black,experiment,legacy,legacy,legacy,0,uniform,1,undefined,1,right,77,0,0,77,77,0,0,77,77,77,77,77,0,77,0,Sun Oct 27 19:01:07 2019,The main experiment item,yes,SternnbergTask.osexp,/Users/kaylicolpitts/Desktop/adv quant/lab 3,no,mono,no,18,no,white,no,yes,768,legacy,65,11,/Users/kaylicolpitts/Desktop/adv quant/lab 3/KC-subject-2.csv,legacy,2 5 1 4,Kafkaesque Koffka,3.2.8,0,n,0,right,left,left,right,NA,512,37077,13572,512,NA,2,legacy,4,1024,2,48000,-16,experiment,2,even,6,525327,3836,120804,521985,523089,3817,134377,523102,516028,527343,527857,524114,40925,527342,NA,Sternberg Task,66,54627,78,yes,1024
84.81012658,84.81012658,697.2911392,697.2911392,black,experiment,legacy,legacy,legacy,0,uniform,1,undefined,1,left,78,0,0,78,78,0,0,78,78,78,78,78,0,78,0,Sun Oct 27 19:01:07 2019,The main experiment item,yes,SternnbergTask.osexp,/Users/kaylicolpitts/Desktop/adv quant/lab 3,no,mono,no,18,no,white,no,yes,768,legacy,66,11,/Users/kaylicolpitts/Desktop/adv quant/lab 3/KC-subject-2.csv,legacy,6 2,Kafkaesque Koffka,3.2.8,1,y,0,left,left,left,left,NA,459,37077,13572,459,NA,2,legacy,2,1024,2,48000,-16,experiment,2,even,6,531231,3836,120804,527873,528995,3817,134377,529006,516028,533243,533705,530019,40925,533243,NA,Sternberg Task,67,55086,79,yes,1024
85,85,694.6875,694.6875,black,experiment,legacy,legacy,legacy,0,uniform,1,undefined,1,right,79,0,0,79,79,0,0,79,79,79,79,79,0,79,0,Sun Oct 27 19:01:07 2019,The main experiment item,yes,SternnbergTask.osexp,/Users/kaylicolpitts/Desktop/adv quant/lab 3,no,mono,no,18,no,white,no,yes,768,legacy,67,11,/Users/kaylicolpitts/Desktop/adv quant/lab 3/KC-subject-2.csv,legacy,6 9 4 5 2,Kafkaesque Koffka,3.2.8,0,n,0,right,left,left,right,NA,489,37077,13572,489,NA,2,legacy,5,1024,2,48000,-16,experiment,2,even,1,537067,3836,120804,533721,534828,3817,134377,534840,516028,539079,539570,535853,40925,539079,NA,Sternberg Task,68,55575,80,yes,1024
85.18518519,85.18518519,692.4197531,692.4197531,black,experiment,legacy,legacy,legacy,0,uniform,1,undefined,1,left,80,0,0,80,80,0,0,80,80,80,80,80,0,80,0,Sun Oct 27 19:01:07 2019,The main experiment item,yes,SternnbergTask.osexp,/Users/kaylicolpitts/Desktop/adv quant/lab 3,no,mono,no,18,no,white,no,yes,768,legacy,68,11,/Users/kaylicolpitts/Desktop/adv quant/lab 3/KC-subject-2.csv,legacy,7 1 3,Kafkaesque Koffka,3.2.8,2,y,0,left,left,left,left,NA,511,37077,13572,511,NA,2,legacy,3,1024,2,48000,-16,experiment,2,even,1,542931,3836,120804,539585,540694,3817,134377,540705,516028,544943,545456,541717,40925,544943,NA,Sternberg Task,69,56086,81,yes,1024
85.36585366,85.36585366,689.4756098,689.4756098,black,experiment,legacy,legacy,legacy,0,uniform,1,undefined,1,right,81,0,0,81,81,0,0,81,81,81,81,81,0,81,0,Sun Oct 27 19:01:07 2019,The main experiment item,yes,SternnbergTask.osexp,/Users/kaylicolpitts/Desktop/adv quant/lab 3,no,mono,no,18,no,white,no,yes,768,legacy,69,11,/Users/kaylicolpitts/Desktop/adv quant/lab 3/KC-subject-2.csv,legacy,3 4 2,Kafkaesque Koffka,3.2.8,0,n,0,right,left,left,right,NA,451,37077,13572,451,NA,2,legacy,3,1024,2,48000,-16,experiment,2,even,5,548818,3836,120804,545472,546579,3817,134377,546591,516028,550830,551283,547603,40925,550830,NA,Sternberg Task,70,56537,82,yes,1024
85.54216867,85.54216867,687.2650602,687.2650602,black,experiment,legacy,legacy,legacy,0,uniform,1,undefined,1,right,82,0,0,82,82,0,0,82,82,82,82,82,0,82,0,Sun Oct 27 19:01:07 2019,The main experiment item,yes,SternnbergTask.osexp,/Users/kaylicolpitts/Desktop/adv quant/lab 3,no,mono,no,18,no,white,no,yes,768,legacy,70,11,/Users/kaylicolpitts/Desktop/adv quant/lab 3/KC-subject-2.csv,legacy,1 7 5 2,Kafkaesque Koffka,3.2.8,0,n,0,right,left,left,right,NA,506,37077,13572,506,NA,2,legacy,4,1024,2,48000,-16,experiment,2,even,3,554641,3836,120804,551297,552403,3817,134377,552415,516028,556653,557161,553427,40925,556653,NA,Sternberg Task,71,57043,83,yes,1024
85.71428571,85.71428571,686.7261905,686.7261905,black,experiment,legacy,legacy,legacy,0,uniform,1,undefined,1,right,83,0,0,83,83,0,0,83,83,83,83,83,0,83,0,Sun Oct 27 19:01:07 2019,The main experiment item,yes,SternnbergTask.osexp,/Users/kaylicolpitts/Desktop/adv quant/lab 3,no,mono,no,18,no,white,no,yes,768,legacy,71,11,/Users/kaylicolpitts/Desktop/adv quant/lab 3/KC-subject-2.csv,legacy,7 9 1 6,Kafkaesque Koffka,3.2.8,0,n,0,right,left,left,right,NA,642,37077,13572,642,NA,2,legacy,4,1024,2,48000,-16,experiment,2,even,4,560520,3836,120804,557176,558282,3817,134377,558294,516028,562532,563176,559306,40925,562531,NA,Sternberg Task,72,57685,84,yes,1024
85.88235294,85.88235294,686.0470588,686.0470588,black,experiment,legacy,legacy,legacy,0,uniform,1,undefined,1,left,84,0,0,84,84,0,0,84,84,84,84,84,0,84,0,Sun Oct 27 19:01:07 2019,The main experiment item,yes,SternnbergTask.osexp,/Users/kaylicolpitts/Desktop/adv quant/lab 3,no,mono,no,18,no,white,no,yes,768,legacy,72,11,/Users/kaylicolpitts/Desktop/adv quant/lab 3/KC-subject-2.csv,legacy,6 9 3 1,Kafkaesque Koffka,3.2.8,4,y,0,left,left,left,left,NA,629,37077,13572,629,NA,2,legacy,4,1024,2,48000,-16,experiment,2,even,1,566533,3836,120804,563190,564296,3817,134377,564308,516028,568545,569177,565320,40925,568545,NA,Sternberg Task,73,58314,85,yes,1024
84.88372093,84.88372093,685.1395349,685.1395349,black,experiment,legacy,legacy,legacy,0,uniform,0,undefined,0,left,85,0,0,85,85,0,0,85,85,85,85,85,0,85,0,Sun Oct 27 19:01:07 2019,The main experiment item,yes,SternnbergTask.osexp,/Users/kaylicolpitts/Desktop/adv quant/lab 3,no,mono,no,18,no,white,no,yes,768,legacy,73,11,/Users/kaylicolpitts/Desktop/adv quant/lab 3/KC-subject-2.csv,legacy,8 1 6,Kafkaesque Koffka,3.2.8,3,y,0,right,left,left,right,NA,608,37077,13572,608,NA,2,legacy,3,1024,2,48000,-16,experiment,2,even,6,572537,3836,120804,569194,570299,3817,134377,570312,516028,574549,575160,571324,40925,574549,NA,Sternberg Task,73,58922,86,yes,1024
85.05747126,85.05747126,684.2758621,684.2758621,black,experiment,legacy,legacy,legacy,0,uniform,1,undefined,1,right,86,0,0,86,86,0,0,86,86,86,86,86,0,86,0,Sun Oct 27 19:01:07 2019,The main experiment item,yes,SternnbergTask.osexp,/Users/kaylicolpitts/Desktop/adv quant/lab 3,no,mono,no,18,no,white,no,yes,768,legacy,74,11,/Users/kaylicolpitts/Desktop/adv quant/lab 3/KC-subject-2.csv,legacy,7 4 2 8 1 9,Kafkaesque Koffka,3.2.8,0,n,0,right,left,left,right,NA,610,37077,13572,610,NA,2,legacy,6,1024,2,48000,-16,experiment,2,even,5,578521,3836,120804,569194,576282,3817,134377,576294,575175,580533,581146,577307,40925,580533,NA,Sternberg Task,74,59532,87,yes,1024
85.22727273,85.22727273,685.1590909,685.1590909,black,experiment,legacy,legacy,legacy,0,uniform,1,undefined,1,left,87,0,0,87,87,0,0,87,87,87,87,87,0,87,0,Sun Oct 27 19:01:07 2019,The main experiment item,yes,SternnbergTask.osexp,/Users/kaylicolpitts/Desktop/adv quant/lab 3,no,mono,no,18,no,white,no,yes,768,legacy,75,11,/Users/kaylicolpitts/Desktop/adv quant/lab 3/KC-subject-2.csv,legacy,1 4 9 3 2 5,Kafkaesque Koffka,3.2.8,3,y,0,left,left,left,left,NA,762,37077,13572,762,NA,2,legacy,6,1024,2,48000,-16,experiment,2,even,9,584504,3836,120804,581161,582267,3817,134377,582280,575175,586516,587280,583292,40925,586516,NA,Sternberg Task,75,60294,88,yes,1024
85.39325843,85.39325843,684.741573,684.741573,black,experiment,legacy,legacy,legacy,0,uniform,1,undefined,1,left,88,0,0,88,88,0,0,88,88,88,88,88,0,88,0,Sun Oct 27 19:01:07 2019,The main experiment item,yes,SternnbergTask.osexp,/Users/kaylicolpitts/Desktop/adv quant/lab 3,no,mono,no,18,no,white,no,yes,768,legacy,76,11,/Users/kaylicolpitts/Desktop/adv quant/lab 3/KC-subject-2.csv,legacy,5 7 8 2 3 8,Kafkaesque Koffka,3.2.8,5,y,0,left,left,left,left,NA,648,37077,13572,648,NA,2,legacy,6,1024,2,48000,-16,experiment,2,even,3,590637,3836,120804,587294,588400,3817,134377,588412,575175,592649,593299,589424,40925,592649,NA,Sternberg Task,76,60942,89,yes,1024
85.55555556,85.55555556,684.2333333,684.2333333,black,experiment,legacy,legacy,legacy,0,uniform,1,undefined,1,left,89,0,0,89,89,0,0,89,89,89,89,89,0,89,0,Sun Oct 27 19:01:07 2019,The main experiment item,yes,SternnbergTask.osexp,/Users/kaylicolpitts/Desktop/adv quant/lab 3,no,mono,no,18,no,white,no,yes,768,legacy,77,11,/Users/kaylicolpitts/Desktop/adv quant/lab 3/KC-subject-2.csv,legacy,5 2 6,Kafkaesque Koffka,3.2.8,2,y,0,left,left,left,left,NA,639,37077,13572,639,NA,2,legacy,3,1024,2,48000,-16,experiment,2,even,2,596654,3836,120804,593313,594418,3817,134377,594430,575175,598667,599308,595442,40925,598666,NA,Sternberg Task,77,61581,90,yes,1024
85.71428571,85.71428571,682.4615385,682.4615385,black,experiment,legacy,legacy,legacy,0,uniform,1,undefined,1,right,90,0,0,90,90,0,0,90,90,90,90,90,0,90,0,Sun Oct 27 19:01:07 2019,The main experiment item,yes,SternnbergTask.osexp,/Users/kaylicolpitts/Desktop/adv quant/lab 3,no,mono,no,18,no,white,no,yes,768,legacy,78,11,/Users/kaylicolpitts/Desktop/adv quant/lab 3/KC-subject-2.csv,legacy,8 2 1 4 5 9,Kafkaesque Koffka,3.2.8,0,n,0,right,left,left,right,NA,523,37077,13572,523,NA,2,legacy,6,1024,2,48000,-16,experiment,2,even,7,602668,3836,120804,599323,600429,3817,134377,600441,575175,604681,605206,601453,40925,604681,NA,Sternberg Task,78,62104,91,yes,1024
85.86956522,85.86956522,679.6847826,679.6847826,black,experiment,legacy,legacy,legacy,0,uniform,1,undefined,1,left,91,0,0,91,91,0,0,91,91,91,91,91,0,91,0,Sun Oct 27 19:01:07 2019,The main experiment item,yes,SternnbergTask.osexp,/Users/kaylicolpitts/Desktop/adv quant/lab 3,no,mono,no,18,no,white,no,yes,768,legacy,79,11,/Users/kaylicolpitts/Desktop/adv quant/lab 3/KC-subject-2.csv,legacy,3 9 7 6 4,Kafkaesque Koffka,3.2.8,3,y,0,left,left,left,left,NA,427,37077,13572,427,NA,2,legacy,5,1024,2,48000,-16,experiment,2,even,7,608570,3836,120804,605223,606331,3817,134377,606343,575175,610582,611011,607355,40925,610582,NA,Sternberg Task,79,62531,92,yes,1024
86.02150538,86.02150538,680.2580645,680.2580645,black,experiment,legacy,legacy,legacy,0,uniform,1,undefined,1,right,92,0,0,92,92,0,0,92,92,92,92,92,0,92,0,Sun Oct 27 19:01:07 2019,The main experiment item,yes,SternnbergTask.osexp,/Users/kaylicolpitts/Desktop/adv quant/lab 3,no,mono,no,18,no,white,no,yes,768,legacy,80,11,/Users/kaylicolpitts/Desktop/adv quant/lab 3/KC-subject-2.csv,legacy,8 6 3 4 7,Kafkaesque Koffka,3.2.8,0,n,0,right,left,left,right,NA,733,37077,13572,733,NA,2,legacy,5,1024,2,48000,-16,experiment,2,even,1,614371,3836,120804,611025,612132,3817,134377,612144,575175,616383,617119,613156,40925,616383,NA,Sternberg Task,80,63264,93,yes,1024
86.17021277,86.17021277,678.8085106,678.8085106,black,experiment,legacy,legacy,legacy,0,uniform,1,undefined,1,left,93,0,0,93,93,0,0,93,93,93,93,93,0,93,0,Sun Oct 27 19:01:07 2019,The main experiment item,yes,SternnbergTask.osexp,/Users/kaylicolpitts/Desktop/adv quant/lab 3,no,mono,no,18,no,white,no,yes,768,legacy,81,11,/Users/kaylicolpitts/Desktop/adv quant/lab 3/KC-subject-2.csv,legacy,8 9 6 1,Kafkaesque Koffka,3.2.8,2,y,0,left,left,left,left,NA,544,37077,13572,544,NA,2,legacy,4,1024,2,48000,-16,experiment,2,even,9,620480,3836,120804,617134,618241,3817,134377,618252,575175,622492,623039,619266,40925,622492,NA,Sternberg Task,81,63808,94,yes,1024
86.31578947,86.31578947,681.0421053,681.0421053,black,experiment,legacy,legacy,legacy,0,uniform,1,undefined,1,right,94,0,0,94,94,0,0,94,94,94,94,94,0,94,0,Sun Oct 27 19:01:07 2019,The main experiment item,yes,SternnbergTask.osexp,/Users/kaylicolpitts/Desktop/adv quant/lab 3,no,mono,no,18,no,white,no,yes,768,legacy,82,11,/Users/kaylicolpitts/Desktop/adv quant/lab 3/KC-subject-2.csv,legacy,7 6 4 8 1 2,Kafkaesque Koffka,3.2.8,0,n,0,right,left,left,right,NA,891,37077,13572,891,NA,2,legacy,6,1024,2,48000,-16,experiment,2,even,9,626402,3836,120804,623053,624161,3817,134377,624176,575175,628414,629308,625188,40925,628414,NA,Sternberg Task,82,64699,95,yes,1024
86.45833333,86.45833333,680.0416667,680.0416667,black,experiment,legacy,legacy,legacy,0,uniform,1,undefined,1,left,95,0,0,95,95,0,0,95,95,95,95,95,0,95,0,Sun Oct 27 19:01:07 2019,The main experiment item,yes,SternnbergTask.osexp,/Users/kaylicolpitts/Desktop/adv quant/lab 3,no,mono,no,18,no,white,no,yes,768,legacy,83,11,/Users/kaylicolpitts/Desktop/adv quant/lab 3/KC-subject-2.csv,legacy,3 5 4 7,Kafkaesque Koffka,3.2.8,1,y,0,left,left,left,left,NA,585,37077,13572,585,NA,2,legacy,4,1024,2,48000,-16,experiment,2,even,3,632669,3836,120804,629326,630431,3817,134377,630443,575175,634682,635270,631456,40925,634682,NA,Sternberg Task,83,65284,96,yes,1024
86.59793814,86.59793814,678.7628866,678.7628866,black,experiment,legacy,legacy,legacy,0,uniform,1,undefined,1,right,96,0,0,96,96,0,0,96,96,96,96,96,0,96,0,Sun Oct 27 19:01:07 2019,The main experiment item,yes,SternnbergTask.osexp,/Users/kaylicolpitts/Desktop/adv quant/lab 3,no,mono,no,18,no,white,no,yes,768,legacy,84,11,/Users/kaylicolpitts/Desktop/adv quant/lab 3/KC-subject-2.csv,legacy,9,Kafkaesque Koffka,3.2.8,0,n,0,right,left,left,right,NA,556,37077,13572,556,NA,2,legacy,1,1024,2,48000,-16,experiment,2,even,6,638630,3836,120804,635287,636393,3817,134377,636405,575175,640643,641201,637416,40925,640642,NA,Sternberg Task,84,65840,97,yes,1024
86.73469388,86.73469388,676.7653061,676.7653061,black,experiment,legacy,legacy,legacy,0,uniform,1,undefined,1,right,97,0,0,97,97,0,0,97,97,97,97,97,0,97,0,Sun Oct 27 19:01:07 2019,The main experiment item,yes,SternnbergTask.osexp,/Users/kaylicolpitts/Desktop/adv quant/lab 3,no,mono,no,18,no,white,no,yes,768,legacy,85,11,/Users/kaylicolpitts/Desktop/adv quant/lab 3/KC-subject-2.csv,legacy,8 4 3 5,Kafkaesque Koffka,3.2.8,0,n,0,right,left,left,right,NA,483,37077,13572,483,NA,2,legacy,4,1024,2,48000,-16,experiment,2,even,6,644559,3836,120804,641216,642321,3817,134377,642333,575175,646571,647056,643345,40925,646571,NA,Sternberg Task,85,66323,98,yes,1024
86.86868687,86.86868687,675.2323232,675.2323232,black,experiment,legacy,legacy,legacy,0,uniform,1,undefined,1,right,98,0,0,98,98,0,0,98,98,98,98,98,0,98,0,Sun Oct 27 19:01:07 2019,The main experiment item,yes,SternnbergTask.osexp,/Users/kaylicolpitts/Desktop/adv quant/lab 3,no,mono,no,18,no,white,no,yes,768,legacy,86,11,/Users/kaylicolpitts/Desktop/adv quant/lab 3/KC-subject-2.csv,legacy,2 8 9 4 1,Kafkaesque Koffka,3.2.8,0,n,0,right,left,left,right,NA,525,37077,13572,525,NA,2,legacy,5,1024,2,48000,-16,experiment,2,even,5,650415,3836,120804,647070,648177,3817,134377,648189,575175,652428,652956,649202,40925,652428,NA,Sternberg Task,86,66848,99,yes,1024
87,87,672.69,672.69,black,experiment,legacy,legacy,legacy,0,uniform,1,undefined,1,left,99,0,0,99,99,0,0,99,99,99,99,99,0,99,0,Sun Oct 27 19:01:07 2019,The main experiment item,yes,SternnbergTask.osexp,/Users/kaylicolpitts/Desktop/adv quant/lab 3,no,mono,no,18,no,white,no,yes,768,legacy,87,11,/Users/kaylicolpitts/Desktop/adv quant/lab 3/KC-subject-2.csv,legacy,8 7 3,Kafkaesque Koffka,3.2.8,1,y,0,left,left,left,left,NA,421,37077,13572,421,NA,2,legacy,3,1024,2,48000,-16,experiment,2,even,8,656314,3836,120804,652969,654074,3817,134377,654086,575175,658326,658749,655098,40925,658326,NA,Sternberg Task,87,67269,100,yes,1024
87.12871287,87.12871287,670.960396,670.960396,black,experiment,legacy,legacy,legacy,0,uniform,1,undefined,1,right,100,0,0,100,100,0,0,100,100,100,100,100,0,100,0,Sun Oct 27 19:01:07 2019,The main experiment item,yes,SternnbergTask.osexp,/Users/kaylicolpitts/Desktop/adv quant/lab 3,no,mono,no,18,no,white,no,yes,768,legacy,88,11,/Users/kaylicolpitts/Desktop/adv quant/lab 3/KC-subject-2.csv,legacy,6 9 7 3 8 2,Kafkaesque Koffka,3.2.8,0,n,0,right,left,left,right,NA,498,37077,13572,498,NA,2,legacy,6,1024,2,48000,-16,experiment,2,even,5,662110,3836,120804,658764,659872,3817,134377,659883,575175,664123,664625,660897,40925,664123,NA,Sternberg Task,88,67767,101,yes,1024
87.25490196,87.25490196,669.6372549,669.6372549,black,experiment,legacy,legacy,legacy,0,uniform,1,undefined,1,right,101,0,0,101,101,0,0,101,101,101,101,101,0,101,0,Sun Oct 27 19:01:07 2019,The main experiment item,yes,SternnbergTask.osexp,/Users/kaylicolpitts/Desktop/adv quant/lab 3,no,mono,no,18,no,white,no,yes,768,legacy,89,11,/Users/kaylicolpitts/Desktop/adv quant/lab 3/KC-subject-2.csv,legacy,2 8 7 9 5 3,Kafkaesque Koffka,3.2.8,0,n,0,right,left,left,right,NA,536,37077,13572,536,NA,2,legacy,6,1024,2,48000,-16,experiment,2,even,6,667993,3836,120804,664647,665755,3817,134377,665766,575175,670004,670542,666779,40925,670004,NA,Sternberg Task,89,68303,102,yes,1024
87.37864078,87.37864078,668.8446602,668.8446602,black,experiment,legacy,legacy,legacy,0,uniform,1,undefined,1,right,102,0,0,102,102,0,0,102,102,102,102,102,0,102,0,Sun Oct 27 19:01:07 2019,The main experiment item,yes,SternnbergTask.osexp,/Users/kaylicolpitts/Desktop/adv quant/lab 3,no,mono,no,18,no,white,no,yes,768,legacy,90,11,/Users/kaylicolpitts/Desktop/adv quant/lab 3/KC-subject-2.csv,legacy,7 1 8 4 9 3,Kafkaesque Koffka,3.2.8,0,n,0,right,left,left,right,NA,588,37077,13572,588,NA,2,legacy,6,1024,2,48000,-16,experiment,2,even,6,673902,3836,120804,670556,671663,3817,134377,671675,575175,675914,676504,672689,40925,675914,NA,Sternberg Task,90,68891,103,yes,1024
87.5,87.5,670.0673077,670.0673077,black,experiment,legacy,legacy,legacy,0,uniform,1,undefined,1,left,103,0,0,103,103,0,0,103,103,103,103,103,0,103,0,Sun Oct 27 19:01:07 2019,The main experiment item,yes,SternnbergTask.osexp,/Users/kaylicolpitts/Desktop/adv quant/lab 3,no,mono,no,18,no,white,no,yes,768,legacy,91,11,/Users/kaylicolpitts/Desktop/adv quant/lab 3/KC-subject-2.csv,legacy,7 2 3,Kafkaesque Koffka,3.2.8,3,y,0,left,left,left,left,NA,796,37077,13572,796,NA,2,legacy,3,1024,2,48000,-16,experiment,2,even,3,679863,3836,120804,676519,677624,3817,134377,677636,575175,681876,682676,678649,40925,681876,NA,Sternberg Task,91,69687,104,yes,1024
87.61904762,87.61904762,670.2380952,670.2380952,black,experiment,legacy,legacy,legacy,0,uniform,1,undefined,1,left,104,0,0,104,104,0,0,104,104,104,104,104,0,104,0,Sun Oct 27 19:01:07 2019,The main experiment item,yes,SternnbergTask.osexp,/Users/kaylicolpitts/Desktop/adv quant/lab 3,no,mono,no,18,no,white,no,yes,768,legacy,92,11,/Users/kaylicolpitts/Desktop/adv quant/lab 3/KC-subject-2.csv,legacy,8 3,Kafkaesque Koffka,3.2.8,2,y,0,left,left,left,left,NA,688,37077,13572,688,NA,2,legacy,2,1024,2,48000,-16,experiment,2,even,3,686036,3836,120804,682694,683799,3817,134377,683811,575175,688048,688739,684823,40925,688048,NA,Sternberg Task,92,70375,105,yes,1024
87.73584906,87.73584906,670.0566038,670.0566038,black,experiment,legacy,legacy,legacy,0,uniform,1,undefined,1,left,105,0,0,105,105,0,0,105,105,105,105,105,0,105,0,Sun Oct 27 19:01:07 2019,The main experiment item,yes,SternnbergTask.osexp,/Users/kaylicolpitts/Desktop/adv quant/lab 3,no,mono,no,18,no,white,no,yes,768,legacy,93,11,/Users/kaylicolpitts/Desktop/adv quant/lab 3/KC-subject-2.csv,legacy,6 5,Kafkaesque Koffka,3.2.8,2,y,0,left,left,left,left,NA,651,37077,13572,651,NA,2,legacy,2,1024,2,48000,-16,experiment,2,even,5,692096,3836,120804,688753,689858,3817,134377,689870,575175,694108,694761,690882,40925,694108,NA,Sternberg Task,93,71026,106,yes,1024
86.91588785,86.91588785,668.7476636,668.7476636,black,experiment,legacy,legacy,legacy,0,uniform,0,undefined,0,left,106,0,0,106,106,0,0,106,106,106,106,106,0,106,0,Sun Oct 27 19:01:07 2019,The main experiment item,yes,SternnbergTask.osexp,/Users/kaylicolpitts/Desktop/adv quant/lab 3,no,mono,no,18,no,white,no,yes,768,legacy,94,11,/Users/kaylicolpitts/Desktop/adv quant/lab 3/KC-subject-2.csv,legacy,5 2 9 6 1 7,Kafkaesque Koffka,3.2.8,3,y,0,right,left,left,right,NA,530,37077,13572,530,NA,2,legacy,6,1024,2,48000,-16,experiment,2,even,9,698122,3836,120804,694777,695883,3817,134377,695895,575175,700136,700672,696908,40925,700136,NA,Sternberg Task,93,71556,107,yes,1024
87.03703704,87.03703704,668.7962963,668.7962963,black,experiment,legacy,legacy,legacy,0,uniform,1,undefined,1,right,107,0,0,107,107,0,0,107,107,107,107,107,0,107,0,Sun Oct 27 19:01:07 2019,The main experiment item,yes,SternnbergTask.osexp,/Users/kaylicolpitts/Desktop/adv quant/lab 3,no,mono,no,18,no,white,no,yes,768,legacy,95,11,/Users/kaylicolpitts/Desktop/adv quant/lab 3/KC-subject-2.csv,legacy,5,Kafkaesque Koffka,3.2.8,0,n,0,right,left,left,right,NA,674,37077,13572,674,NA,2,legacy,1,1024,2,48000,-16,experiment,2,even,8,704037,3836,120804,694777,701798,3817,134377,701810,700692,706049,706726,702824,40925,706049,NA,Sternberg Task,94,72230,108,yes,1024
87.1559633,87.1559633,671.7889908,671.7889908,black,experiment,legacy,legacy,legacy,0,uniform,1,undefined,1,right,108,0,0,108,108,0,0,108,108,108,108,108,0,108,0,Sun Oct 27 19:01:07 2019,The main experiment item,yes,SternnbergTask.osexp,/Users/kaylicolpitts/Desktop/adv quant/lab 3,no,mono,no,18,no,white,no,yes,768,legacy,96,11,/Users/kaylicolpitts/Desktop/adv quant/lab 3/KC-subject-2.csv,legacy,1 7 8 3 9,Kafkaesque Koffka,3.2.8,0,n,0,right,left,left,right,NA,995,37077,13572,995,NA,2,legacy,5,1024,2,48000,-16,experiment,2,even,2,710085,3836,120804,706741,707848,3817,134377,707860,700692,712098,713096,708872,40925,712098,NA,Sternberg Task,95,73225,109,yes,1024
87.27272727,87.27272727,670.7454545,670.7454545,black,experiment,legacy,legacy,legacy,0,uniform,1,undefined,1,left,109,0,0,109,109,0,0,109,109,109,109,109,0,109,0,Sun Oct 27 19:01:07 2019,The main experiment item,yes,SternnbergTask.osexp,/Users/kaylicolpitts/Desktop/adv quant/lab 3,no,mono,no,18,no,white,no,yes,768,legacy,97,11,/Users/kaylicolpitts/Desktop/adv quant/lab 3/KC-subject-2.csv,legacy,3 4 9 6 2 9,Kafkaesque Koffka,3.2.8,5,y,0,left,left,left,left,NA,557,37077,13572,557,NA,2,legacy,6,1024,2,48000,-16,experiment,2,even,2,716455,3836,120804,713110,714217,3817,134377,714229,700692,718467,719027,715241,40925,718467,NA,Sternberg Task,96,73782,110,yes,1024
87.38738739,87.38738739,670.2522523,670.2522523,black,experiment,legacy,legacy,legacy,0,uniform,1,undefined,1,right,110,0,0,110,110,0,0,110,110,110,110,110,0,110,0,Sun Oct 27 19:01:07 2019,The main experiment item,yes,SternnbergTask.osexp,/Users/kaylicolpitts/Desktop/adv quant/lab 3,no,mono,no,18,no,white,no,yes,768,legacy,98,11,/Users/kaylicolpitts/Desktop/adv quant/lab 3/KC-subject-2.csv,legacy,5 3 2 6 9 8,Kafkaesque Koffka,3.2.8,0,n,0,right,left,left,right,NA,616,37077,13572,616,NA,2,legacy,6,1024,2,48000,-16,experiment,2,even,4,722388,3836,120804,719041,720150,3817,134377,720162,700692,724400,725020,721174,40925,724400,NA,Sternberg Task,97,74398,111,yes,1024
87.5,87.5,673.7321429,673.7321429,black,experiment,legacy,legacy,legacy,0,uniform,1,undefined,1,right,111,0,0,111,111,0,0,111,111,111,111,111,0,111,0,Sun Oct 27 19:01:07 2019,The main experiment item,yes,SternnbergTask.osexp,/Users/kaylicolpitts/Desktop/adv quant/lab 3,no,mono,no,18,no,white,no,yes,768,legacy,99,11,/Users/kaylicolpitts/Desktop/adv quant/lab 3/KC-subject-2.csv,legacy,2 7 5,Kafkaesque Koffka,3.2.8,0,n,0,right,left,left,right,NA,1060,37077,13572,1060,NA,2,legacy,3,1024,2,48000,-16,experiment,2,even,8,728380,3836,120804,725035,726141,3817,134377,726153,700692,730392,731456,727166,40925,730392,NA,Sternberg Task,98,75458,112,yes,1024
87.61061947,87.61061947,672.9911504,672.9911504,black,experiment,legacy,legacy,legacy,0,uniform,1,undefined,1,left,112,0,0,112,112,0,0,112,112,112,112,112,0,112,0,Sun Oct 27 19:01:07 2019,The main experiment item,yes,SternnbergTask.osexp,/Users/kaylicolpitts/Desktop/adv quant/lab 3,no,mono,no,18,no,white,no,yes,768,legacy,100,11,/Users/kaylicolpitts/Desktop/adv quant/lab 3/KC-subject-2.csv,legacy,7 4 2 6 3 5,Kafkaesque Koffka,3.2.8,6,y,0,left,left,left,left,NA,590,37077,13572,590,NA,2,legacy,6,1024,2,48000,-16,experiment,2,even,5,734816,3836,120804,731471,732577,3817,134377,732589,700692,736829,737422,733602,40925,736829,NA,Sternberg Task,99,76048,113,yes,1024
87.71929825,87.71929825,671.7017544,671.7017544,black,experiment,legacy,legacy,legacy,0,uniform,1,undefined,1,left,113,0,0,113,113,0,0,113,113,113,113,113,0,113,0,Sun Oct 27 19:01:07 2019,The main experiment item,yes,SternnbergTask.osexp,/Users/kaylicolpitts/Desktop/adv quant/lab 3,no,mono,no,18,no,white,no,yes,768,legacy,101,11,/Users/kaylicolpitts/Desktop/adv quant/lab 3/KC-subject-2.csv,legacy,9 1 7 2,Kafkaesque Koffka,3.2.8,2,y,0,left,left,left,left,NA,526,37077,13572,526,NA,2,legacy,4,1024,2,48000,-16,experiment,2,even,1,740783,3836,120804,737438,738544,3817,134377,738556,700692,742795,743324,739568,40925,742795,NA,Sternberg Task,100,76574,114,yes,1024
87.82608696,87.82608696,669.9391304,669.9391304,black,experiment,legacy,legacy,legacy,0,uniform,1,undefined,1,left,114,0,0,114,114,0,0,114,114,114,114,114,0,114,0,Sun Oct 27 19:01:07 2019,The main experiment item,yes,SternnbergTask.osexp,/Users/kaylicolpitts/Desktop/adv quant/lab 3,no,mono,no,18,no,white,no,yes,768,legacy,102,11,/Users/kaylicolpitts/Desktop/adv quant/lab 3/KC-subject-2.csv,legacy,4 9 7 8 5 3,Kafkaesque Koffka,3.2.8,4,y,0,left,left,left,left,NA,469,37077,13572,469,NA,2,legacy,6,1024,2,48000,-16,experiment,2,even,8,746685,3836,120804,743338,744445,3817,134377,744457,700692,748697,749170,745469,40925,748697,NA,Sternberg Task,101,77043,115,yes,1024
87.93103448,87.93103448,668.7758621,668.7758621,black,experiment,legacy,legacy,legacy,0,uniform,1,undefined,1,right,115,0,0,115,115,0,0,115,115,115,115,115,0,115,0,Sun Oct 27 19:01:07 2019,The main experiment item,yes,SternnbergTask.osexp,/Users/kaylicolpitts/Desktop/adv quant/lab 3,no,mono,no,18,no,white,no,yes,768,legacy,103,11,/Users/kaylicolpitts/Desktop/adv quant/lab 3/KC-subject-2.csv,legacy,6 2 9 3 8 4,Kafkaesque Koffka,3.2.8,0,n,0,right,left,left,right,NA,535,37077,13572,535,NA,2,legacy,6,1024,2,48000,-16,experiment,2,even,1,752535,3836,120804,749189,750296,3817,134377,750309,700692,754548,755087,751321,40925,754548,NA,Sternberg Task,102,77578,116,yes,1024
88.03418803,88.03418803,668.017094,668.017094,black,experiment,legacy,legacy,legacy,0,uniform,1,undefined,1,left,116,0,0,116,116,0,0,116,116,116,116,116,0,116,0,Sun Oct 27 19:01:07 2019,The main experiment item,yes,SternnbergTask.osexp,/Users/kaylicolpitts/Desktop/adv quant/lab 3,no,mono,no,18,no,white,no,yes,768,legacy,104,11,/Users/kaylicolpitts/Desktop/adv quant/lab 3/KC-subject-2.csv,legacy,7 6,Kafkaesque Koffka,3.2.8,2,y,0,left,left,left,left,NA,580,37077,13572,580,NA,2,legacy,2,1024,2,48000,-16,experiment,2,even,6,758447,3836,120804,755103,756209,3817,134377,756220,700692,760459,761041,757233,40925,760459,NA,Sternberg Task,103,78158,117,yes,1024
88.13559322,88.13559322,667.7711864,667.7711864,black,experiment,legacy,legacy,legacy,0,uniform,1,undefined,1,left,117,0,0,117,117,0,0,117,117,117,117,117,0,117,0,Sun Oct 27 19:01:07 2019,The main experiment item,yes,SternnbergTask.osexp,/Users/kaylicolpitts/Desktop/adv quant/lab 3,no,mono,no,18,no,white,no,yes,768,legacy,105,11,/Users/kaylicolpitts/Desktop/adv quant/lab 3/KC-subject-2.csv,legacy,6 8 9 3 4 9,Kafkaesque Koffka,3.2.8,5,y,0,left,left,left,left,NA,639,37077,13572,639,NA,2,legacy,6,1024,2,48000,-16,experiment,2,even,4,764403,3836,120804,761055,762164,3817,134377,762176,700692,766415,767056,763189,40925,766415,NA,Sternberg Task,104,78797,118,yes,1024
88.23529412,88.23529412,665.7058824,665.7058824,black,experiment,legacy,legacy,legacy,0,uniform,1,undefined,1,left,118,0,0,118,118,0,0,118,118,118,118,118,0,118,0,Sun Oct 27 19:01:07 2019,The main experiment item,yes,SternnbergTask.osexp,/Users/kaylicolpitts/Desktop/adv quant/lab 3,no,mono,no,18,no,white,no,yes,768,legacy,106,11,/Users/kaylicolpitts/Desktop/adv quant/lab 3/KC-subject-2.csv,legacy,8,Kafkaesque Koffka,3.2.8,1,y,0,left,left,left,left,NA,422,37077,13572,422,NA,2,legacy,1,1024,2,48000,-16,experiment,2,even,8,770416,3836,120804,767070,768176,3817,134377,768188,700692,772429,772854,769201,40925,772428,NA,Sternberg Task,105,79219,119,yes,1024
88.33333333,88.33333333,664.4416667,664.4416667,black,experiment,legacy,legacy,legacy,0,uniform,1,undefined,1,left,119,0,0,119,119,0,0,119,119,119,119,119,0,119,0,Sun Oct 27 19:01:07 2019,The main experiment item,yes,SternnbergTask.osexp,/Users/kaylicolpitts/Desktop/adv quant/lab 3,no,mono,no,18,no,white,no,yes,768,legacy,107,11,/Users/kaylicolpitts/Desktop/adv quant/lab 3/KC-subject-2.csv,legacy,6 7 8 5,Kafkaesque Koffka,3.2.8,3,y,0,left,left,left,left,NA,514,37077,13572,514,NA,2,legacy,4,1024,2,48000,-16,experiment,2,even,8,776210,3836,120804,772868,773973,3817,134377,773985,700692,778222,778740,774998,40925,778222,NA,Sternberg Task,106,79733,120,yes,1024
88.42975207,88.42975207,663.1404959,663.1404959,black,experiment,legacy,legacy,legacy,0,uniform,1,undefined,1,right,120,0,0,120,120,0,0,120,120,120,120,120,0,120,0,Sun Oct 27 19:01:07 2019,The main experiment item,yes,SternnbergTask.osexp,/Users/kaylicolpitts/Desktop/adv quant/lab 3,no,mono,no,18,no,white,no,yes,768,legacy,108,11,/Users/kaylicolpitts/Desktop/adv quant/lab 3/KC-subject-2.csv,legacy,7 9,Kafkaesque Koffka,3.2.8,0,n,0,right,left,left,right,NA,507,37077,13572,507,NA,2,legacy,2,1024,2,48000,-16,experiment,2,even,1,782096,3836,120804,778755,779860,3817,134377,779871,700692,784109,784619,780883,40925,784109,NA,Sternberg Task,107,80240,121,yes,1024
88.52459016,88.52459016,660.8606557,660.8606557,black,experiment,legacy,legacy,legacy,0,uniform,1,undefined,1,left,121,0,0,121,121,0,0,121,121,121,121,121,0,121,0,Sun Oct 27 19:01:07 2019,The main experiment item,yes,SternnbergTask.osexp,/Users/kaylicolpitts/Desktop/adv quant/lab 3,no,mono,no,18,no,white,no,yes,768,legacy,109,11,/Users/kaylicolpitts/Desktop/adv quant/lab 3/KC-subject-2.csv,legacy,4 6 2 5 1,Kafkaesque Koffka,3.2.8,5,y,0,left,left,left,left,NA,385,37077,13572,385,NA,2,legacy,5,1024,2,48000,-16,experiment,2,even,1,787981,3836,120804,784634,785743,3817,134377,785755,700692,789993,790382,786767,40925,789993,NA,Sternberg Task,108,80625,122,yes,1024
88.61788618,88.61788618,659.5284553,659.5284553,black,experiment,legacy,legacy,legacy,0,uniform,1,undefined,1,left,122,0,0,122,122,0,0,122,122,122,122,122,0,122,0,Sun Oct 27 19:01:07 2019,The main experiment item,yes,SternnbergTask.osexp,/Users/kaylicolpitts/Desktop/adv quant/lab 3,no,mono,no,18,no,white,no,yes,768,legacy,110,11,/Users/kaylicolpitts/Desktop/adv quant/lab 3/KC-subject-2.csv,legacy,2 4 6 9,Kafkaesque Koffka,3.2.8,3,y,0,left,left,left,left,NA,497,37077,13572,497,NA,2,legacy,4,1024,2,48000,-16,experiment,2,even,6,793745,3836,120804,790399,791506,3817,134377,791518,700692,795759,796259,792530,40925,795759,NA,Sternberg Task,109,81122,123,yes,1024
88.70967742,88.70967742,658.9112903,658.9112903,black,experiment,legacy,legacy,legacy,0,uniform,1,undefined,1,left,123,0,0,123,123,0,0,123,123,123,123,123,0,123,0,Sun Oct 27 19:01:07 2019,The main experiment item,yes,SternnbergTask.osexp,/Users/kaylicolpitts/Desktop/adv quant/lab 3,no,mono,no,18,no,white,no,yes,768,legacy,111,11,/Users/kaylicolpitts/Desktop/adv quant/lab 3/KC-subject-2.csv,legacy,4 6 5 8,Kafkaesque Koffka,3.2.8,1,y,0,left,left,left,left,NA,583,37077,13572,583,NA,2,legacy,4,1024,2,48000,-16,experiment,2,even,4,799616,3836,120804,796273,797378,3817,134377,797390,700692,801628,802213,798402,40925,801628,NA,Sternberg Task,110,81705,124,yes,1024
88.8,88.8,658.112,658.112,black,experiment,legacy,legacy,legacy,0,uniform,1,undefined,1,right,124,0,0,124,124,0,0,124,124,124,124,124,0,124,0,Sun Oct 27 19:01:07 2019,The main experiment item,yes,SternnbergTask.osexp,/Users/kaylicolpitts/Desktop/adv quant/lab 3,no,mono,no,18,no,white,no,yes,768,legacy,112,11,/Users/kaylicolpitts/Desktop/adv quant/lab 3/KC-subject-2.csv,legacy,3 9 8 1 6 4,Kafkaesque Koffka,3.2.8,0,n,0,right,left,left,right,NA,559,37077,13572,559,NA,2,legacy,6,1024,2,48000,-16,experiment,2,even,7,805572,3836,120804,802228,803334,3817,134377,803346,700692,807584,808145,804358,40925,807584,NA,Sternberg Task,111,82264,125,yes,1024
88.88888889,88.88888889,657.8888889,657.8888889,black,experiment,legacy,legacy,legacy,0,uniform,1,undefined,1,right,125,0,0,125,125,0,0,125,125,125,125,125,0,125,0,Sun Oct 27 19:01:07 2019,The main experiment item,yes,SternnbergTask.osexp,/Users/kaylicolpitts/Desktop/adv quant/lab 3,no,mono,no,18,no,white,no,yes,768,legacy,113,11,/Users/kaylicolpitts/Desktop/adv quant/lab 3/KC-subject-2.csv,legacy,1 3 2 6 9,Kafkaesque Koffka,3.2.8,0,n,0,right,left,left,right,NA,630,37077,13572,630,NA,2,legacy,5,1024,2,48000,-16,experiment,2,even,5,811505,3836,120804,808160,809267,3817,134377,809279,700692,813522,814154,810291,40925,813522,NA,Sternberg Task,112,82894,126,yes,1024
88.97637795,88.97637795,656.3307087,656.3307087,black,experiment,legacy,legacy,legacy,0,uniform,1,undefined,1,right,126,0,0,126,126,0,0,126,126,126,126,126,0,126,0,Sun Oct 27 19:01:07 2019,The main experiment item,yes,SternnbergTask.osexp,/Users/kaylicolpitts/Desktop/adv quant/lab 3,no,mono,no,18,no,white,no,yes,768,legacy,114,11,/Users/kaylicolpitts/Desktop/adv quant/lab 3/KC-subject-2.csv,legacy,4 2 6 9,Kafkaesque Koffka,3.2.8,0,n,0,right,left,left,right,NA,460,37077,13572,460,NA,2,legacy,4,1024,2,48000,-16,experiment,2,even,7,817514,3836,120804,814170,815276,3817,134377,815288,700692,819526,819989,816300,40925,819526,NA,Sternberg Task,113,83354,127,yes,1024
89.0625,89.0625,654.8515625,654.8515625,black,experiment,legacy,legacy,legacy,0,uniform,1,undefined,1,right,127,0,0,127,127,0,0,127,127,127,127,127,0,127,0,Sun Oct 27 19:01:07 2019,The main experiment item,yes,SternnbergTask.osexp,/Users/kaylicolpitts/Desktop/adv quant/lab 3,no,mono,no,18,no,white,no,yes,768,legacy,115,11,/Users/kaylicolpitts/Desktop/adv quant/lab 3/KC-subject-2.csv,legacy,1 5 3 2 8,Kafkaesque Koffka,3.2.8,0,n,0,right,left,left,right,NA,467,37077,13572,467,NA,2,legacy,5,1024,2,48000,-16,experiment,2,even,4,823348,3836,120804,820003,821110,3817,134377,821122,700692,825360,825829,822134,40925,825359,NA,Sternberg Task,114,83821,128,yes,1024
89.14728682,89.14728682,654.1472868,654.1472868,black,experiment,legacy,legacy,legacy,0,uniform,1,undefined,1,right,128,0,0,128,128,0,0,128,128,128,128,128,0,128,0,Sun Oct 27 19:01:07 2019,The main experiment item,yes,SternnbergTask.osexp,/Users/kaylicolpitts/Desktop/adv quant/lab 3,no,mono,no,18,no,white,no,yes,768,legacy,116,11,/Users/kaylicolpitts/Desktop/adv quant/lab 3/KC-subject-2.csv,legacy,1 4 3 6 5,Kafkaesque Koffka,3.2.8,0,n,0,right,left,left,right,NA,564,37077,13572,564,NA,2,legacy,5,1024,2,48000,-16,experiment,2,even,8,829188,3836,120804,825844,826952,3817,134377,826964,700692,831201,831768,827976,40925,831201,NA,Sternberg Task,115,84385,129,yes,1024
88.46153846,88.46153846,653.3307692,653.3307692,black,experiment,legacy,legacy,legacy,0,uniform,0,undefined,0,right,129,0,0,129,129,0,0,129,129,129,129,129,0,129,0,Sun Oct 27 19:01:07 2019,The main experiment item,yes,SternnbergTask.osexp,/Users/kaylicolpitts/Desktop/adv quant/lab 3,no,mono,no,18,no,white,no,yes,768,legacy,117,11,/Users/kaylicolpitts/Desktop/adv quant/lab 3/KC-subject-2.csv,legacy,6 9 4 5 3 2,Kafkaesque Koffka,3.2.8,0,n,0,left,left,left,left,NA,548,37077,13572,548,NA,2,legacy,6,1024,2,48000,-16,experiment,2,even,8,835127,3836,120804,831782,832890,3817,134377,832901,700692,837139,837690,833913,40925,837139,NA,Sternberg Task,115,84933,130,yes,1024
88.54961832,88.54961832,652.5038168,652.5038168,black,experiment,legacy,legacy,legacy,0,uniform,1,undefined,1,left,130,0,0,130,130,0,0,130,130,130,130,130,0,130,0,Sun Oct 27 19:01:07 2019,The main experiment item,yes,SternnbergTask.osexp,/Users/kaylicolpitts/Desktop/adv quant/lab 3,no,mono,no,18,no,white,no,yes,768,legacy,118,11,/Users/kaylicolpitts/Desktop/adv quant/lab 3/KC-subject-2.csv,legacy,2 5 4 8 7,Kafkaesque Koffka,3.2.8,3,y,0,left,left,left,left,NA,545,37077,13572,545,NA,2,legacy,5,1024,2,48000,-16,experiment,2,even,4,841049,3836,120804,831782,838811,3817,134377,838823,837705,843061,843610,839836,40925,843061,NA,Sternberg Task,116,85478,131,yes,1024
88.63636364,88.63636364,652.6287879,652.6287879,black,experiment,legacy,legacy,legacy,0,uniform,1,undefined,1,right,131,0,0,131,131,0,0,131,131,131,131,131,0,131,0,Sun Oct 27 19:01:07 2019,The main experiment item,yes,SternnbergTask.osexp,/Users/kaylicolpitts/Desktop/adv quant/lab 3,no,mono,no,18,no,white,no,yes,768,legacy,119,11,/Users/kaylicolpitts/Desktop/adv quant/lab 3/KC-subject-2.csv,legacy,2 8 9,Kafkaesque Koffka,3.2.8,0,n,0,right,left,left,right,NA,669,37077,13572,669,NA,2,legacy,3,1024,2,48000,-16,experiment,2,even,6,846974,3836,120804,843628,844735,3817,134377,844747,837705,848987,849659,845760,40925,848986,NA,Sternberg Task,117,86147,132,yes,1024
88.72180451,88.72180451,652.887218,652.887218,black,experiment,legacy,legacy,legacy,0,uniform,1,undefined,1,left,132,0,0,132,132,0,0,132,132,132,132,132,0,132,0,Sun Oct 27 19:01:07 2019,The main experiment item,yes,SternnbergTask.osexp,/Users/kaylicolpitts/Desktop/adv quant/lab 3,no,mono,no,18,no,white,no,yes,768,legacy,120,11,/Users/kaylicolpitts/Desktop/adv quant/lab 3/KC-subject-2.csv,legacy,3 9 6 2,Kafkaesque Koffka,3.2.8,4,y,0,left,left,left,left,NA,687,37077,13572,687,NA,2,legacy,4,1024,2,48000,-16,experiment,2,even,2,853020,3836,120804,849674,850782,3817,134377,850793,837705,855032,855722,851806,40925,855032,NA,Sternberg Task,118,86834,133,yes,1024
88.80597015,88.80597015,653.3134328,653.3134328,black,experiment,legacy,legacy,legacy,0,uniform,1,undefined,1,left,133,0,0,133,133,0,0,133,133,133,133,133,0,133,0,Sun Oct 27 19:01:07 2019,The main experiment item,yes,SternnbergTask.osexp,/Users/kaylicolpitts/Desktop/adv quant/lab 3,no,mono,no,18,no,white,no,yes,768,legacy,121,11,/Users/kaylicolpitts/Desktop/adv quant/lab 3/KC-subject-2.csv,legacy,8 5 1 3 9,Kafkaesque Koffka,3.2.8,4,y,0,left,left,left,left,NA,710,37077,13572,710,NA,2,legacy,5,1024,2,48000,-16,experiment,2,even,3,859081,3836,120804,855737,856843,3817,134377,856855,837705,861093,861807,857867,40925,861093,NA,Sternberg Task,119,87544,134,yes,1024
88.88888889,88.88888889,654.637037,654.637037,black,experiment,legacy,legacy,legacy,0,uniform,1,undefined,1,right,134,0,0,134,134,0,0,134,134,134,134,134,0,134,0,Sun Oct 27 19:01:07 2019,The main experiment item,yes,SternnbergTask.osexp,/Users/kaylicolpitts/Desktop/adv quant/lab 3,no,mono,no,18,no,white,no,yes,768,legacy,122,11,/Users/kaylicolpitts/Desktop/adv quant/lab 3/KC-subject-2.csv,legacy,3 9 1,Kafkaesque Koffka,3.2.8,0,n,0,right,left,left,right,NA,832,37077,13572,832,NA,2,legacy,3,1024,2,48000,-16,experiment,2,even,7,865169,3836,120804,861823,862930,3817,134377,862942,837705,867181,868016,863954,40925,867181,NA,Sternberg Task,120,88376,135,yes,1024
88.97058824,88.97058824,653.6470588,653.6470588,black,experiment,legacy,legacy,legacy,0,uniform,1,undefined,1,right,135,0,0,135,135,0,0,135,135,135,135,135,0,135,0,Sun Oct 27 19:01:07 2019,The main experiment item,yes,SternnbergTask.osexp,/Users/kaylicolpitts/Desktop/adv quant/lab 3,no,mono,no,18,no,white,no,yes,768,legacy,123,11,/Users/kaylicolpitts/Desktop/adv quant/lab 3/KC-subject-2.csv,legacy,8 5 4 2 9 6,Kafkaesque Koffka,3.2.8,0,n,0,right,left,left,right,NA,520,37077,13572,520,NA,2,legacy,6,1024,2,48000,-16,experiment,2,even,3,871388,3836,120804,868032,869140,3817,134377,869153,837705,873400,873923,870166,40925,873400,NA,Sternberg Task,121,88896,136,yes,1024
89.05109489,89.05109489,653.2189781,653.2189781,black,experiment,legacy,legacy,legacy,0,uniform,1,undefined,1,left,136,0,0,136,136,0,0,136,136,136,136,136,0,136,0,Sun Oct 27 19:01:07 2019,The main experiment item,yes,SternnbergTask.osexp,/Users/kaylicolpitts/Desktop/adv quant/lab 3,no,mono,no,18,no,white,no,yes,768,legacy,124,11,/Users/kaylicolpitts/Desktop/adv quant/lab 3/KC-subject-2.csv,legacy,8 9 5 6 7,Kafkaesque Koffka,3.2.8,1,y,0,left,left,left,left,NA,595,37077,13572,595,NA,2,legacy,5,1024,2,48000,-16,experiment,2,even,8,877282,3836,120804,873937,875042,3817,134377,875056,837705,879294,879892,876069,40925,879294,NA,Sternberg Task,122,89491,137,yes,1024
89.13043478,89.13043478,651.9275362,651.9275362,black,experiment,legacy,legacy,legacy,0,uniform,1,undefined,1,left,137,0,0,137,137,0,0,137,137,137,137,137,0,137,0,Sun Oct 27 19:01:07 2019,The main experiment item,yes,SternnbergTask.osexp,/Users/kaylicolpitts/Desktop/adv quant/lab 3,no,mono,no,18,no,white,no,yes,768,legacy,125,11,/Users/kaylicolpitts/Desktop/adv quant/lab 3/KC-subject-2.csv,legacy,9 8 4,Kafkaesque Koffka,3.2.8,1,y,0,left,left,left,left,NA,475,37077,13572,475,NA,2,legacy,3,1024,2,48000,-16,experiment,2,even,9,883249,3836,120804,879907,881011,3817,134377,881023,837705,885261,885739,882035,40925,885261,NA,Sternberg Task,123,89966,138,yes,1024