"acc","accuracy","average_response_time","avg_rt","background","block","canvas_backend","clock_backend","color_backend","compensation","coordinates","correct","correct_instruction1","correct_keyboard_response","correct_response","count_ISI","count_Practice_loop","count_correctFeedback","count_expSequence","count_experiment","count_experiment_loop","count_fixation","count_incorrectFeedback","count_instruction1","count_instructions2","count_keyboard_response","count_logger","count_memorySet","count_probe","count_thankYou","datetime","description","disable_garbage_collection","experiment_file","experiment_path","font_bold","font_family","font_italic","font_size","font_underline","foreground","form_clicks","fullscreen","height","keyboard_backend","live_row","live_row_Practice_loop","logfile","mouse_backend","numberSet","opensesame_codename","opensesame_version","posInSet","present","repeat_cycle","response","response_instruction1","response_instructions2","response_keyboard_response","response_thankYou","response_time","response_time_instruction1","response_time_instructions2","response_time_keyboard_response","response_time_thankYou","round_decimals","sampler_backend","setSize","sound_buf_size","sound_channels","sound_freq","sound_sample_size","start","subject_nr","subject_parity","target","time_ISI","time_Practice_loop","time_correctFeedback","time_expSequence","time_experiment","time_experiment_loop","time_fixation","time_incorrectFeedback","time_instruction1","time_instructions2","time_keyboard_response","time_logger","time_memorySet","time_probe","time_thankYou","title","total_correct","total_response_time","total_responses","uniform_coordinates","width"
"100","100","992","992","black","practice","legacy","legacy","legacy","0","uniform","1","undefined","1","left","0","0","0","0","0","0","0","0","0","0","0","0","0","0","0","Sun Oct 23 22:41:48 2022","The main experiment item","yes","Sternbergtask.osexp","C:/Users/cici_/Downloads","no","mono","no","18","no","white","no","yes","768","legacy","0","0","C:/Users/cici_/OneDrive/Documents/R/cs-subject-4.csv","legacy","1 5 2 9","Lentiform Loewenfeld","3.3.12","2","y","0","left","right","NA","left","NA","992","9495","NA","992","NA","2","legacy","4","1024","2","48000","-16","experiment","4","even","5","17392","12803","NA","15184","3301","NA","15187","NA","3306","NA","19395","20388","16190","19394","NA","Sternberg task","1","992","1","yes","1024"
"50","50","798.5","798.5","black","practice","legacy","legacy","legacy","0","uniform","0","undefined","0","left","1","0","1","1","0","0","1","1","0","0","1","1","1","1","0","Sun Oct 23 22:41:48 2022","The main experiment item","yes","Sternbergtask.osexp","C:/Users/cici_/Downloads","no","mono","no","18","no","white","no","yes","768","legacy","1","1","C:/Users/cici_/OneDrive/Documents/R/cs-subject-4.csv","legacy","1 7 9 8 5","Lentiform Loewenfeld","3.3.12","4","y","0","right","right","NA","right","NA","605","9495","NA","605","NA","2","legacy","5","1024","2","48000","-16","experiment","4","even","8","23845","12803","20475","21635","3301","NA","21639","NA","3306","NA","25847","26453","22641","25847","NA","Sternberg task","1","1597","2","yes","1024"
"66.66666666666667","66.66666666666667","713","713","black","practice","legacy","legacy","legacy","0","uniform","1","undefined","1","left","2","0","2","2","0","0","2","2","0","0","2","2","2","2","0","Sun Oct 23 22:41:48 2022","The main experiment item","yes","Sternbergtask.osexp","C:/Users/cici_/Downloads","no","mono","no","18","no","white","no","yes","768","legacy","2","2","C:/Users/cici_/OneDrive/Documents/R/cs-subject-4.csv","legacy","4 8","Lentiform Loewenfeld","3.3.12","1","y","0","left","right","NA","left","NA","542","9495","NA","542","NA","2","legacy","2","1024","2","48000","-16","experiment","4","even","4","29791","12803","20475","27583","3301","NA","27586","26460","3306","NA","31794","32337","28588","31793","NA","Sternberg task","2","2139","3","yes","1024"
"75","75","715.75","715.75","black","practice","legacy","legacy","legacy","0","uniform","1","undefined","1","right","3","0","3","3","0","0","3","3","0","0","3","3","3","3","0","Sun Oct 23 22:41:48 2022","The main experiment item","yes","Sternbergtask.osexp","C:/Users/cici_/Downloads","no","mono","no","18","no","white","no","yes","768","legacy","3","3","C:/Users/cici_/OneDrive/Documents/R/cs-subject-4.csv","legacy","5 7 8 4 1 2","Lentiform Loewenfeld","3.3.12","0","n","0","right","right","NA","right","NA","724","9495","NA","724","NA","2","legacy","6","1024","2","48000","-16","experiment","4","even","6","35667","12803","32343","33459","3301","NA","33462","26460","3306","NA","37670","38395","34464","37669","NA","Sternberg task","3","2863","4","yes","1024"
"80","80","716.6","716.6","black","practice","legacy","legacy","legacy","0","uniform","1","undefined","1","right","4","0","4","4","0","0","4","4","0","0","4","4","4","4","0","Sun Oct 23 22:41:48 2022","The main experiment item","yes","Sternbergtask.osexp","C:/Users/cici_/Downloads","no","mono","no","18","no","white","no","yes","768","legacy","4","4","C:/Users/cici_/OneDrive/Documents/R/cs-subject-4.csv","legacy","2 1","Lentiform Loewenfeld","3.3.12","0","n","0","right","right","NA","right","NA","720","9495","NA","720","NA","2","legacy","2","1024","2","48000","-16","experiment","4","even","5","41726","12803","38401","39519","3301","NA","39522","26460","3306","NA","43728","44449","40524","43728","NA","Sternberg task","4","3583","5","yes","1024"
"83.33333333333333","83.33333333333333","777.5","777.5","black","practice","legacy","legacy","legacy","0","uniform","1","undefined","1","right","5","0","5","5","0","0","5","5","0","0","5","5","5","5","0","Sun Oct 23 22:41:48 2022","The main experiment item","yes","Sternbergtask.osexp","C:/Users/cici_/Downloads","no","mono","no","18","no","white","no","yes","768","legacy","5","5","C:/Users/cici_/OneDrive/Documents/R/cs-subject-4.csv","legacy","4 1 5","Lentiform Loewenfeld","3.3.12","0","n","0","right","right","NA","right","NA","1082","9495","NA","1082","NA","2","legacy","3","1024","2","48000","-16","experiment","4","even","2","47783","12803","44455","45576","3301","NA","45578","26460","3306","NA","49785","50868","46581","49784","NA","Sternberg task","5","4665","6","yes","1024"
"71.42857142857143","71.42857142857143","773","773","black","practice","legacy","legacy","legacy","0","uniform","0","undefined","0","right","6","0","6","6","0","0","6","6","0","0","6","6","6","6","0","Sun Oct 23 22:41:48 2022","The main experiment item","yes","Sternbergtask.osexp","C:/Users/cici_/Downloads","no","mono","no","18","no","white","no","yes","768","legacy","6","6","C:/Users/cici_/OneDrive/Documents/R/cs-subject-4.csv","legacy","5","Lentiform Loewenfeld","3.3.12","0","n","0","left","right","NA","left","NA","746","9495","NA","746","NA","2","legacy","1","1024","2","48000","-16","experiment","4","even","3","54197","12803","50875","51991","3301","NA","51994","26460","3306","NA","56199","56946","52995","56199","NA","Sternberg task","5","5411","7","yes","1024"
"75","75","772.5","772.5","black","practice","legacy","legacy","legacy","0","uniform","1","undefined","1","right","7","0","7","7","0","0","7","7","0","0","7","7","7","7","0","Sun Oct 23 22:41:48 2022","The main experiment item","yes","Sternbergtask.osexp","C:/Users/cici_/Downloads","no","mono","no","18","no","white","no","yes","768","legacy","7","7","C:/Users/cici_/OneDrive/Documents/R/cs-subject-4.csv","legacy","9 6 7 4 5","Lentiform Loewenfeld","3.3.12","0","n","0","right","right","NA","right","NA","769","9495","NA","769","NA","2","legacy","5","1024","2","48000","-16","experiment","4","even","3","60294","12803","50875","58087","3301","NA","58090","56952","3306","NA","62296","63066","59092","62296","NA","Sternberg task","6","6180","8","yes","1024"
"77.77777777777777","77.77777777777777","807.1111111111111","807.1111111111111","black","practice","legacy","legacy","legacy","0","uniform","1","undefined","1","right","8","0","8","8","0","0","8","8","0","0","8","8","8","8","0","Sun Oct 23 22:41:48 2022","The main experiment item","yes","Sternbergtask.osexp","C:/Users/cici_/Downloads","no","mono","no","18","no","white","no","yes","768","legacy","8","8","C:/Users/cici_/OneDrive/Documents/R/cs-subject-4.csv","legacy","3 1 9 4","Lentiform Loewenfeld","3.3.12","0","n","0","right","right","NA","right","NA","1084","9495","NA","1084","NA","2","legacy","4","1024","2","48000","-16","experiment","4","even","6","66411","12803","63074","64204","3301","NA","64207","56952","3306","NA","68416","69501","65209","68416","NA","Sternberg task","7","7264","9","yes","1024"
"80","80","788.3","788.3","black","practice","legacy","legacy","legacy","0","uniform","1","undefined","1","left","9","0","9","9","0","0","9","9","0","0","9","9","9","9","0","Sun Oct 23 22:41:48 2022","The main experiment item","yes","Sternbergtask.osexp","C:/Users/cici_/Downloads","no","mono","no","18","no","white","no","yes","768","legacy","9","9","C:/Users/cici_/OneDrive/Documents/R/cs-subject-4.csv","legacy","4 3 1 7 9 8","Lentiform Loewenfeld","3.3.12","1","y","0","left","right","NA","left","NA","619","9495","NA","619","NA","2","legacy","6","1024","2","48000","-16","experiment","4","even","4","72856","12803","69508","70649","3301","NA","70652","56952","3306","NA","74858","75478","71654","74858","NA","Sternberg task","8","7883","10","yes","1024"
"72.72727272727273","72.72727272727273","785.8181818181819","785.8181818181819","black","practice","legacy","legacy","legacy","0","uniform","0","undefined","0","left","10","0","10","10","0","0","10","10","0","0","10","10","10","10","0","Sun Oct 23 22:41:48 2022","The main experiment item","yes","Sternbergtask.osexp","C:/Users/cici_/Downloads","no","mono","no","18","no","white","no","yes","768","legacy","10","10","C:/Users/cici_/OneDrive/Documents/R/cs-subject-4.csv","legacy","2 9 4","Lentiform Loewenfeld","3.3.12","3","y","0","right","right","NA","right","NA","761","9495","NA","761","NA","2","legacy","3","1024","2","48000","-16","experiment","4","even","4","78803","12803","75486","76595","3301","NA","76598","56952","3306","NA","80805","81567","77600","80805","NA","Sternberg task","8","8644","11","yes","1024"
"75","75","758.8333333333334","758.8333333333334","black","practice","legacy","legacy","legacy","0","uniform","1","undefined","1","left","11","0","11","11","0","0","11","11","0","0","11","11","11","11","0","Sun Oct 23 22:41:48 2022","The main experiment item","yes","Sternbergtask.osexp","C:/Users/cici_/Downloads","no","mono","no","18","no","white","no","yes","768","legacy","11","11","C:/Users/cici_/OneDrive/Documents/R/cs-subject-4.csv","legacy","6","Lentiform Loewenfeld","3.3.12","1","y","0","left","right","NA","left","NA","462","9495","NA","462","NA","2","legacy","1","1024","2","48000","-16","experiment","4","even","6","84894","12803","75486","82686","3301","NA","82689","81575","3306","NA","86897","87360","83692","86897","NA","Sternberg task","9","9106","12","yes","1024"
"76.92307692307692","76.92307692307692","755.3076923076923","755.3076923076923","black","experiment","legacy","legacy","legacy","0","uniform","1","undefined","1","right","12","0","12","12","0","0","12","12","0","0","12","12","12","12","0","Sun Oct 23 22:41:48 2022","The main experiment item","yes","Sternbergtask.osexp","C:/Users/cici_/Downloads","no","mono","no","18","no","white","no","yes","768","legacy","0","11","C:/Users/cici_/OneDrive/Documents/R/cs-subject-4.csv","legacy","5 3 2 6 9 8","Lentiform Loewenfeld","3.3.12","0","n","0","right","right","right","right","NA","713","9495","1174","713","NA","2","legacy","6","1024","2","48000","-16","experiment","4","even","4","91930","12803","87367","89722","3301","89580","89726","81575","3306","88405","93933","94647","90728","93932","NA","Sternberg task","10","9819","13","yes","1024"
"78.57142857142857","78.57142857142857","774.5714285714286","774.5714285714286","black","experiment","legacy","legacy","legacy","0","uniform","1","undefined","1","right","13","0","13","13","0","0","13","13","0","0","13","13","13","13","0","Sun Oct 23 22:41:48 2022","The main experiment item","yes","Sternbergtask.osexp","C:/Users/cici_/Downloads","no","mono","no","18","no","white","no","yes","768","legacy","1","11","C:/Users/cici_/OneDrive/Documents/R/cs-subject-4.csv","legacy","6 9 5","Lentiform Loewenfeld","3.3.12","0","n","0","right","right","right","right","NA","1025","9495","1174","1025","NA","2","legacy","3","1024","2","48000","-16","experiment","4","even","8","97985","12803","94654","95777","3301","89580","95780","81575","3306","88405","99987","101013","96782","99987","NA","Sternberg task","11","10844","14","yes","1024"
"73.33333333333333","73.33333333333333","773.6666666666666","773.6666666666666","black","experiment","legacy","legacy","legacy","0","uniform","0","undefined","0","left","14","0","14","14","0","0","14","14","0","0","14","14","14","14","0","Sun Oct 23 22:41:48 2022","The main experiment item","yes","Sternbergtask.osexp","C:/Users/cici_/Downloads","no","mono","no","18","no","white","no","yes","768","legacy","2","11","C:/Users/cici_/OneDrive/Documents/R/cs-subject-4.csv","legacy","4 7 6 8 2 3","Lentiform Loewenfeld","3.3.12","6","y","0","right","right","right","right","NA","761","9495","1174","761","NA","2","legacy","6","1024","2","48000","-16","experiment","4","even","3","104352","12803","101020","102145","3301","89580","102148","81575","3306","88405","106354","107116","103150","106354","NA","Sternberg task","11","11605","15","yes","1024"
"75","75","784.8125","784.8125","black","experiment","legacy","legacy","legacy","0","uniform","1","undefined","1","right","15","0","15","15","0","0","15","15","0","0","15","15","15","15","0","Sun Oct 23 22:41:48 2022","The main experiment item","yes","Sternbergtask.osexp","C:/Users/cici_/Downloads","no","mono","no","18","no","white","no","yes","768","legacy","3","11","C:/Users/cici_/OneDrive/Documents/R/cs-subject-4.csv","legacy","4 1","Lentiform Loewenfeld","3.3.12","0","n","0","right","right","right","right","NA","952","9495","1174","952","NA","2","legacy","2","1024","2","48000","-16","experiment","4","even","6","110469","12803","101020","108262","3301","89580","108266","107122","3306","88405","112471","113424","109268","112471","NA","Sternberg task","12","12557","16","yes","1024"
"76.47058823529412","76.47058823529412","816.2352941176471","816.2352941176471","black","experiment","legacy","legacy","legacy","0","uniform","1","undefined","1","right","16","0","16","16","0","0","16","16","0","0","16","16","16","16","0","Sun Oct 23 22:41:48 2022","The main experiment item","yes","Sternbergtask.osexp","C:/Users/cici_/Downloads","no","mono","no","18","no","white","no","yes","768","legacy","4","11","C:/Users/cici_/OneDrive/Documents/R/cs-subject-4.csv","legacy","1 6 4","Lentiform Loewenfeld","3.3.12","0","n","0","right","right","right","right","NA","1319","9495","1174","1319","NA","2","legacy","3","1024","2","48000","-16","experiment","4","even","7","116757","12803","113440","114550","3301","89580","114553","107122","3306","88405","118759","120079","115555","118759","NA","Sternberg task","13","13876","17","yes","1024"
"77.77777777777777","77.77777777777777","820.3888888888889","820.3888888888889","black","experiment","legacy","legacy","legacy","0","uniform","1","undefined","1","right","17","0","17","17","0","0","17","17","0","0","17","17","17","17","0","Sun Oct 23 22:41:48 2022","The main experiment item","yes","Sternbergtask.osexp","C:/Users/cici_/Downloads","no","mono","no","18","no","white","no","yes","768","legacy","5","11","C:/Users/cici_/OneDrive/Documents/R/cs-subject-4.csv","legacy","5","Lentiform Loewenfeld","3.3.12","0","n","0","right","right","right","right","NA","891","9495","1174","891","NA","2","legacy","1","1024","2","48000","-16","experiment","4","even","8","123419","12803","120096","121212","3301","89580","121215","107122","3306","88405","125421","126313","122217","125421","NA","Sternberg task","14","14767","18","yes","1024"
"78.94736842105263","78.94736842105263","839.8947368421053","839.8947368421053","black","experiment","legacy","legacy","legacy","0","uniform","1","undefined","1","left","18","0","18","18","0","0","18","18","0","0","18","18","18","18","0","Sun Oct 23 22:41:48 2022","The main experiment item","yes","Sternbergtask.osexp","C:/Users/cici_/Downloads","no","mono","no","18","no","white","no","yes","768","legacy","6","11","C:/Users/cici_/OneDrive/Documents/R/cs-subject-4.csv","legacy","8 9 6 1","Lentiform Loewenfeld","3.3.12","2","y","0","left","right","right","left","NA","1191","9495","1174","1191","NA","2","legacy","4","1024","2","48000","-16","experiment","4","even","9","129645","12803","126320","127438","3301","89580","127441","107122","3306","88405","131647","132840","128443","131647","NA","Sternberg task","15","15958","19","yes","1024"
"80","80","824.35","824.35","black","experiment","legacy","legacy","legacy","0","uniform","1","undefined","1","right","19","0","19","19","0","0","19","19","0","0","19","19","19","19","0","Sun Oct 23 22:41:48 2022","The main experiment item","yes","Sternbergtask.osexp","C:/Users/cici_/Downloads","no","mono","no","18","no","white","no","yes","768","legacy","7","11","C:/Users/cici_/OneDrive/Documents/R/cs-subject-4.csv","legacy","2 8 9","Lentiform Loewenfeld","3.3.12","0","n","0","right","right","right","right","NA","529","9495","1174","529","NA","2","legacy","3","1024","2","48000","-16","experiment","4","even","6","136171","12803","132847","133963","3301","89580","133966","107122","3306","88405","138174","138704","134968","138174","NA","Sternberg task","16","16487","20","yes","1024"
"80.95238095238095","80.95238095238095","809.6190476190476","809.6190476190476","black","experiment","legacy","legacy","legacy","0","uniform","1","undefined","1","right","20","0","20","20","0","0","20","20","0","0","20","20","20","20","0","Sun Oct 23 22:41:48 2022","The main experiment item","yes","Sternbergtask.osexp","C:/Users/cici_/Downloads","no","mono","no","18","no","white","no","yes","768","legacy","8","11","C:/Users/cici_/OneDrive/Documents/R/cs-subject-4.csv","legacy","1","Lentiform Loewenfeld","3.3.12","0","n","0","right","right","right","right","NA","515","9495","1174","515","NA","2","legacy","1","1024","2","48000","-16","experiment","4","even","7","142039","12803","138720","139833","3301","89580","139836","107122","3306","88405","144041","144557","140838","144041","NA","Sternberg task","17","17002","21","yes","1024"
"81.81818181818181","81.81818181818181","804.7272727272727","804.7272727272727","black","experiment","legacy","legacy","legacy","0","uniform","1","undefined","1","left","21","0","21","21","0","0","21","21","0","0","21","21","21","21","0","Sun Oct 23 22:41:48 2022","The main experiment item","yes","Sternbergtask.osexp","C:/Users/cici_/Downloads","no","mono","no","18","no","white","no","yes","768","legacy","9","11","C:/Users/cici_/OneDrive/Documents/R/cs-subject-4.csv","legacy","2 3 7 4","Lentiform Loewenfeld","3.3.12","1","y","0","left","right","right","left","NA","702","9495","1174","702","NA","2","legacy","4","1024","2","48000","-16","experiment","4","even","2","147892","12803","144569","145684","3301","89580","145687","107122","3306","88405","149894","150597","146689","149894","NA","Sternberg task","18","17704","22","yes","1024"
"82.6086956521739","82.6086956521739","803.8260869565217","803.8260869565217","black","experiment","legacy","legacy","legacy","0","uniform","1","undefined","1","left","22","0","22","22","0","0","22","22","0","0","22","22","22","22","0","Sun Oct 23 22:41:48 2022","The main experiment item","yes","Sternbergtask.osexp","C:/Users/cici_/Downloads","no","mono","no","18","no","white","no","yes","768","legacy","10","11","C:/Users/cici_/OneDrive/Documents/R/cs-subject-4.csv","legacy","6 1 2","Lentiform Loewenfeld","3.3.12","3","y","0","left","right","right","left","NA","784","9495","1174","784","NA","2","legacy","3","1024","2","48000","-16","experiment","4","even","2","153942","12803","150614","151736","3301","89580","151738","107122","3306","88405","155944","156729","152741","155944","NA","Sternberg task","19","18488","23","yes","1024"
"83.33333333333333","83.33333333333333","798.2083333333334","798.2083333333334","black","experiment","legacy","legacy","legacy","0","uniform","1","undefined","1","right","23","0","23","23","0","0","23","23","0","0","23","23","23","23","0","Sun Oct 23 22:41:48 2022","The main experiment item","yes","Sternbergtask.osexp","C:/Users/cici_/Downloads","no","mono","no","18","no","white","no","yes","768","legacy","11","11","C:/Users/cici_/OneDrive/Documents/R/cs-subject-4.csv","legacy","1 5 3 2 8","Lentiform Loewenfeld","3.3.12","0","n","0","right","right","right","right","NA","669","9495","1174","669","NA","2","legacy","5","1024","2","48000","-16","experiment","4","even","4","160066","12803","156746","157860","3301","89580","157863","107122","3306","88405","162068","162739","158865","162068","NA","Sternberg task","20","19157","24","yes","1024"
"84","84","801.16","801.16","black","experiment","legacy","legacy","legacy","0","uniform","1","undefined","1","right","24","0","24","24","0","0","24","24","0","0","24","24","24","24","0","Sun Oct 23 22:41:48 2022","The main experiment item","yes","Sternbergtask.osexp","C:/Users/cici_/Downloads","no","mono","no","18","no","white","no","yes","768","legacy","12","11","C:/Users/cici_/OneDrive/Documents/R/cs-subject-4.csv","legacy","1 8 7","Lentiform Loewenfeld","3.3.12","0","n","0","right","right","right","right","NA","872","9495","1174","872","NA","2","legacy","3","1024","2","48000","-16","experiment","4","even","4","166066","12803","162746","163859","3301","89580","163862","107122","3306","88405","168068","168941","164864","168068","NA","Sternberg task","21","20029","25","yes","1024"
"84.61538461538461","84.61538461538461","793.6153846153846","793.6153846153846","black","experiment","legacy","legacy","legacy","0","uniform","1","undefined","1","right","25","0","25","25","0","0","25","25","0","0","25","25","25","25","0","Sun Oct 23 22:41:48 2022","The main experiment item","yes","Sternbergtask.osexp","C:/Users/cici_/Downloads","no","mono","no","18","no","white","no","yes","768","legacy","13","11","C:/Users/cici_/OneDrive/Documents/R/cs-subject-4.csv","legacy","3 4 2","Lentiform Loewenfeld","3.3.12","0","n","0","right","right","right","right","NA","605","9495","1174","605","NA","2","legacy","3","1024","2","48000","-16","experiment","4","even","5","172282","12803","168949","170075","3301","89580","170078","107122","3306","88405","174284","174890","171080","174284","NA","Sternberg task","22","20634","26","yes","1024"
"85.18518518518519","85.18518518518519","789.7777777777778","789.7777777777778","black","experiment","legacy","legacy","legacy","0","uniform","1","undefined","1","right","26","0","26","26","0","0","26","26","0","0","26","26","26","26","0","Sun Oct 23 22:41:48 2022","The main experiment item","yes","Sternbergtask.osexp","C:/Users/cici_/Downloads","no","mono","no","18","no","white","no","yes","768","legacy","14","11","C:/Users/cici_/OneDrive/Documents/R/cs-subject-4.csv","legacy","1 6 4 3 9 7","Lentiform Loewenfeld","3.3.12","0","n","0","right","right","right","right","NA","690","9495","1174","690","NA","2","legacy","6","1024","2","48000","-16","experiment","4","even","8","178220","12803","174897","176013","3301","89580","176016","107122","3306","88405","180223","180914","177018","180223","NA","Sternberg task","23","21324","27","yes","1024"
"85.71428571428571","85.71428571428571","788.6071428571429","788.6071428571429","black","experiment","legacy","legacy","legacy","0","uniform","1","undefined","1","left","27","0","27","27","0","0","27","27","0","0","27","27","27","27","0","Sun Oct 23 22:41:48 2022","The main experiment item","yes","Sternbergtask.osexp","C:/Users/cici_/Downloads","no","mono","no","18","no","white","no","yes","768","legacy","15","11","C:/Users/cici_/OneDrive/Documents/R/cs-subject-4.csv","legacy","5 2 6","Lentiform Loewenfeld","3.3.12","2","y","0","left","right","right","left","NA","757","9495","1174","757","NA","2","legacy","3","1024","2","48000","-16","experiment","4","even","2","184263","12803","180924","182056","3301","89580","182059","107122","3306","88405","186265","187023","183061","186265","NA","Sternberg task","24","22081","28","yes","1024"
"86.20689655172414","86.20689655172414","781.2413793103449","781.2413793103449","black","experiment","legacy","legacy","legacy","0","uniform","1","undefined","1","left","28","0","28","28","0","0","28","28","0","0","28","28","28","28","0","Sun Oct 23 22:41:48 2022","The main experiment item","yes","Sternbergtask.osexp","C:/Users/cici_/Downloads","no","mono","no","18","no","white","no","yes","768","legacy","16","11","C:/Users/cici_/OneDrive/Documents/R/cs-subject-4.csv","legacy","7 8 4 6 9 5","Lentiform Loewenfeld","3.3.12","4","y","0","left","right","right","left","NA","575","9495","1174","575","NA","2","legacy","6","1024","2","48000","-16","experiment","4","even","6","190353","12803","187030","188145","3301","89580","188149","107122","3306","88405","192355","192931","189151","192355","NA","Sternberg task","25","22656","29","yes","1024"
"86.66666666666667","86.66666666666667","773.7666666666667","773.7666666666667","black","experiment","legacy","legacy","legacy","0","uniform","1","undefined","1","left","29","0","29","29","0","0","29","29","0","0","29","29","29","29","0","Sun Oct 23 22:41:48 2022","The main experiment item","yes","Sternbergtask.osexp","C:/Users/cici_/Downloads","no","mono","no","18","no","white","no","yes","768","legacy","17","11","C:/Users/cici_/OneDrive/Documents/R/cs-subject-4.csv","legacy","8 5 1 3 9","Lentiform Loewenfeld","3.3.12","4","y","0","left","right","right","left","NA","557","9495","1174","557","NA","2","legacy","5","1024","2","48000","-16","experiment","4","even","3","196270","12803","192938","194063","3301","89580","194066","107122","3306","88405","198273","198831","195068","198273","NA","Sternberg task","26","23213","30","yes","1024"
"87.09677419354838","87.09677419354838","765.7096774193549","765.7096774193549","black","experiment","legacy","legacy","legacy","0","uniform","1","undefined","1","left","30","0","30","30","0","0","30","30","0","0","30","30","30","30","0","Sun Oct 23 22:41:48 2022","The main experiment item","yes","Sternbergtask.osexp","C:/Users/cici_/Downloads","no","mono","no","18","no","white","no","yes","768","legacy","18","11","C:/Users/cici_/OneDrive/Documents/R/cs-subject-4.csv","legacy","8 7 3","Lentiform Loewenfeld","3.3.12","1","y","0","left","right","right","left","NA","524","9495","1174","524","NA","2","legacy","3","1024","2","48000","-16","experiment","4","even","8","202188","12803","198838","199981","3301","89580","199984","107122","3306","88405","204190","204715","200986","204190","NA","Sternberg task","27","23737","31","yes","1024"
"87.5","87.5","761.53125","761.53125","black","experiment","legacy","legacy","legacy","0","uniform","1","undefined","1","right","31","0","31","31","0","0","31","31","0","0","31","31","31","31","0","Sun Oct 23 22:41:48 2022","The main experiment item","yes","Sternbergtask.osexp","C:/Users/cici_/Downloads","no","mono","no","18","no","white","no","yes","768","legacy","19","11","C:/Users/cici_/OneDrive/Documents/R/cs-subject-4.csv","legacy","4 2 6 9","Lentiform Loewenfeld","3.3.12","0","n","0","right","right","right","right","NA","632","9495","1174","632","NA","2","legacy","4","1024","2","48000","-16","experiment","4","even","7","208061","12803","204722","205853","3301","89580","205856","107122","3306","88405","210064","210697","206859","210064","NA","Sternberg task","28","24369","32","yes","1024"
"87.87878787878788","87.87878787878788","757.0909090909091","757.0909090909091","black","experiment","legacy","legacy","legacy","0","uniform","1","undefined","1","left","32","0","32","32","0","0","32","32","0","0","32","32","32","32","0","Sun Oct 23 22:41:48 2022","The main experiment item","yes","Sternbergtask.osexp","C:/Users/cici_/Downloads","no","mono","no","18","no","white","no","yes","768","legacy","20","11","C:/Users/cici_/OneDrive/Documents/R/cs-subject-4.csv","legacy","9 8 4","Lentiform Loewenfeld","3.3.12","1","y","0","left","right","right","left","NA","615","9495","1174","615","NA","2","legacy","3","1024","2","48000","-16","experiment","4","even","9","214038","12803","210704","211829","3301","89580","211832","107122","3306","88405","216040","216657","212835","216040","NA","Sternberg task","29","24984","33","yes","1024"
"88.23529411764706","88.23529411764706","754.3823529411765","754.3823529411765","black","experiment","legacy","legacy","legacy","0","uniform","1","undefined","1","left","33","0","33","33","0","0","33","33","0","0","33","33","33","33","0","Sun Oct 23 22:41:48 2022","The main experiment item","yes","Sternbergtask.osexp","C:/Users/cici_/Downloads","no","mono","no","18","no","white","no","yes","768","legacy","21","11","C:/Users/cici_/OneDrive/Documents/R/cs-subject-4.csv","legacy","2 4 6 9","Lentiform Loewenfeld","3.3.12","3","y","0","left","right","right","left","NA","665","9495","1174","665","NA","2","legacy","4","1024","2","48000","-16","experiment","4","even","6","220003","12803","216664","217792","3301","89580","217799","107122","3306","88405","222006","222673","218801","222006","NA","Sternberg task","30","25649","34","yes","1024"
"88.57142857142857","88.57142857142857","747.5428571428571","747.5428571428571","black","experiment","legacy","legacy","legacy","0","uniform","1","undefined","1","right","34","0","34","34","0","0","34","34","0","0","34","34","34","34","0","Sun Oct 23 22:41:48 2022","The main experiment item","yes","Sternbergtask.osexp","C:/Users/cici_/Downloads","no","mono","no","18","no","white","no","yes","768","legacy","22","11","C:/Users/cici_/OneDrive/Documents/R/cs-subject-4.csv","legacy","9","Lentiform Loewenfeld","3.3.12","0","n","0","right","right","right","right","NA","515","9495","1174","515","NA","2","legacy","1","1024","2","48000","-16","experiment","4","even","6","226019","12803","222679","223810","3301","89580","223814","107122","3306","88405","228021","228539","224816","228021","NA","Sternberg task","31","26164","35","yes","1024"
"88.88888888888889","88.88888888888889","757.6388888888889","757.6388888888889","black","experiment","legacy","legacy","legacy","0","uniform","1","undefined","1","right","35","0","35","35","0","0","35","35","0","0","35","35","35","35","0","Sun Oct 23 22:41:48 2022","The main experiment item","yes","Sternbergtask.osexp","C:/Users/cici_/Downloads","no","mono","no","18","no","white","no","yes","768","legacy","23","11","C:/Users/cici_/OneDrive/Documents/R/cs-subject-4.csv","legacy","6 3 1 7 9 8","Lentiform Loewenfeld","3.3.12","0","n","0","right","right","right","right","NA","1111","9495","1174","1111","NA","2","legacy","6","1024","2","48000","-16","experiment","4","even","4","231896","12803","228546","229688","3301","89580","229691","107122","3306","88405","233898","235010","230694","233898","NA","Sternberg task","32","27275","36","yes","1024"
"89.1891891891892","89.1891891891892","761.8378378378378","761.8378378378378","black","experiment","legacy","legacy","legacy","0","uniform","1","undefined","1","right","36","0","36","36","0","0","36","36","0","0","36","36","36","36","0","Sun Oct 23 22:41:48 2022","The main experiment item","yes","Sternbergtask.osexp","C:/Users/cici_/Downloads","no","mono","no","18","no","white","no","yes","768","legacy","24","11","C:/Users/cici_/OneDrive/Documents/R/cs-subject-4.csv","legacy","1 3 2 6 9","Lentiform Loewenfeld","3.3.12","0","n","0","right","right","right","right","NA","913","9495","1174","913","NA","2","legacy","5","1024","2","48000","-16","experiment","4","even","5","238367","12803","235018","236159","3301","89580","236162","107122","3306","88405","240369","241283","237165","240369","NA","Sternberg task","33","28188","37","yes","1024"
"89.47368421052632","89.47368421052632","765.421052631579","765.421052631579","black","experiment","legacy","legacy","legacy","0","uniform","1","undefined","1","right","37","0","37","37","0","0","37","37","0","0","37","37","37","37","0","Sun Oct 23 22:41:48 2022","The main experiment item","yes","Sternbergtask.osexp","C:/Users/cici_/Downloads","no","mono","no","18","no","white","no","yes","768","legacy","25","11","C:/Users/cici_/OneDrive/Documents/R/cs-subject-4.csv","legacy","9 8 2 7 4","Lentiform Loewenfeld","3.3.12","0","n","0","right","right","right","right","NA","898","9495","1174","898","NA","2","legacy","5","1024","2","48000","-16","experiment","4","even","5","244612","12803","241290","242405","3301","89580","242408","107122","3306","88405","246614","247513","243410","246613","NA","Sternberg task","34","29086","38","yes","1024"
"89.74358974358974","89.74358974358974","762.2307692307693","762.2307692307693","black","experiment","legacy","legacy","legacy","0","uniform","1","undefined","1","left","38","0","38","38","0","0","38","38","0","0","38","38","38","38","0","Sun Oct 23 22:41:48 2022","The main experiment item","yes","Sternbergtask.osexp","C:/Users/cici_/Downloads","no","mono","no","18","no","white","no","yes","768","legacy","26","11","C:/Users/cici_/OneDrive/Documents/R/cs-subject-4.csv","legacy","4 6 5 8","Lentiform Loewenfeld","3.3.12","1","y","0","left","right","right","left","NA","641","9495","1174","641","NA","2","legacy","4","1024","2","48000","-16","experiment","4","even","4","250848","12803","247521","248641","3301","89580","248644","107122","3306","88405","252850","253492","249646","252850","NA","Sternberg task","35","29727","39","yes","1024"
"90","90","764.575","764.575","black","experiment","legacy","legacy","legacy","0","uniform","1","undefined","1","right","39","0","39","39","0","0","39","39","0","0","39","39","39","39","0","Sun Oct 23 22:41:48 2022","The main experiment item","yes","Sternbergtask.osexp","C:/Users/cici_/Downloads","no","mono","no","18","no","white","no","yes","768","legacy","27","11","C:/Users/cici_/OneDrive/Documents/R/cs-subject-4.csv","legacy","7 3 2 8","Lentiform Loewenfeld","3.3.12","0","n","0","right","right","right","right","NA","856","9495","1174","856","NA","2","legacy","4","1024","2","48000","-16","experiment","4","even","4","256841","12803","253510","254634","3301","89580","254637","107122","3306","88405","258843","259700","255639","258843","NA","Sternberg task","36","30583","40","yes","1024"
"90.2439024390244","90.2439024390244","768.439024390244","768.439024390244","black","experiment","legacy","legacy","legacy","0","uniform","1","undefined","1","left","40","0","40","40","0","0","40","40","0","0","40","40","40","40","0","Sun Oct 23 22:41:48 2022","The main experiment item","yes","Sternbergtask.osexp","C:/Users/cici_/Downloads","no","mono","no","18","no","white","no","yes","768","legacy","28","11","C:/Users/cici_/OneDrive/Documents/R/cs-subject-4.csv","legacy","9 1 7 2","Lentiform Loewenfeld","3.3.12","2","y","0","left","right","right","left","NA","923","9495","1174","923","NA","2","legacy","4","1024","2","48000","-16","experiment","4","even","1","263032","12803","259708","260826","3301","89580","260829","107122","3306","88405","265035","265960","261831","265034","NA","Sternberg task","37","31506","41","yes","1024"
"90.47619047619048","90.47619047619048","764.2857142857143","764.2857142857143","black","experiment","legacy","legacy","legacy","0","uniform","1","undefined","1","left","41","0","41","41","0","0","41","41","0","0","41","41","41","41","0","Sun Oct 23 22:41:48 2022","The main experiment item","yes","Sternbergtask.osexp","C:/Users/cici_/Downloads","no","mono","no","18","no","white","no","yes","768","legacy","29","11","C:/Users/cici_/OneDrive/Documents/R/cs-subject-4.csv","legacy","7 1 8 5 6 2","Lentiform Loewenfeld","3.3.12","2","y","0","left","right","right","left","NA","594","9495","1174","594","NA","2","legacy","6","1024","2","48000","-16","experiment","4","even","1","269315","12803","265977","267107","3301","89580","267111","107122","3306","88405","271317","271913","268113","271317","NA","Sternberg task","38","32100","42","yes","1024"
"90.69767441860465","90.69767441860465","762.953488372093","762.953488372093","black","experiment","legacy","legacy","legacy","0","uniform","1","undefined","1","left","42","0","42","42","0","0","42","42","0","0","42","42","42","42","0","Sun Oct 23 22:41:48 2022","The main experiment item","yes","Sternbergtask.osexp","C:/Users/cici_/Downloads","no","mono","no","18","no","white","no","yes","768","legacy","30","11","C:/Users/cici_/OneDrive/Documents/R/cs-subject-4.csv","legacy","3 4 9 6 2 9","Lentiform Loewenfeld","3.3.12","5","y","0","left","right","right","left","NA","707","9495","1174","707","NA","2","legacy","6","1024","2","48000","-16","experiment","4","even","2","275251","12803","271930","273043","3301","89580","273047","107122","3306","88405","277253","277961","274049","277253","NA","Sternberg task","39","32807","43","yes","1024"
"90.9090909090909","90.9090909090909","756.7954545454545","756.7954545454545","black","experiment","legacy","legacy","legacy","0","uniform","1","undefined","1","left","43","0","43","43","0","0","43","43","0","0","43","43","43","43","0","Sun Oct 23 22:41:48 2022","The main experiment item","yes","Sternbergtask.osexp","C:/Users/cici_/Downloads","no","mono","no","18","no","white","no","yes","768","legacy","31","11","C:/Users/cici_/OneDrive/Documents/R/cs-subject-4.csv","legacy","3 9 7 6 4","Lentiform Loewenfeld","3.3.12","3","y","0","left","right","right","left","NA","492","9495","1174","492","NA","2","legacy","5","1024","2","48000","-16","experiment","4","even","7","281312","12803","277979","279103","3301","89580","279106","107122","3306","88405","283314","283807","280109","283314","NA","Sternberg task","40","33299","44","yes","1024"
"91.11111111111111","91.11111111111111","754.4444444444445","754.4444444444445","black","experiment","legacy","legacy","legacy","0","uniform","1","undefined","1","right","44","0","44","44","0","0","44","44","0","0","44","44","44","44","0","Sun Oct 23 22:41:48 2022","The main experiment item","yes","Sternbergtask.osexp","C:/Users/cici_/Downloads","no","mono","no","18","no","white","no","yes","768","legacy","32","11","C:/Users/cici_/OneDrive/Documents/R/cs-subject-4.csv","legacy","3 4 9 6 7 8","Lentiform Loewenfeld","3.3.12","0","n","0","right","right","right","right","NA","651","9495","1174","651","NA","2","legacy","6","1024","2","48000","-16","experiment","4","even","2","287152","12803","283815","284944","3301","89580","284947","107122","3306","88405","289154","289807","285949","289154","NA","Sternberg task","41","33950","45","yes","1024"
"91.30434782608695","91.30434782608695","749.5652173913044","749.5652173913044","black","experiment","legacy","legacy","legacy","0","uniform","1","undefined","1","left","45","0","45","45","0","0","45","45","0","0","45","45","45","45","0","Sun Oct 23 22:41:48 2022","The main experiment item","yes","Sternbergtask.osexp","C:/Users/cici_/Downloads","no","mono","no","18","no","white","no","yes","768","legacy","33","11","C:/Users/cici_/OneDrive/Documents/R/cs-subject-4.csv","legacy","3 5 9 6 2 4","Lentiform Loewenfeld","3.3.12","1","y","0","left","right","right","left","NA","530","9495","1174","530","NA","2","legacy","6","1024","2","48000","-16","experiment","4","even","3","293150","12803","289824","290942","3301","89580","290945","107122","3306","88405","295152","295684","291948","295152","NA","Sternberg task","42","34480","46","yes","1024"
"91.48936170212765","91.48936170212765","744.0851063829788","744.0851063829788","black","experiment","legacy","legacy","legacy","0","uniform","1","undefined","1","right","46","0","46","46","0","0","46","46","0","0","46","46","46","46","0","Sun Oct 23 22:41:48 2022","The main experiment item","yes","Sternbergtask.osexp","C:/Users/cici_/Downloads","no","mono","no","18","no","white","no","yes","768","legacy","34","11","C:/Users/cici_/OneDrive/Documents/R/cs-subject-4.csv","legacy","1 7 5 2","Lentiform Loewenfeld","3.3.12","0","n","0","right","right","right","right","NA","492","9495","1174","492","NA","2","legacy","4","1024","2","48000","-16","experiment","4","even","3","299016","12803","295701","296809","3301","89580","296812","107122","3306","88405","301018","301511","297814","301018","NA","Sternberg task","43","34972","47","yes","1024"
"91.66666666666667","91.66666666666667","739.0416666666666","739.0416666666666","black","experiment","legacy","legacy","legacy","0","uniform","1","undefined","1","left","47","0","47","47","0","0","47","47","0","0","47","47","47","47","0","Sun Oct 23 22:41:48 2022","The main experiment item","yes","Sternbergtask.osexp","C:/Users/cici_/Downloads","no","mono","no","18","no","white","no","yes","768","legacy","35","11","C:/Users/cici_/OneDrive/Documents/R/cs-subject-4.csv","legacy","4 1 5","Lentiform Loewenfeld","3.3.12","2","y","0","left","right","right","left","NA","502","9495","1174","502","NA","2","legacy","3","1024","2","48000","-16","experiment","4","even","1","304854","12803","301530","302647","3301","89580","302650","107122","3306","88405","306856","307359","303652","306856","NA","Sternberg task","44","35474","48","yes","1024"
"91.83673469387755","91.83673469387755","734.0816326530612","734.0816326530612","black","experiment","legacy","legacy","legacy","0","uniform","1","undefined","1","left","48","0","48","48","0","0","48","48","0","0","48","48","48","48","0","Sun Oct 23 22:41:48 2022","The main experiment item","yes","Sternbergtask.osexp","C:/Users/cici_/Downloads","no","mono","no","18","no","white","no","yes","768","legacy","36","11","C:/Users/cici_/OneDrive/Documents/R/cs-subject-4.csv","legacy","2 5 4 8 7","Lentiform Loewenfeld","3.3.12","3","y","0","left","right","right","left","NA","496","9495","1174","496","NA","2","legacy","5","1024","2","48000","-16","experiment","4","even","4","310700","12803","307376","308493","3301","89580","308496","107122","3306","88405","312702","313199","309498","312702","NA","Sternberg task","45","35970","49","yes","1024"
"92","92","731.64","731.64","black","experiment","legacy","legacy","legacy","0","uniform","1","undefined","1","right","49","0","49","49","0","0","49","49","0","0","49","49","49","49","0","Sun Oct 23 22:41:48 2022","The main experiment item","yes","Sternbergtask.osexp","C:/Users/cici_/Downloads","no","mono","no","18","no","white","no","yes","768","legacy","37","11","C:/Users/cici_/OneDrive/Documents/R/cs-subject-4.csv","legacy","8 4 3 5","Lentiform Loewenfeld","3.3.12","0","n","0","right","right","right","right","NA","612","9495","1174","612","NA","2","legacy","4","1024","2","48000","-16","experiment","4","even","6","316535","12803","313216","314327","3301","89580","314330","107122","3306","88405","318537","319150","315333","318537","NA","Sternberg task","46","36582","50","yes","1024"
"92.15686274509804","92.15686274509804","728.843137254902","728.843137254902","black","experiment","legacy","legacy","legacy","0","uniform","1","undefined","1","right","50","0","50","50","0","0","50","50","0","0","50","50","50","50","0","Sun Oct 23 22:41:48 2022","The main experiment item","yes","Sternbergtask.osexp","C:/Users/cici_/Downloads","no","mono","no","18","no","white","no","yes","768","legacy","38","11","C:/Users/cici_/OneDrive/Documents/R/cs-subject-4.csv","legacy","7 1 8 4 9 3","Lentiform Loewenfeld","3.3.12","0","n","0","right","right","right","right","NA","589","9495","1174","589","NA","2","legacy","6","1024","2","48000","-16","experiment","4","even","6","322483","12803","319158","320275","3301","89580","320279","107122","3306","88405","324485","325076","321281","324485","NA","Sternberg task","47","37171","51","yes","1024"
"92.3076923076923","92.3076923076923","726.75","726.75","black","experiment","legacy","legacy","legacy","0","uniform","1","undefined","1","right","51","0","51","51","0","0","51","51","0","0","51","51","51","51","0","Sun Oct 23 22:41:48 2022","The main experiment item","yes","Sternbergtask.osexp","C:/Users/cici_/Downloads","no","mono","no","18","no","white","no","yes","768","legacy","39","11","C:/Users/cici_/OneDrive/Documents/R/cs-subject-4.csv","legacy","1 7 5 2 9","Lentiform Loewenfeld","3.3.12","0","n","0","right","right","right","right","NA","620","9495","1174","620","NA","2","legacy","5","1024","2","48000","-16","experiment","4","even","3","328422","12803","325094","326216","3301","89580","326218","107122","3306","88405","330425","331047","327220","330425","NA","Sternberg task","48","37791","52","yes","1024"
"92.45283018867924","92.45283018867924","726.188679245283","726.188679245283","black","experiment","legacy","legacy","legacy","0","uniform","1","undefined","1","left","52","0","52","52","0","0","52","52","0","0","52","52","52","52","0","Sun Oct 23 22:41:48 2022","The main experiment item","yes","Sternbergtask.osexp","C:/Users/cici_/Downloads","no","mono","no","18","no","white","no","yes","768","legacy","40","11","C:/Users/cici_/OneDrive/Documents/R/cs-subject-4.csv","legacy","7 4 2 6 3 5","Lentiform Loewenfeld","3.3.12","6","y","0","left","right","right","left","NA","697","9495","1174","697","NA","2","legacy","6","1024","2","48000","-16","experiment","4","even","5","334376","12803","331056","332167","3301","89580","332170","107122","3306","88405","336378","337076","333172","336378","NA","Sternberg task","49","38488","53","yes","1024"
"92.5925925925926","92.5925925925926","722.1851851851852","722.1851851851852","black","experiment","legacy","legacy","legacy","0","uniform","1","undefined","1","left","53","0","53","53","0","0","53","53","0","0","53","53","53","53","0","Sun Oct 23 22:41:48 2022","The main experiment item","yes","Sternbergtask.osexp","C:/Users/cici_/Downloads","no","mono","no","18","no","white","no","yes","768","legacy","41","11","C:/Users/cici_/OneDrive/Documents/R/cs-subject-4.csv","legacy","9 5 8 1","Lentiform Loewenfeld","3.3.12","2","y","0","left","right","right","left","NA","510","9495","1174","510","NA","2","legacy","4","1024","2","48000","-16","experiment","4","even","5","340419","12803","337083","338211","3301","89580","338214","107122","3306","88405","342421","342933","339216","342421","NA","Sternberg task","50","38998","54","yes","1024"
"92.72727272727273","92.72727272727273","718.3636363636364","718.3636363636364","black","experiment","legacy","legacy","legacy","0","uniform","1","undefined","1","left","54","0","54","54","0","0","54","54","0","0","54","54","54","54","0","Sun Oct 23 22:41:48 2022","The main experiment item","yes","Sternbergtask.osexp","C:/Users/cici_/Downloads","no","mono","no","18","no","white","no","yes","768","legacy","42","11","C:/Users/cici_/OneDrive/Documents/R/cs-subject-4.csv","legacy","4 6 2 5 1","Lentiform Loewenfeld","3.3.12","5","y","0","left","right","right","left","NA","512","9495","1174","512","NA","2","legacy","5","1024","2","48000","-16","experiment","4","even","1","346270","12803","342950","344063","3301","89580","344066","107122","3306","88405","348272","348786","345068","348272","NA","Sternberg task","51","39510","55","yes","1024"
"92.85714285714286","92.85714285714286","713.6964285714286","713.6964285714286","black","experiment","legacy","legacy","legacy","0","uniform","1","undefined","1","left","55","0","55","55","0","0","55","55","0","0","55","55","55","55","0","Sun Oct 23 22:41:48 2022","The main experiment item","yes","Sternbergtask.osexp","C:/Users/cici_/Downloads","no","mono","no","18","no","white","no","yes","768","legacy","43","11","C:/Users/cici_/OneDrive/Documents/R/cs-subject-4.csv","legacy","7 8 6 3 1","Lentiform Loewenfeld","3.3.12","5","y","0","left","right","right","left","NA","457","9495","1174","457","NA","2","legacy","5","1024","2","48000","-16","experiment","4","even","1","352144","12803","348804","349938","3301","89580","349940","107122","3306","88405","354146","354605","350942","354146","NA","Sternberg task","52","39967","56","yes","1024"
"92.98245614035088","92.98245614035088","710.6842105263158","710.6842105263158","black","experiment","legacy","legacy","legacy","0","uniform","1","undefined","1","right","56","0","56","56","0","0","56","56","0","0","56","56","56","56","0","Sun Oct 23 22:41:48 2022","The main experiment item","yes","Sternbergtask.osexp","C:/Users/cici_/Downloads","no","mono","no","18","no","white","no","yes","768","legacy","44","11","C:/Users/cici_/OneDrive/Documents/R/cs-subject-4.csv","legacy","8 5 7 3 6","Lentiform Loewenfeld","3.3.12","0","n","0","right","right","right","right","NA","542","9495","1174","542","NA","2","legacy","5","1024","2","48000","-16","experiment","4","even","9","357935","12803","354613","355728","3301","89580","355731","107122","3306","88405","359937","360481","356733","359937","NA","Sternberg task","53","40509","57","yes","1024"
"93.10344827586206","93.10344827586206","709.0689655172414","709.0689655172414","black","experiment","legacy","legacy","legacy","0","uniform","1","undefined","1","right","57","0","57","57","0","0","57","57","0","0","57","57","57","57","0","Sun Oct 23 22:41:48 2022","The main experiment item","yes","Sternbergtask.osexp","C:/Users/cici_/Downloads","no","mono","no","18","no","white","no","yes","768","legacy","45","11","C:/Users/cici_/OneDrive/Documents/R/cs-subject-4.csv","legacy","8 4 3 9","Lentiform Loewenfeld","3.3.12","0","n","0","right","right","right","right","NA","617","9495","1174","617","NA","2","legacy","4","1024","2","48000","-16","experiment","4","even","5","363813","12803","360489","361606","3301","89580","361609","107122","3306","88405","365815","366434","362611","365815","NA","Sternberg task","54","41126","58","yes","1024"
"93.22033898305085","93.22033898305085","710.6949152542373","710.6949152542373","black","experiment","legacy","legacy","legacy","0","uniform","1","undefined","1","right","58","0","58","58","0","0","58","58","0","0","58","58","58","58","0","Sun Oct 23 22:41:48 2022","The main experiment item","yes","Sternbergtask.osexp","C:/Users/cici_/Downloads","no","mono","no","18","no","white","no","yes","768","legacy","46","11","C:/Users/cici_/OneDrive/Documents/R/cs-subject-4.csv","legacy","1 7 8 3 9","Lentiform Loewenfeld","3.3.12","0","n","0","right","right","right","right","NA","805","9495","1174","805","NA","2","legacy","5","1024","2","48000","-16","experiment","4","even","2","369773","12803","366451","367565","3301","89580","367568","107122","3306","88405","371775","372582","368571","371774","NA","Sternberg task","55","41931","59","yes","1024"
"93.33333333333333","93.33333333333333","714.1166666666667","714.1166666666667","black","experiment","legacy","legacy","legacy","0","uniform","1","undefined","1","right","59","0","59","59","0","0","59","59","0","0","59","59","59","59","0","Sun Oct 23 22:41:48 2022","The main experiment item","yes","Sternbergtask.osexp","C:/Users/cici_/Downloads","no","mono","no","18","no","white","no","yes","768","legacy","47","11","C:/Users/cici_/OneDrive/Documents/R/cs-subject-4.csv","legacy","6 9 4 5 3 2","Lentiform Loewenfeld","3.3.12","0","n","0","right","right","right","right","NA","916","9495","1174","916","NA","2","legacy","6","1024","2","48000","-16","experiment","4","even","8","375906","12803","372588","373699","3301","89580","373701","107122","3306","88405","377908","378826","374704","377908","NA","Sternberg task","56","42847","60","yes","1024"
"93.44262295081967","93.44262295081967","712.344262295082","712.344262295082","black","experiment","legacy","legacy","legacy","0","uniform","1","undefined","1","right","60","0","60","60","0","0","60","60","0","0","60","60","60","60","0","Sun Oct 23 22:41:48 2022","The main experiment item","yes","Sternbergtask.osexp","C:/Users/cici_/Downloads","no","mono","no","18","no","white","no","yes","768","legacy","48","11","C:/Users/cici_/OneDrive/Documents/R/cs-subject-4.csv","legacy","1 4 9 3","Lentiform Loewenfeld","3.3.12","0","n","0","right","right","right","right","NA","606","9495","1174","606","NA","2","legacy","4","1024","2","48000","-16","experiment","4","even","5","382169","12803","378848","379962","3301","89580","379965","107122","3306","88405","384171","384779","380967","384171","NA","Sternberg task","57","43453","61","yes","1024"
"93.54838709677419","93.54838709677419","708.7741935483871","708.7741935483871","black","experiment","legacy","legacy","legacy","0","uniform","1","undefined","1","left","61","0","61","61","0","0","61","61","0","0","61","61","61","61","0","Sun Oct 23 22:41:48 2022","The main experiment item","yes","Sternbergtask.osexp","C:/Users/cici_/Downloads","no","mono","no","18","no","white","no","yes","768","legacy","49","11","C:/Users/cici_/OneDrive/Documents/R/cs-subject-4.csv","legacy","9 1 6 7 8","Lentiform Loewenfeld","3.3.12","1","y","0","left","right","right","left","NA","491","9495","1174","491","NA","2","legacy","5","1024","2","48000","-16","experiment","4","even","9","388135","12803","384797","385928","3301","89580","385931","107122","3306","88405","390137","390629","386933","390137","NA","Sternberg task","58","43944","62","yes","1024"
"93.65079365079364","93.65079365079364","706.3174603174604","706.3174603174604","black","experiment","legacy","legacy","legacy","0","uniform","1","undefined","1","left","62","0","62","62","0","0","62","62","0","0","62","62","62","62","0","Sun Oct 23 22:41:48 2022","The main experiment item","yes","Sternbergtask.osexp","C:/Users/cici_/Downloads","no","mono","no","18","no","white","no","yes","768","legacy","50","11","C:/Users/cici_/OneDrive/Documents/R/cs-subject-4.csv","legacy","3 2 1 4 7","Lentiform Loewenfeld","3.3.12","2","y","0","left","right","right","left","NA","554","9495","1174","554","NA","2","legacy","5","1024","2","48000","-16","experiment","4","even","2","393964","12803","390646","391756","3301","89580","391759","107122","3306","88405","395966","396521","392761","395966","NA","Sternberg task","59","44498","63","yes","1024"
"92.1875","92.1875","707.21875","707.21875","black","experiment","legacy","legacy","legacy","0","uniform","0","undefined","0","right","63","0","63","63","0","0","63","63","0","0","63","63","63","63","0","Sun Oct 23 22:41:48 2022","The main experiment item","yes","Sternbergtask.osexp","C:/Users/cici_/Downloads","no","mono","no","18","no","white","no","yes","768","legacy","51","11","C:/Users/cici_/OneDrive/Documents/R/cs-subject-4.csv","legacy","9 7 4 5 8","Lentiform Loewenfeld","3.3.12","0","n","0","left","right","right","left","NA","764","9495","1174","764","NA","2","legacy","5","1024","2","48000","-16","experiment","4","even","6","399862","12803","396528","397655","3301","89580","397658","107122","3306","88405","401864","402630","398660","401864","NA","Sternberg task","59","45262","64","yes","1024"
"92.3076923076923","92.3076923076923","704.9846153846154","704.9846153846154","black","experiment","legacy","legacy","legacy","0","uniform","1","undefined","1","right","64","0","64","64","0","0","64","64","0","0","64","64","64","64","0","Sun Oct 23 22:41:48 2022","The main experiment item","yes","Sternbergtask.osexp","C:/Users/cici_/Downloads","no","mono","no","18","no","white","no","yes","768","legacy","52","11","C:/Users/cici_/OneDrive/Documents/R/cs-subject-4.csv","legacy","6 2 9 3 8 4","Lentiform Loewenfeld","3.3.12","0","n","0","right","right","right","right","NA","562","9495","1174","562","NA","2","legacy","6","1024","2","48000","-16","experiment","4","even","1","405963","12803","396528","403756","3301","89580","403759","402646","3306","88405","407965","408529","404761","407965","NA","Sternberg task","60","45824","65","yes","1024"
"92.42424242424242","92.42424242424242","704.5","704.5","black","experiment","legacy","legacy","legacy","0","uniform","1","undefined","1","right","65","0","65","65","0","0","65","65","0","0","65","65","65","65","0","Sun Oct 23 22:41:48 2022","The main experiment item","yes","Sternbergtask.osexp","C:/Users/cici_/Downloads","no","mono","no","18","no","white","no","yes","768","legacy","53","11","C:/Users/cici_/OneDrive/Documents/R/cs-subject-4.csv","legacy","7 9","Lentiform Loewenfeld","3.3.12","0","n","0","right","right","right","right","NA","673","9495","1174","673","NA","2","legacy","2","1024","2","48000","-16","experiment","4","even","1","411862","12803","408535","409655","3301","89580","409658","402646","3306","88405","413864","414539","410660","413864","NA","Sternberg task","61","46497","66","yes","1024"
"92.53731343283582","92.53731343283582","704.2686567164179","704.2686567164179","black","experiment","legacy","legacy","legacy","0","uniform","1","undefined","1","right","66","0","66","66","0","0","66","66","0","0","66","66","66","66","0","Sun Oct 23 22:41:48 2022","The main experiment item","yes","Sternbergtask.osexp","C:/Users/cici_/Downloads","no","mono","no","18","no","white","no","yes","768","legacy","54","11","C:/Users/cici_/OneDrive/Documents/R/cs-subject-4.csv","legacy","2 6 4 3 9","Lentiform Loewenfeld","3.3.12","0","n","0","right","right","right","right","NA","689","9495","1174","689","NA","2","legacy","5","1024","2","48000","-16","experiment","4","even","1","417863","12803","414546","415657","3301","89580","415659","402646","3306","88405","419865","420556","416661","419865","NA","Sternberg task","62","47186","67","yes","1024"
"92.6470588235294","92.6470588235294","702.4852941176471","702.4852941176471","black","experiment","legacy","legacy","legacy","0","uniform","1","undefined","1","left","67","0","67","67","0","0","67","67","0","0","67","67","67","67","0","Sun Oct 23 22:41:48 2022","The main experiment item","yes","Sternbergtask.osexp","C:/Users/cici_/Downloads","no","mono","no","18","no","white","no","yes","768","legacy","55","11","C:/Users/cici_/OneDrive/Documents/R/cs-subject-4.csv","legacy","7","Lentiform Loewenfeld","3.3.12","1","y","0","left","right","right","left","NA","583","9495","1174","583","NA","2","legacy","1","1024","2","48000","-16","experiment","4","even","7","423908","12803","420563","421700","3301","89580","421704","402646","3306","88405","425910","426495","422706","425910","NA","Sternberg task","63","47769","68","yes","1024"
"92.7536231884058","92.7536231884058","701.463768115942","701.463768115942","black","experiment","legacy","legacy","legacy","0","uniform","1","undefined","1","left","68","0","68","68","0","0","68","68","0","0","68","68","68","68","0","Sun Oct 23 22:41:48 2022","The main experiment item","yes","Sternbergtask.osexp","C:/Users/cici_/Downloads","no","mono","no","18","no","white","no","yes","768","legacy","56","11","C:/Users/cici_/OneDrive/Documents/R/cs-subject-4.csv","legacy","6 9 3 1","Lentiform Loewenfeld","3.3.12","4","y","0","left","right","right","left","NA","632","9495","1174","632","NA","2","legacy","4","1024","2","48000","-16","experiment","4","even","1","429838","12803","426502","427630","3301","89580","427633","402646","3306","88405","431840","432474","428635","431840","NA","Sternberg task","64","48401","69","yes","1024"
"92.85714285714286","92.85714285714286","698.5428571428571","698.5428571428571","black","experiment","legacy","legacy","legacy","0","uniform","1","undefined","1","left","69","0","69","69","0","0","69","69","0","0","69","69","69","69","0","Sun Oct 23 22:41:48 2022","The main experiment item","yes","Sternbergtask.osexp","C:/Users/cici_/Downloads","no","mono","no","18","no","white","no","yes","768","legacy","57","11","C:/Users/cici_/OneDrive/Documents/R/cs-subject-4.csv","legacy","5 7 8 2 3 8","Lentiform Loewenfeld","3.3.12","5","y","0","left","right","right","left","NA","497","9495","1174","497","NA","2","legacy","6","1024","2","48000","-16","experiment","4","even","3","435816","12803","432482","433608","3301","89580","433611","402646","3306","88405","437818","438317","434613","437818","NA","Sternberg task","65","48898","70","yes","1024"
"92.95774647887323","92.95774647887323","698.5352112676056","698.5352112676056","black","experiment","legacy","legacy","legacy","0","uniform","1","undefined","1","right","70","0","70","70","0","0","70","70","0","0","70","70","70","70","0","Sun Oct 23 22:41:48 2022","The main experiment item","yes","Sternbergtask.osexp","C:/Users/cici_/Downloads","no","mono","no","18","no","white","no","yes","768","legacy","58","11","C:/Users/cici_/OneDrive/Documents/R/cs-subject-4.csv","legacy","4 2 7 6 1 3","Lentiform Loewenfeld","3.3.12","0","n","0","right","right","right","right","NA","698","9495","1174","698","NA","2","legacy","6","1024","2","48000","-16","experiment","4","even","8","441653","12803","438325","439446","3301","89580","439449","402646","3306","88405","443655","444355","440451","443655","NA","Sternberg task","66","49596","71","yes","1024"
"91.66666666666667","91.66666666666667","699.0555555555555","699.0555555555555","black","experiment","legacy","legacy","legacy","0","uniform","0","undefined","0","left","71","0","71","71","0","0","71","71","0","0","71","71","71","71","0","Sun Oct 23 22:41:48 2022","The main experiment item","yes","Sternbergtask.osexp","C:/Users/cici_/Downloads","no","mono","no","18","no","white","no","yes","768","legacy","59","11","C:/Users/cici_/OneDrive/Documents/R/cs-subject-4.csv","legacy","2 4 8 5 1 3","Lentiform Loewenfeld","3.3.12","1","y","0","right","right","right","right","NA","736","9495","1174","736","NA","2","legacy","6","1024","2","48000","-16","experiment","4","even","2","447683","12803","444363","445476","3301","89580","445479","402646","3306","88405","449686","450424","446481","449686","NA","Sternberg task","66","50332","72","yes","1024"
"91.78082191780823","91.78082191780823","709.7534246575342","709.7534246575342","black","experiment","legacy","legacy","legacy","0","uniform","1","undefined","1","right","72","0","72","72","0","0","72","72","0","0","72","72","72","72","0","Sun Oct 23 22:41:48 2022","The main experiment item","yes","Sternbergtask.osexp","C:/Users/cici_/Downloads","no","mono","no","18","no","white","no","yes","768","legacy","60","11","C:/Users/cici_/OneDrive/Documents/R/cs-subject-4.csv","legacy","2 5 1 4","Lentiform Loewenfeld","3.3.12","0","n","0","right","right","right","right","NA","1480","9495","1174","1480","NA","2","legacy","4","1024","2","48000","-16","experiment","4","even","6","453757","12803","444363","451546","3301","89580","451552","450431","3306","88405","455759","457241","452554","455759","NA","Sternberg task","67","51812","73","yes","1024"
"91.89189189189189","91.89189189189189","708.2432432432432","708.2432432432432","black","experiment","legacy","legacy","legacy","0","uniform","1","undefined","1","right","73","0","73","73","0","0","73","73","0","0","73","73","73","73","0","Sun Oct 23 22:41:48 2022","The main experiment item","yes","Sternbergtask.osexp","C:/Users/cici_/Downloads","no","mono","no","18","no","white","no","yes","768","legacy","61","11","C:/Users/cici_/OneDrive/Documents/R/cs-subject-4.csv","legacy","8 5 4 2 9 6","Lentiform Loewenfeld","3.3.12","0","n","0","right","right","right","right","NA","598","9495","1174","598","NA","2","legacy","6","1024","2","48000","-16","experiment","4","even","3","460590","12803","457248","458383","3301","89580","458386","450431","3306","88405","462591","463191","459388","462591","NA","Sternberg task","68","52410","74","yes","1024"
"90.66666666666667","90.66666666666667","716.3733333333333","716.3733333333333","black","experiment","legacy","legacy","legacy","0","uniform","0","undefined","0","left","74","0","74","74","0","0","74","74","0","0","74","74","74","74","0","Sun Oct 23 22:41:48 2022","The main experiment item","yes","Sternbergtask.osexp","C:/Users/cici_/Downloads","no","mono","no","18","no","white","no","yes","768","legacy","62","11","C:/Users/cici_/OneDrive/Documents/R/cs-subject-4.csv","legacy","1 4 9 3 2 5","Lentiform Loewenfeld","3.3.12","3","y","0","right","right","right","right","NA","1318","9495","1174","1318","NA","2","legacy","6","1024","2","48000","-16","experiment","4","even","9","466529","12803","463206","464321","3301","89580","464324","450431","3306","88405","468531","469851","465326","468531","NA","Sternberg task","68","53728","75","yes","1024"
"90.78947368421052","90.78947368421052","716.5394736842105","716.5394736842105","black","experiment","legacy","legacy","legacy","0","uniform","1","undefined","1","right","75","0","75","75","0","0","75","75","0","0","75","75","75","75","0","Sun Oct 23 22:41:48 2022","The main experiment item","yes","Sternbergtask.osexp","C:/Users/cici_/Downloads","no","mono","no","18","no","white","no","yes","768","legacy","63","11","C:/Users/cici_/OneDrive/Documents/R/cs-subject-4.csv","legacy","2 7 5","Lentiform Loewenfeld","3.3.12","0","n","0","right","right","right","right","NA","729","9495","1174","729","NA","2","legacy","3","1024","2","48000","-16","experiment","4","even","8","473186","12803","463206","470979","3301","89580","470982","469859","3306","88405","475189","475919","471984","475189","NA","Sternberg task","69","54457","76","yes","1024"
"90.9090909090909","90.9090909090909","717.6883116883117","717.6883116883117","black","experiment","legacy","legacy","legacy","0","uniform","1","undefined","1","left","76","0","76","76","0","0","76","76","0","0","76","76","76","76","0","Sun Oct 23 22:41:48 2022","The main experiment item","yes","Sternbergtask.osexp","C:/Users/cici_/Downloads","no","mono","no","18","no","white","no","yes","768","legacy","64","11","C:/Users/cici_/OneDrive/Documents/R/cs-subject-4.csv","legacy","6 7 8 5","Lentiform Loewenfeld","3.3.12","3","y","0","left","right","right","left","NA","805","9495","1174","805","NA","2","legacy","4","1024","2","48000","-16","experiment","4","even","8","479258","12803","475926","477050","3301","89580","477054","469859","3306","88405","481260","482067","478056","481260","NA","Sternberg task","70","55262","77","yes","1024"
"91.02564102564102","91.02564102564102","720.1666666666666","720.1666666666666","black","experiment","legacy","legacy","legacy","0","uniform","1","undefined","1","left","77","0","77","77","0","0","77","77","0","0","77","77","77","77","0","Sun Oct 23 22:41:48 2022","The main experiment item","yes","Sternbergtask.osexp","C:/Users/cici_/Downloads","no","mono","no","18","no","white","no","yes","768","legacy","65","11","C:/Users/cici_/OneDrive/Documents/R/cs-subject-4.csv","legacy","2 8 5 1","Lentiform Loewenfeld","3.3.12","4","y","0","left","right","right","left","NA","911","9495","1174","911","NA","2","legacy","4","1024","2","48000","-16","experiment","4","even","1","485398","12803","482074","483191","3301","89580","483194","469859","3306","88405","487402","488315","484196","487401","NA","Sternberg task","71","56173","78","yes","1024"
"89.87341772151899","89.87341772151899","722.9873417721519","722.9873417721519","black","experiment","legacy","legacy","legacy","0","uniform","0","undefined","0","left","78","0","78","78","0","0","78","78","0","0","78","78","78","78","0","Sun Oct 23 22:41:48 2022","The main experiment item","yes","Sternbergtask.osexp","C:/Users/cici_/Downloads","no","mono","no","18","no","white","no","yes","768","legacy","66","11","C:/Users/cici_/OneDrive/Documents/R/cs-subject-4.csv","legacy","6 8 9 3 4 9","Lentiform Loewenfeld","3.3.12","5","y","0","right","right","right","right","NA","943","9495","1174","943","NA","2","legacy","6","1024","2","48000","-16","experiment","4","even","4","491658","12803","488333","489450","3301","89580","489453","469859","3306","88405","493660","494604","490455","493660","NA","Sternberg task","71","57116","79","yes","1024"
"90","90","721.65","721.65","black","experiment","legacy","legacy","legacy","0","uniform","1","undefined","1","left","79","0","79","79","0","0","79","79","0","0","79","79","79","79","0","Sun Oct 23 22:41:48 2022","The main experiment item","yes","Sternbergtask.osexp","C:/Users/cici_/Downloads","no","mono","no","18","no","white","no","yes","768","legacy","67","11","C:/Users/cici_/OneDrive/Documents/R/cs-subject-4.csv","legacy","7 2 3","Lentiform Loewenfeld","3.3.12","3","y","0","left","right","right","left","NA","616","9495","1174","616","NA","2","legacy","3","1024","2","48000","-16","experiment","4","even","3","497939","12803","488333","495732","3301","89580","495735","494622","3306","88405","499941","500559","496737","499941","NA","Sternberg task","72","57732","80","yes","1024"
"90.12345679012346","90.12345679012346","720.4691358024692","720.4691358024692","black","experiment","legacy","legacy","legacy","0","uniform","1","undefined","1","left","80","0","80","80","0","0","80","80","0","0","80","80","80","80","0","Sun Oct 23 22:41:48 2022","The main experiment item","yes","Sternbergtask.osexp","C:/Users/cici_/Downloads","no","mono","no","18","no","white","no","yes","768","legacy","68","11","C:/Users/cici_/OneDrive/Documents/R/cs-subject-4.csv","legacy","4 1 8 7 5","Lentiform Loewenfeld","3.3.12","3","y","0","left","right","right","left","NA","626","9495","1174","626","NA","2","legacy","5","1024","2","48000","-16","experiment","4","even","8","503903","12803","500575","501695","3301","89580","501698","494622","3306","88405","505905","506534","502700","505905","NA","Sternberg task","73","58358","81","yes","1024"
"90.2439024390244","90.2439024390244","718.4634146341464","718.4634146341464","black","experiment","legacy","legacy","legacy","0","uniform","1","undefined","1","right","81","0","81","81","0","0","81","81","0","0","81","81","81","81","0","Sun Oct 23 22:41:48 2022","The main experiment item","yes","Sternbergtask.osexp","C:/Users/cici_/Downloads","no","mono","no","18","no","white","no","yes","768","legacy","69","11","C:/Users/cici_/OneDrive/Documents/R/cs-subject-4.csv","legacy","7 1","Lentiform Loewenfeld","3.3.12","0","n","0","right","right","right","right","NA","556","9495","1174","556","NA","2","legacy","2","1024","2","48000","-16","experiment","4","even","8","509872","12803","506552","507665","3301","89580","507668","494622","3306","88405","511874","512432","508670","511874","NA","Sternberg task","74","58914","82","yes","1024"
"90.36144578313252","90.36144578313252","716.6867469879518","716.6867469879518","black","experiment","legacy","legacy","legacy","0","uniform","1","undefined","1","left","82","0","82","82","0","0","82","82","0","0","82","82","82","82","0","Sun Oct 23 22:41:48 2022","The main experiment item","yes","Sternbergtask.osexp","C:/Users/cici_/Downloads","no","mono","no","18","no","white","no","yes","768","legacy","70","11","C:/Users/cici_/OneDrive/Documents/R/cs-subject-4.csv","legacy","8 3","Lentiform Loewenfeld","3.3.12","2","y","0","left","right","right","left","NA","571","9495","1174","571","NA","2","legacy","2","1024","2","48000","-16","experiment","4","even","3","515764","12803","512448","513557","3301","89580","513560","494622","3306","88405","517766","518339","514562","517766","NA","Sternberg task","75","59485","83","yes","1024"
"89.28571428571429","89.28571428571429","731.9642857142857","731.9642857142857","black","experiment","legacy","legacy","legacy","0","uniform","0","undefined","0","right","83","0","83","83","0","0","83","83","0","0","83","83","83","83","0","Sun Oct 23 22:41:48 2022","The main experiment item","yes","Sternbergtask.osexp","C:/Users/cici_/Downloads","no","mono","no","18","no","white","no","yes","768","legacy","71","11","C:/Users/cici_/OneDrive/Documents/R/cs-subject-4.csv","legacy","7 9 1 6","Lentiform Loewenfeld","3.3.12","0","n","0","None","right","right","None","NA","2000","9495","1174","2000","NA","2","legacy","4","1024","2","48000","-16","experiment","4","even","4","521668","12803","518349","519461","3301","89580","519464","494622","3306","88405","523671","525672","520466","523671","NA","Sternberg task","75","61485","84","yes","1024"
"89.41176470588235","89.41176470588235","729.7058823529412","729.7058823529412","black","experiment","legacy","legacy","legacy","0","uniform","1","undefined","1","left","84","0","84","84","0","0","84","84","0","0","84","84","84","84","0","Sun Oct 23 22:41:48 2022","The main experiment item","yes","Sternbergtask.osexp","C:/Users/cici_/Downloads","no","mono","no","18","no","white","no","yes","768","legacy","72","11","C:/Users/cici_/OneDrive/Documents/R/cs-subject-4.csv","legacy","3 4","Lentiform Loewenfeld","3.3.12","1","y","0","left","right","right","left","NA","540","9495","1174","540","NA","2","legacy","2","1024","2","48000","-16","experiment","4","even","3","529009","12803","518349","526801","3301","89580","526804","525688","3306","88405","531011","531553","527807","531011","NA","Sternberg task","76","62025","85","yes","1024"
"89.53488372093024","89.53488372093024","729.3372093023256","729.3372093023256","black","experiment","legacy","legacy","legacy","0","uniform","1","undefined","1","right","85","0","85","85","0","0","85","85","0","0","85","85","85","85","0","Sun Oct 23 22:41:48 2022","The main experiment item","yes","Sternbergtask.osexp","C:/Users/cici_/Downloads","no","mono","no","18","no","white","no","yes","768","legacy","73","11","C:/Users/cici_/OneDrive/Documents/R/cs-subject-4.csv","legacy","6 8 4","Lentiform Loewenfeld","3.3.12","0","n","0","right","right","right","right","NA","698","9495","1174","698","NA","2","legacy","3","1024","2","48000","-16","experiment","4","even","1","534903","12803","531570","532696","3301","89580","532699","525688","3306","88405","536905","537605","533701","536905","NA","Sternberg task","77","62723","86","yes","1024"
"89.65517241379311","89.65517241379311","727.4367816091954","727.4367816091954","black","experiment","legacy","legacy","legacy","0","uniform","1","undefined","1","left","86","0","86","86","0","0","86","86","0","0","86","86","86","86","0","Sun Oct 23 22:41:48 2022","The main experiment item","yes","Sternbergtask.osexp","C:/Users/cici_/Downloads","no","mono","no","18","no","white","no","yes","768","legacy","74","11","C:/Users/cici_/OneDrive/Documents/R/cs-subject-4.csv","legacy","7 6","Lentiform Loewenfeld","3.3.12","2","y","0","left","right","right","left","NA","564","9495","1174","564","NA","2","legacy","2","1024","2","48000","-16","experiment","4","even","6","540928","12803","537612","538721","3301","89580","538724","525688","3306","88405","542930","543496","539726","542930","NA","Sternberg task","78","63287","87","yes","1024"
"89.77272727272727","89.77272727272727","725.0795454545455","725.0795454545455","black","experiment","legacy","legacy","legacy","0","uniform","1","undefined","1","left","87","0","87","87","0","0","87","87","0","0","87","87","87","87","0","Sun Oct 23 22:41:48 2022","The main experiment item","yes","Sternbergtask.osexp","C:/Users/cici_/Downloads","no","mono","no","18","no","white","no","yes","768","legacy","75","11","C:/Users/cici_/OneDrive/Documents/R/cs-subject-4.csv","legacy","8 5 4 7 3 1","Lentiform Loewenfeld","3.3.12","2","y","0","left","right","right","left","NA","520","9495","1174","520","NA","2","legacy","6","1024","2","48000","-16","experiment","4","even","5","546832","12803","543513","544625","3301","89580","544628","525688","3306","88405","548834","549356","545630","548834","NA","Sternberg task","79","63807","88","yes","1024"
"89.88764044943821","89.88764044943821","723.6966292134831","723.6966292134831","black","experiment","legacy","legacy","legacy","0","uniform","1","undefined","1","left","88","0","88","88","0","0","88","88","0","0","88","88","88","88","0","Sun Oct 23 22:41:48 2022","The main experiment item","yes","Sternbergtask.osexp","C:/Users/cici_/Downloads","no","mono","no","18","no","white","no","yes","768","legacy","76","11","C:/Users/cici_/OneDrive/Documents/R/cs-subject-4.csv","legacy","9 4 2","Lentiform Loewenfeld","3.3.12","1","y","0","left","right","right","left","NA","602","9495","1174","602","NA","2","legacy","3","1024","2","48000","-16","experiment","4","even","9","552694","12803","549362","550485","3301","89580","550488","525688","3306","88405","554696","555300","551492","554696","NA","Sternberg task","80","64409","89","yes","1024"
"90","90","723","723","black","experiment","legacy","legacy","legacy","0","uniform","1","undefined","1","left","89","0","89","89","0","0","89","89","0","0","89","89","89","89","0","Sun Oct 23 22:41:48 2022","The main experiment item","yes","Sternbergtask.osexp","C:/Users/cici_/Downloads","no","mono","no","18","no","white","no","yes","768","legacy","77","11","C:/Users/cici_/OneDrive/Documents/R/cs-subject-4.csv","legacy","3 9 6 2","Lentiform Loewenfeld","3.3.12","4","y","0","left","right","right","left","NA","661","9495","1174","661","NA","2","legacy","4","1024","2","48000","-16","experiment","4","even","2","558637","12803","555318","556428","3301","89580","556432","525688","3306","88405","560638","561301","557434","560638","NA","Sternberg task","81","65070","90","yes","1024"
"90.10989010989012","90.10989010989012","722.3626373626373","722.3626373626373","black","experiment","legacy","legacy","legacy","0","uniform","1","undefined","1","right","90","0","90","90","0","0","90","90","0","0","90","90","90","90","0","Sun Oct 23 22:41:48 2022","The main experiment item","yes","Sternbergtask.osexp","C:/Users/cici_/Downloads","no","mono","no","18","no","white","no","yes","768","legacy","78","11","C:/Users/cici_/OneDrive/Documents/R/cs-subject-4.csv","legacy","5 9 2 3","Lentiform Loewenfeld","3.3.12","0","n","0","right","right","right","right","NA","665","9495","1174","665","NA","2","legacy","4","1024","2","48000","-16","experiment","4","even","8","564640","12803","561318","562432","3301","89580","562436","525688","3306","88405","566642","567309","563438","566642","NA","Sternberg task","82","65735","91","yes","1024"
"90.21739130434783","90.21739130434783","722.3695652173913","722.3695652173913","black","experiment","legacy","legacy","legacy","0","uniform","1","undefined","1","left","91","0","91","91","0","0","91","91","0","0","91","91","91","91","0","Sun Oct 23 22:41:48 2022","The main experiment item","yes","Sternbergtask.osexp","C:/Users/cici_/Downloads","no","mono","no","18","no","white","no","yes","768","legacy","79","11","C:/Users/cici_/OneDrive/Documents/R/cs-subject-4.csv","legacy","5 7 3 6 2","Lentiform Loewenfeld","3.3.12","5","y","0","left","right","right","left","NA","723","9495","1174","723","NA","2","legacy","5","1024","2","48000","-16","experiment","4","even","2","570646","12803","567316","568439","3301","89580","568442","525688","3306","88405","572648","573374","569444","572648","NA","Sternberg task","83","66458","92","yes","1024"
"90.3225806451613","90.3225806451613","728.4623655913979","728.4623655913979","black","experiment","legacy","legacy","legacy","0","uniform","1","undefined","1","right","92","0","92","92","0","0","92","92","0","0","92","92","92","92","0","Sun Oct 23 22:41:48 2022","The main experiment item","yes","Sternbergtask.osexp","C:/Users/cici_/Downloads","no","mono","no","18","no","white","no","yes","768","legacy","80","11","C:/Users/cici_/OneDrive/Documents/R/cs-subject-4.csv","legacy","8 9","Lentiform Loewenfeld","3.3.12","0","n","0","right","right","right","right","NA","1289","9495","1174","1289","NA","2","legacy","2","1024","2","48000","-16","experiment","4","even","5","576708","12803","573382","574501","3301","89580","574504","525688","3306","88405","578711","580003","575506","578710","NA","Sternberg task","84","67747","93","yes","1024"
"90.42553191489361","90.42553191489361","727.5425531914893","727.5425531914893","black","experiment","legacy","legacy","legacy","0","uniform","1","undefined","1","right","93","0","93","93","0","0","93","93","0","0","93","93","93","93","0","Sun Oct 23 22:41:48 2022","The main experiment item","yes","Sternbergtask.osexp","C:/Users/cici_/Downloads","no","mono","no","18","no","white","no","yes","768","legacy","81","11","C:/Users/cici_/OneDrive/Documents/R/cs-subject-4.csv","legacy","8 6 3 4 7","Lentiform Loewenfeld","3.3.12","0","n","0","right","right","right","right","NA","642","9495","1174","642","NA","2","legacy","5","1024","2","48000","-16","experiment","4","even","1","583345","12803","580018","581138","3301","89580","581140","525688","3306","88405","585347","585992","582143","585347","NA","Sternberg task","85","68389","94","yes","1024"
"90.52631578947368","90.52631578947368","726.9368421052632","726.9368421052632","black","experiment","legacy","legacy","legacy","0","uniform","1","undefined","1","right","94","0","94","94","0","0","94","94","0","0","94","94","94","94","0","Sun Oct 23 22:41:48 2022","The main experiment item","yes","Sternbergtask.osexp","C:/Users/cici_/Downloads","no","mono","no","18","no","white","no","yes","768","legacy","82","11","C:/Users/cici_/OneDrive/Documents/R/cs-subject-4.csv","legacy","7 6 4 8 1 2","Lentiform Loewenfeld","3.3.12","0","n","0","right","right","right","right","NA","670","9495","1174","670","NA","2","legacy","6","1024","2","48000","-16","experiment","4","even","9","589328","12803","586009","587121","3301","89580","587124","525688","3306","88405","591330","592001","588126","591330","NA","Sternberg task","86","69059","95","yes","1024"
"89.58333333333333","89.58333333333333","732.0416666666666","732.0416666666666","black","experiment","legacy","legacy","legacy","0","uniform","0","undefined","0","right","95","0","95","95","0","0","95","95","0","0","95","95","95","95","0","Sun Oct 23 22:41:48 2022","The main experiment item","yes","Sternbergtask.osexp","C:/Users/cici_/Downloads","no","mono","no","18","no","white","no","yes","768","legacy","83","11","C:/Users/cici_/OneDrive/Documents/R/cs-subject-4.csv","legacy","9 5 3 2 8 6","Lentiform Loewenfeld","3.3.12","0","n","0","left","right","right","left","NA","1217","9495","1174","1217","NA","2","legacy","6","1024","2","48000","-16","experiment","4","even","7","595344","12803","592018","593136","3301","89580","593140","525688","3306","88405","597346","598566","594142","597346","NA","Sternberg task","86","70276","96","yes","1024"
"88.65979381443299","88.65979381443299","731.5979381443299","731.5979381443299","black","experiment","legacy","legacy","legacy","0","uniform","0","undefined","0","left","96","0","96","96","0","0","96","96","0","0","96","96","96","96","0","Sun Oct 23 22:41:48 2022","The main experiment item","yes","Sternbergtask.osexp","C:/Users/cici_/Downloads","no","mono","no","18","no","white","no","yes","768","legacy","84","11","C:/Users/cici_/OneDrive/Documents/R/cs-subject-4.csv","legacy","4 3 2 5 8","Lentiform Loewenfeld","3.3.12","2","y","0","right","right","right","right","NA","689","9495","1174","689","NA","2","legacy","5","1024","2","48000","-16","experiment","4","even","3","601903","12803","592018","599696","3301","89580","599699","598582","3306","88405","603905","604596","600701","603905","NA","Sternberg task","86","70965","97","yes","1024"
"88.77551020408163","88.77551020408163","731.1326530612245","731.1326530612245","black","experiment","legacy","legacy","legacy","0","uniform","1","undefined","1","right","97","0","97","97","0","0","97","97","0","0","97","97","97","97","0","Sun Oct 23 22:41:48 2022","The main experiment item","yes","Sternbergtask.osexp","C:/Users/cici_/Downloads","no","mono","no","18","no","white","no","yes","768","legacy","85","11","C:/Users/cici_/OneDrive/Documents/R/cs-subject-4.csv","legacy","2 3 8 5 6 7","Lentiform Loewenfeld","3.3.12","0","n","0","right","right","right","right","NA","686","9495","1174","686","NA","2","legacy","6","1024","2","48000","-16","experiment","4","even","1","607930","12803","592018","605722","3301","89580","605725","604612","3306","88405","609932","610620","606727","609932","NA","Sternberg task","87","71651","98","yes","1024"
"88.88888888888889","88.88888888888889","730.5454545454545","730.5454545454545","black","experiment","legacy","legacy","legacy","0","uniform","1","undefined","1","right","98","0","98","98","0","0","98","98","0","0","98","98","98","98","0","Sun Oct 23 22:41:48 2022","The main experiment item","yes","Sternbergtask.osexp","C:/Users/cici_/Downloads","no","mono","no","18","no","white","no","yes","768","legacy","86","11","C:/Users/cici_/OneDrive/Documents/R/cs-subject-4.csv","legacy","5 2","Lentiform Loewenfeld","3.3.12","0","n","0","right","right","right","right","NA","673","9495","1174","673","NA","2","legacy","2","1024","2","48000","-16","experiment","4","even","7","613963","12803","610637","611755","3301","89580","611758","604612","3306","88405","615966","616641","612760","615966","NA","Sternberg task","88","72324","99","yes","1024"
"89","89","730.6","730.6","black","experiment","legacy","legacy","legacy","0","uniform","1","undefined","1","right","99","0","99","99","0","0","99","99","0","0","99","99","99","99","0","Sun Oct 23 22:41:48 2022","The main experiment item","yes","Sternbergtask.osexp","C:/Users/cici_/Downloads","no","mono","no","18","no","white","no","yes","768","legacy","87","11","C:/Users/cici_/OneDrive/Documents/R/cs-subject-4.csv","legacy","2 8 9 4 1","Lentiform Loewenfeld","3.3.12","0","n","0","right","right","right","right","NA","736","9495","1174","736","NA","2","legacy","5","1024","2","48000","-16","experiment","4","even","5","619978","12803","616648","617771","3301","89580","617774","604612","3306","88405","621980","622719","618776","621980","NA","Sternberg task","89","73060","100","yes","1024"
"89.10891089108911","89.10891089108911","728.4554455445544","728.4554455445544","black","experiment","legacy","legacy","legacy","0","uniform","1","undefined","1","left","100","0","100","100","0","0","100","100","0","0","100","100","100","100","0","Sun Oct 23 22:41:48 2022","The main experiment item","yes","Sternbergtask.osexp","C:/Users/cici_/Downloads","no","mono","no","18","no","white","no","yes","768","legacy","88","11","C:/Users/cici_/OneDrive/Documents/R/cs-subject-4.csv","legacy","9 5 3 8 4","Lentiform Loewenfeld","3.3.12","1","y","0","left","right","right","left","NA","514","9495","1174","514","NA","2","legacy","5","1024","2","48000","-16","experiment","4","even","9","626062","12803","622736","623854","3301","89580","623857","604612","3306","88405","628064","628580","624859","628064","NA","Sternberg task","90","73574","101","yes","1024"
"89.2156862745098","89.2156862745098","727.0686274509804","727.0686274509804","black","experiment","legacy","legacy","legacy","0","uniform","1","undefined","1","right","101","0","101","101","0","0","101","101","0","0","101","101","101","101","0","Sun Oct 23 22:41:48 2022","The main experiment item","yes","Sternbergtask.osexp","C:/Users/cici_/Downloads","no","mono","no","18","no","white","no","yes","768","legacy","89","11","C:/Users/cici_/OneDrive/Documents/R/cs-subject-4.csv","legacy","6 9 4 5 2","Lentiform Loewenfeld","3.3.12","0","n","0","right","right","right","right","NA","587","9495","1174","587","NA","2","legacy","5","1024","2","48000","-16","experiment","4","even","1","631914","12803","628598","629706","3301","89580","629710","604612","3306","88405","633916","634505","630712","633915","NA","Sternberg task","91","74161","102","yes","1024"
"89.32038834951456","89.32038834951456","727.0291262135922","727.0291262135922","black","experiment","legacy","legacy","legacy","0","uniform","1","undefined","1","left","102","0","102","102","0","0","102","102","0","0","102","102","102","102","0","Sun Oct 23 22:41:48 2022","The main experiment item","yes","Sternbergtask.osexp","C:/Users/cici_/Downloads","no","mono","no","18","no","white","no","yes","768","legacy","90","11","C:/Users/cici_/OneDrive/Documents/R/cs-subject-4.csv","legacy","9 3 8 2 1 4","Lentiform Loewenfeld","3.3.12","3","y","0","left","right","right","left","NA","723","9495","1174","723","NA","2","legacy","6","1024","2","48000","-16","experiment","4","even","8","637841","12803","634513","635632","3301","89580","635635","604612","3306","88405","639843","640570","636638","639843","NA","Sternberg task","92","74884","103","yes","1024"
"89.42307692307692","89.42307692307692","725.0769230769231","725.0769230769231","black","experiment","legacy","legacy","legacy","0","uniform","1","undefined","1","left","103","0","103","103","0","0","103","103","0","0","103","103","103","103","0","Sun Oct 23 22:41:48 2022","The main experiment item","yes","Sternbergtask.osexp","C:/Users/cici_/Downloads","no","mono","no","18","no","white","no","yes","768","legacy","91","11","C:/Users/cici_/OneDrive/Documents/R/cs-subject-4.csv","legacy","5 2 9 6 1 7","Lentiform Loewenfeld","3.3.12","3","y","0","left","right","right","left","NA","524","9495","1174","524","NA","2","legacy","6","1024","2","48000","-16","experiment","4","even","9","643896","12803","640576","641688","3301","89580","641692","604612","3306","88405","645898","646424","642694","645898","NA","Sternberg task","93","75408","104","yes","1024"
"89.52380952380952","89.52380952380952","726.3523809523809","726.3523809523809","black","experiment","legacy","legacy","legacy","0","uniform","1","undefined","1","right","104","0","104","104","0","0","104","104","0","0","104","104","104","104","0","Sun Oct 23 22:41:48 2022","The main experiment item","yes","Sternbergtask.osexp","C:/Users/cici_/Downloads","no","mono","no","18","no","white","no","yes","768","legacy","92","11","C:/Users/cici_/OneDrive/Documents/R/cs-subject-4.csv","legacy","7 4 2 8 1 9","Lentiform Loewenfeld","3.3.12","0","n","0","right","right","right","right","NA","859","9495","1174","859","NA","2","legacy","6","1024","2","48000","-16","experiment","4","even","5","649760","12803","646441","647553","3301","89580","647556","604612","3306","88405","651762","652624","648558","651762","NA","Sternberg task","94","76267","105","yes","1024"
"89.62264150943396","89.62264150943396","727.3679245283018","727.3679245283018","black","experiment","legacy","legacy","legacy","0","uniform","1","undefined","1","right","105","0","105","105","0","0","105","105","0","0","105","105","105","105","0","Sun Oct 23 22:41:48 2022","The main experiment item","yes","Sternbergtask.osexp","C:/Users/cici_/Downloads","no","mono","no","18","no","white","no","yes","768","legacy","93","11","C:/Users/cici_/OneDrive/Documents/R/cs-subject-4.csv","legacy","2 8 7 9 5 3","Lentiform Loewenfeld","3.3.12","0","n","0","right","right","right","right","NA","834","9495","1174","834","NA","2","legacy","6","1024","2","48000","-16","experiment","4","even","6","655984","12803","652641","653776","3301","89580","653779","604612","3306","88405","657986","658822","654781","657986","NA","Sternberg task","95","77101","106","yes","1024"
"89.7196261682243","89.7196261682243","727.3084112149533","727.3084112149533","black","experiment","legacy","legacy","legacy","0","uniform","1","undefined","1","left","106","0","106","106","0","0","106","106","0","0","106","106","106","106","0","Sun Oct 23 22:41:48 2022","The main experiment item","yes","Sternbergtask.osexp","C:/Users/cici_/Downloads","no","mono","no","18","no","white","no","yes","768","legacy","94","11","C:/Users/cici_/OneDrive/Documents/R/cs-subject-4.csv","legacy","7 1 3","Lentiform Loewenfeld","3.3.12","2","y","0","left","right","right","left","NA","721","9495","1174","721","NA","2","legacy","3","1024","2","48000","-16","experiment","4","even","1","662160","12803","658829","659954","3301","89580","659957","604612","3306","88405","664163","664888","660959","664163","NA","Sternberg task","96","77822","107","yes","1024"
"89.81481481481481","89.81481481481481","727.0092592592592","727.0092592592592","black","experiment","legacy","legacy","legacy","0","uniform","1","undefined","1","right","107","0","107","107","0","0","107","107","0","0","107","107","107","107","0","Sun Oct 23 22:41:48 2022","The main experiment item","yes","Sternbergtask.osexp","C:/Users/cici_/Downloads","no","mono","no","18","no","white","no","yes","768","legacy","95","11","C:/Users/cici_/OneDrive/Documents/R/cs-subject-4.csv","legacy","1 4 3 6 5","Lentiform Loewenfeld","3.3.12","0","n","0","right","right","right","right","NA","695","9495","1174","695","NA","2","legacy","5","1024","2","48000","-16","experiment","4","even","8","668250","12803","664905","666042","3301","89580","666045","604612","3306","88405","670253","670951","667047","670253","NA","Sternberg task","97","78517","108","yes","1024"
"89.90825688073394","89.90825688073394","728.2752293577981","728.2752293577981","black","experiment","legacy","legacy","legacy","0","uniform","1","undefined","1","right","108","0","108","108","0","0","108","108","0","0","108","108","108","108","0","Sun Oct 23 22:41:48 2022","The main experiment item","yes","Sternbergtask.osexp","C:/Users/cici_/Downloads","no","mono","no","18","no","white","no","yes","768","legacy","96","11","C:/Users/cici_/OneDrive/Documents/R/cs-subject-4.csv","legacy","7 1 5 6 3","Lentiform Loewenfeld","3.3.12","0","n","0","right","right","right","right","NA","865","9495","1174","865","NA","2","legacy","5","1024","2","48000","-16","experiment","4","even","8","674277","12803","670959","672069","3301","89580","672072","604612","3306","88405","676280","677148","673074","676279","NA","Sternberg task","98","79382","109","yes","1024"
"90","90","732.3636363636364","732.3636363636364","black","experiment","legacy","legacy","legacy","0","uniform","1","undefined","1","right","109","0","109","109","0","0","109","109","0","0","109","109","109","109","0","Sun Oct 23 22:41:48 2022","The main experiment item","yes","Sternbergtask.osexp","C:/Users/cici_/Downloads","no","mono","no","18","no","white","no","yes","768","legacy","97","11","C:/Users/cici_/OneDrive/Documents/R/cs-subject-4.csv","legacy","1 4 9 2 5","Lentiform Loewenfeld","3.3.12","0","n","0","right","right","right","right","NA","1178","9495","1174","1178","NA","2","legacy","5","1024","2","48000","-16","experiment","4","even","7","680478","12803","677165","678270","3301","89580","678274","604612","3306","88405","682480","683661","679276","682480","NA","Sternberg task","99","80560","110","yes","1024"
"90.09009009009009","90.09009009009009","731.6216216216217","731.6216216216217","black","experiment","legacy","legacy","legacy","0","uniform","1","undefined","1","right","110","0","110","110","0","0","110","110","0","0","110","110","110","110","0","Sun Oct 23 22:41:48 2022","The main experiment item","yes","Sternbergtask.osexp","C:/Users/cici_/Downloads","no","mono","no","18","no","white","no","yes","768","legacy","98","11","C:/Users/cici_/OneDrive/Documents/R/cs-subject-4.csv","legacy","3 9 1","Lentiform Loewenfeld","3.3.12","0","n","0","right","right","right","right","NA","650","9495","1174","650","NA","2","legacy","3","1024","2","48000","-16","experiment","4","even","7","686993","12803","683669","684785","3301","89580","684788","604612","3306","88405","688995","689648","685790","688995","NA","Sternberg task","100","81210","111","yes","1024"
"90.17857142857143","90.17857142857143","732.5357142857143","732.5357142857143","black","experiment","legacy","legacy","legacy","0","uniform","1","undefined","1","left","111","0","111","111","0","0","111","111","0","0","111","111","111","111","0","Sun Oct 23 22:41:48 2022","The main experiment item","yes","Sternbergtask.osexp","C:/Users/cici_/Downloads","no","mono","no","18","no","white","no","yes","768","legacy","99","11","C:/Users/cici_/OneDrive/Documents/R/cs-subject-4.csv","legacy","6 5","Lentiform Loewenfeld","3.3.12","2","y","0","left","right","right","left","NA","834","9495","1174","834","NA","2","legacy","2","1024","2","48000","-16","experiment","4","even","5","692991","12803","689665","690784","3301","89580","690787","604612","3306","88405","694993","695830","691789","694993","NA","Sternberg task","101","82044","112","yes","1024"
"90.26548672566372","90.26548672566372","730.4955752212389","730.4955752212389","black","experiment","legacy","legacy","legacy","0","uniform","1","undefined","1","left","112","0","112","112","0","0","112","112","0","0","112","112","112","112","0","Sun Oct 23 22:41:48 2022","The main experiment item","yes","Sternbergtask.osexp","C:/Users/cici_/Downloads","no","mono","no","18","no","white","no","yes","768","legacy","100","11","C:/Users/cici_/OneDrive/Documents/R/cs-subject-4.csv","legacy","4","Lentiform Loewenfeld","3.3.12","1","y","0","left","right","right","left","NA","502","9495","1174","502","NA","2","legacy","1","1024","2","48000","-16","experiment","4","even","4","699150","12803","695835","696943","3301","89580","696946","604612","3306","88405","701152","701656","697948","701152","NA","Sternberg task","102","82546","113","yes","1024"
"90.35087719298245","90.35087719298245","728.280701754386","728.280701754386","black","experiment","legacy","legacy","legacy","0","uniform","1","undefined","1","left","113","0","113","113","0","0","113","113","0","0","113","113","113","113","0","Sun Oct 23 22:41:48 2022","The main experiment item","yes","Sternbergtask.osexp","C:/Users/cici_/Downloads","no","mono","no","18","no","white","no","yes","768","legacy","101","11","C:/Users/cici_/OneDrive/Documents/R/cs-subject-4.csv","legacy","8","Lentiform Loewenfeld","3.3.12","1","y","0","left","right","right","left","NA","478","9495","1174","478","NA","2","legacy","1","1024","2","48000","-16","experiment","4","even","8","704985","12803","701663","702777","3301","89580","702780","604612","3306","88405","706987","707468","703782","706987","NA","Sternberg task","103","83024","114","yes","1024"
"90.43478260869566","90.43478260869566","726.5826086956522","726.5826086956522","black","experiment","legacy","legacy","legacy","0","uniform","1","undefined","1","right","114","0","114","114","0","0","114","114","0","0","114","114","114","114","0","Sun Oct 23 22:41:48 2022","The main experiment item","yes","Sternbergtask.osexp","C:/Users/cici_/Downloads","no","mono","no","18","no","white","no","yes","768","legacy","102","11","C:/Users/cici_/OneDrive/Documents/R/cs-subject-4.csv","legacy","3 9 8 1 6 4","Lentiform Loewenfeld","3.3.12","0","n","0","right","right","right","right","NA","533","9495","1174","533","NA","2","legacy","6","1024","2","48000","-16","experiment","4","even","7","710792","12803","707475","708585","3301","89580","708588","604612","3306","88405","712794","713329","709590","712794","NA","Sternberg task","104","83557","115","yes","1024"
"89.65517241379311","89.65517241379311","729.5258620689655","729.5258620689655","black","experiment","legacy","legacy","legacy","0","uniform","0","undefined","0","right","115","0","115","115","0","0","115","115","0","0","115","115","115","115","0","Sun Oct 23 22:41:48 2022","The main experiment item","yes","Sternbergtask.osexp","C:/Users/cici_/Downloads","no","mono","no","18","no","white","no","yes","768","legacy","103","11","C:/Users/cici_/OneDrive/Documents/R/cs-subject-4.csv","legacy","2 8 6 3 1","Lentiform Loewenfeld","3.3.12","0","n","0","left","right","right","left","NA","1068","9495","1174","1068","NA","2","legacy","5","1024","2","48000","-16","experiment","4","even","7","716670","12803","713337","714464","3301","89580","714466","604612","3306","88405","718673","719744","715467","718672","NA","Sternberg task","104","84625","116","yes","1024"
"89.74358974358974","89.74358974358974","729.974358974359","729.974358974359","black","experiment","legacy","legacy","legacy","0","uniform","1","undefined","1","right","116","0","116","116","0","0","116","116","0","0","116","116","116","116","0","Sun Oct 23 22:41:48 2022","The main experiment item","yes","Sternbergtask.osexp","C:/Users/cici_/Downloads","no","mono","no","18","no","white","no","yes","768","legacy","104","11","C:/Users/cici_/OneDrive/Documents/R/cs-subject-4.csv","legacy","4 8 1 2","Lentiform Loewenfeld","3.3.12","0","n","0","right","right","right","right","NA","782","9495","1174","782","NA","2","legacy","4","1024","2","48000","-16","experiment","4","even","7","723069","12803","713337","720862","3301","89580","720865","719750","3306","88405","725071","725855","721867","725071","NA","Sternberg task","105","85407","117","yes","1024"
