acc,accuracy,average_response_time,avg_rt,background,block,canvas_backend,clock_backend,color_backend,compensation,coordinates,correct,correct_instruction1,correct_keyboard_response,correct_response,count_ISI,count_correctFeedback,count_expSequence,count_experiment,count_experimentLoop,count_fixation,count_getting_started,count_incorrectFeedback,count_instruction1,count_instructions2,count_keyboard_response,count_logger,count_memorySet,count_practiceLoop,count_probe,count_thankYou,count_welcome,datetime,description,disable_garbage_collection,experiment_file,experiment_path,font_bold,font_family,font_italic,font_size,font_underline,foreground,form_clicks,fullscreen,height,keyboard_backend,live_row,live_row_practiceLoop,logfile,mouse_backend,numberSet,opensesame_codename,opensesame_version,posInSet,present,repeat_cycle,response,response_instruction1,response_instructions2,response_keyboard_response,response_thankYou,response_time,response_time_instruction1,response_time_instructions2,response_time_keyboard_response,response_time_thankYou,round_decimals,sampler_backend,setSize,sound_buf_size,sound_channels,sound_freq,sound_sample_size,start,subject_nr,subject_parity,target,time_ISI,time_correctFeedback,time_expSequence,time_experiment,time_experimentLoop,time_fixation,time_getting_started,time_incorrectFeedback,time_instruction1,time_instructions2,time_keyboard_response,time_logger,time_memorySet,time_practiceLoop,time_probe,time_thankYou,time_welcome,title,total_correct,total_response_time,total_responses,uniform_coordinates,width
100,100,1644,1644,black,practice,legacy,legacy,legacy,0,uniform,1,undefined,1,left,0,0,0,0,0,0,NA,0,0,0,0,0,0,0,0,0,NA,Sun Oct 27 11:21:15 2019,The main experiment item,yes,Sternbergtask.osexp,/Users/danielrazo0311/Desktop,no,mono,no,18,no,white,no,yes,768,legacy,0,0,/Users/danielrazo0311/Desktop/subject-2.csv,legacy,1 7 9 8 5,Kafkaesque Koffka,3.2.8,4,y,0,left,left,NA,left,NA,1644,7068,NA,1644,NA,2,legacy,5,1024,2,48000,-16,experiment,2,even,8,19200,NA,16949,6301,NA,16965,NA,NA,6356,NA,21212,22858,17985,13439,21212,NA,NA,Sternberg task,1,1644,1,yes,1024
100,100,1169.5,1169.5,black,practice,legacy,legacy,legacy,0,uniform,1,undefined,1,left,1,1,1,0,0,1,NA,1,0,0,1,1,1,0,1,0,NA,Sun Oct 27 11:21:15 2019,The main experiment item,yes,Sternbergtask.osexp,/Users/danielrazo0311/Desktop,no,mono,no,18,no,white,no,yes,768,legacy,1,1,/Users/danielrazo0311/Desktop/subject-2.csv,legacy,4 8,Kafkaesque Koffka,3.2.8,1,y,0,left,left,NA,left,NA,695,7068,NA,695,NA,2,legacy,2,1024,2,48000,-16,experiment,2,even,4,26371,22970,24129,6301,NA,24142,NA,NA,6356,NA,28385,29082,25154,13439,28385,NA,NA,Sternberg task,2,2339,2,yes,1024
100,100,996,996,black,practice,legacy,legacy,legacy,0,uniform,1,undefined,1,right,2,2,2,0,0,2,NA,2,0,0,2,2,2,0,2,0,NA,Sun Oct 27 11:21:15 2019,The main experiment item,yes,Sternbergtask.osexp,/Users/danielrazo0311/Desktop,no,mono,no,18,no,white,no,yes,768,legacy,2,2,/Users/danielrazo0311/Desktop/subject-2.csv,legacy,2 1,Kafkaesque Koffka,3.2.8,0,n,0,right,left,NA,right,NA,649,7068,NA,649,NA,2,legacy,2,1024,2,48000,-16,experiment,2,even,5,32490,29097,30247,6301,NA,30261,NA,NA,6356,NA,34503,35154,31275,13439,34502,NA,NA,Sternberg task,3,2988,3,yes,1024
100,100,936.5,936.5,black,practice,legacy,legacy,legacy,0,uniform,1,undefined,1,right,3,3,3,0,0,3,NA,3,0,0,3,3,3,0,3,0,NA,Sun Oct 27 11:21:15 2019,The main experiment item,yes,Sternbergtask.osexp,/Users/danielrazo0311/Desktop,no,mono,no,18,no,white,no,yes,768,legacy,3,3,/Users/danielrazo0311/Desktop/subject-2.csv,legacy,5,Kafkaesque Koffka,3.2.8,0,n,0,right,left,NA,right,NA,758,7068,NA,758,NA,2,legacy,1,1024,2,48000,-16,experiment,2,even,3,38558,35169,36314,6301,NA,36327,NA,NA,6356,NA,40570,41330,37343,13439,40570,NA,NA,Sternberg task,4,3746,4,yes,1024
100,100,893.4,893.4,black,practice,legacy,legacy,legacy,0,uniform,1,undefined,1,left,4,4,4,0,0,4,NA,4,0,0,4,4,4,0,4,0,NA,Sun Oct 27 11:21:15 2019,The main experiment item,yes,Sternbergtask.osexp,/Users/danielrazo0311/Desktop,no,mono,no,18,no,white,no,yes,768,legacy,4,4,/Users/danielrazo0311/Desktop/subject-2.csv,legacy,1 5 2 9,Kafkaesque Koffka,3.2.8,2,y,0,left,left,NA,left,NA,721,7068,NA,721,NA,2,legacy,4,1024,2,48000,-16,experiment,2,even,5,44736,41346,42493,6301,NA,42505,NA,NA,6356,NA,46750,47473,43520,13439,46750,NA,NA,Sternberg task,5,4467,5,yes,1024
100,100,945.3333333,945.3333333,black,practice,legacy,legacy,legacy,0,uniform,1,undefined,1,right,5,5,5,0,0,5,NA,5,0,0,5,5,5,0,5,0,NA,Sun Oct 27 11:21:15 2019,The main experiment item,yes,Sternbergtask.osexp,/Users/danielrazo0311/Desktop,no,mono,no,18,no,white,no,yes,768,legacy,5,5,/Users/danielrazo0311/Desktop/subject-2.csv,legacy,9 6 7 4 5,Kafkaesque Koffka,3.2.8,0,n,0,right,left,NA,right,NA,1205,7068,NA,1205,NA,2,legacy,5,1024,2,48000,-16,experiment,2,even,3,50938,47532,48691,6301,NA,48703,NA,NA,6356,NA,52954,54162,49719,13439,52954,NA,NA,Sternberg task,6,5672,6,yes,1024
100,100,962.4285714,962.4285714,black,practice,legacy,legacy,legacy,0,uniform,1,undefined,1,right,6,6,6,0,0,6,NA,6,0,0,6,6,6,0,6,0,NA,Sun Oct 27 11:21:15 2019,The main experiment item,yes,Sternbergtask.osexp,/Users/danielrazo0311/Desktop,no,mono,no,18,no,white,no,yes,768,legacy,6,6,/Users/danielrazo0311/Desktop/subject-2.csv,legacy,5 7 8 4 1 2,Kafkaesque Koffka,3.2.8,0,n,0,right,left,NA,right,NA,1065,7068,NA,1065,NA,2,legacy,6,1024,2,48000,-16,experiment,2,even,6,57585,54177,55345,6301,NA,55357,NA,NA,6356,NA,59598,60666,56371,13439,59598,NA,NA,Sternberg task,7,6737,7,yes,1024
100,100,929.5,929.5,black,practice,legacy,legacy,legacy,0,uniform,1,undefined,1,left,7,7,7,0,0,7,NA,7,0,0,7,7,7,0,7,0,NA,Sun Oct 27 11:21:15 2019,The main experiment item,yes,Sternbergtask.osexp,/Users/danielrazo0311/Desktop,no,mono,no,18,no,white,no,yes,768,legacy,7,7,/Users/danielrazo0311/Desktop/subject-2.csv,legacy,4 3 1 7 9 8,Kafkaesque Koffka,3.2.8,1,y,0,left,left,NA,left,NA,699,7068,NA,699,NA,2,legacy,6,1024,2,48000,-16,experiment,2,even,4,64118,60686,61875,6301,NA,61889,NA,NA,6356,NA,66132,66834,62905,13439,66132,NA,NA,Sternberg task,8,7436,8,yes,1024
100,100,898.1111111,898.1111111,black,practice,legacy,legacy,legacy,0,uniform,1,undefined,1,left,8,8,8,0,0,8,NA,8,0,0,8,8,8,0,8,0,NA,Sun Oct 27 11:21:15 2019,The main experiment item,yes,Sternbergtask.osexp,/Users/danielrazo0311/Desktop,no,mono,no,18,no,white,no,yes,768,legacy,8,8,/Users/danielrazo0311/Desktop/subject-2.csv,legacy,6,Kafkaesque Koffka,3.2.8,1,y,0,left,left,NA,left,NA,647,7068,NA,647,NA,2,legacy,1,1024,2,48000,-16,experiment,2,even,6,70237,66852,67999,6301,NA,68010,NA,NA,6356,NA,72249,72898,69024,13439,72249,NA,NA,Sternberg task,9,8083,9,yes,1024
100,100,886.5,886.5,black,practice,legacy,legacy,legacy,0,uniform,1,undefined,1,right,9,9,9,0,0,9,NA,9,0,0,9,9,9,0,9,0,NA,Sun Oct 27 11:21:15 2019,The main experiment item,yes,Sternbergtask.osexp,/Users/danielrazo0311/Desktop,no,mono,no,18,no,white,no,yes,768,legacy,9,9,/Users/danielrazo0311/Desktop/subject-2.csv,legacy,4 1 5,Kafkaesque Koffka,3.2.8,0,n,0,right,left,NA,right,NA,782,7068,NA,782,NA,2,legacy,3,1024,2,48000,-16,experiment,2,even,2,76309,72913,74070,6301,NA,74082,NA,NA,6356,NA,78321,79105,75095,13439,78321,NA,NA,Sternberg task,10,8865,10,yes,1024
100,100,860.3636364,860.3636364,black,practice,legacy,legacy,legacy,0,uniform,1,undefined,1,right,10,10,10,0,0,10,NA,10,0,0,10,10,10,0,10,0,NA,Sun Oct 27 11:21:15 2019,The main experiment item,yes,Sternbergtask.osexp,/Users/danielrazo0311/Desktop,no,mono,no,18,no,white,no,yes,768,legacy,10,10,/Users/danielrazo0311/Desktop/subject-2.csv,legacy,3 1 9 4,Kafkaesque Koffka,3.2.8,0,n,0,right,left,NA,right,NA,599,7068,NA,599,NA,2,legacy,4,1024,2,48000,-16,experiment,2,even,6,82507,79119,80267,6301,NA,80279,NA,NA,6356,NA,84520,85121,81292,13439,84520,NA,NA,Sternberg task,11,9464,11,yes,1024
100,100,904.3333333,904.3333333,black,practice,legacy,legacy,legacy,0,uniform,1,undefined,1,left,11,11,11,0,0,11,NA,11,0,0,11,11,11,0,11,0,NA,Sun Oct 27 11:21:15 2019,The main experiment item,yes,Sternbergtask.osexp,/Users/danielrazo0311/Desktop,no,mono,no,18,no,white,no,yes,768,legacy,11,11,/Users/danielrazo0311/Desktop/subject-2.csv,legacy,2 9 4,Kafkaesque Koffka,3.2.8,3,y,0,left,left,NA,left,NA,1388,7068,NA,1388,NA,2,legacy,3,1024,2,48000,-16,experiment,2,even,4,88527,85139,86285,6301,NA,86297,NA,NA,6356,NA,90540,91930,87311,13439,90539,NA,NA,Sternberg task,12,10852,12,yes,1024
100,100,883.6923077,883.6923077,black,experiment,legacy,legacy,legacy,0,uniform,1,undefined,1,left,12,12,12,0,0,12,NA,12,0,0,12,12,12,0,12,0,NA,Sun Oct 27 11:21:15 2019,The main experiment item,yes,Sternbergtask.osexp,/Users/danielrazo0311/Desktop,no,mono,no,18,no,white,no,yes,768,legacy,0,11,/Users/danielrazo0311/Desktop/subject-2.csv,legacy,4 1 8 7 5,Kafkaesque Koffka,3.2.8,3,y,0,left,left,left,left,NA,636,7068,6072,636,NA,2,legacy,5,1024,2,48000,-16,experiment,2,even,8,101493,91951,99253,6301,99073,99265,NA,NA,6356,92998,103506,104144,100279,13439,103506,NA,NA,Sternberg task,13,11488,13,yes,1024
100,100,873,873,black,experiment,legacy,legacy,legacy,0,uniform,1,undefined,1,right,13,13,13,0,0,13,NA,13,0,0,13,13,13,0,13,0,NA,Sun Oct 27 11:21:15 2019,The main experiment item,yes,Sternbergtask.osexp,/Users/danielrazo0311/Desktop,no,mono,no,18,no,white,no,yes,768,legacy,1,11,/Users/danielrazo0311/Desktop/subject-2.csv,legacy,3 9 8 1 6 4,Kafkaesque Koffka,3.2.8,0,n,0,right,left,left,right,NA,734,7068,6072,734,NA,2,legacy,6,1024,2,48000,-16,experiment,2,even,7,107546,104159,105305,6301,99073,105318,NA,NA,6356,92998,109560,110296,106330,13439,109559,NA,NA,Sternberg task,14,12222,14,yes,1024
100,100,871.8,871.8,black,experiment,legacy,legacy,legacy,0,uniform,1,undefined,1,left,14,14,14,0,0,14,NA,14,0,0,14,14,14,0,14,0,NA,Sun Oct 27 11:21:15 2019,The main experiment item,yes,Sternbergtask.osexp,/Users/danielrazo0311/Desktop,no,mono,no,18,no,white,no,yes,768,legacy,2,11,/Users/danielrazo0311/Desktop/subject-2.csv,legacy,5 2 9 6 1 7,Kafkaesque Koffka,3.2.8,3,y,0,left,left,left,left,NA,855,7068,6072,855,NA,2,legacy,6,1024,2,48000,-16,experiment,2,even,9,113713,110322,111473,6301,99073,111485,NA,NA,6356,92998,115727,116584,112498,13439,115726,NA,NA,Sternberg task,15,13077,15,yes,1024
100,100,853.0625,853.0625,black,experiment,legacy,legacy,legacy,0,uniform,1,undefined,1,right,15,15,15,0,0,15,NA,15,0,0,15,15,15,0,15,0,NA,Sun Oct 27 11:21:15 2019,The main experiment item,yes,Sternbergtask.osexp,/Users/danielrazo0311/Desktop,no,mono,no,18,no,white,no,yes,768,legacy,3,11,/Users/danielrazo0311/Desktop/subject-2.csv,legacy,3 4 2,Kafkaesque Koffka,3.2.8,0,n,0,right,left,left,right,NA,572,7068,6072,572,NA,2,legacy,3,1024,2,48000,-16,experiment,2,even,5,120001,116609,117756,6301,99073,117769,NA,NA,6356,92998,122018,122592,118784,13439,122018,NA,NA,Sternberg task,16,13649,16,yes,1024
100,100,839.1176471,839.1176471,black,experiment,legacy,legacy,legacy,0,uniform,1,undefined,1,left,16,16,16,0,0,16,NA,16,0,0,16,16,16,0,16,0,NA,Sun Oct 27 11:21:15 2019,The main experiment item,yes,Sternbergtask.osexp,/Users/danielrazo0311/Desktop,no,mono,no,18,no,white,no,yes,768,legacy,4,11,/Users/danielrazo0311/Desktop/subject-2.csv,legacy,7 8 4 6 9 5,Kafkaesque Koffka,3.2.8,4,y,0,left,left,left,left,NA,616,7068,6072,616,NA,2,legacy,6,1024,2,48000,-16,experiment,2,even,6,126007,122608,123761,6301,99073,123777,NA,NA,6356,92998,128021,128640,124792,13439,128020,NA,NA,Sternberg task,17,14265,17,yes,1024
100,100,825.2222222,825.2222222,black,experiment,legacy,legacy,legacy,0,uniform,1,undefined,1,right,17,17,17,0,0,17,NA,17,0,0,17,17,17,0,17,0,NA,Sun Oct 27 11:21:15 2019,The main experiment item,yes,Sternbergtask.osexp,/Users/danielrazo0311/Desktop,no,mono,no,18,no,white,no,yes,768,legacy,5,11,/Users/danielrazo0311/Desktop/subject-2.csv,legacy,1 4 9 2 5,Kafkaesque Koffka,3.2.8,0,n,0,right,left,left,right,NA,589,7068,6072,589,NA,2,legacy,5,1024,2,48000,-16,experiment,2,even,7,132118,128714,129880,6301,99073,129894,NA,NA,6356,92998,134136,134728,130906,13439,134136,NA,NA,Sternberg task,18,14854,18,yes,1024
100,100,835.3684211,835.3684211,black,experiment,legacy,legacy,legacy,0,uniform,1,undefined,1,right,18,18,18,0,0,18,NA,18,0,0,18,18,18,0,18,0,NA,Sun Oct 27 11:21:15 2019,The main experiment item,yes,Sternbergtask.osexp,/Users/danielrazo0311/Desktop,no,mono,no,18,no,white,no,yes,768,legacy,6,11,/Users/danielrazo0311/Desktop/subject-2.csv,legacy,4 2 7 6 1 3,Kafkaesque Koffka,3.2.8,0,n,0,right,left,left,right,NA,1018,7068,6072,1018,NA,2,legacy,6,1024,2,48000,-16,experiment,2,even,8,138134,134746,135893,6301,99073,135906,NA,NA,6356,92998,140147,141167,136920,13439,140147,NA,NA,Sternberg task,19,15872,19,yes,1024
100,100,825.4,825.4,black,experiment,legacy,legacy,legacy,0,uniform,1,undefined,1,right,19,19,19,0,0,19,NA,19,0,0,19,19,19,0,19,0,NA,Sun Oct 27 11:21:15 2019,The main experiment item,yes,Sternbergtask.osexp,/Users/danielrazo0311/Desktop,no,mono,no,18,no,white,no,yes,768,legacy,7,11,/Users/danielrazo0311/Desktop/subject-2.csv,legacy,4 2 6 9,Kafkaesque Koffka,3.2.8,0,n,0,right,left,left,right,NA,636,7068,6072,636,NA,2,legacy,4,1024,2,48000,-16,experiment,2,even,7,144573,141184,142336,6301,99073,142349,NA,NA,6356,92998,146585,147223,143361,13439,146585,NA,NA,Sternberg task,20,16508,20,yes,1024
100,100,817.4761905,817.4761905,black,experiment,legacy,legacy,legacy,0,uniform,1,undefined,1,right,20,20,20,0,0,20,NA,20,0,0,20,20,20,0,20,0,NA,Sun Oct 27 11:21:15 2019,The main experiment item,yes,Sternbergtask.osexp,/Users/danielrazo0311/Desktop,no,mono,no,18,no,white,no,yes,768,legacy,8,11,/Users/danielrazo0311/Desktop/subject-2.csv,legacy,1 3 2 6 9,Kafkaesque Koffka,3.2.8,0,n,0,right,left,left,right,NA,659,7068,6072,659,NA,2,legacy,5,1024,2,48000,-16,experiment,2,even,5,150636,147238,148393,6301,99073,148406,NA,NA,6356,92998,152650,153312,149421,13439,152650,NA,NA,Sternberg task,21,17167,21,yes,1024
100,100,811.1363636,811.1363636,black,experiment,legacy,legacy,legacy,0,uniform,1,undefined,1,right,21,21,21,0,0,21,NA,21,0,0,21,21,21,0,21,0,NA,Sun Oct 27 11:21:15 2019,The main experiment item,yes,Sternbergtask.osexp,/Users/danielrazo0311/Desktop,no,mono,no,18,no,white,no,yes,768,legacy,9,11,/Users/danielrazo0311/Desktop/subject-2.csv,legacy,5 3 2 6 9 8,Kafkaesque Koffka,3.2.8,0,n,0,right,left,left,right,NA,678,7068,6072,678,NA,2,legacy,6,1024,2,48000,-16,experiment,2,even,4,156727,153333,154486,6301,99073,154498,NA,NA,6356,92998,158742,159423,155512,13439,158742,NA,NA,Sternberg task,22,17845,22,yes,1024
100,100,803.3043478,803.3043478,black,experiment,legacy,legacy,legacy,0,uniform,1,undefined,1,right,22,22,22,0,0,22,NA,22,0,0,22,22,22,0,22,0,NA,Sun Oct 27 11:21:15 2019,The main experiment item,yes,Sternbergtask.osexp,/Users/danielrazo0311/Desktop,no,mono,no,18,no,white,no,yes,768,legacy,10,11,/Users/danielrazo0311/Desktop/subject-2.csv,legacy,9 7 4 5 8,Kafkaesque Koffka,3.2.8,0,n,0,right,left,left,right,NA,631,7068,6072,631,NA,2,legacy,5,1024,2,48000,-16,experiment,2,even,6,162846,159438,160601,6301,99073,160614,NA,NA,6356,92998,164861,165495,161630,13439,164861,NA,NA,Sternberg task,23,18476,23,yes,1024
100,100,804.4583333,804.4583333,black,experiment,legacy,legacy,legacy,0,uniform,1,undefined,1,left,23,23,23,0,0,23,NA,23,0,0,23,23,23,0,23,0,NA,Sun Oct 27 11:21:15 2019,The main experiment item,yes,Sternbergtask.osexp,/Users/danielrazo0311/Desktop,no,mono,no,18,no,white,no,yes,768,legacy,11,11,/Users/danielrazo0311/Desktop/subject-2.csv,legacy,4 6 5 8,Kafkaesque Koffka,3.2.8,1,y,0,left,left,left,left,NA,831,7068,6072,831,NA,2,legacy,4,1024,2,48000,-16,experiment,2,even,4,168904,165514,166662,6301,99073,166674,NA,NA,6356,92998,170918,171751,167687,13439,170918,NA,NA,Sternberg task,24,19307,24,yes,1024
100,100,797.36,797.36,black,experiment,legacy,legacy,legacy,0,uniform,1,undefined,1,left,24,24,24,0,0,24,NA,24,0,0,24,24,24,0,24,0,NA,Sun Oct 27 11:21:15 2019,The main experiment item,yes,Sternbergtask.osexp,/Users/danielrazo0311/Desktop,no,mono,no,18,no,white,no,yes,768,legacy,12,11,/Users/danielrazo0311/Desktop/subject-2.csv,legacy,7 2 3,Kafkaesque Koffka,3.2.8,3,y,0,left,left,left,left,NA,627,7068,6072,627,NA,2,legacy,3,1024,2,48000,-16,experiment,2,even,3,175157,171765,172916,6301,99073,172929,NA,NA,6356,92998,177169,177799,173943,13439,177169,NA,NA,Sternberg task,25,19934,25,yes,1024
100,100,793.5,793.5,black,experiment,legacy,legacy,legacy,0,uniform,1,undefined,1,right,25,25,25,0,0,25,NA,25,0,0,25,25,25,0,25,0,NA,Sun Oct 27 11:21:15 2019,The main experiment item,yes,Sternbergtask.osexp,/Users/danielrazo0311/Desktop,no,mono,no,18,no,white,no,yes,768,legacy,13,11,/Users/danielrazo0311/Desktop/subject-2.csv,legacy,8 2 1 4 5 9,Kafkaesque Koffka,3.2.8,0,n,0,right,left,left,right,NA,697,7068,6072,697,NA,2,legacy,6,1024,2,48000,-16,experiment,2,even,7,181223,177816,178976,6301,99073,178989,NA,NA,6356,92998,183236,183936,180006,13439,183236,NA,NA,Sternberg task,26,20631,26,yes,1024
100,100,800.1111111,800.1111111,black,experiment,legacy,legacy,legacy,0,uniform,1,undefined,1,right,26,26,26,0,0,26,NA,26,0,0,26,26,26,0,26,0,NA,Sun Oct 27 11:21:15 2019,The main experiment item,yes,Sternbergtask.osexp,/Users/danielrazo0311/Desktop,no,mono,no,18,no,white,no,yes,768,legacy,14,11,/Users/danielrazo0311/Desktop/subject-2.csv,legacy,1 7 5 2 9,Kafkaesque Koffka,3.2.8,0,n,0,right,left,left,right,NA,972,7068,6072,972,NA,2,legacy,5,1024,2,48000,-16,experiment,2,even,3,187354,183953,185110,6301,99073,185123,NA,NA,6356,92998,189368,190343,186138,13439,189367,NA,NA,Sternberg task,27,21603,27,yes,1024
100,100,788.7857143,788.7857143,black,experiment,legacy,legacy,legacy,0,uniform,1,undefined,1,right,27,27,27,0,0,27,NA,27,0,0,27,27,27,0,27,0,NA,Sun Oct 27 11:21:15 2019,The main experiment item,yes,Sternbergtask.osexp,/Users/danielrazo0311/Desktop,no,mono,no,18,no,white,no,yes,768,legacy,15,11,/Users/danielrazo0311/Desktop/subject-2.csv,legacy,2 5 1 4,Kafkaesque Koffka,3.2.8,0,n,0,right,left,left,right,NA,483,7068,6072,483,NA,2,legacy,4,1024,2,48000,-16,experiment,2,even,6,193762,190359,191518,6301,99073,191530,NA,NA,6356,92998,195777,196262,192545,13439,195776,NA,NA,Sternberg task,28,22086,28,yes,1024
100,100,788.9310345,788.9310345,black,experiment,legacy,legacy,legacy,0,uniform,1,undefined,1,right,28,28,28,0,0,28,NA,28,0,0,28,28,28,0,28,0,NA,Sun Oct 27 11:21:15 2019,The main experiment item,yes,Sternbergtask.osexp,/Users/danielrazo0311/Desktop,no,mono,no,18,no,white,no,yes,768,legacy,16,11,/Users/danielrazo0311/Desktop/subject-2.csv,legacy,6 8 4,Kafkaesque Koffka,3.2.8,0,n,0,right,left,left,right,NA,793,7068,6072,793,NA,2,legacy,3,1024,2,48000,-16,experiment,2,even,1,199677,196277,197434,6301,99073,197447,NA,NA,6356,92998,201690,202487,198461,13439,201690,NA,NA,Sternberg task,29,22879,29,yes,1024
100,100,793.6333333,793.6333333,black,experiment,legacy,legacy,legacy,0,uniform,1,undefined,1,right,29,29,29,0,0,29,NA,29,0,0,29,29,29,0,29,0,NA,Sun Oct 27 11:21:15 2019,The main experiment item,yes,Sternbergtask.osexp,/Users/danielrazo0311/Desktop,no,mono,no,18,no,white,no,yes,768,legacy,17,11,/Users/danielrazo0311/Desktop/subject-2.csv,legacy,2 8 7 9 5 3,Kafkaesque Koffka,3.2.8,0,n,0,right,left,left,right,NA,930,7068,6072,930,NA,2,legacy,6,1024,2,48000,-16,experiment,2,even,6,205906,202507,203666,6301,99073,203679,NA,NA,6356,92998,207921,208854,204692,13439,207920,NA,NA,Sternberg task,30,23809,30,yes,1024
100,100,801.5806452,801.5806452,black,experiment,legacy,legacy,legacy,0,uniform,1,undefined,1,left,30,30,30,0,0,30,NA,30,0,0,30,30,30,0,30,0,NA,Sun Oct 27 11:21:15 2019,The main experiment item,yes,Sternbergtask.osexp,/Users/danielrazo0311/Desktop,no,mono,no,18,no,white,no,yes,768,legacy,18,11,/Users/danielrazo0311/Desktop/subject-2.csv,legacy,6 1 2,Kafkaesque Koffka,3.2.8,3,y,0,left,left,left,left,NA,1040,7068,6072,1040,NA,2,legacy,3,1024,2,48000,-16,experiment,2,even,2,212279,208877,210036,6301,99073,210049,NA,NA,6356,92998,214291,215334,211063,13439,214291,NA,NA,Sternberg task,31,24849,31,yes,1024
100,100,795,795,black,experiment,legacy,legacy,legacy,0,uniform,1,undefined,1,right,31,31,31,0,0,31,NA,31,0,0,31,31,31,0,31,0,NA,Sun Oct 27 11:21:15 2019,The main experiment item,yes,Sternbergtask.osexp,/Users/danielrazo0311/Desktop,no,mono,no,18,no,white,no,yes,768,legacy,19,11,/Users/danielrazo0311/Desktop/subject-2.csv,legacy,6 9 5,Kafkaesque Koffka,3.2.8,0,n,0,right,left,left,right,NA,591,7068,6072,591,NA,2,legacy,3,1024,2,48000,-16,experiment,2,even,8,218734,215350,216496,6301,99073,216509,NA,NA,6356,92998,220748,221341,217522,13439,220747,NA,NA,Sternberg task,32,25440,32,yes,1024
100,100,795.0909091,795.0909091,black,experiment,legacy,legacy,legacy,0,uniform,1,undefined,1,right,32,32,32,0,0,32,NA,32,0,0,32,32,32,0,32,0,NA,Sun Oct 27 11:21:15 2019,The main experiment item,yes,Sternbergtask.osexp,/Users/danielrazo0311/Desktop,no,mono,no,18,no,white,no,yes,768,legacy,20,11,/Users/danielrazo0311/Desktop/subject-2.csv,legacy,7 9 1 6,Kafkaesque Koffka,3.2.8,0,n,0,right,left,left,right,NA,798,7068,6072,798,NA,2,legacy,4,1024,2,48000,-16,experiment,2,even,4,224744,221357,222503,6301,99073,222515,NA,NA,6356,92998,226757,227558,223528,13439,226757,NA,NA,Sternberg task,33,26238,33,yes,1024
100,100,787.7058824,787.7058824,black,experiment,legacy,legacy,legacy,0,uniform,1,undefined,1,right,33,33,33,0,0,33,NA,33,0,0,33,33,33,0,33,0,NA,Sun Oct 27 11:21:15 2019,The main experiment item,yes,Sternbergtask.osexp,/Users/danielrazo0311/Desktop,no,mono,no,18,no,white,no,yes,768,legacy,21,11,/Users/danielrazo0311/Desktop/subject-2.csv,legacy,2 8 6 3 1,Kafkaesque Koffka,3.2.8,0,n,0,right,left,left,right,NA,544,7068,6072,544,NA,2,legacy,5,1024,2,48000,-16,experiment,2,even,7,230959,227573,228721,6301,99073,228733,NA,NA,6356,92998,232971,233517,229747,13439,232971,NA,NA,Sternberg task,34,26782,34,yes,1024
100,100,791.5714286,791.5714286,black,experiment,legacy,legacy,legacy,0,uniform,1,undefined,1,right,34,34,34,0,0,34,NA,34,0,0,34,34,34,0,34,0,NA,Sun Oct 27 11:21:15 2019,The main experiment item,yes,Sternbergtask.osexp,/Users/danielrazo0311/Desktop,no,mono,no,18,no,white,no,yes,768,legacy,22,11,/Users/danielrazo0311/Desktop/subject-2.csv,legacy,8 5 4 2 9 6,Kafkaesque Koffka,3.2.8,0,n,0,right,left,left,right,NA,923,7068,6072,923,NA,2,legacy,6,1024,2,48000,-16,experiment,2,even,3,236916,233532,234678,6301,99073,234690,NA,NA,6356,92998,238928,239853,235704,13439,238928,NA,NA,Sternberg task,35,27705,35,yes,1024
100,100,788.8888889,788.8888889,black,experiment,legacy,legacy,legacy,0,uniform,1,undefined,1,right,35,35,35,0,0,35,NA,35,0,0,35,35,35,0,35,0,NA,Sun Oct 27 11:21:15 2019,The main experiment item,yes,Sternbergtask.osexp,/Users/danielrazo0311/Desktop,no,mono,no,18,no,white,no,yes,768,legacy,23,11,/Users/danielrazo0311/Desktop/subject-2.csv,legacy,7 9,Kafkaesque Koffka,3.2.8,0,n,0,right,left,left,right,NA,695,7068,6072,695,NA,2,legacy,2,1024,2,48000,-16,experiment,2,even,1,243256,239869,241015,6301,99073,241027,NA,NA,6356,92998,245268,245966,242039,13439,245268,NA,NA,Sternberg task,36,28400,36,yes,1024
100,100,787.4324324,787.4324324,black,experiment,legacy,legacy,legacy,0,uniform,1,undefined,1,right,36,36,36,0,0,36,NA,36,0,0,36,36,36,0,36,0,NA,Sun Oct 27 11:21:15 2019,The main experiment item,yes,Sternbergtask.osexp,/Users/danielrazo0311/Desktop,no,mono,no,18,no,white,no,yes,768,legacy,24,11,/Users/danielrazo0311/Desktop/subject-2.csv,legacy,7 1 5 6 3,Kafkaesque Koffka,3.2.8,0,n,0,right,left,left,right,NA,735,7068,6072,735,NA,2,legacy,5,1024,2,48000,-16,experiment,2,even,8,249367,245981,247125,6301,99073,247137,NA,NA,6356,92998,251380,252117,248151,13439,251380,NA,NA,Sternberg task,37,29135,37,yes,1024
100,100,785.2894737,785.2894737,black,experiment,legacy,legacy,legacy,0,uniform,1,undefined,1,left,37,37,37,0,0,37,NA,37,0,0,37,37,37,0,37,0,NA,Sun Oct 27 11:21:15 2019,The main experiment item,yes,Sternbergtask.osexp,/Users/danielrazo0311/Desktop,no,mono,no,18,no,white,no,yes,768,legacy,25,11,/Users/danielrazo0311/Desktop/subject-2.csv,legacy,7 6,Kafkaesque Koffka,3.2.8,2,y,0,left,left,left,left,NA,706,7068,6072,706,NA,2,legacy,2,1024,2,48000,-16,experiment,2,even,6,255514,252131,253275,6301,99073,253287,NA,NA,6356,92998,257528,258237,254300,13439,257528,NA,NA,Sternberg task,38,29841,38,yes,1024
100,100,792.4871795,792.4871795,black,experiment,legacy,legacy,legacy,0,uniform,1,undefined,1,left,38,38,38,0,0,38,NA,38,0,0,38,38,38,0,38,0,NA,Sun Oct 27 11:21:15 2019,The main experiment item,yes,Sternbergtask.osexp,/Users/danielrazo0311/Desktop,no,mono,no,18,no,white,no,yes,768,legacy,26,11,/Users/danielrazo0311/Desktop/subject-2.csv,legacy,8 9 6 1,Kafkaesque Koffka,3.2.8,2,y,0,left,left,left,left,NA,1066,7068,6072,1066,NA,2,legacy,4,1024,2,48000,-16,experiment,2,even,9,261636,258251,259398,6301,99073,259410,NA,NA,6356,92998,263648,264717,260423,13439,263647,NA,NA,Sternberg task,39,30907,39,yes,1024
100,100,789.7,789.7,black,experiment,legacy,legacy,legacy,0,uniform,1,undefined,1,left,39,39,39,0,0,39,NA,39,0,0,39,39,39,0,39,0,NA,Sun Oct 27 11:21:15 2019,The main experiment item,yes,Sternbergtask.osexp,/Users/danielrazo0311/Desktop,no,mono,no,18,no,white,no,yes,768,legacy,27,11,/Users/danielrazo0311/Desktop/subject-2.csv,legacy,3 9 7 6 4,Kafkaesque Koffka,3.2.8,3,y,0,left,left,left,left,NA,681,7068,6072,681,NA,2,legacy,5,1024,2,48000,-16,experiment,2,even,7,268125,264734,265880,6301,99073,265893,NA,NA,6356,92998,270137,270821,266909,13439,270137,NA,NA,Sternberg task,40,31588,40,yes,1024
97.56097561,97.56097561,787.6585366,787.6585366,black,experiment,legacy,legacy,legacy,0,uniform,0,undefined,0,left,40,40,40,0,0,40,NA,40,0,0,40,40,40,0,40,0,NA,Sun Oct 27 11:21:15 2019,The main experiment item,yes,Sternbergtask.osexp,/Users/danielrazo0311/Desktop,no,mono,no,18,no,white,no,yes,768,legacy,28,11,/Users/danielrazo0311/Desktop/subject-2.csv,legacy,7 1 8 5 6 2,Kafkaesque Koffka,3.2.8,2,y,0,right,left,left,right,NA,706,7068,6072,706,NA,2,legacy,6,1024,2,48000,-16,experiment,2,even,1,274220,270837,271985,6301,99073,271997,NA,NA,6356,92998,276233,276942,273008,13439,276233,NA,NA,Sternberg task,40,32294,41,yes,1024
95.23809524,95.23809524,792.2857143,792.2857143,black,experiment,legacy,legacy,legacy,0,uniform,0,undefined,0,left,41,41,41,0,0,41,NA,41,0,0,41,41,41,0,41,0,NA,Sun Oct 27 11:21:15 2019,The main experiment item,yes,Sternbergtask.osexp,/Users/danielrazo0311/Desktop,no,mono,no,18,no,white,no,yes,768,legacy,29,11,/Users/danielrazo0311/Desktop/subject-2.csv,legacy,9 5 3 8 4,Kafkaesque Koffka,3.2.8,1,y,0,right,left,left,right,NA,982,7068,6072,982,NA,2,legacy,5,1024,2,48000,-16,experiment,2,even,9,280358,270837,278117,6301,99073,278129,NA,276968,6356,92998,282371,283355,279141,13439,282371,NA,NA,Sternberg task,40,33276,42,yes,1024
95.34883721,95.34883721,791.8372093,791.8372093,black,experiment,legacy,legacy,legacy,0,uniform,1,undefined,1,right,42,42,42,0,0,42,NA,42,0,0,42,42,42,0,42,0,NA,Sun Oct 27 11:21:15 2019,The main experiment item,yes,Sternbergtask.osexp,/Users/danielrazo0311/Desktop,no,mono,no,18,no,white,no,yes,768,legacy,30,11,/Users/danielrazo0311/Desktop/subject-2.csv,legacy,5 9 2 3,Kafkaesque Koffka,3.2.8,0,n,0,right,left,left,right,NA,773,7068,6072,773,NA,2,legacy,4,1024,2,48000,-16,experiment,2,even,8,286760,270837,284517,6301,99073,284529,NA,283370,6356,92998,288772,289548,285544,13439,288772,NA,NA,Sternberg task,41,34049,43,yes,1024
95.45454545,95.45454545,789.3181818,789.3181818,black,experiment,legacy,legacy,legacy,0,uniform,1,undefined,1,right,43,43,43,0,0,43,NA,43,0,0,43,43,43,0,43,0,NA,Sun Oct 27 11:21:15 2019,The main experiment item,yes,Sternbergtask.osexp,/Users/danielrazo0311/Desktop,no,mono,no,18,no,white,no,yes,768,legacy,31,11,/Users/danielrazo0311/Desktop/subject-2.csv,legacy,6 9 7 3 8 2,Kafkaesque Koffka,3.2.8,0,n,0,right,left,left,right,NA,681,7068,6072,681,NA,2,legacy,6,1024,2,48000,-16,experiment,2,even,5,292954,289564,290713,6301,99073,290725,NA,283370,6356,92998,294968,295652,291740,13439,294967,NA,NA,Sternberg task,42,34730,44,yes,1024
95.55555556,95.55555556,809.8888889,809.8888889,black,experiment,legacy,legacy,legacy,0,uniform,1,undefined,1,right,44,44,44,0,0,44,NA,44,0,0,44,44,44,0,44,0,NA,Sun Oct 27 11:21:15 2019,The main experiment item,yes,Sternbergtask.osexp,/Users/danielrazo0311/Desktop,no,mono,no,18,no,white,no,yes,768,legacy,32,11,/Users/danielrazo0311/Desktop/subject-2.csv,legacy,1 6 4 3 9 7,Kafkaesque Koffka,3.2.8,0,n,0,right,left,left,right,NA,1715,7068,6072,1715,NA,2,legacy,6,1024,2,48000,-16,experiment,2,even,8,299058,295666,296814,6301,99073,296826,NA,283370,6356,92998,301070,302787,297841,13439,301070,NA,NA,Sternberg task,43,36445,45,yes,1024
95.65217391,95.65217391,810.4782609,810.4782609,black,experiment,legacy,legacy,legacy,0,uniform,1,undefined,1,left,45,45,45,0,0,45,NA,45,0,0,45,45,45,0,45,0,NA,Sun Oct 27 11:21:15 2019,The main experiment item,yes,Sternbergtask.osexp,/Users/danielrazo0311/Desktop,no,mono,no,18,no,white,no,yes,768,legacy,33,11,/Users/danielrazo0311/Desktop/subject-2.csv,legacy,9 5 8 1,Kafkaesque Koffka,3.2.8,2,y,0,left,left,left,left,NA,837,7068,6072,837,NA,2,legacy,4,1024,2,48000,-16,experiment,2,even,5,306192,302803,303951,6301,99073,303963,NA,283370,6356,92998,308204,309043,304976,13439,308204,NA,NA,Sternberg task,44,37282,46,yes,1024
95.74468085,95.74468085,802.7659574,802.7659574,black,experiment,legacy,legacy,legacy,0,uniform,1,undefined,1,left,46,46,46,0,0,46,NA,46,0,0,46,46,46,0,46,0,NA,Sun Oct 27 11:21:15 2019,The main experiment item,yes,Sternbergtask.osexp,/Users/danielrazo0311/Desktop,no,mono,no,18,no,white,no,yes,768,legacy,34,11,/Users/danielrazo0311/Desktop/subject-2.csv,legacy,4 9 7 8 5 3,Kafkaesque Koffka,3.2.8,4,y,0,left,left,left,left,NA,448,7068,6072,448,NA,2,legacy,6,1024,2,48000,-16,experiment,2,even,8,312448,309058,310204,6301,99073,310216,NA,283370,6356,92998,314465,314916,311230,13439,314464,NA,NA,Sternberg task,45,37730,47,yes,1024
95.83333333,95.83333333,805.5833333,805.5833333,black,experiment,legacy,legacy,legacy,0,uniform,1,undefined,1,left,47,47,47,0,0,47,NA,47,0,0,47,47,47,0,47,0,NA,Sun Oct 27 11:21:15 2019,The main experiment item,yes,Sternbergtask.osexp,/Users/danielrazo0311/Desktop,no,mono,no,18,no,white,no,yes,768,legacy,35,11,/Users/danielrazo0311/Desktop/subject-2.csv,legacy,8 9 5 7 1 6,Kafkaesque Koffka,3.2.8,4,y,0,left,left,left,left,NA,938,7068,6072,938,NA,2,legacy,6,1024,2,48000,-16,experiment,2,even,7,318322,314931,316078,6301,99073,316091,NA,283370,6356,92998,320334,321276,317105,13439,320334,NA,NA,Sternberg task,46,38668,48,yes,1024
95.91836735,95.91836735,808.4897959,808.4897959,black,experiment,legacy,legacy,legacy,0,uniform,1,undefined,1,left,48,48,48,0,0,48,NA,48,0,0,48,48,48,0,48,0,NA,Sun Oct 27 11:21:15 2019,The main experiment item,yes,Sternbergtask.osexp,/Users/danielrazo0311/Desktop,no,mono,no,18,no,white,no,yes,768,legacy,36,11,/Users/danielrazo0311/Desktop/subject-2.csv,legacy,3 9 6 2,Kafkaesque Koffka,3.2.8,4,y,0,left,left,left,left,NA,948,7068,6072,948,NA,2,legacy,4,1024,2,48000,-16,experiment,2,even,2,324680,321290,322439,6301,99073,322451,NA,283370,6356,92998,326692,327643,323466,13439,326692,NA,NA,Sternberg task,47,39616,49,yes,1024
96,96,804.08,804.08,black,experiment,legacy,legacy,legacy,0,uniform,1,undefined,1,left,49,49,49,0,0,49,NA,49,0,0,49,49,49,0,49,0,NA,Sun Oct 27 11:21:15 2019,The main experiment item,yes,Sternbergtask.osexp,/Users/danielrazo0311/Desktop,no,mono,no,18,no,white,no,yes,768,legacy,37,11,/Users/danielrazo0311/Desktop/subject-2.csv,legacy,8 9 5 6 7,Kafkaesque Koffka,3.2.8,1,y,0,left,left,left,left,NA,588,7068,6072,588,NA,2,legacy,5,1024,2,48000,-16,experiment,2,even,8,331048,327658,328806,6301,99073,328818,NA,283370,6356,92998,333060,333651,329832,13439,333060,NA,NA,Sternberg task,48,40204,50,yes,1024
96.07843137,96.07843137,803.6862745,803.6862745,black,experiment,legacy,legacy,legacy,0,uniform,1,undefined,1,left,50,50,50,0,0,50,NA,50,0,0,50,50,50,0,50,0,NA,Sun Oct 27 11:21:15 2019,The main experiment item,yes,Sternbergtask.osexp,/Users/danielrazo0311/Desktop,no,mono,no,18,no,white,no,yes,768,legacy,38,11,/Users/danielrazo0311/Desktop/subject-2.csv,legacy,9 6 2 4 1,Kafkaesque Koffka,3.2.8,4,y,0,left,left,left,left,NA,784,7068,6072,784,NA,2,legacy,5,1024,2,48000,-16,experiment,2,even,4,337095,333706,334854,6301,99073,334866,NA,283370,6356,92998,339113,339901,335877,13439,339112,NA,NA,Sternberg task,49,40988,51,yes,1024
94.23076923,94.23076923,796.6730769,796.6730769,black,experiment,legacy,legacy,legacy,0,uniform,0,undefined,0,right,51,51,51,0,0,51,NA,51,0,0,51,51,51,0,51,0,NA,Sun Oct 27 11:21:15 2019,The main experiment item,yes,Sternbergtask.osexp,/Users/danielrazo0311/Desktop,no,mono,no,18,no,white,no,yes,768,legacy,39,11,/Users/danielrazo0311/Desktop/subject-2.csv,legacy,1 7 8 3 9,Kafkaesque Koffka,3.2.8,0,n,0,left,left,left,left,NA,439,7068,6072,439,NA,2,legacy,5,1024,2,48000,-16,experiment,2,even,2,343300,339917,341063,6301,99073,341075,NA,283370,6356,92998,345313,345754,342088,13439,345312,NA,NA,Sternberg task,49,41427,52,yes,1024
92.45283019,92.45283019,790.8113208,790.8113208,black,experiment,legacy,legacy,legacy,0,uniform,0,undefined,0,right,52,52,52,0,0,52,NA,52,0,0,52,52,52,0,52,0,NA,Sun Oct 27 11:21:15 2019,The main experiment item,yes,Sternbergtask.osexp,/Users/danielrazo0311/Desktop,no,mono,no,18,no,white,no,yes,768,legacy,40,11,/Users/danielrazo0311/Desktop/subject-2.csv,legacy,1 4 3 6 5,Kafkaesque Koffka,3.2.8,0,n,0,left,left,left,left,NA,486,7068,6072,486,NA,2,legacy,5,1024,2,48000,-16,experiment,2,even,8,349158,339917,346918,6301,99073,346930,NA,345768,6356,92998,351170,351658,347942,13439,351170,NA,NA,Sternberg task,49,41913,53,yes,1024
92.59259259,92.59259259,790.1851852,790.1851852,black,experiment,legacy,legacy,legacy,0,uniform,1,undefined,1,right,53,53,53,0,0,53,NA,53,0,0,53,53,53,0,53,0,NA,Sun Oct 27 11:21:15 2019,The main experiment item,yes,Sternbergtask.osexp,/Users/danielrazo0311/Desktop,no,mono,no,18,no,white,no,yes,768,legacy,41,11,/Users/danielrazo0311/Desktop/subject-2.csv,legacy,1 8 7,Kafkaesque Koffka,3.2.8,0,n,0,right,left,left,right,NA,757,7068,6072,757,NA,2,legacy,3,1024,2,48000,-16,experiment,2,even,4,355062,339917,352820,6301,99073,352832,NA,351673,6356,92998,357074,357834,353846,13439,357073,NA,NA,Sternberg task,50,42670,54,yes,1024
90.90909091,90.90909091,786.7636364,786.7636364,black,experiment,legacy,legacy,legacy,0,uniform,0,undefined,0,right,54,54,54,0,0,54,NA,54,0,0,54,54,54,0,54,0,NA,Sun Oct 27 11:21:15 2019,The main experiment item,yes,Sternbergtask.osexp,/Users/danielrazo0311/Desktop,no,mono,no,18,no,white,no,yes,768,legacy,42,11,/Users/danielrazo0311/Desktop/subject-2.csv,legacy,6 7 5 9,Kafkaesque Koffka,3.2.8,0,n,0,left,left,left,left,NA,602,7068,6072,602,NA,2,legacy,4,1024,2,48000,-16,experiment,2,even,2,361232,357849,358996,6301,99073,359007,NA,351673,6356,92998,363245,363850,360020,13439,363245,NA,NA,Sternberg task,50,43272,55,yes,1024
91.07142857,91.07142857,794.5535714,794.5535714,black,experiment,legacy,legacy,legacy,0,uniform,1,undefined,1,right,55,55,55,0,0,55,NA,55,0,0,55,55,55,0,55,0,NA,Sun Oct 27 11:21:15 2019,The main experiment item,yes,Sternbergtask.osexp,/Users/danielrazo0311/Desktop,no,mono,no,18,no,white,no,yes,768,legacy,43,11,/Users/danielrazo0311/Desktop/subject-2.csv,legacy,7 6 4 8 1 2,Kafkaesque Koffka,3.2.8,0,n,0,right,left,left,right,NA,1223,7068,6072,1223,NA,2,legacy,6,1024,2,48000,-16,experiment,2,even,9,367260,357849,365018,6301,99073,365030,NA,363865,6356,92998,369272,370498,366044,13439,369271,NA,NA,Sternberg task,51,44495,56,yes,1024
91.22807018,91.22807018,792.4912281,792.4912281,black,experiment,legacy,legacy,legacy,0,uniform,1,undefined,1,left,56,56,56,0,0,56,NA,56,0,0,56,56,56,0,56,0,NA,Sun Oct 27 11:21:15 2019,The main experiment item,yes,Sternbergtask.osexp,/Users/danielrazo0311/Desktop,no,mono,no,18,no,white,no,yes,768,legacy,44,11,/Users/danielrazo0311/Desktop/subject-2.csv,legacy,6 9 7 4 5 1,Kafkaesque Koffka,3.2.8,2,y,0,left,left,left,left,NA,677,7068,6072,677,NA,2,legacy,6,1024,2,48000,-16,experiment,2,even,9,373901,370513,371661,6301,99073,371673,NA,363865,6356,92998,375914,376594,372686,13439,375914,NA,NA,Sternberg task,52,45172,57,yes,1024
91.37931034,91.37931034,787.9827586,787.9827586,black,experiment,legacy,legacy,legacy,0,uniform,1,undefined,1,left,57,57,57,0,0,57,NA,57,0,0,57,57,57,0,57,0,NA,Sun Oct 27 11:21:15 2019,The main experiment item,yes,Sternbergtask.osexp,/Users/danielrazo0311/Desktop,no,mono,no,18,no,white,no,yes,768,legacy,45,11,/Users/danielrazo0311/Desktop/subject-2.csv,legacy,9 3 1 2 5,Kafkaesque Koffka,3.2.8,4,y,0,left,left,left,left,NA,531,7068,6072,531,NA,2,legacy,5,1024,2,48000,-16,experiment,2,even,2,380024,376638,377786,6301,99073,377798,NA,363865,6356,92998,382036,382570,378810,13439,382036,NA,NA,Sternberg task,53,45703,58,yes,1024
91.52542373,91.52542373,787.0677966,787.0677966,black,experiment,legacy,legacy,legacy,0,uniform,1,undefined,1,right,58,58,58,0,0,58,NA,58,0,0,58,58,58,0,58,0,NA,Sun Oct 27 11:21:15 2019,The main experiment item,yes,Sternbergtask.osexp,/Users/danielrazo0311/Desktop,no,mono,no,18,no,white,no,yes,768,legacy,46,11,/Users/danielrazo0311/Desktop/subject-2.csv,legacy,8 9,Kafkaesque Koffka,3.2.8,0,n,0,right,left,left,right,NA,734,7068,6072,734,NA,2,legacy,2,1024,2,48000,-16,experiment,2,even,5,385981,382596,383743,6301,99073,383755,NA,363865,6356,92998,387993,388729,384767,13439,387993,NA,NA,Sternberg task,54,46437,59,yes,1024
91.66666667,91.66666667,788.7666667,788.7666667,black,experiment,legacy,legacy,legacy,0,uniform,1,undefined,1,right,59,59,59,0,0,59,NA,59,0,0,59,59,59,0,59,0,NA,Sun Oct 27 11:21:15 2019,The main experiment item,yes,Sternbergtask.osexp,/Users/danielrazo0311/Desktop,no,mono,no,18,no,white,no,yes,768,legacy,47,11,/Users/danielrazo0311/Desktop/subject-2.csv,legacy,9,Kafkaesque Koffka,3.2.8,0,n,0,right,left,left,right,NA,889,7068,6072,889,NA,2,legacy,1,1024,2,48000,-16,experiment,2,even,6,392136,388744,389895,6301,99073,389906,NA,363865,6356,92998,394149,395041,390920,13439,394149,NA,NA,Sternberg task,55,47326,60,yes,1024
91.80327869,91.80327869,787.9508197,787.9508197,black,experiment,legacy,legacy,legacy,0,uniform,1,undefined,1,left,60,60,60,0,0,60,NA,60,0,0,60,60,60,0,60,0,NA,Sun Oct 27 11:21:15 2019,The main experiment item,yes,Sternbergtask.osexp,/Users/danielrazo0311/Desktop,no,mono,no,18,no,white,no,yes,768,legacy,48,11,/Users/danielrazo0311/Desktop/subject-2.csv,legacy,9 8 4,Kafkaesque Koffka,3.2.8,1,y,0,left,left,left,left,NA,739,7068,6072,739,NA,2,legacy,3,1024,2,48000,-16,experiment,2,even,9,398462,395068,396220,6301,99073,396232,NA,363865,6356,92998,400475,401217,397246,13439,400475,NA,NA,Sternberg task,56,48065,61,yes,1024
90.32258065,90.32258065,789.0645161,789.0645161,black,experiment,legacy,legacy,legacy,0,uniform,0,undefined,0,left,61,61,61,0,0,61,NA,61,0,0,61,61,61,0,61,0,NA,Sun Oct 27 11:21:15 2019,The main experiment item,yes,Sternbergtask.osexp,/Users/danielrazo0311/Desktop,no,mono,no,18,no,white,no,yes,768,legacy,49,11,/Users/danielrazo0311/Desktop/subject-2.csv,legacy,3 4,Kafkaesque Koffka,3.2.8,1,y,0,right,left,left,right,NA,857,7068,6072,857,NA,2,legacy,2,1024,2,48000,-16,experiment,2,even,3,404617,401232,402377,6301,99073,402390,NA,363865,6356,92998,406629,407489,403403,13439,406629,NA,NA,Sternberg task,56,48922,62,yes,1024
90.47619048,90.47619048,785.984127,785.984127,black,experiment,legacy,legacy,legacy,0,uniform,1,undefined,1,left,62,62,62,0,0,62,NA,62,0,0,62,62,62,0,62,0,NA,Sun Oct 27 11:21:15 2019,The main experiment item,yes,Sternbergtask.osexp,/Users/danielrazo0311/Desktop,no,mono,no,18,no,white,no,yes,768,legacy,50,11,/Users/danielrazo0311/Desktop/subject-2.csv,legacy,4 3 2 5 8,Kafkaesque Koffka,3.2.8,2,y,0,left,left,left,left,NA,595,7068,6072,595,NA,2,legacy,5,1024,2,48000,-16,experiment,2,even,3,410893,401232,408651,6301,99073,408663,NA,407504,6356,92998,412907,413505,409679,13439,412907,NA,NA,Sternberg task,57,49517,63,yes,1024
89.0625,89.0625,786.875,786.875,black,experiment,legacy,legacy,legacy,0,uniform,0,undefined,0,left,63,63,63,0,0,63,NA,63,0,0,63,63,63,0,63,0,NA,Sun Oct 27 11:21:15 2019,The main experiment item,yes,Sternbergtask.osexp,/Users/danielrazo0311/Desktop,no,mono,no,18,no,white,no,yes,768,legacy,51,11,/Users/danielrazo0311/Desktop/subject-2.csv,legacy,9 1 7 2,Kafkaesque Koffka,3.2.8,2,y,0,right,left,left,right,NA,843,7068,6072,843,NA,2,legacy,4,1024,2,48000,-16,experiment,2,even,1,416911,413520,414667,6301,99073,414679,NA,407504,6356,92998,418923,419769,415693,13439,418923,NA,NA,Sternberg task,57,50360,64,yes,1024
89.23076923,89.23076923,784.8769231,784.8769231,black,experiment,legacy,legacy,legacy,0,uniform,1,undefined,1,left,64,64,64,0,0,64,NA,64,0,0,64,64,64,0,64,0,NA,Sun Oct 27 11:21:15 2019,The main experiment item,yes,Sternbergtask.osexp,/Users/danielrazo0311/Desktop,no,mono,no,18,no,white,no,yes,768,legacy,52,11,/Users/danielrazo0311/Desktop/subject-2.csv,legacy,6 7 8 5,Kafkaesque Koffka,3.2.8,3,y,0,left,left,left,left,NA,657,7068,6072,657,NA,2,legacy,4,1024,2,48000,-16,experiment,2,even,8,423169,413520,420931,6301,99073,420943,NA,419784,6356,92998,425181,425841,421956,13439,425181,NA,NA,Sternberg task,58,51017,65,yes,1024
89.39393939,89.39393939,782.9545455,782.9545455,black,experiment,legacy,legacy,legacy,0,uniform,1,undefined,1,left,65,65,65,0,0,65,NA,65,0,0,65,65,65,0,65,0,NA,Sun Oct 27 11:21:15 2019,The main experiment item,yes,Sternbergtask.osexp,/Users/danielrazo0311/Desktop,no,mono,no,18,no,white,no,yes,768,legacy,53,11,/Users/danielrazo0311/Desktop/subject-2.csv,legacy,6 7 9 3 1 2,Kafkaesque Koffka,3.2.8,1,y,0,left,left,left,left,NA,658,7068,6072,658,NA,2,legacy,6,1024,2,48000,-16,experiment,2,even,6,429239,425855,427002,6301,99073,427014,NA,419784,6356,92998,431253,431914,428027,13439,431252,NA,NA,Sternberg task,59,51675,66,yes,1024
89.55223881,89.55223881,786.3731343,786.3731343,black,experiment,legacy,legacy,legacy,0,uniform,1,undefined,1,left,66,66,66,0,0,66,NA,66,0,0,66,66,66,0,66,0,NA,Sun Oct 27 11:21:15 2019,The main experiment item,yes,Sternbergtask.osexp,/Users/danielrazo0311/Desktop,no,mono,no,18,no,white,no,yes,768,legacy,54,11,/Users/danielrazo0311/Desktop/subject-2.csv,legacy,3 5 7 1,Kafkaesque Koffka,3.2.8,3,y,0,left,left,left,left,NA,1012,7068,6072,1012,NA,2,legacy,4,1024,2,48000,-16,experiment,2,even,7,435315,431930,433075,6301,99073,433087,NA,419784,6356,92998,437330,438345,434100,13439,437330,NA,NA,Sternberg task,60,52687,67,yes,1024
89.70588235,89.70588235,788.9411765,788.9411765,black,experiment,legacy,legacy,legacy,0,uniform,1,undefined,1,left,67,67,67,0,0,67,NA,67,0,0,67,67,67,0,67,0,NA,Sun Oct 27 11:21:15 2019,The main experiment item,yes,Sternbergtask.osexp,/Users/danielrazo0311/Desktop,no,mono,no,18,no,white,no,yes,768,legacy,55,11,/Users/danielrazo0311/Desktop/subject-2.csv,legacy,5 7 3 6 2,Kafkaesque Koffka,3.2.8,5,y,0,left,left,left,left,NA,961,7068,6072,961,NA,2,legacy,5,1024,2,48000,-16,experiment,2,even,2,441744,438359,439505,6301,99073,439517,NA,419784,6356,92998,443756,444720,440529,13439,443756,NA,NA,Sternberg task,61,53648,68,yes,1024
88.4057971,88.4057971,788.3768116,788.3768116,black,experiment,legacy,legacy,legacy,0,uniform,0,undefined,0,left,68,68,68,0,0,68,NA,68,0,0,68,68,68,0,68,0,NA,Sun Oct 27 11:21:15 2019,The main experiment item,yes,Sternbergtask.osexp,/Users/danielrazo0311/Desktop,no,mono,no,18,no,white,no,yes,768,legacy,56,11,/Users/danielrazo0311/Desktop/subject-2.csv,legacy,4 6 2 5 1,Kafkaesque Koffka,3.2.8,5,y,0,right,left,left,right,NA,750,7068,6072,750,NA,2,legacy,5,1024,2,48000,-16,experiment,2,even,1,448123,444734,445883,6301,99073,445898,NA,419784,6356,92998,450135,450888,446910,13439,450135,NA,NA,Sternberg task,61,54398,69,yes,1024
87.14285714,87.14285714,787.7142857,787.7142857,black,experiment,legacy,legacy,legacy,0,uniform,0,undefined,0,left,69,69,69,0,0,69,NA,69,0,0,69,69,69,0,69,0,NA,Sun Oct 27 11:21:15 2019,The main experiment item,yes,Sternbergtask.osexp,/Users/danielrazo0311/Desktop,no,mono,no,18,no,white,no,yes,768,legacy,57,11,/Users/danielrazo0311/Desktop/subject-2.csv,legacy,8 5 4 7 3 1,Kafkaesque Koffka,3.2.8,2,y,0,right,left,left,right,NA,742,7068,6072,742,NA,2,legacy,6,1024,2,48000,-16,experiment,2,even,5,454290,444734,452049,6301,99073,452061,NA,450904,6356,92998,456303,457048,453075,13439,456302,NA,NA,Sternberg task,61,55140,70,yes,1024
87.32394366,87.32394366,790.5352113,790.5352113,black,experiment,legacy,legacy,legacy,0,uniform,1,undefined,1,right,70,70,70,0,0,70,NA,70,0,0,70,70,70,0,70,0,NA,Sun Oct 27 11:21:15 2019,The main experiment item,yes,Sternbergtask.osexp,/Users/danielrazo0311/Desktop,no,mono,no,18,no,white,no,yes,768,legacy,58,11,/Users/danielrazo0311/Desktop/subject-2.csv,legacy,3 4 9 6 7 8,Kafkaesque Koffka,3.2.8,0,n,0,right,left,left,right,NA,988,7068,6072,988,NA,2,legacy,6,1024,2,48000,-16,experiment,2,even,2,460461,444734,458219,6301,99073,458231,NA,457063,6356,92998,462473,463464,459245,13439,462473,NA,NA,Sternberg task,62,56128,71,yes,1024
87.5,87.5,789.7222222,789.7222222,black,experiment,legacy,legacy,legacy,0,uniform,1,undefined,1,right,71,71,71,0,0,71,NA,71,0,0,71,71,71,0,71,0,NA,Sun Oct 27 11:21:15 2019,The main experiment item,yes,Sternbergtask.osexp,/Users/danielrazo0311/Desktop,no,mono,no,18,no,white,no,yes,768,legacy,59,11,/Users/danielrazo0311/Desktop/subject-2.csv,legacy,8 4 3 5,Kafkaesque Koffka,3.2.8,0,n,0,right,left,left,right,NA,732,7068,6072,732,NA,2,legacy,4,1024,2,48000,-16,experiment,2,even,6,466867,463478,464625,6301,99073,464637,NA,457063,6356,92998,468880,469615,465650,13439,468880,NA,NA,Sternberg task,63,56860,72,yes,1024
87.67123288,87.67123288,792.8356164,792.8356164,black,experiment,legacy,legacy,legacy,0,uniform,1,undefined,1,left,72,72,72,0,0,72,NA,72,0,0,72,72,72,0,72,0,NA,Sun Oct 27 11:21:15 2019,The main experiment item,yes,Sternbergtask.osexp,/Users/danielrazo0311/Desktop,no,mono,no,18,no,white,no,yes,768,legacy,60,11,/Users/danielrazo0311/Desktop/subject-2.csv,legacy,3 4 9 6 2 9,Kafkaesque Koffka,3.2.8,5,y,0,left,left,left,left,NA,1017,7068,6072,1017,NA,2,legacy,6,1024,2,48000,-16,experiment,2,even,2,473020,469631,470777,6301,99073,470789,NA,457063,6356,92998,475035,476055,471804,13439,475035,NA,NA,Sternberg task,64,57877,73,yes,1024
87.83783784,87.83783784,790.1486486,790.1486486,black,experiment,legacy,legacy,legacy,0,uniform,1,undefined,1,right,73,73,73,0,0,73,NA,73,0,0,73,73,73,0,73,0,NA,Sun Oct 27 11:21:15 2019,The main experiment item,yes,Sternbergtask.osexp,/Users/danielrazo0311/Desktop,no,mono,no,18,no,white,no,yes,768,legacy,61,11,/Users/danielrazo0311/Desktop/subject-2.csv,legacy,7 4 2 8 1 9,Kafkaesque Koffka,3.2.8,0,n,0,right,left,left,right,NA,594,7068,6072,594,NA,2,legacy,6,1024,2,48000,-16,experiment,2,even,5,479470,476082,477228,6301,99073,477241,NA,457063,6356,92998,481483,482079,478254,13439,481483,NA,NA,Sternberg task,65,58471,74,yes,1024
88,88,791.8133333,791.8133333,black,experiment,legacy,legacy,legacy,0,uniform,1,undefined,1,left,74,74,74,0,0,74,NA,74,0,0,74,74,74,0,74,0,NA,Sun Oct 27 11:21:15 2019,The main experiment item,yes,Sternbergtask.osexp,/Users/danielrazo0311/Desktop,no,mono,no,18,no,white,no,yes,768,legacy,62,11,/Users/danielrazo0311/Desktop/subject-2.csv,legacy,2 4 6 9,Kafkaesque Koffka,3.2.8,3,y,0,left,left,left,left,NA,915,7068,6072,915,NA,2,legacy,4,1024,2,48000,-16,experiment,2,even,6,485484,482095,483242,6301,99073,483254,NA,457063,6356,92998,487497,488415,484268,13439,487497,NA,NA,Sternberg task,66,59386,75,yes,1024
88.15789474,88.15789474,791.8421053,791.8421053,black,experiment,legacy,legacy,legacy,0,uniform,1,undefined,1,left,75,75,75,0,0,75,NA,75,0,0,75,75,75,0,75,0,NA,Sun Oct 27 11:21:15 2019,The main experiment item,yes,Sternbergtask.osexp,/Users/danielrazo0311/Desktop,no,mono,no,18,no,white,no,yes,768,legacy,63,11,/Users/danielrazo0311/Desktop/subject-2.csv,legacy,2 5 4 8 7,Kafkaesque Koffka,3.2.8,3,y,0,left,left,left,left,NA,794,7068,6072,794,NA,2,legacy,5,1024,2,48000,-16,experiment,2,even,4,491829,488430,489587,6301,99073,489599,NA,457063,6356,92998,493842,494639,490613,13439,493842,NA,NA,Sternberg task,67,60180,76,yes,1024
87.01298701,87.01298701,791.4545455,791.4545455,black,experiment,legacy,legacy,legacy,0,uniform,0,undefined,0,left,76,76,76,0,0,76,NA,76,0,0,76,76,76,0,76,0,NA,Sun Oct 27 11:21:15 2019,The main experiment item,yes,Sternbergtask.osexp,/Users/danielrazo0311/Desktop,no,mono,no,18,no,white,no,yes,768,legacy,64,11,/Users/danielrazo0311/Desktop/subject-2.csv,legacy,4 1 5,Kafkaesque Koffka,3.2.8,2,y,0,right,left,left,right,NA,762,7068,6072,762,NA,2,legacy,3,1024,2,48000,-16,experiment,2,even,1,498035,494654,495800,6301,99073,495812,NA,457063,6356,92998,500050,500815,496824,13439,500050,NA,NA,Sternberg task,67,60942,77,yes,1024
87.17948718,87.17948718,791.3205128,791.3205128,black,experiment,legacy,legacy,legacy,0,uniform,1,undefined,1,right,77,77,77,0,0,77,NA,77,0,0,77,77,77,0,77,0,NA,Sun Oct 27 11:21:15 2019,The main experiment item,yes,Sternbergtask.osexp,/Users/danielrazo0311/Desktop,no,mono,no,18,no,white,no,yes,768,legacy,65,11,/Users/danielrazo0311/Desktop/subject-2.csv,legacy,1 7 5 2,Kafkaesque Koffka,3.2.8,0,n,0,right,left,left,right,NA,781,7068,6072,781,NA,2,legacy,4,1024,2,48000,-16,experiment,2,even,3,504216,494654,501977,6301,99073,501990,NA,500829,6356,92998,506230,507014,503001,13439,506230,NA,NA,Sternberg task,68,61723,78,yes,1024
87.34177215,87.34177215,787.4936709,787.4936709,black,experiment,legacy,legacy,legacy,0,uniform,1,undefined,1,right,78,78,78,0,0,78,NA,78,0,0,78,78,78,0,78,0,NA,Sun Oct 27 11:21:15 2019,The main experiment item,yes,Sternbergtask.osexp,/Users/danielrazo0311/Desktop,no,mono,no,18,no,white,no,yes,768,legacy,66,11,/Users/danielrazo0311/Desktop/subject-2.csv,legacy,5,Kafkaesque Koffka,3.2.8,0,n,0,right,left,left,right,NA,489,7068,6072,489,NA,2,legacy,1,1024,2,48000,-16,experiment,2,even,8,510415,507029,508173,6301,99073,508185,NA,500829,6356,92998,512428,512920,509198,13439,512428,NA,NA,Sternberg task,69,62212,79,yes,1024
87.5,87.5,785.7125,785.7125,black,experiment,legacy,legacy,legacy,0,uniform,1,undefined,1,right,79,79,79,0,0,79,NA,79,0,0,79,79,79,0,79,0,NA,Sun Oct 27 11:21:15 2019,The main experiment item,yes,Sternbergtask.osexp,/Users/danielrazo0311/Desktop,no,mono,no,18,no,white,no,yes,768,legacy,67,11,/Users/danielrazo0311/Desktop/subject-2.csv,legacy,6 2 9 3 8 4,Kafkaesque Koffka,3.2.8,0,n,0,right,left,left,right,NA,645,7068,6072,645,NA,2,legacy,6,1024,2,48000,-16,experiment,2,even,1,516322,512935,514082,6301,99073,514094,NA,500829,6356,92998,518335,518984,515107,13439,518334,NA,NA,Sternberg task,70,62857,80,yes,1024
87.65432099,87.65432099,790.7160494,790.7160494,black,experiment,legacy,legacy,legacy,0,uniform,1,undefined,1,right,80,80,80,0,0,80,NA,80,0,0,80,80,80,0,80,0,NA,Sun Oct 27 11:21:15 2019,The main experiment item,yes,Sternbergtask.osexp,/Users/danielrazo0311/Desktop,no,mono,no,18,no,white,no,yes,768,legacy,68,11,/Users/danielrazo0311/Desktop/subject-2.csv,legacy,7 1 8 4 9 3,Kafkaesque Koffka,3.2.8,0,n,0,right,left,left,right,NA,1191,7068,6072,1191,NA,2,legacy,6,1024,2,48000,-16,experiment,2,even,6,522383,518999,520145,6301,99073,520157,NA,500829,6356,92998,524396,525592,521168,13439,524396,NA,NA,Sternberg task,71,64048,81,yes,1024
87.80487805,87.80487805,791.1829268,791.1829268,black,experiment,legacy,legacy,legacy,0,uniform,1,undefined,1,left,81,81,81,0,0,81,NA,81,0,0,81,81,81,0,81,0,NA,Sun Oct 27 11:21:15 2019,The main experiment item,yes,Sternbergtask.osexp,/Users/danielrazo0311/Desktop,no,mono,no,18,no,white,no,yes,768,legacy,69,11,/Users/danielrazo0311/Desktop/subject-2.csv,legacy,4,Kafkaesque Koffka,3.2.8,1,y,0,left,left,left,left,NA,829,7068,6072,829,NA,2,legacy,1,1024,2,48000,-16,experiment,2,even,4,529034,525648,526792,6301,99073,526804,NA,500829,6356,92998,531046,531878,527819,13439,531046,NA,NA,Sternberg task,72,64877,82,yes,1024
87.95180723,87.95180723,787.8192771,787.8192771,black,experiment,legacy,legacy,legacy,0,uniform,1,undefined,1,left,82,82,82,0,0,82,NA,82,0,0,82,82,82,0,82,0,NA,Sun Oct 27 11:21:15 2019,The main experiment item,yes,Sternbergtask.osexp,/Users/danielrazo0311/Desktop,no,mono,no,18,no,white,no,yes,768,legacy,70,11,/Users/danielrazo0311/Desktop/subject-2.csv,legacy,2 3,Kafkaesque Koffka,3.2.8,1,y,0,left,left,left,left,NA,512,7068,6072,512,NA,2,legacy,2,1024,2,48000,-16,experiment,2,even,2,535279,531894,533039,6301,99073,533051,NA,500829,6356,92998,537291,537806,534063,13439,537291,NA,NA,Sternberg task,73,65389,83,yes,1024
88.0952381,88.0952381,790.2380952,790.2380952,black,experiment,legacy,legacy,legacy,0,uniform,1,undefined,1,left,83,83,83,0,0,83,NA,83,0,0,83,83,83,0,83,0,NA,Sun Oct 27 11:21:15 2019,The main experiment item,yes,Sternbergtask.osexp,/Users/danielrazo0311/Desktop,no,mono,no,18,no,white,no,yes,768,legacy,71,11,/Users/danielrazo0311/Desktop/subject-2.csv,legacy,7 4 2 6 3 5,Kafkaesque Koffka,3.2.8,6,y,0,left,left,left,left,NA,991,7068,6072,991,NA,2,legacy,6,1024,2,48000,-16,experiment,2,even,5,541208,537820,538968,6301,99073,538981,NA,500829,6356,92998,543220,544215,539993,13439,543220,NA,NA,Sternberg task,74,66380,84,yes,1024
88.23529412,88.23529412,792.6235294,792.6235294,black,experiment,legacy,legacy,legacy,0,uniform,1,undefined,1,right,84,84,84,0,0,84,NA,84,0,0,84,84,84,0,84,0,NA,Sun Oct 27 11:21:15 2019,The main experiment item,yes,Sternbergtask.osexp,/Users/danielrazo0311/Desktop,no,mono,no,18,no,white,no,yes,768,legacy,72,11,/Users/danielrazo0311/Desktop/subject-2.csv,legacy,6 9 4 5 3 2,Kafkaesque Koffka,3.2.8,0,n,0,right,left,left,right,NA,993,7068,6072,993,NA,2,legacy,6,1024,2,48000,-16,experiment,2,even,8,547620,544231,545378,6301,99073,545390,NA,500829,6356,92998,549633,550630,546404,13439,549633,NA,NA,Sternberg task,75,67373,85,yes,1024
87.20930233,87.20930233,806.6627907,806.6627907,black,experiment,legacy,legacy,legacy,0,uniform,0,undefined,0,right,85,85,85,0,0,85,NA,85,0,0,85,85,85,0,85,0,NA,Sun Oct 27 11:21:15 2019,The main experiment item,yes,Sternbergtask.osexp,/Users/danielrazo0311/Desktop,no,mono,no,18,no,white,no,yes,768,legacy,73,11,/Users/danielrazo0311/Desktop/subject-2.csv,legacy,4 8 1 2,Kafkaesque Koffka,3.2.8,0,n,0,None,left,left,None,NA,2000,7068,6072,2000,NA,2,legacy,4,1024,2,48000,-16,experiment,2,even,7,554031,550645,551792,6301,99073,551804,NA,500829,6356,92998,556044,558045,552819,13439,556044,NA,NA,Sternberg task,75,69373,86,yes,1024
87.35632184,87.35632184,809.5977011,809.5977011,black,experiment,legacy,legacy,legacy,0,uniform,1,undefined,1,right,86,86,86,0,0,86,NA,86,0,0,86,86,86,0,86,0,NA,Sun Oct 27 11:21:15 2019,The main experiment item,yes,Sternbergtask.osexp,/Users/danielrazo0311/Desktop,no,mono,no,18,no,white,no,yes,768,legacy,74,11,/Users/danielrazo0311/Desktop/subject-2.csv,legacy,5 2,Kafkaesque Koffka,3.2.8,0,n,0,right,left,left,right,NA,1062,7068,6072,1062,NA,2,legacy,2,1024,2,48000,-16,experiment,2,even,7,561446,550645,559206,6301,99073,559218,NA,558060,6356,92998,563460,564525,560232,13439,563459,NA,NA,Sternberg task,76,70435,87,yes,1024
87.5,87.5,807.125,807.125,black,experiment,legacy,legacy,legacy,0,uniform,1,undefined,1,right,87,87,87,0,0,87,NA,87,0,0,87,87,87,0,87,0,NA,Sun Oct 27 11:21:15 2019,The main experiment item,yes,Sternbergtask.osexp,/Users/danielrazo0311/Desktop,no,mono,no,18,no,white,no,yes,768,legacy,75,11,/Users/danielrazo0311/Desktop/subject-2.csv,legacy,6 3 1 7 9 8,Kafkaesque Koffka,3.2.8,0,n,0,right,left,left,right,NA,592,7068,6072,592,NA,2,legacy,6,1024,2,48000,-16,experiment,2,even,4,567941,564540,565696,6301,99073,565708,NA,558060,6356,92998,569954,570549,566722,13439,569954,NA,NA,Sternberg task,77,71027,88,yes,1024
87.64044944,87.64044944,803.1573034,803.1573034,black,experiment,legacy,legacy,legacy,0,uniform,1,undefined,1,right,88,88,88,0,0,88,NA,88,0,0,88,88,88,0,88,0,NA,Sun Oct 27 11:21:15 2019,The main experiment item,yes,Sternbergtask.osexp,/Users/danielrazo0311/Desktop,no,mono,no,18,no,white,no,yes,768,legacy,76,11,/Users/danielrazo0311/Desktop/subject-2.csv,legacy,7 1,Kafkaesque Koffka,3.2.8,0,n,0,right,left,left,right,NA,454,7068,6072,454,NA,2,legacy,2,1024,2,48000,-16,experiment,2,even,8,573968,570571,571729,6301,99073,571742,NA,558060,6356,92998,575980,576437,572755,13439,575980,NA,NA,Sternberg task,78,71481,89,yes,1024
86.66666667,86.66666667,805.7222222,805.7222222,black,experiment,legacy,legacy,legacy,0,uniform,0,undefined,0,left,89,89,89,0,0,89,NA,89,0,0,89,89,89,0,89,0,NA,Sun Oct 27 11:21:15 2019,The main experiment item,yes,Sternbergtask.osexp,/Users/danielrazo0311/Desktop,no,mono,no,18,no,white,no,yes,768,legacy,77,11,/Users/danielrazo0311/Desktop/subject-2.csv,legacy,6 8 9 3 4 9,Kafkaesque Koffka,3.2.8,5,y,0,right,left,left,right,NA,1034,7068,6072,1034,NA,2,legacy,6,1024,2,48000,-16,experiment,2,even,4,579860,576471,577618,6301,99073,577630,NA,558060,6356,92998,581873,582911,578645,13439,581873,NA,NA,Sternberg task,78,72515,90,yes,1024
86.81318681,86.81318681,803.8241758,803.8241758,black,experiment,legacy,legacy,legacy,0,uniform,1,undefined,1,left,90,90,90,0,0,90,NA,90,0,0,90,90,90,0,90,0,NA,Sun Oct 27 11:21:15 2019,The main experiment item,yes,Sternbergtask.osexp,/Users/danielrazo0311/Desktop,no,mono,no,18,no,white,no,yes,768,legacy,78,11,/Users/danielrazo0311/Desktop/subject-2.csv,legacy,9 1 6 7 8,Kafkaesque Koffka,3.2.8,1,y,0,left,left,left,left,NA,633,7068,6072,633,NA,2,legacy,5,1024,2,48000,-16,experiment,2,even,9,586316,576471,584076,6301,99073,584088,NA,582930,6356,92998,588329,588966,585103,13439,588329,NA,NA,Sternberg task,79,73148,91,yes,1024
86.95652174,86.95652174,800.076087,800.076087,black,experiment,legacy,legacy,legacy,0,uniform,1,undefined,1,right,91,91,91,0,0,91,NA,91,0,0,91,91,91,0,91,0,NA,Sun Oct 27 11:21:15 2019,The main experiment item,yes,Sternbergtask.osexp,/Users/danielrazo0311/Desktop,no,mono,no,18,no,white,no,yes,768,legacy,79,11,/Users/danielrazo0311/Desktop/subject-2.csv,legacy,1,Kafkaesque Koffka,3.2.8,0,n,0,right,left,left,right,NA,459,7068,6072,459,NA,2,legacy,1,1024,2,48000,-16,experiment,2,even,7,592369,588980,590126,6301,99073,590138,NA,582930,6356,92998,594382,594844,591151,13439,594382,NA,NA,Sternberg task,80,73607,92,yes,1024
87.09677419,87.09677419,799.0430108,799.0430108,black,experiment,legacy,legacy,legacy,0,uniform,1,undefined,1,right,92,92,92,0,0,92,NA,92,0,0,92,92,92,0,92,0,NA,Sun Oct 27 11:21:15 2019,The main experiment item,yes,Sternbergtask.osexp,/Users/danielrazo0311/Desktop,no,mono,no,18,no,white,no,yes,768,legacy,80,11,/Users/danielrazo0311/Desktop/subject-2.csv,legacy,6 8,Kafkaesque Koffka,3.2.8,0,n,0,right,left,left,right,NA,704,7068,6072,704,NA,2,legacy,2,1024,2,48000,-16,experiment,2,even,9,598245,594859,596004,6301,99073,596016,NA,582930,6356,92998,600258,600966,597029,13439,600257,NA,NA,Sternberg task,81,74311,93,yes,1024
87.23404255,87.23404255,796.0531915,796.0531915,black,experiment,legacy,legacy,legacy,0,uniform,1,undefined,1,right,93,93,93,0,0,93,NA,93,0,0,93,93,93,0,93,0,NA,Sun Oct 27 11:21:15 2019,The main experiment item,yes,Sternbergtask.osexp,/Users/danielrazo0311/Desktop,no,mono,no,18,no,white,no,yes,768,legacy,81,11,/Users/danielrazo0311/Desktop/subject-2.csv,legacy,2 6 4 3 9,Kafkaesque Koffka,3.2.8,0,n,0,right,left,left,right,NA,518,7068,6072,518,NA,2,legacy,5,1024,2,48000,-16,experiment,2,even,1,604415,601025,602172,6301,99073,602185,NA,582930,6356,92998,606428,606950,603200,13439,606428,NA,NA,Sternberg task,82,74829,94,yes,1024
87.36842105,87.36842105,795.3894737,795.3894737,black,experiment,legacy,legacy,legacy,0,uniform,1,undefined,1,left,94,94,94,0,0,94,NA,94,0,0,94,94,94,0,94,0,NA,Sun Oct 27 11:21:15 2019,The main experiment item,yes,Sternbergtask.osexp,/Users/danielrazo0311/Desktop,no,mono,no,18,no,white,no,yes,768,legacy,82,11,/Users/danielrazo0311/Desktop/subject-2.csv,legacy,8 5 1 3 9,Kafkaesque Koffka,3.2.8,4,y,0,left,left,left,left,NA,733,7068,6072,733,NA,2,legacy,5,1024,2,48000,-16,experiment,2,even,3,610352,606965,608112,6301,99073,608124,NA,582930,6356,92998,612364,613100,609136,13439,612363,NA,NA,Sternberg task,83,75562,95,yes,1024
87.5,87.5,793.1145833,793.1145833,black,experiment,legacy,legacy,legacy,0,uniform,1,undefined,1,left,95,95,95,0,0,95,NA,95,0,0,95,95,95,0,95,0,NA,Sun Oct 27 11:21:15 2019,The main experiment item,yes,Sternbergtask.osexp,/Users/danielrazo0311/Desktop,no,mono,no,18,no,white,no,yes,768,legacy,83,11,/Users/danielrazo0311/Desktop/subject-2.csv,legacy,6 2,Kafkaesque Koffka,3.2.8,1,y,0,left,left,left,left,NA,577,7068,6072,577,NA,2,legacy,2,1024,2,48000,-16,experiment,2,even,6,616499,613115,614260,6301,99073,614271,NA,582930,6356,92998,618512,619093,615283,13439,618512,NA,NA,Sternberg task,84,76139,96,yes,1024
87.62886598,87.62886598,792.3195876,792.3195876,black,experiment,legacy,legacy,legacy,0,uniform,1,undefined,1,right,96,96,96,0,0,96,NA,96,0,0,96,96,96,0,96,0,NA,Sun Oct 27 11:21:15 2019,The main experiment item,yes,Sternbergtask.osexp,/Users/danielrazo0311/Desktop,no,mono,no,18,no,white,no,yes,768,legacy,84,11,/Users/danielrazo0311/Desktop/subject-2.csv,legacy,4 1,Kafkaesque Koffka,3.2.8,0,n,0,right,left,left,right,NA,716,7068,6072,716,NA,2,legacy,2,1024,2,48000,-16,experiment,2,even,6,622505,619107,620263,6301,99073,620275,NA,582930,6356,92998,624517,625236,621290,13439,624517,NA,NA,Sternberg task,85,76855,97,yes,1024
87.75510204,87.75510204,790.6428571,790.6428571,black,experiment,legacy,legacy,legacy,0,uniform,1,undefined,1,left,97,97,97,0,0,97,NA,97,0,0,97,97,97,0,97,0,NA,Sun Oct 27 11:21:15 2019,The main experiment item,yes,Sternbergtask.osexp,/Users/danielrazo0311/Desktop,no,mono,no,18,no,white,no,yes,768,legacy,85,11,/Users/danielrazo0311/Desktop/subject-2.csv,legacy,3 5 9 6 2 4,Kafkaesque Koffka,3.2.8,1,y,0,left,left,left,left,NA,628,7068,6072,628,NA,2,legacy,6,1024,2,48000,-16,experiment,2,even,3,628640,625251,626397,6301,99073,626409,NA,582930,6356,92998,630652,631283,627425,13439,630652,NA,NA,Sternberg task,86,77483,98,yes,1024
87.87878788,87.87878788,791.3434343,791.3434343,black,experiment,legacy,legacy,legacy,0,uniform,1,undefined,1,left,98,98,98,0,0,98,NA,98,0,0,98,98,98,0,98,0,NA,Sun Oct 27 11:21:15 2019,The main experiment item,yes,Sternbergtask.osexp,/Users/danielrazo0311/Desktop,no,mono,no,18,no,white,no,yes,768,legacy,86,11,/Users/danielrazo0311/Desktop/subject-2.csv,legacy,8 5 3 7 4 6,Kafkaesque Koffka,3.2.8,6,y,0,left,left,left,left,NA,860,7068,6072,860,NA,2,legacy,6,1024,2,48000,-16,experiment,2,even,6,634688,631299,632447,6301,99073,632459,NA,582930,6356,92998,636700,637564,633474,13439,636700,NA,NA,Sternberg task,87,78343,99,yes,1024
88,88,789.74,789.74,black,experiment,legacy,legacy,legacy,0,uniform,1,undefined,1,left,99,99,99,0,0,99,NA,99,0,0,99,99,99,0,99,0,NA,Sun Oct 27 11:21:15 2019,The main experiment item,yes,Sternbergtask.osexp,/Users/danielrazo0311/Desktop,no,mono,no,18,no,white,no,yes,768,legacy,87,11,/Users/danielrazo0311/Desktop/subject-2.csv,legacy,7,Kafkaesque Koffka,3.2.8,1,y,0,left,left,left,left,NA,631,7068,6072,631,NA,2,legacy,1,1024,2,48000,-16,experiment,2,even,7,640964,637578,638721,6301,99073,638733,NA,582930,6356,92998,642977,643612,639747,13439,642977,NA,NA,Sternberg task,88,78974,100,yes,1024
88.11881188,88.11881188,788.019802,788.019802,black,experiment,legacy,legacy,legacy,0,uniform,1,undefined,1,left,100,100,100,0,0,100,NA,100,0,0,100,100,100,0,100,0,NA,Sun Oct 27 11:21:15 2019,The main experiment item,yes,Sternbergtask.osexp,/Users/danielrazo0311/Desktop,no,mono,no,18,no,white,no,yes,768,legacy,88,11,/Users/danielrazo0311/Desktop/subject-2.csv,legacy,8 7 3,Kafkaesque Koffka,3.2.8,1,y,0,left,left,left,left,NA,616,7068,6072,616,NA,2,legacy,3,1024,2,48000,-16,experiment,2,even,8,647011,643627,644773,6301,99073,644785,NA,582930,6356,92998,649024,649643,645799,13439,649023,NA,NA,Sternberg task,89,79590,101,yes,1024
88.23529412,88.23529412,787.5098039,787.5098039,black,experiment,legacy,legacy,legacy,0,uniform,1,undefined,1,right,101,101,101,0,0,101,NA,101,0,0,101,101,101,0,101,0,NA,Sun Oct 27 11:21:15 2019,The main experiment item,yes,Sternbergtask.osexp,/Users/danielrazo0311/Desktop,no,mono,no,18,no,white,no,yes,768,legacy,89,11,/Users/danielrazo0311/Desktop/subject-2.csv,legacy,1 4 9 3,Kafkaesque Koffka,3.2.8,0,n,0,right,left,left,right,NA,736,7068,6072,736,NA,2,legacy,4,1024,2,48000,-16,experiment,2,even,5,653043,649658,650805,6301,99073,650817,NA,582930,6356,92998,655056,655795,651829,13439,655056,NA,NA,Sternberg task,90,80326,102,yes,1024
88.34951456,88.34951456,785.5728155,785.5728155,black,experiment,legacy,legacy,legacy,0,uniform,1,undefined,1,left,102,102,102,0,0,102,NA,102,0,0,102,102,102,0,102,0,NA,Sun Oct 27 11:21:15 2019,The main experiment item,yes,Sternbergtask.osexp,/Users/danielrazo0311/Desktop,no,mono,no,18,no,white,no,yes,768,legacy,90,11,/Users/danielrazo0311/Desktop/subject-2.csv,legacy,9 4 2,Kafkaesque Koffka,3.2.8,1,y,0,left,left,left,left,NA,588,7068,6072,588,NA,2,legacy,3,1024,2,48000,-16,experiment,2,even,9,659200,655810,656957,6301,99073,656971,NA,582930,6356,92998,661212,661803,657983,13439,661212,NA,NA,Sternberg task,91,80914,103,yes,1024
88.46153846,88.46153846,784.6634615,784.6634615,black,experiment,legacy,legacy,legacy,0,uniform,1,undefined,1,right,103,103,103,0,0,103,NA,103,0,0,103,103,103,0,103,0,NA,Sun Oct 27 11:21:15 2019,The main experiment item,yes,Sternbergtask.osexp,/Users/danielrazo0311/Desktop,no,mono,no,18,no,white,no,yes,768,legacy,91,11,/Users/danielrazo0311/Desktop/subject-2.csv,legacy,7 3 2 8,Kafkaesque Koffka,3.2.8,0,n,0,right,left,left,right,NA,691,7068,6072,691,NA,2,legacy,4,1024,2,48000,-16,experiment,2,even,4,665207,661818,662965,6301,99073,662977,NA,582930,6356,92998,667221,667916,663991,13439,667220,NA,NA,Sternberg task,92,81605,104,yes,1024
88.57142857,88.57142857,784.8571429,784.8571429,black,experiment,legacy,legacy,legacy,0,uniform,1,undefined,1,right,104,104,104,0,0,104,NA,104,0,0,104,104,104,0,104,0,NA,Sun Oct 27 11:21:15 2019,The main experiment item,yes,Sternbergtask.osexp,/Users/danielrazo0311/Desktop,no,mono,no,18,no,white,no,yes,768,legacy,92,11,/Users/danielrazo0311/Desktop/subject-2.csv,legacy,2 8 9,Kafkaesque Koffka,3.2.8,0,n,0,right,left,left,right,NA,805,7068,6072,805,NA,2,legacy,3,1024,2,48000,-16,experiment,2,even,6,671318,667930,669076,6301,99073,669088,NA,582930,6356,92998,673330,674139,670101,13439,673330,NA,NA,Sternberg task,93,82410,105,yes,1024
88.67924528,88.67924528,782.8018868,782.8018868,black,experiment,legacy,legacy,legacy,0,uniform,1,undefined,1,right,105,105,105,0,0,105,NA,105,0,0,105,105,105,0,105,0,NA,Sun Oct 27 11:21:15 2019,The main experiment item,yes,Sternbergtask.osexp,/Users/danielrazo0311/Desktop,no,mono,no,18,no,white,no,yes,768,legacy,93,11,/Users/danielrazo0311/Desktop/subject-2.csv,legacy,1 6 4,Kafkaesque Koffka,3.2.8,0,n,0,right,left,left,right,NA,567,7068,6072,567,NA,2,legacy,3,1024,2,48000,-16,experiment,2,even,7,677540,674154,675299,6301,99073,675312,NA,582930,6356,92998,679552,680124,676325,13439,679552,NA,NA,Sternberg task,94,82977,106,yes,1024
88.78504673,88.78504673,781.1588785,781.1588785,black,experiment,legacy,legacy,legacy,0,uniform,1,undefined,1,left,106,106,106,0,0,106,NA,106,0,0,106,106,106,0,106,0,NA,Sun Oct 27 11:21:15 2019,The main experiment item,yes,Sternbergtask.osexp,/Users/danielrazo0311/Desktop,no,mono,no,18,no,white,no,yes,768,legacy,94,11,/Users/danielrazo0311/Desktop/subject-2.csv,legacy,2 8 5 1,Kafkaesque Koffka,3.2.8,4,y,0,left,left,left,left,NA,607,7068,6072,607,NA,2,legacy,4,1024,2,48000,-16,experiment,2,even,1,683522,680140,681286,6301,99073,681298,NA,582930,6356,92998,685536,686146,682311,13439,685536,NA,NA,Sternberg task,95,83584,107,yes,1024
88.88888889,88.88888889,779.9814815,779.9814815,black,experiment,legacy,legacy,legacy,0,uniform,1,undefined,1,left,107,107,107,0,0,107,NA,107,0,0,107,107,107,0,107,0,NA,Sun Oct 27 11:21:15 2019,The main experiment item,yes,Sternbergtask.osexp,/Users/danielrazo0311/Desktop,no,mono,no,18,no,white,no,yes,768,legacy,95,11,/Users/danielrazo0311/Desktop/subject-2.csv,legacy,2 6 1 7 4,Kafkaesque Koffka,3.2.8,2,y,0,left,left,left,left,NA,654,7068,6072,654,NA,2,legacy,5,1024,2,48000,-16,experiment,2,even,6,689548,686161,687307,6301,99073,687319,NA,582930,6356,92998,691561,692218,688333,13439,691561,NA,NA,Sternberg task,96,84238,108,yes,1024
88.0733945,88.0733945,783.8623853,783.8623853,black,experiment,legacy,legacy,legacy,0,uniform,0,undefined,0,left,108,108,108,0,0,108,NA,108,0,0,108,108,108,0,108,0,NA,Sun Oct 27 11:21:15 2019,The main experiment item,yes,Sternbergtask.osexp,/Users/danielrazo0311/Desktop,no,mono,no,18,no,white,no,yes,768,legacy,96,11,/Users/danielrazo0311/Desktop/subject-2.csv,legacy,9 3 8 2 1 4,Kafkaesque Koffka,3.2.8,3,y,0,right,left,left,right,NA,1203,7068,6072,1203,NA,2,legacy,6,1024,2,48000,-16,experiment,2,even,8,695622,692233,693382,6301,99073,693394,NA,582930,6356,92998,697636,698842,694406,13439,697636,NA,NA,Sternberg task,96,85441,109,yes,1024
88.18181818,88.18181818,782.4909091,782.4909091,black,experiment,legacy,legacy,legacy,0,uniform,1,undefined,1,left,109,109,109,0,0,109,NA,109,0,0,109,109,109,0,109,0,NA,Sun Oct 27 11:21:15 2019,The main experiment item,yes,Sternbergtask.osexp,/Users/danielrazo0311/Desktop,no,mono,no,18,no,white,no,yes,768,legacy,97,11,/Users/danielrazo0311/Desktop/subject-2.csv,legacy,3 5 4 7,Kafkaesque Koffka,3.2.8,1,y,0,left,left,left,left,NA,633,7068,6072,633,NA,2,legacy,4,1024,2,48000,-16,experiment,2,even,3,702251,692233,700008,6301,99073,700020,NA,698856,6356,92998,704263,704899,701034,13439,704263,NA,NA,Sternberg task,97,86074,110,yes,1024
88.28828829,88.28828829,781.2612613,781.2612613,black,experiment,legacy,legacy,legacy,0,uniform,1,undefined,1,right,110,110,110,0,0,110,NA,110,0,0,110,110,110,0,110,0,NA,Sun Oct 27 11:21:15 2019,The main experiment item,yes,Sternbergtask.osexp,/Users/danielrazo0311/Desktop,no,mono,no,18,no,white,no,yes,768,legacy,98,11,/Users/danielrazo0311/Desktop/subject-2.csv,legacy,9 5 3 2 8 6,Kafkaesque Koffka,3.2.8,0,n,0,right,left,left,right,NA,646,7068,6072,646,NA,2,legacy,6,1024,2,48000,-16,experiment,2,even,7,708308,704913,706067,6301,99073,706079,NA,698856,6356,92998,710321,710971,707093,13439,710321,NA,NA,Sternberg task,98,86720,111,yes,1024
88.39285714,88.39285714,781.4375,781.4375,black,experiment,legacy,legacy,legacy,0,uniform,1,undefined,1,right,111,111,111,0,0,111,NA,111,0,0,111,111,111,0,111,0,NA,Sun Oct 27 11:21:15 2019,The main experiment item,yes,Sternbergtask.osexp,/Users/danielrazo0311/Desktop,no,mono,no,18,no,white,no,yes,768,legacy,99,11,/Users/danielrazo0311/Desktop/subject-2.csv,legacy,5 3 8 7 2 4,Kafkaesque Koffka,3.2.8,0,n,0,right,left,left,right,NA,801,7068,6072,801,NA,2,legacy,6,1024,2,48000,-16,experiment,2,even,9,714375,710985,712132,6301,99073,712144,NA,698856,6356,92998,716390,717194,713158,13439,716390,NA,NA,Sternberg task,99,87521,112,yes,1024
88.49557522,88.49557522,779.8053097,779.8053097,black,experiment,legacy,legacy,legacy,0,uniform,1,undefined,1,right,112,112,112,0,0,112,NA,112,0,0,112,112,112,0,112,0,NA,Sun Oct 27 11:21:15 2019,The main experiment item,yes,Sternbergtask.osexp,/Users/danielrazo0311/Desktop,no,mono,no,18,no,white,no,yes,768,legacy,100,11,/Users/danielrazo0311/Desktop/subject-2.csv,legacy,5 7 3,Kafkaesque Koffka,3.2.8,0,n,0,right,left,left,right,NA,597,7068,6072,597,NA,2,legacy,3,1024,2,48000,-16,experiment,2,even,9,720619,717228,718379,6301,99073,718391,NA,698856,6356,92998,722633,723234,719404,13439,722632,NA,NA,Sternberg task,100,88118,113,yes,1024
88.59649123,88.59649123,781,781,black,experiment,legacy,legacy,legacy,0,uniform,1,undefined,1,left,113,113,113,0,0,113,NA,113,0,0,113,113,113,0,113,0,NA,Sun Oct 27 11:21:15 2019,The main experiment item,yes,Sternbergtask.osexp,/Users/danielrazo0311/Desktop,no,mono,no,18,no,white,no,yes,768,legacy,101,11,/Users/danielrazo0311/Desktop/subject-2.csv,legacy,3 2 1 4 7,Kafkaesque Koffka,3.2.8,2,y,0,left,left,left,left,NA,916,7068,6072,916,NA,2,legacy,5,1024,2,48000,-16,experiment,2,even,2,726638,723249,724395,6301,99073,724407,NA,698856,6356,92998,728650,729570,725424,13439,728650,NA,NA,Sternberg task,101,89034,114,yes,1024
88.69565217,88.69565217,779.7130435,779.7130435,black,experiment,legacy,legacy,legacy,0,uniform,1,undefined,1,right,114,114,114,0,0,114,NA,114,0,0,114,114,114,0,114,0,NA,Sun Oct 27 11:21:15 2019,The main experiment item,yes,Sternbergtask.osexp,/Users/danielrazo0311/Desktop,no,mono,no,18,no,white,no,yes,768,legacy,102,11,/Users/danielrazo0311/Desktop/subject-2.csv,legacy,1 5 3 2 8,Kafkaesque Koffka,3.2.8,0,n,0,right,left,left,right,NA,633,7068,6072,633,NA,2,legacy,5,1024,2,48000,-16,experiment,2,even,4,732975,729585,730734,6301,99073,730746,NA,698856,6356,92998,734989,735625,731759,13439,734988,NA,NA,Sternberg task,102,89667,115,yes,1024
88.79310345,88.79310345,777.0603448,777.0603448,black,experiment,legacy,legacy,legacy,0,uniform,1,undefined,1,right,115,115,115,0,0,115,NA,115,0,0,115,115,115,0,115,0,NA,Sun Oct 27 11:21:15 2019,The main experiment item,yes,Sternbergtask.osexp,/Users/danielrazo0311/Desktop,no,mono,no,18,no,white,no,yes,768,legacy,103,11,/Users/danielrazo0311/Desktop/subject-2.csv,legacy,2 7 5,Kafkaesque Koffka,3.2.8,0,n,0,right,left,left,right,NA,472,7068,6072,472,NA,2,legacy,3,1024,2,48000,-16,experiment,2,even,8,739032,735641,736787,6301,99073,736799,NA,698856,6356,92998,741045,741521,737815,13439,741045,NA,NA,Sternberg task,103,90139,116,yes,1024
88.88888889,88.88888889,775.991453,775.991453,black,experiment,legacy,legacy,legacy,0,uniform,1,undefined,1,right,116,116,116,0,0,116,NA,116,0,0,116,116,116,0,116,0,NA,Sun Oct 27 11:21:15 2019,The main experiment item,yes,Sternbergtask.osexp,/Users/danielrazo0311/Desktop,no,mono,no,18,no,white,no,yes,768,legacy,104,11,/Users/danielrazo0311/Desktop/subject-2.csv,legacy,2 3 8 5 6 7,Kafkaesque Koffka,3.2.8,0,n,0,right,left,left,right,NA,652,7068,6072,652,NA,2,legacy,6,1024,2,48000,-16,experiment,2,even,1,744925,741535,742683,6301,99073,742696,NA,698856,6356,92998,746937,747593,743710,13439,746937,NA,NA,Sternberg task,104,90791,117,yes,1024
88.13559322,88.13559322,773.4152542,773.4152542,black,experiment,legacy,legacy,legacy,0,uniform,0,undefined,0,left,117,117,117,0,0,117,NA,117,0,0,117,117,117,0,117,0,NA,Sun Oct 27 11:21:15 2019,The main experiment item,yes,Sternbergtask.osexp,/Users/danielrazo0311/Desktop,no,mono,no,18,no,white,no,yes,768,legacy,105,11,/Users/danielrazo0311/Desktop/subject-2.csv,legacy,8 3,Kafkaesque Koffka,3.2.8,2,y,0,right,left,left,right,NA,472,7068,6072,472,NA,2,legacy,2,1024,2,48000,-16,experiment,2,even,3,750993,747608,748753,6301,99073,748766,NA,698856,6356,92998,753005,753481,749778,13439,753005,NA,NA,Sternberg task,104,91263,118,yes,1024
88.23529412,88.23529412,771.0504202,771.0504202,black,experiment,legacy,legacy,legacy,0,uniform,1,undefined,1,left,118,118,118,0,0,118,NA,118,0,0,118,118,118,0,118,0,NA,Sun Oct 27 11:21:15 2019,The main experiment item,yes,Sternbergtask.osexp,/Users/danielrazo0311/Desktop,no,mono,no,18,no,white,no,yes,768,legacy,106,11,/Users/danielrazo0311/Desktop/subject-2.csv,legacy,6 5,Kafkaesque Koffka,3.2.8,2,y,0,left,left,left,left,NA,492,7068,6072,492,NA,2,legacy,2,1024,2,48000,-16,experiment,2,even,5,756884,747608,754643,6301,99073,754655,NA,753496,6356,92998,758897,759393,755668,13439,758897,NA,NA,Sternberg task,105,91755,119,yes,1024
88.33333333,88.33333333,770.125,770.125,black,experiment,legacy,legacy,legacy,0,uniform,1,undefined,1,left,119,119,119,0,0,119,NA,119,0,0,119,119,119,0,119,0,NA,Sun Oct 27 11:21:15 2019,The main experiment item,yes,Sternbergtask.osexp,/Users/danielrazo0311/Desktop,no,mono,no,18,no,white,no,yes,768,legacy,107,11,/Users/danielrazo0311/Desktop/subject-2.csv,legacy,1 4 9 3 2 5,Kafkaesque Koffka,3.2.8,3,y,0,left,left,left,left,NA,660,7068,6072,660,NA,2,legacy,6,1024,2,48000,-16,experiment,2,even,9,762796,759408,760554,6301,99073,760566,NA,753496,6356,92998,764809,765472,761580,13439,764809,NA,NA,Sternberg task,106,92415,120,yes,1024
88.42975207,88.42975207,767.661157,767.661157,black,experiment,legacy,legacy,legacy,0,uniform,1,undefined,1,left,120,120,120,0,0,120,NA,120,0,0,120,120,120,0,120,0,NA,Sun Oct 27 11:21:15 2019,The main experiment item,yes,Sternbergtask.osexp,/Users/danielrazo0311/Desktop,no,mono,no,18,no,white,no,yes,768,legacy,108,11,/Users/danielrazo0311/Desktop/subject-2.csv,legacy,6 9 3 1,Kafkaesque Koffka,3.2.8,4,y,0,left,left,left,left,NA,472,7068,6072,472,NA,2,legacy,4,1024,2,48000,-16,experiment,2,even,1,768879,765487,766639,6301,99073,766651,NA,753496,6356,92998,770893,771369,767663,13439,770893,NA,NA,Sternberg task,107,92887,121,yes,1024
88.52459016,88.52459016,765.1147541,765.1147541,black,experiment,legacy,legacy,legacy,0,uniform,1,undefined,1,left,121,121,121,0,0,121,NA,121,0,0,121,121,121,0,121,0,NA,Sun Oct 27 11:21:15 2019,The main experiment item,yes,Sternbergtask.osexp,/Users/danielrazo0311/Desktop,no,mono,no,18,no,white,no,yes,768,legacy,109,11,/Users/danielrazo0311/Desktop/subject-2.csv,legacy,8,Kafkaesque Koffka,3.2.8,1,y,0,left,left,left,left,NA,457,7068,6072,457,NA,2,legacy,1,1024,2,48000,-16,experiment,2,even,8,774768,771383,772527,6301,99073,772540,NA,753496,6356,92998,776780,777240,773552,13439,776780,NA,NA,Sternberg task,108,93344,122,yes,1024
88.61788618,88.61788618,762.9756098,762.9756098,black,experiment,legacy,legacy,legacy,0,uniform,1,undefined,1,left,122,122,122,0,0,122,NA,122,0,0,122,122,122,0,122,0,NA,Sun Oct 27 11:21:15 2019,The main experiment item,yes,Sternbergtask.osexp,/Users/danielrazo0311/Desktop,no,mono,no,18,no,white,no,yes,768,legacy,110,11,/Users/danielrazo0311/Desktop/subject-2.csv,legacy,8 1 6,Kafkaesque Koffka,3.2.8,3,y,0,left,left,left,left,NA,502,7068,6072,502,NA,2,legacy,3,1024,2,48000,-16,experiment,2,even,6,780641,777255,778403,6301,99073,778415,NA,753496,6356,92998,782654,783160,779427,13439,782653,NA,NA,Sternberg task,109,93846,123,yes,1024
88.70967742,88.70967742,762,762,black,experiment,legacy,legacy,legacy,0,uniform,1,undefined,1,right,123,123,123,0,0,123,NA,123,0,0,123,123,123,0,123,0,NA,Sun Oct 27 11:21:15 2019,The main experiment item,yes,Sternbergtask.osexp,/Users/danielrazo0311/Desktop,no,mono,no,18,no,white,no,yes,768,legacy,111,11,/Users/danielrazo0311/Desktop/subject-2.csv,legacy,2 8 9 4 1,Kafkaesque Koffka,3.2.8,0,n,0,right,left,left,right,NA,642,7068,6072,642,NA,2,legacy,5,1024,2,48000,-16,experiment,2,even,5,786566,783176,784328,6301,99073,784340,NA,753496,6356,92998,788578,789224,785354,13439,788578,NA,NA,Sternberg task,110,94488,124,yes,1024
88.8,88.8,763.568,763.568,black,experiment,legacy,legacy,legacy,0,uniform,1,undefined,1,left,124,124,124,0,0,124,NA,124,0,0,124,124,124,0,124,0,NA,Sun Oct 27 11:21:15 2019,The main experiment item,yes,Sternbergtask.osexp,/Users/danielrazo0311/Desktop,no,mono,no,18,no,white,no,yes,768,legacy,112,11,/Users/danielrazo0311/Desktop/subject-2.csv,legacy,5 7 8 2 3 8,Kafkaesque Koffka,3.2.8,5,y,0,left,left,left,left,NA,958,7068,6072,958,NA,2,legacy,6,1024,2,48000,-16,experiment,2,even,3,792633,789242,790393,6301,99073,790405,NA,753496,6356,92998,794646,795608,791419,13439,794646,NA,NA,Sternberg task,111,95446,125,yes,1024
88.88888889,88.88888889,764.6349206,764.6349206,black,experiment,legacy,legacy,legacy,0,uniform,1,undefined,1,right,125,125,125,0,0,125,NA,125,0,0,125,125,125,0,125,0,NA,Sun Oct 27 11:21:15 2019,The main experiment item,yes,Sternbergtask.osexp,/Users/danielrazo0311/Desktop,no,mono,no,18,no,white,no,yes,768,legacy,113,11,/Users/danielrazo0311/Desktop/subject-2.csv,legacy,6 9 4 5 2,Kafkaesque Koffka,3.2.8,0,n,0,right,left,left,right,NA,898,7068,6072,898,NA,2,legacy,5,1024,2,48000,-16,experiment,2,even,1,799030,795642,796790,6301,99073,796802,NA,753496,6356,92998,801043,801945,797815,13439,801042,NA,NA,Sternberg task,112,96344,126,yes,1024
88.97637795,88.97637795,763.8897638,763.8897638,black,experiment,legacy,legacy,legacy,0,uniform,1,undefined,1,left,126,126,126,0,0,126,NA,126,0,0,126,126,126,0,126,0,NA,Sun Oct 27 11:21:15 2019,The main experiment item,yes,Sternbergtask.osexp,/Users/danielrazo0311/Desktop,no,mono,no,18,no,white,no,yes,768,legacy,114,11,/Users/danielrazo0311/Desktop/subject-2.csv,legacy,2 4 8 5 1 3,Kafkaesque Koffka,3.2.8,1,y,0,left,left,left,left,NA,670,7068,6072,670,NA,2,legacy,6,1024,2,48000,-16,experiment,2,even,2,805345,801960,803105,6301,99073,803117,NA,753496,6356,92998,807358,808031,804132,13439,807358,NA,NA,Sternberg task,113,97014,127,yes,1024
89.0625,89.0625,763.0546875,763.0546875,black,experiment,legacy,legacy,legacy,0,uniform,1,undefined,1,right,127,127,127,0,0,127,NA,127,0,0,127,127,127,0,127,0,NA,Sun Oct 27 11:21:15 2019,The main experiment item,yes,Sternbergtask.osexp,/Users/danielrazo0311/Desktop,no,mono,no,18,no,white,no,yes,768,legacy,115,11,/Users/danielrazo0311/Desktop/subject-2.csv,legacy,8 5 7 3 6,Kafkaesque Koffka,3.2.8,0,n,0,right,left,left,right,NA,657,7068,6072,657,NA,2,legacy,5,1024,2,48000,-16,experiment,2,even,9,811438,808050,809196,6301,99073,809208,NA,753496,6356,92998,813451,814112,810222,13439,813451,NA,NA,Sternberg task,114,97671,128,yes,1024
89.14728682,89.14728682,761.1085271,761.1085271,black,experiment,legacy,legacy,legacy,0,uniform,1,undefined,1,left,128,128,128,0,0,128,NA,128,0,0,128,128,128,0,128,0,NA,Sun Oct 27 11:21:15 2019,The main experiment item,yes,Sternbergtask.osexp,/Users/danielrazo0311/Desktop,no,mono,no,18,no,white,no,yes,768,legacy,116,11,/Users/danielrazo0311/Desktop/subject-2.csv,legacy,5 2 6,Kafkaesque Koffka,3.2.8,2,y,0,left,left,left,left,NA,512,7068,6072,512,NA,2,legacy,3,1024,2,48000,-16,experiment,2,even,2,817534,814146,815292,6301,99073,815304,NA,753496,6356,92998,819547,820063,816319,13439,819547,NA,NA,Sternberg task,115,98183,129,yes,1024
89.23076923,89.23076923,759.2230769,759.2230769,black,experiment,legacy,legacy,legacy,0,uniform,1,undefined,1,right,129,129,129,0,0,129,NA,129,0,0,129,129,129,0,129,0,NA,Sun Oct 27 11:21:15 2019,The main experiment item,yes,Sternbergtask.osexp,/Users/danielrazo0311/Desktop,no,mono,no,18,no,white,no,yes,768,legacy,117,11,/Users/danielrazo0311/Desktop/subject-2.csv,legacy,3 9 1,Kafkaesque Koffka,3.2.8,0,n,0,right,left,left,right,NA,516,7068,6072,516,NA,2,legacy,3,1024,2,48000,-16,experiment,2,even,7,823466,820078,821224,6301,99073,821237,NA,753496,6356,92998,825480,826000,822250,13439,825479,NA,NA,Sternberg task,116,98699,130,yes,1024
89.3129771,89.3129771,758.0916031,758.0916031,black,experiment,legacy,legacy,legacy,0,uniform,1,undefined,1,right,130,130,130,0,0,130,NA,130,0,0,130,130,130,0,130,0,NA,Sun Oct 27 11:21:15 2019,The main experiment item,yes,Sternbergtask.osexp,/Users/danielrazo0311/Desktop,no,mono,no,18,no,white,no,yes,768,legacy,118,11,/Users/danielrazo0311/Desktop/subject-2.csv,legacy,9 8 2 7 4,Kafkaesque Koffka,3.2.8,0,n,0,right,left,left,right,NA,611,7068,6072,611,NA,2,legacy,5,1024,2,48000,-16,experiment,2,even,5,829403,826013,827160,6301,99073,827172,NA,753496,6356,92998,831416,832032,828185,13439,831416,NA,NA,Sternberg task,117,99310,131,yes,1024
89.39393939,89.39393939,756.5227273,756.5227273,black,experiment,legacy,legacy,legacy,0,uniform,1,undefined,1,left,131,131,131,0,0,131,NA,131,0,0,131,131,131,0,131,0,NA,Sun Oct 27 11:21:15 2019,The main experiment item,yes,Sternbergtask.osexp,/Users/danielrazo0311/Desktop,no,mono,no,18,no,white,no,yes,768,legacy,119,11,/Users/danielrazo0311/Desktop/subject-2.csv,legacy,7 1 3,Kafkaesque Koffka,3.2.8,2,y,0,left,left,left,left,NA,551,7068,6072,551,NA,2,legacy,3,1024,2,48000,-16,experiment,2,even,1,835447,832047,833206,6301,99073,833219,NA,753496,6356,92998,837460,838015,834233,13439,837460,NA,NA,Sternberg task,118,99861,132,yes,1024
89.47368421,89.47368421,758.518797,758.518797,black,experiment,legacy,legacy,legacy,0,uniform,1,undefined,1,left,132,132,132,0,0,132,NA,132,0,0,132,132,132,0,132,0,NA,Sun Oct 27 11:21:15 2019,The main experiment item,yes,Sternbergtask.osexp,/Users/danielrazo0311/Desktop,no,mono,no,18,no,white,no,yes,768,legacy,120,11,/Users/danielrazo0311/Desktop/subject-2.csv,legacy,4 7 6 8 2 3,Kafkaesque Koffka,3.2.8,6,y,0,left,left,left,left,NA,1022,7068,6072,1022,NA,2,legacy,6,1024,2,48000,-16,experiment,2,even,3,841416,838030,839178,6301,99073,839190,NA,753496,6356,92998,843429,844454,840204,13439,843429,NA,NA,Sternberg task,119,100883,133,yes,1024
89.55223881,89.55223881,757.8208955,757.8208955,black,experiment,legacy,legacy,legacy,0,uniform,1,undefined,1,right,133,133,133,0,0,133,NA,133,0,0,133,133,133,0,133,0,NA,Sun Oct 27 11:21:15 2019,The main experiment item,yes,Sternbergtask.osexp,/Users/danielrazo0311/Desktop,no,mono,no,18,no,white,no,yes,768,legacy,121,11,/Users/danielrazo0311/Desktop/subject-2.csv,legacy,8 6 3 4 7,Kafkaesque Koffka,3.2.8,0,n,0,right,left,left,right,NA,665,7068,6072,665,NA,2,legacy,5,1024,2,48000,-16,experiment,2,even,1,847862,844470,845621,6301,99073,845633,NA,753496,6356,92998,849874,850542,846645,13439,849874,NA,NA,Sternberg task,120,101548,134,yes,1024
89.62962963,89.62962963,757.3407407,757.3407407,black,experiment,legacy,legacy,legacy,0,uniform,1,undefined,1,right,134,134,134,0,0,134,NA,134,0,0,134,134,134,0,134,0,NA,Sun Oct 27 11:21:15 2019,The main experiment item,yes,Sternbergtask.osexp,/Users/danielrazo0311/Desktop,no,mono,no,18,no,white,no,yes,768,legacy,122,11,/Users/danielrazo0311/Desktop/subject-2.csv,legacy,8 4 3 9,Kafkaesque Koffka,3.2.8,0,n,0,right,left,left,right,NA,693,7068,6072,693,NA,2,legacy,4,1024,2,48000,-16,experiment,2,even,5,853954,850557,851708,6301,99073,851724,NA,753496,6356,92998,855966,856663,852737,13439,855965,NA,NA,Sternberg task,121,102241,135,yes,1024
89.70588235,89.70588235,759.1838235,759.1838235,black,experiment,legacy,legacy,legacy,0,uniform,1,undefined,1,left,135,135,135,0,0,135,NA,135,0,0,135,135,135,0,135,0,NA,Sun Oct 27 11:21:15 2019,The main experiment item,yes,Sternbergtask.osexp,/Users/danielrazo0311/Desktop,no,mono,no,18,no,white,no,yes,768,legacy,123,11,/Users/danielrazo0311/Desktop/subject-2.csv,legacy,2 3 7 4,Kafkaesque Koffka,3.2.8,1,y,0,left,left,left,left,NA,1008,7068,6072,1008,NA,2,legacy,4,1024,2,48000,-16,experiment,2,even,2,860062,856677,857824,6301,99073,857836,NA,753496,6356,92998,862074,863086,858848,13439,862074,NA,NA,Sternberg task,122,103249,136,yes,1024
89.7810219,89.7810219,761.9708029,761.9708029,black,experiment,legacy,legacy,legacy,0,uniform,1,undefined,1,right,136,136,136,0,0,136,NA,136,0,0,136,136,136,0,136,0,NA,Sun Oct 27 11:21:15 2019,The main experiment item,yes,Sternbergtask.osexp,/Users/danielrazo0311/Desktop,no,mono,no,18,no,white,no,yes,768,legacy,124,11,/Users/danielrazo0311/Desktop/subject-2.csv,legacy,7 8 6 1,Kafkaesque Koffka,3.2.8,0,n,0,right,left,left,right,NA,1141,7068,6072,1141,NA,2,legacy,4,1024,2,48000,-16,experiment,2,even,3,866489,863101,864247,6301,99073,864259,NA,753496,6356,92998,868501,869646,865273,13439,868501,NA,NA,Sternberg task,123,104390,137,yes,1024
89.85507246,89.85507246,761.9057971,761.9057971,black,experiment,legacy,legacy,legacy,0,uniform,1,undefined,1,left,137,137,137,0,0,137,NA,137,0,0,137,137,137,0,137,0,NA,Sun Oct 27 11:21:15 2019,The main experiment item,yes,Sternbergtask.osexp,/Users/danielrazo0311/Desktop,no,mono,no,18,no,white,no,yes,768,legacy,125,11,/Users/danielrazo0311/Desktop/subject-2.csv,legacy,7 8 6 3 1,Kafkaesque Koffka,3.2.8,5,y,0,left,left,left,left,NA,753,7068,6072,753,NA,2,legacy,5,1024,2,48000,-16,experiment,2,even,1,873068,869685,870831,6301,99073,870843,NA,753496,6356,92998,875081,875838,871855,13439,875081,NA,NA,Sternberg task,124,105143,138,yes,1024