acc,accuracy,average_response_time,avg_rt,background,block,canvas_backend,clock_backend,color_backend,compensation,coordinates,correct,correct_instruction1,correct_keyboard_response,correct_response,count_ISI,count_correct_feedback,count_exp_sequence,count_experiment,count_experiment_loop,count_fixation,count_incorrect_feedback,count_instruction1,count_instructions2,count_keyboard_response,count_logger,count_memory_set,count_practice_loop,count_probe,count_thankyou,datetime,description,disable_garbage_collection,experiment_file,experiment_path,font_bold,font_family,font_italic,font_size,font_underline,foreground,form_clicks,fullscreen,height,keyboard_backend,live_row,live_row_practice_loop,logfile,mouse_backend,numberSet,opensesame_codename,opensesame_version,posInSet,present,repeat_cycle,response,response_instruction1,response_instructions2,response_keyboard_response,response_thankyou,response_time,response_time_instruction1,response_time_instructions2,response_time_keyboard_response,response_time_thankyou,round_decimals,sampler_backend,setSize,sound_buf_size,sound_channels,sound_freq,sound_sample_size,start,subject_nr,subject_parity,target,time_ISI,time_correct_feedback,time_exp_sequence,time_experiment,time_experiment_loop,time_fixation,time_incorrect_feedback,time_instruction1,time_instructions2,time_keyboard_response,time_logger,time_memory_set,time_practice_loop,time_probe,time_thankyou,title,total_correct,total_response_time,total_responses,uniform_coordinates,width
100,100,591,591,black,practice,legacy,legacy,legacy,0,uniform,1,undefined,1,left,0,0,0,0,0,0,0,0,0,0,0,0,0,0,0,Mon Oct 16 11:09:59 2023,The main experiment item,yes,SternbergTask.osexp,/Users/Thingtwo/Desktop,no,mono,no,18,no,white,no,yes,768,legacy,0,0,/Users/Thingtwo/Desktop/Advanced Quant. Sternberg/NC-subject-2.csv,legacy,1 5 2 9,Lentiform Loewenfeld,3.3.14,2,y,0,left,left,NA,left,NA,591,1806,NA,591,NA,2,legacy,4,1024,2,48000,-16,experiment,2,even,5,5284,NA,3045,1099,NA,3049,NA,1121,NA,7297,7896,4067,2938,7297,NA,Sternberg Task,1,591,1,yes,1024
100,100,516,516,black,practice,legacy,legacy,legacy,0,uniform,1,undefined,1,right,1,1,1,0,0,1,1,0,0,1,1,1,0,1,0,Mon Oct 16 11:09:59 2023,The main experiment item,yes,SternbergTask.osexp,/Users/Thingtwo/Desktop,no,mono,no,18,no,white,no,yes,768,legacy,1,1,/Users/Thingtwo/Desktop/Advanced Quant. Sternberg/NC-subject-2.csv,legacy,2 1,Lentiform Loewenfeld,3.3.14,0,n,0,right,left,NA,right,NA,441,1806,NA,441,NA,2,legacy,2,1024,2,48000,-16,experiment,2,even,5,11225,7919,8994,1099,NA,8999,NA,1121,NA,13237,13679,10010,2938,13237,NA,Sternberg Task,2,1032,2,yes,1024
100,100,504,504,black,practice,legacy,legacy,legacy,0,uniform,1,undefined,1,left,2,2,2,0,0,2,2,0,0,2,2,2,0,2,0,Mon Oct 16 11:09:59 2023,The main experiment item,yes,SternbergTask.osexp,/Users/Thingtwo/Desktop,no,mono,no,18,no,white,no,yes,768,legacy,2,2,/Users/Thingtwo/Desktop/Advanced Quant. Sternberg/NC-subject-2.csv,legacy,4 3 1 7 9 8,Lentiform Loewenfeld,3.3.14,1,y,0,left,left,NA,left,NA,480,1806,NA,480,NA,2,legacy,6,1024,2,48000,-16,experiment,2,even,4,16989,13685,14760,1099,NA,14764,NA,1121,NA,19000,19481,15776,2938,19000,NA,Sternberg Task,3,1512,3,yes,1024
100,100,491.5,491.5,black,practice,legacy,legacy,legacy,0,uniform,1,undefined,1,right,3,3,3,0,0,3,3,0,0,3,3,3,0,3,0,Mon Oct 16 11:09:59 2023,The main experiment item,yes,SternbergTask.osexp,/Users/Thingtwo/Desktop,no,mono,no,18,no,white,no,yes,768,legacy,3,3,/Users/Thingtwo/Desktop/Advanced Quant. Sternberg/NC-subject-2.csv,legacy,5,Lentiform Loewenfeld,3.3.14,0,n,0,right,left,NA,right,NA,454,1806,NA,454,NA,2,legacy,1,1024,2,48000,-16,experiment,2,even,3,22790,19487,20560,1099,NA,20564,NA,1121,NA,24801,25256,21576,2938,24801,NA,Sternberg Task,4,1966,4,yes,1024
100,100,509.4,509.4,black,practice,legacy,legacy,legacy,0,uniform,1,undefined,1,left,4,4,4,0,0,4,4,0,0,4,4,4,0,4,0,Mon Oct 16 11:09:59 2023,The main experiment item,yes,SternbergTask.osexp,/Users/Thingtwo/Desktop,no,mono,no,18,no,white,no,yes,768,legacy,4,4,/Users/Thingtwo/Desktop/Advanced Quant. Sternberg/NC-subject-2.csv,legacy,2 9 4,Lentiform Loewenfeld,3.3.14,3,y,0,left,left,NA,left,NA,581,1806,NA,581,NA,2,legacy,3,1024,2,48000,-16,experiment,2,even,4,28560,25262,26331,1099,NA,26336,NA,1121,NA,30570,31153,27347,2938,30570,NA,Sternberg Task,5,2547,5,yes,1024
100,100,511.8333333333333,511.8333333333333,black,practice,legacy,legacy,legacy,0,uniform,1,undefined,1,right,5,5,5,0,0,5,5,0,0,5,5,5,0,5,0,Mon Oct 16 11:09:59 2023,The main experiment item,yes,SternbergTask.osexp,/Users/Thingtwo/Desktop,no,mono,no,18,no,white,no,yes,768,legacy,5,5,/Users/Thingtwo/Desktop/Advanced Quant. Sternberg/NC-subject-2.csv,legacy,4 1 5,Lentiform Loewenfeld,3.3.14,0,n,0,right,left,NA,right,NA,524,1806,NA,524,NA,2,legacy,3,1024,2,48000,-16,experiment,2,even,2,34454,31158,32224,1099,NA,32229,NA,1121,NA,36464,36990,33240,2938,36464,NA,Sternberg Task,6,3071,6,yes,1024
100,100,497.14285714285717,497.14285714285717,black,practice,legacy,legacy,legacy,0,uniform,1,undefined,1,left,6,6,6,0,0,6,6,0,0,6,6,6,0,6,0,Mon Oct 16 11:09:59 2023,The main experiment item,yes,SternbergTask.osexp,/Users/Thingtwo/Desktop,no,mono,no,18,no,white,no,yes,768,legacy,6,6,/Users/Thingtwo/Desktop/Advanced Quant. Sternberg/NC-subject-2.csv,legacy,4 8,Lentiform Loewenfeld,3.3.14,1,y,0,left,left,NA,left,NA,409,1806,NA,409,NA,2,legacy,2,1024,2,48000,-16,experiment,2,even,4,40289,36995,38060,1099,NA,38065,NA,1121,NA,42300,42710,39076,2938,42300,NA,Sternberg Task,7,3480,7,yes,1024
100,100,506.5,506.5,black,practice,legacy,legacy,legacy,0,uniform,1,undefined,1,right,7,7,7,0,0,7,7,0,0,7,7,7,0,7,0,Mon Oct 16 11:09:59 2023,The main experiment item,yes,SternbergTask.osexp,/Users/Thingtwo/Desktop,no,mono,no,18,no,white,no,yes,768,legacy,7,7,/Users/Thingtwo/Desktop/Advanced Quant. Sternberg/NC-subject-2.csv,legacy,3 1 9 4,Lentiform Loewenfeld,3.3.14,0,n,0,right,left,NA,right,NA,572,1806,NA,572,NA,2,legacy,4,1024,2,48000,-16,experiment,2,even,6,46011,42715,43780,1099,NA,43785,NA,1121,NA,48022,48595,44797,2938,48022,NA,Sternberg Task,8,4052,8,yes,1024
100,100,560.7777777777778,560.7777777777778,black,practice,legacy,legacy,legacy,0,uniform,1,undefined,1,right,8,8,8,0,0,8,8,0,0,8,8,8,0,8,0,Mon Oct 16 11:09:59 2023,The main experiment item,yes,SternbergTask.osexp,/Users/Thingtwo/Desktop,no,mono,no,18,no,white,no,yes,768,legacy,8,8,/Users/Thingtwo/Desktop/Advanced Quant. Sternberg/NC-subject-2.csv,legacy,5 7 8 4 1 2,Lentiform Loewenfeld,3.3.14,0,n,0,right,left,NA,right,NA,995,1806,NA,995,NA,2,legacy,6,1024,2,48000,-16,experiment,2,even,6,51895,48600,49667,1099,NA,49672,NA,1121,NA,53907,54903,50681,2938,53906,NA,Sternberg Task,9,5047,9,yes,1024
100,100,549.6,549.6,black,practice,legacy,legacy,legacy,0,uniform,1,undefined,1,right,9,9,9,0,0,9,9,0,0,9,9,9,0,9,0,Mon Oct 16 11:09:59 2023,The main experiment item,yes,SternbergTask.osexp,/Users/Thingtwo/Desktop,no,mono,no,18,no,white,no,yes,768,legacy,9,9,/Users/Thingtwo/Desktop/Advanced Quant. Sternberg/NC-subject-2.csv,legacy,9 6 7 4 5,Lentiform Loewenfeld,3.3.14,0,n,0,right,left,NA,right,NA,449,1806,NA,449,NA,2,legacy,5,1024,2,48000,-16,experiment,2,even,3,58203,54909,55973,1099,NA,55978,NA,1121,NA,60214,60664,56988,2938,60214,NA,Sternberg Task,10,5496,10,yes,1024
100,100,535.6363636363636,535.6363636363636,black,practice,legacy,legacy,legacy,0,uniform,1,undefined,1,left,10,10,10,0,0,10,10,0,0,10,10,10,0,10,0,Mon Oct 16 11:09:59 2023,The main experiment item,yes,SternbergTask.osexp,/Users/Thingtwo/Desktop,no,mono,no,18,no,white,no,yes,768,legacy,10,10,/Users/Thingtwo/Desktop/Advanced Quant. Sternberg/NC-subject-2.csv,legacy,1 7 9 8 5,Lentiform Loewenfeld,3.3.14,4,y,0,left,left,NA,left,NA,396,1806,NA,396,NA,2,legacy,5,1024,2,48000,-16,experiment,2,even,8,63968,60670,61737,1099,NA,61742,NA,1121,NA,65979,66376,62755,2938,65979,NA,Sternberg Task,11,5892,11,yes,1024
100,100,538.9166666666666,538.9166666666666,black,practice,legacy,legacy,legacy,0,uniform,1,undefined,1,left,11,11,11,0,0,11,11,0,0,11,11,11,0,11,0,Mon Oct 16 11:09:59 2023,The main experiment item,yes,SternbergTask.osexp,/Users/Thingtwo/Desktop,no,mono,no,18,no,white,no,yes,768,legacy,11,11,/Users/Thingtwo/Desktop/Advanced Quant. Sternberg/NC-subject-2.csv,legacy,6,Lentiform Loewenfeld,3.3.14,1,y,0,left,left,NA,left,NA,575,1806,NA,575,NA,2,legacy,1,1024,2,48000,-16,experiment,2,even,6,69677,66381,67448,1099,NA,67453,NA,1121,NA,71688,72264,68464,2938,71688,NA,Sternberg Task,12,6467,12,yes,1024
100,100,546.6923076923077,546.6923076923077,black,experiment,legacy,legacy,legacy,0,uniform,1,undefined,1,right,12,12,12,0,0,12,12,0,0,12,12,12,0,12,0,Mon Oct 16 11:09:59 2023,The main experiment item,yes,SternbergTask.osexp,/Users/Thingtwo/Desktop,no,mono,no,18,no,white,no,yes,768,legacy,0,11,/Users/Thingtwo/Desktop/Advanced Quant. Sternberg/NC-subject-2.csv,legacy,2 5 1 4,Lentiform Loewenfeld,3.3.14,0,n,0,right,left,right,right,NA,640,1806,1797,640,NA,2,legacy,4,1024,2,48000,-16,experiment,2,even,6,77382,72270,75153,1099,75117,75158,NA,1121,73319,79393,80034,76169,2938,79392,NA,Sternberg Task,13,7107,13,yes,1024
92.85714285714286,92.85714285714286,549.7857142857143,549.7857142857143,black,experiment,legacy,legacy,legacy,0,uniform,0,undefined,0,right,13,13,13,0,0,13,13,0,0,13,13,13,0,13,0,Mon Oct 16 11:09:59 2023,The main experiment item,yes,SternbergTask.osexp,/Users/Thingtwo/Desktop,no,mono,no,18,no,white,no,yes,768,legacy,1,11,/Users/Thingtwo/Desktop/Advanced Quant. Sternberg/NC-subject-2.csv,legacy,2 8 9 4 1,Lentiform Loewenfeld,3.3.14,0,n,0,left,left,right,left,NA,590,1806,1797,590,NA,2,legacy,5,1024,2,48000,-16,experiment,2,even,5,83334,80040,81105,1099,75117,81109,NA,1121,73319,85348,85939,82120,2938,85348,NA,Sternberg Task,13,7697,14,yes,1024
93.33333333333333,93.33333333333333,541.7333333333333,541.7333333333333,black,experiment,legacy,legacy,legacy,0,uniform,1,undefined,1,right,14,14,14,0,0,14,14,0,0,14,14,14,0,14,0,Mon Oct 16 11:09:59 2023,The main experiment item,yes,SternbergTask.osexp,/Users/Thingtwo/Desktop,no,mono,no,18,no,white,no,yes,768,legacy,2,11,/Users/Thingtwo/Desktop/Advanced Quant. Sternberg/NC-subject-2.csv,legacy,1 7 8 3 9,Lentiform Loewenfeld,3.3.14,0,n,0,right,left,right,right,NA,429,1806,1797,429,NA,2,legacy,5,1024,2,48000,-16,experiment,2,even,2,89244,80040,87010,1099,75117,87017,85945,1121,73319,91256,91686,88029,2938,91256,NA,Sternberg Task,14,8126,15,yes,1024
93.75,93.75,532.1875,532.1875,black,experiment,legacy,legacy,legacy,0,uniform,1,undefined,1,left,15,15,15,0,0,15,15,0,0,15,15,15,0,15,0,Mon Oct 16 11:09:59 2023,The main experiment item,yes,SternbergTask.osexp,/Users/Thingtwo/Desktop,no,mono,no,18,no,white,no,yes,768,legacy,3,11,/Users/Thingtwo/Desktop/Advanced Quant. Sternberg/NC-subject-2.csv,legacy,8 3,Lentiform Loewenfeld,3.3.14,2,y,0,left,left,right,left,NA,389,1806,1797,389,NA,2,legacy,2,1024,2,48000,-16,experiment,2,even,3,94990,91692,92759,1099,75117,92764,85945,1121,73319,97002,97392,93775,2938,97002,NA,Sternberg Task,15,8515,16,yes,1024
94.11764705882354,94.11764705882354,526.6470588235294,526.6470588235294,black,experiment,legacy,legacy,legacy,0,uniform,1,undefined,1,right,16,16,16,0,0,16,16,0,0,16,16,16,0,16,0,Mon Oct 16 11:09:59 2023,The main experiment item,yes,SternbergTask.osexp,/Users/Thingtwo/Desktop,no,mono,no,18,no,white,no,yes,768,legacy,4,11,/Users/Thingtwo/Desktop/Advanced Quant. Sternberg/NC-subject-2.csv,legacy,6 8 4,Lentiform Loewenfeld,3.3.14,0,n,0,right,left,right,right,NA,438,1806,1797,438,NA,2,legacy,3,1024,2,48000,-16,experiment,2,even,1,100690,97398,98462,1099,75117,98467,85945,1121,73319,102700,103139,99476,2938,102700,NA,Sternberg Task,16,8953,17,yes,1024
88.88888888888889,88.88888888888889,520.5,520.5,black,experiment,legacy,legacy,legacy,0,uniform,0,undefined,0,left,17,17,17,0,0,17,17,0,0,17,17,17,0,17,0,Mon Oct 16 11:09:59 2023,The main experiment item,yes,SternbergTask.osexp,/Users/Thingtwo/Desktop,no,mono,no,18,no,white,no,yes,768,legacy,5,11,/Users/Thingtwo/Desktop/Advanced Quant. Sternberg/NC-subject-2.csv,legacy,8 5 1 3 9,Lentiform Loewenfeld,3.3.14,4,y,0,right,left,right,right,NA,416,1806,1797,416,NA,2,legacy,5,1024,2,48000,-16,experiment,2,even,3,106440,103144,104208,1099,75117,104213,85945,1121,73319,108451,108867,105225,2938,108451,NA,Sternberg Task,16,9369,18,yes,1024
89.47368421052632,89.47368421052632,521.7894736842105,521.7894736842105,black,experiment,legacy,legacy,legacy,0,uniform,1,undefined,1,right,18,18,18,0,0,18,18,0,0,18,18,18,0,18,0,Mon Oct 16 11:09:59 2023,The main experiment item,yes,SternbergTask.osexp,/Users/Thingtwo/Desktop,no,mono,no,18,no,white,no,yes,768,legacy,6,11,/Users/Thingtwo/Desktop/Advanced Quant. Sternberg/NC-subject-2.csv,legacy,4 8 1 2,Lentiform Loewenfeld,3.3.14,0,n,0,right,left,right,right,NA,545,1806,1797,545,NA,2,legacy,4,1024,2,48000,-16,experiment,2,even,7,112167,103144,109938,1099,75117,109943,108873,1121,73319,114176,114722,110954,2938,114175,NA,Sternberg Task,17,9914,19,yes,1024
90,90,514.35,514.35,black,experiment,legacy,legacy,legacy,0,uniform,1,undefined,1,left,19,19,19,0,0,19,19,0,0,19,19,19,0,19,0,Mon Oct 16 11:09:59 2023,The main experiment item,yes,SternbergTask.osexp,/Users/Thingtwo/Desktop,no,mono,no,18,no,white,no,yes,768,legacy,7,11,/Users/Thingtwo/Desktop/Advanced Quant. Sternberg/NC-subject-2.csv,legacy,9 1 7 2,Lentiform Loewenfeld,3.3.14,2,y,0,left,left,right,left,NA,373,1806,1797,373,NA,2,legacy,4,1024,2,48000,-16,experiment,2,even,1,118024,114728,115794,1099,75117,115799,108873,1121,73319,120036,120410,116811,2938,120036,NA,Sternberg Task,18,10287,20,yes,1024
90.47619047619048,90.47619047619048,514.952381,514.952381,black,experiment,legacy,legacy,legacy,0,uniform,1,undefined,1,right,20,20,20,0,0,20,20,0,0,20,20,20,0,20,0,Mon Oct 16 11:09:59 2023,The main experiment item,yes,SternbergTask.osexp,/Users/Thingtwo/Desktop,no,mono,no,18,no,white,no,yes,768,legacy,8,11,/Users/Thingtwo/Desktop/Advanced Quant. Sternberg/NC-subject-2.csv,legacy,1 6 4 3 9 7,Lentiform Loewenfeld,3.3.14,0,n,0,right,left,right,right,NA,527,1806,1797,527,NA,2,legacy,6,1024,2,48000,-16,experiment,2,even,8,123715,120415,121481,1099,75117,121487,108873,1121,73319,125727,126254,122501,2938,125727,NA,Sternberg Task,19,10814,21,yes,1024
90.90909091,90.90909091,514.9090909090909,514.9090909090909,black,experiment,legacy,legacy,legacy,0,uniform,1,undefined,1,left,21,21,21,0,0,21,21,0,0,21,21,21,0,21,0,Mon Oct 16 11:09:59 2023,The main experiment item,yes,SternbergTask.osexp,/Users/Thingtwo/Desktop,no,mono,no,18,no,white,no,yes,768,legacy,9,11,/Users/Thingtwo/Desktop/Advanced Quant. Sternberg/NC-subject-2.csv,legacy,2 4 8 5 1 3,Lentiform Loewenfeld,3.3.14,1,y,0,left,left,right,left,NA,514,1806,1797,514,NA,2,legacy,6,1024,2,48000,-16,experiment,2,even,2,129557,126260,127325,1099,75117,127330,108873,1121,73319,131569,132084,128342,2938,131569,NA,Sternberg Task,20,11328,22,yes,1024
91.30434782608695,91.30434782608695,511.2173913043478,511.2173913043478,black,experiment,legacy,legacy,legacy,0,uniform,1,undefined,1,right,22,22,22,0,0,22,22,0,0,22,22,22,0,22,0,Mon Oct 16 11:09:59 2023,The main experiment item,yes,SternbergTask.osexp,/Users/Thingtwo/Desktop,no,mono,no,18,no,white,no,yes,768,legacy,10,11,/Users/Thingtwo/Desktop/Advanced Quant. Sternberg/NC-subject-2.csv,legacy,5 7 3,Lentiform Loewenfeld,3.3.14,0,n,0,right,left,right,right,NA,430,1806,1797,430,NA,2,legacy,3,1024,2,48000,-16,experiment,2,even,9,135382,132090,133153,1099,75117,133158,108873,1121,73319,137393,137824,134169,2938,137393,NA,Sternberg Task,21,11758,23,yes,1024
91.66666666666667,91.66666666666667,504.625,504.625,black,experiment,legacy,legacy,legacy,0,uniform,1,undefined,1,left,23,23,23,0,0,23,23,0,0,23,23,23,0,23,0,Mon Oct 16 11:09:59 2023,The main experiment item,yes,SternbergTask.osexp,/Users/Thingtwo/Desktop,no,mono,no,18,no,white,no,yes,768,legacy,11,11,/Users/Thingtwo/Desktop/Advanced Quant. Sternberg/NC-subject-2.csv,legacy,4 1 5,Lentiform Loewenfeld,3.3.14,2,y,0,left,left,right,left,NA,353,1806,1797,353,NA,2,legacy,3,1024,2,48000,-16,experiment,2,even,1,141128,137830,138895,1099,75117,138899,108873,1121,73319,143139,143493,139913,2938,143139,NA,Sternberg Task,22,12111,24,yes,1024
92,92,504.92,504.92,black,experiment,legacy,legacy,legacy,0,uniform,1,undefined,1,right,24,24,24,0,0,24,24,0,0,24,24,24,0,24,0,Mon Oct 16 11:09:59 2023,The main experiment item,yes,SternbergTask.osexp,/Users/Thingtwo/Desktop,no,mono,no,18,no,white,no,yes,768,legacy,12,11,/Users/Thingtwo/Desktop/Advanced Quant. Sternberg/NC-subject-2.csv,legacy,3 9 1,Lentiform Loewenfeld,3.3.14,0,n,0,right,left,right,right,NA,512,1806,1797,512,NA,2,legacy,3,1024,2,48000,-16,experiment,2,even,7,146789,143499,144561,1099,75117,144566,108873,1121,73319,148800,149313,145576,2938,148800,NA,Sternberg Task,23,12623,25,yes,1024
88.46153846153847,88.46153846153847,502.38461538461536,502.38461538461536,black,experiment,legacy,legacy,legacy,0,uniform,0,undefined,0,left,25,25,25,0,0,25,25,0,0,25,25,25,0,25,0,Mon Oct 16 11:09:59 2023,The main experiment item,yes,SternbergTask.osexp,/Users/Thingtwo/Desktop,no,mono,no,18,no,white,no,yes,768,legacy,13,11,/Users/Thingtwo/Desktop/Advanced Quant. Sternberg/NC-subject-2.csv,legacy,2 6 1 7 4,Lentiform Loewenfeld,3.3.14,2,y,0,right,left,right,right,NA,439,1806,1797,439,NA,2,legacy,5,1024,2,48000,-16,experiment,2,even,6,152616,149318,150386,1099,75117,150391,108873,1121,73319,154628,155068,151402,2938,154628,NA,Sternberg Task,23,13062,26,yes,1024
88.88888888888889,88.88888888888889,506.55555555555554,506.55555555555554,black,experiment,legacy,legacy,legacy,0,uniform,1,undefined,1,left,26,26,26,0,0,26,26,0,0,26,26,26,0,26,0,Mon Oct 16 11:09:59 2023,The main experiment item,yes,SternbergTask.osexp,/Users/Thingtwo/Desktop,no,mono,no,18,no,white,no,yes,768,legacy,14,11,/Users/Thingtwo/Desktop/Advanced Quant. Sternberg/NC-subject-2.csv,legacy,8 5 4 7 3 1,Lentiform Loewenfeld,3.3.14,2,y,0,left,left,right,left,NA,615,1806,1797,615,NA,2,legacy,6,1024,2,48000,-16,experiment,2,even,5,158374,149318,156141,1099,75117,156146,155074,1121,73319,160385,161001,157158,2938,160384,NA,Sternberg Task,24,13677,27,yes,1024
89.28571428571429,89.28571428571429,505.14285714285717,505.14285714285717,black,experiment,legacy,legacy,legacy,0,uniform,1,undefined,1,right,27,27,27,0,0,27,27,0,0,27,27,27,0,27,0,Mon Oct 16 11:09:59 2023,The main experiment item,yes,SternbergTask.osexp,/Users/Thingtwo/Desktop,no,mono,no,18,no,white,no,yes,768,legacy,15,11,/Users/Thingtwo/Desktop/Advanced Quant. Sternberg/NC-subject-2.csv,legacy,5 3 2 6 9 8,Lentiform Loewenfeld,3.3.14,0,n,0,right,left,right,right,NA,467,1806,1797,467,NA,2,legacy,6,1024,2,48000,-16,experiment,2,even,4,164304,161007,162073,1099,75117,162078,155074,1121,73319,166315,166783,163091,2938,166315,NA,Sternberg Task,25,14144,28,yes,1024
89.65517241379311,89.65517241379311,512,512,black,experiment,legacy,legacy,legacy,0,uniform,1,undefined,1,left,28,28,28,0,0,28,28,0,0,28,28,28,0,28,0,Mon Oct 16 11:09:59 2023,The main experiment item,yes,SternbergTask.osexp,/Users/Thingtwo/Desktop,no,mono,no,18,no,white,no,yes,768,legacy,16,11,/Users/Thingtwo/Desktop/Advanced Quant. Sternberg/NC-subject-2.csv,legacy,9 3 8 2 1 4,Lentiform Loewenfeld,3.3.14,3,y,0,left,left,right,left,NA,704,1806,1797,704,NA,2,legacy,6,1024,2,48000,-16,experiment,2,even,8,170084,166788,167852,1099,75117,167857,155074,1121,73319,172095,172800,168868,2938,172095,NA,Sternberg Task,26,14848,29,yes,1024
90,90,515.1,515.1,black,experiment,legacy,legacy,legacy,0,uniform,1,undefined,1,right,29,29,29,0,0,29,29,0,0,29,29,29,0,29,0,Mon Oct 16 11:09:59 2023,The main experiment item,yes,SternbergTask.osexp,/Users/Thingtwo/Desktop,no,mono,no,18,no,white,no,yes,768,legacy,17,11,/Users/Thingtwo/Desktop/Advanced Quant. Sternberg/NC-subject-2.csv,legacy,5 2,Lentiform Loewenfeld,3.3.14,0,n,0,right,left,right,right,NA,605,1806,1797,605,NA,2,legacy,2,1024,2,48000,-16,experiment,2,even,7,176102,172806,173870,1099,75117,173875,155074,1121,73319,178114,178720,174887,2938,178114,NA,Sternberg Task,27,15453,30,yes,1024
90.32258065,90.32258065,515.2258064516129,515.2258064516129,black,experiment,legacy,legacy,legacy,0,uniform,1,undefined,1,left,30,30,30,0,0,30,30,0,0,30,30,30,0,30,0,Mon Oct 16 11:09:59 2023,The main experiment item,yes,SternbergTask.osexp,/Users/Thingtwo/Desktop,no,mono,no,18,no,white,no,yes,768,legacy,18,11,/Users/Thingtwo/Desktop/Advanced Quant. Sternberg/NC-subject-2.csv,legacy,9 1 6 7 8,Lentiform Loewenfeld,3.3.14,1,y,0,left,left,right,left,NA,519,1806,1797,519,NA,2,legacy,5,1024,2,48000,-16,experiment,2,even,9,182022,178726,179791,1099,75117,179796,155074,1121,73319,184034,184554,180808,2938,184034,NA,Sternberg Task,28,15972,31,yes,1024
90.625,90.625,515.46875,515.46875,black,experiment,legacy,legacy,legacy,0,uniform,1,undefined,1,right,31,31,31,0,0,31,31,0,0,31,31,31,0,31,0,Mon Oct 16 11:09:59 2023,The main experiment item,yes,SternbergTask.osexp,/Users/Thingtwo/Desktop,no,mono,no,18,no,white,no,yes,768,legacy,19,11,/Users/Thingtwo/Desktop/Advanced Quant. Sternberg/NC-subject-2.csv,legacy,1 8 7,Lentiform Loewenfeld,3.3.14,0,n,0,right,left,right,right,NA,523,1806,1797,523,NA,2,legacy,3,1024,2,48000,-16,experiment,2,even,4,187860,184559,185623,1099,75117,185628,155074,1121,73319,189871,190395,186641,2938,189871,NA,Sternberg Task,29,16495,32,yes,1024
87.87878787878788,87.87878787878788,515.2121212121212,515.2121212121212,black,experiment,legacy,legacy,legacy,0,uniform,0,undefined,0,right,32,32,32,0,0,32,32,0,0,32,32,32,0,32,0,Mon Oct 16 11:09:59 2023,The main experiment item,yes,SternbergTask.osexp,/Users/Thingtwo/Desktop,no,mono,no,18,no,white,no,yes,768,legacy,20,11,/Users/Thingtwo/Desktop/Advanced Quant. Sternberg/NC-subject-2.csv,legacy,3 4 2,Lentiform Loewenfeld,3.3.14,0,n,0,left,left,right,left,NA,507,1806,1797,507,NA,2,legacy,3,1024,2,48000,-16,experiment,2,even,5,193703,190401,191465,1099,75117,191470,155074,1121,73319,195718,196226,192485,2938,195718,NA,Sternberg Task,29,17002,33,yes,1024
88.23529411764706,88.23529411764706,515.0882352941177,515.0882352941177,black,experiment,legacy,legacy,legacy,0,uniform,1,undefined,1,right,33,33,33,0,0,33,33,0,0,33,33,33,0,33,0,Mon Oct 16 11:09:59 2023,The main experiment item,yes,SternbergTask.osexp,/Users/Thingtwo/Desktop,no,mono,no,18,no,white,no,yes,768,legacy,21,11,/Users/Thingtwo/Desktop/Advanced Quant. Sternberg/NC-subject-2.csv,legacy,7 4 2 8 1 9,Lentiform Loewenfeld,3.3.14,0,n,0,right,left,right,right,NA,511,1806,1797,511,NA,2,legacy,6,1024,2,48000,-16,experiment,2,even,5,199533,190401,197295,1099,75117,197301,196231,1121,73319,201542,202054,198316,2938,201542,NA,Sternberg Task,30,17513,34,yes,1024
88.57142857142857,88.57142857142857,510.8857142857143,510.8857142857143,black,experiment,legacy,legacy,legacy,0,uniform,1,undefined,1,left,34,34,34,0,0,34,34,0,0,34,34,34,0,34,0,Mon Oct 16 11:09:59 2023,The main experiment item,yes,SternbergTask.osexp,/Users/Thingtwo/Desktop,no,mono,no,18,no,white,no,yes,768,legacy,22,11,/Users/Thingtwo/Desktop/Advanced Quant. Sternberg/NC-subject-2.csv,legacy,7 4 2 6 3 5,Lentiform Loewenfeld,3.3.14,6,y,0,left,left,right,left,NA,368,1806,1797,368,NA,2,legacy,6,1024,2,48000,-16,experiment,2,even,5,205359,202059,203123,1099,75117,203128,196231,1121,73319,207376,207745,204144,2938,207376,NA,Sternberg Task,31,17881,35,yes,1024
88.88888888888889,88.88888888888889,524.8333333333334,524.8333333333334,black,experiment,legacy,legacy,legacy,0,uniform,1,undefined,1,left,35,35,35,0,0,35,35,0,0,35,35,35,0,35,0,Mon Oct 16 11:09:59 2023,The main experiment item,yes,SternbergTask.osexp,/Users/Thingtwo/Desktop,no,mono,no,18,no,white,no,yes,768,legacy,23,11,/Users/Thingtwo/Desktop/Advanced Quant. Sternberg/NC-subject-2.csv,legacy,2 3 7 4,Lentiform Loewenfeld,3.3.14,1,y,0,left,left,right,left,NA,1013,1806,1797,1013,NA,2,legacy,4,1024,2,48000,-16,experiment,2,even,2,211053,207750,208818,1099,75117,208823,196231,1121,73319,213067,214081,209837,2938,213067,NA,Sternberg Task,32,18894,36,yes,1024
89.18918919,89.18918919,528.8108108108108,528.8108108108108,black,experiment,legacy,legacy,legacy,0,uniform,1,undefined,1,left,36,36,36,0,0,36,36,0,0,36,36,36,0,36,0,Mon Oct 16 11:09:59 2023,The main experiment item,yes,SternbergTask.osexp,/Users/Thingtwo/Desktop,no,mono,no,18,no,white,no,yes,768,legacy,24,11,/Users/Thingtwo/Desktop/Advanced Quant. Sternberg/NC-subject-2.csv,legacy,6 9 3 1,Lentiform Loewenfeld,3.3.14,4,y,0,left,left,right,left,NA,672,1806,1797,672,NA,2,legacy,4,1024,2,48000,-16,experiment,2,even,1,217388,214086,215151,1099,75117,215158,196231,1121,73319,219400,220073,216172,2938,219400,NA,Sternberg Task,33,19566,37,yes,1024
86.84210526315789,86.84210526315789,528.9473684210526,528.9473684210526,black,experiment,legacy,legacy,legacy,0,uniform,0,undefined,0,left,37,37,37,0,0,37,37,0,0,37,37,37,0,37,0,Mon Oct 16 11:09:59 2023,The main experiment item,yes,SternbergTask.osexp,/Users/Thingtwo/Desktop,no,mono,no,18,no,white,no,yes,768,legacy,25,11,/Users/Thingtwo/Desktop/Advanced Quant. Sternberg/NC-subject-2.csv,legacy,8 1 6,Lentiform Loewenfeld,3.3.14,3,y,0,right,left,right,right,NA,534,1806,1797,534,NA,2,legacy,3,1024,2,48000,-16,experiment,2,even,6,223373,220079,221142,1099,75117,221148,196231,1121,73319,225385,225920,222160,2938,225385,NA,Sternberg Task,33,20100,38,yes,1024
84.61538461538461,84.61538461538461,534.6923076923077,534.6923076923077,black,experiment,legacy,legacy,legacy,0,uniform,0,undefined,0,right,38,38,38,0,0,38,38,0,0,38,38,38,0,38,0,Mon Oct 16 11:09:59 2023,The main experiment item,yes,SternbergTask.osexp,/Users/Thingtwo/Desktop,no,mono,no,18,no,white,no,yes,768,legacy,26,11,/Users/Thingtwo/Desktop/Advanced Quant. Sternberg/NC-subject-2.csv,legacy,5 9 2 3,Lentiform Loewenfeld,3.3.14,0,n,0,left,left,right,left,NA,753,1806,1797,753,NA,2,legacy,4,1024,2,48000,-16,experiment,2,even,8,229219,220079,226989,1099,75117,226994,225926,1121,73319,231229,231983,228005,2938,231229,NA,Sternberg Task,33,20853,39,yes,1024
85,85,534.175,534.175,black,experiment,legacy,legacy,legacy,0,uniform,1,undefined,1,right,39,39,39,0,0,39,39,0,0,39,39,39,0,39,0,Mon Oct 16 11:09:59 2023,The main experiment item,yes,SternbergTask.osexp,/Users/Thingtwo/Desktop,no,mono,no,18,no,white,no,yes,768,legacy,27,11,/Users/Thingtwo/Desktop/Advanced Quant. Sternberg/NC-subject-2.csv,legacy,7 1 5 6 3,Lentiform Loewenfeld,3.3.14,0,n,0,right,left,right,right,NA,514,1806,1797,514,NA,2,legacy,5,1024,2,48000,-16,experiment,2,even,8,235287,220079,233053,1099,75117,233058,231989,1121,73319,237298,237813,234071,2938,237298,NA,Sternberg Task,34,21367,40,yes,1024
85.36585365853658,85.36585365853658,531.5365853658536,531.5365853658536,black,experiment,legacy,legacy,legacy,0,uniform,1,undefined,1,left,40,40,40,0,0,40,40,0,0,40,40,40,0,40,0,Mon Oct 16 11:09:59 2023,The main experiment item,yes,SternbergTask.osexp,/Users/Thingtwo/Desktop,no,mono,no,18,no,white,no,yes,768,legacy,28,11,/Users/Thingtwo/Desktop/Advanced Quant. Sternberg/NC-subject-2.csv,legacy,8 9 5 6 7,Lentiform Loewenfeld,3.3.14,1,y,0,left,left,right,left,NA,426,1806,1797,426,NA,2,legacy,5,1024,2,48000,-16,experiment,2,even,8,241112,237819,238882,1099,75117,238887,231989,1121,73319,243124,243551,239899,2938,243124,NA,Sternberg Task,35,21793,41,yes,1024
83.33333333333333,83.33333333333333,530.547619,530.547619,black,experiment,legacy,legacy,legacy,0,uniform,0,undefined,0,left,41,41,41,0,0,41,41,0,0,41,41,41,0,41,0,Mon Oct 16 11:09:59 2023,The main experiment item,yes,SternbergTask.osexp,/Users/Thingtwo/Desktop,no,mono,no,18,no,white,no,yes,768,legacy,29,11,/Users/Thingtwo/Desktop/Advanced Quant. Sternberg/NC-subject-2.csv,legacy,9 5 8 1,Lentiform Loewenfeld,3.3.14,2,y,0,right,left,right,right,NA,490,1806,1797,490,NA,2,legacy,4,1024,2,48000,-16,experiment,2,even,5,246853,243556,244622,1099,75117,244627,231989,1121,73319,248864,249355,245640,2938,248864,NA,Sternberg Task,35,22283,42,yes,1024
83.72093023255815,83.72093023255815,525.6511627906976,525.6511627906976,black,experiment,legacy,legacy,legacy,0,uniform,1,undefined,1,left,42,42,42,0,0,42,42,0,0,42,42,42,0,42,0,Mon Oct 16 11:09:59 2023,The main experiment item,yes,SternbergTask.osexp,/Users/Thingtwo/Desktop,no,mono,no,18,no,white,no,yes,768,legacy,30,11,/Users/Thingtwo/Desktop/Advanced Quant. Sternberg/NC-subject-2.csv,legacy,7 1 3,Lentiform Loewenfeld,3.3.14,2,y,0,left,left,right,left,NA,320,1806,1797,320,NA,2,legacy,3,1024,2,48000,-16,experiment,2,even,1,252655,243556,250425,1099,75117,250430,249361,1121,73319,254667,254988,251440,2938,254667,NA,Sternberg Task,36,22603,43,yes,1024
84.09090909,84.09090909,528.2727272727273,528.2727272727273,black,experiment,legacy,legacy,legacy,0,uniform,1,undefined,1,left,43,43,43,0,0,43,43,0,0,43,43,43,0,43,0,Mon Oct 16 11:09:59 2023,The main experiment item,yes,SternbergTask.osexp,/Users/Thingtwo/Desktop,no,mono,no,18,no,white,no,yes,768,legacy,31,11,/Users/Thingtwo/Desktop/Advanced Quant. Sternberg/NC-subject-2.csv,legacy,7 1 8 5 6 2,Lentiform Loewenfeld,3.3.14,2,y,0,left,left,right,left,NA,641,1806,1797,641,NA,2,legacy,6,1024,2,48000,-16,experiment,2,even,1,258288,254993,256057,1099,75117,256062,249361,1121,73319,260298,260940,257075,2938,260298,NA,Sternberg Task,37,23244,44,yes,1024
82.22222222222223,82.22222222222223,532.5111111111111,532.5111111111111,black,experiment,legacy,legacy,legacy,0,uniform,0,undefined,0,right,44,44,44,0,0,44,44,0,0,44,44,44,0,44,0,Mon Oct 16 11:09:59 2023,The main experiment item,yes,SternbergTask.osexp,/Users/Thingtwo/Desktop,no,mono,no,18,no,white,no,yes,768,legacy,32,11,/Users/Thingtwo/Desktop/Advanced Quant. Sternberg/NC-subject-2.csv,legacy,6 2 9 3 8 4,Lentiform Loewenfeld,3.3.14,0,n,0,left,left,right,left,NA,719,1806,1797,719,NA,2,legacy,6,1024,2,48000,-16,experiment,2,even,1,264244,260944,262010,1099,75117,262016,249361,1121,73319,266256,266976,263029,2938,266256,NA,Sternberg Task,37,23963,45,yes,1024
82.60869565,82.60869565,533.8695652173913,533.8695652173913,black,experiment,legacy,legacy,legacy,0,uniform,1,undefined,1,left,45,45,45,0,0,45,45,0,0,45,45,45,0,45,0,Mon Oct 16 11:09:59 2023,The main experiment item,yes,SternbergTask.osexp,/Users/Thingtwo/Desktop,no,mono,no,18,no,white,no,yes,768,legacy,33,11,/Users/Thingtwo/Desktop/Advanced Quant. Sternberg/NC-subject-2.csv,legacy,6 8 9 3 4 9,Lentiform Loewenfeld,3.3.14,5,y,0,left,left,right,left,NA,595,1806,1797,595,NA,2,legacy,6,1024,2,48000,-16,experiment,2,even,4,270279,260944,268047,1099,75117,268053,266981,1121,73319,272293,272889,269066,2938,272293,NA,Sternberg Task,38,24558,46,yes,1024
82.97872340425532,82.97872340425532,532.1702127659574,532.1702127659574,black,experiment,legacy,legacy,legacy,0,uniform,1,undefined,1,left,46,46,46,0,0,46,46,0,0,46,46,46,0,46,0,Mon Oct 16 11:09:59 2023,The main experiment item,yes,SternbergTask.osexp,/Users/Thingtwo/Desktop,no,mono,no,18,no,white,no,yes,768,legacy,34,11,/Users/Thingtwo/Desktop/Advanced Quant. Sternberg/NC-subject-2.csv,legacy,6 7 8 5,Lentiform Loewenfeld,3.3.14,3,y,0,left,left,right,left,NA,454,1806,1797,454,NA,2,legacy,4,1024,2,48000,-16,experiment,2,even,8,276189,272894,273958,1099,75117,273964,266981,1121,73319,278198,278653,274975,2938,278198,NA,Sternberg Task,39,25012,47,yes,1024
81.25,81.25,530.9583333333334,530.9583333333334,black,experiment,legacy,legacy,legacy,0,uniform,0,undefined,0,right,47,47,47,0,0,47,47,0,0,47,47,47,0,47,0,Mon Oct 16 11:09:59 2023,The main experiment item,yes,SternbergTask.osexp,/Users/Thingtwo/Desktop,no,mono,no,18,no,white,no,yes,768,legacy,35,11,/Users/Thingtwo/Desktop/Advanced Quant. Sternberg/NC-subject-2.csv,legacy,9 7 4 5 8,Lentiform Loewenfeld,3.3.14,0,n,0,left,left,right,left,NA,474,1806,1797,474,NA,2,legacy,5,1024,2,48000,-16,experiment,2,even,6,281954,278658,279724,1099,75117,279729,266981,1121,73319,283966,284441,280741,2938,283966,NA,Sternberg Task,39,25486,48,yes,1024
81.63265306122449,81.63265306122449,530.5306122,530.5306122,black,experiment,legacy,legacy,legacy,0,uniform,1,undefined,1,right,48,48,48,0,0,48,48,0,0,48,48,48,0,48,0,Mon Oct 16 11:09:59 2023,The main experiment item,yes,SternbergTask.osexp,/Users/Thingtwo/Desktop,no,mono,no,18,no,white,no,yes,768,legacy,36,11,/Users/Thingtwo/Desktop/Advanced Quant. Sternberg/NC-subject-2.csv,legacy,9 8 2 7 4,Lentiform Loewenfeld,3.3.14,0,n,0,right,left,right,right,NA,510,1806,1797,510,NA,2,legacy,5,1024,2,48000,-16,experiment,2,even,5,287742,278658,285511,1099,75117,285516,284447,1121,73319,289751,290262,286528,2938,289751,NA,Sternberg Task,40,25996,49,yes,1024
82,82,534.24,534.24,black,experiment,legacy,legacy,legacy,0,uniform,1,undefined,1,left,49,49,49,0,0,49,49,0,0,49,49,49,0,49,0,Mon Oct 16 11:09:59 2023,The main experiment item,yes,SternbergTask.osexp,/Users/Thingtwo/Desktop,no,mono,no,18,no,white,no,yes,768,legacy,37,11,/Users/Thingtwo/Desktop/Advanced Quant. Sternberg/NC-subject-2.csv,legacy,7 8 6 3 1,Lentiform Loewenfeld,3.3.14,5,y,0,left,left,right,left,NA,716,1806,1797,716,NA,2,legacy,5,1024,2,48000,-16,experiment,2,even,1,293566,290267,291332,1099,75117,291337,284447,1121,73319,295582,296299,292352,2938,295582,NA,Sternberg Task,41,26712,50,yes,1024
82.35294118,82.35294118,532.4313725490196,532.4313725490196,black,experiment,legacy,legacy,legacy,0,uniform,1,undefined,1,left,50,50,50,0,0,50,50,0,0,50,50,50,0,50,0,Mon Oct 16 11:09:59 2023,The main experiment item,yes,SternbergTask.osexp,/Users/Thingtwo/Desktop,no,mono,no,18,no,white,no,yes,768,legacy,38,11,/Users/Thingtwo/Desktop/Advanced Quant. Sternberg/NC-subject-2.csv,legacy,7 2 3,Lentiform Loewenfeld,3.3.14,3,y,0,left,left,right,left,NA,442,1806,1797,442,NA,2,legacy,3,1024,2,48000,-16,experiment,2,even,3,299606,296305,297370,1099,75117,297375,284447,1121,73319,301620,302062,298388,2938,301619,NA,Sternberg Task,42,27154,51,yes,1024
82.69230769,82.69230769,531.5384615384615,531.5384615384615,black,experiment,legacy,legacy,legacy,0,uniform,1,undefined,1,right,51,51,51,0,0,51,51,0,0,51,51,51,0,51,0,Mon Oct 16 11:09:59 2023,The main experiment item,yes,SternbergTask.osexp,/Users/Thingtwo/Desktop,no,mono,no,18,no,white,no,yes,768,legacy,39,11,/Users/Thingtwo/Desktop/Advanced Quant. Sternberg/NC-subject-2.csv,legacy,8 9,Lentiform Loewenfeld,3.3.14,0,n,0,right,left,right,right,NA,486,1806,1797,486,NA,2,legacy,2,1024,2,48000,-16,experiment,2,even,5,305363,302068,303132,1099,75117,303138,284447,1121,73319,307376,307863,304148,2938,307375,NA,Sternberg Task,43,27640,52,yes,1024
83.01886792452831,83.01886792452831,530.0188679245283,530.0188679245283,black,experiment,legacy,legacy,legacy,0,uniform,1,undefined,1,left,52,52,52,0,0,52,52,0,0,52,52,52,0,52,0,Mon Oct 16 11:09:59 2023,The main experiment item,yes,SternbergTask.osexp,/Users/Thingtwo/Desktop,no,mono,no,18,no,white,no,yes,768,legacy,40,11,/Users/Thingtwo/Desktop/Advanced Quant. Sternberg/NC-subject-2.csv,legacy,2 4 6 9,Lentiform Loewenfeld,3.3.14,3,y,0,left,left,right,left,NA,451,1806,1797,451,NA,2,legacy,4,1024,2,48000,-16,experiment,2,even,6,311164,307869,308933,1099,75117,308938,284447,1121,73319,313178,313630,309948,2938,313178,NA,Sternberg Task,44,28091,53,yes,1024
83.33333333333333,83.33333333333333,528.8148148148148,528.8148148148148,black,experiment,legacy,legacy,legacy,0,uniform,1,undefined,1,left,53,53,53,0,0,53,53,0,0,53,53,53,0,53,0,Mon Oct 16 11:09:59 2023,The main experiment item,yes,SternbergTask.osexp,/Users/Thingtwo/Desktop,no,mono,no,18,no,white,no,yes,768,legacy,41,11,/Users/Thingtwo/Desktop/Advanced Quant. Sternberg/NC-subject-2.csv,legacy,2 3,Lentiform Loewenfeld,3.3.14,1,y,0,left,left,right,left,NA,465,1806,1797,465,NA,2,legacy,2,1024,2,48000,-16,experiment,2,even,2,316930,313636,314700,1099,75117,314705,284447,1121,73319,318940,319407,315715,2938,318940,NA,Sternberg Task,45,28556,54,yes,1024
83.63636363636364,83.63636363636364,529.3636363636364,529.3636363636364,black,experiment,legacy,legacy,legacy,0,uniform,1,undefined,1,right,54,54,54,0,0,54,54,0,0,54,54,54,0,54,0,Mon Oct 16 11:09:59 2023,The main experiment item,yes,SternbergTask.osexp,/Users/Thingtwo/Desktop,no,mono,no,18,no,white,no,yes,768,legacy,42,11,/Users/Thingtwo/Desktop/Advanced Quant. Sternberg/NC-subject-2.csv,legacy,2 3 8 5 6 7,Lentiform Loewenfeld,3.3.14,0,n,0,right,left,right,right,NA,559,1806,1797,559,NA,2,legacy,6,1024,2,48000,-16,experiment,2,even,1,322717,319412,320484,1099,75117,320489,284447,1121,73319,324734,325294,321500,2938,324734,NA,Sternberg Task,46,29115,55,yes,1024
83.92857142857143,83.92857142857143,527.4821428571429,527.4821428571429,black,experiment,legacy,legacy,legacy,0,uniform,1,undefined,1,left,55,55,55,0,0,55,55,0,0,55,55,55,0,55,0,Mon Oct 16 11:09:59 2023,The main experiment item,yes,SternbergTask.osexp,/Users/Thingtwo/Desktop,no,mono,no,18,no,white,no,yes,768,legacy,43,11,/Users/Thingtwo/Desktop/Advanced Quant. Sternberg/NC-subject-2.csv,legacy,4,Lentiform Loewenfeld,3.3.14,1,y,0,left,left,right,left,NA,424,1806,1797,424,NA,2,legacy,1,1024,2,48000,-16,experiment,2,even,4,328596,325300,326365,1099,75117,326371,284447,1121,73319,330612,331037,327382,2938,330611,NA,Sternberg Task,47,29539,56,yes,1024
84.21052631578948,84.21052631578948,527.4736842105264,527.4736842105264,black,experiment,legacy,legacy,legacy,0,uniform,1,undefined,1,right,56,56,56,0,0,56,56,0,0,56,56,56,0,56,0,Mon Oct 16 11:09:59 2023,The main experiment item,yes,SternbergTask.osexp,/Users/Thingtwo/Desktop,no,mono,no,18,no,white,no,yes,768,legacy,44,11,/Users/Thingtwo/Desktop/Advanced Quant. Sternberg/NC-subject-2.csv,legacy,1 7 5 2,Lentiform Loewenfeld,3.3.14,0,n,0,right,left,right,right,NA,527,1806,1797,527,NA,2,legacy,4,1024,2,48000,-16,experiment,2,even,3,334345,331043,332109,1099,75117,332116,284447,1121,73319,336362,336890,333131,2938,336362,NA,Sternberg Task,48,30066,57,yes,1024
84.48275862068965,84.48275862068965,526.6724137931035,526.6724137931035,black,experiment,legacy,legacy,legacy,0,uniform,1,undefined,1,left,57,57,57,0,0,57,57,0,0,57,57,57,0,57,0,Mon Oct 16 11:09:59 2023,The main experiment item,yes,SternbergTask.osexp,/Users/Thingtwo/Desktop,no,mono,no,18,no,white,no,yes,768,legacy,45,11,/Users/Thingtwo/Desktop/Advanced Quant. Sternberg/NC-subject-2.csv,legacy,8 5 3 7 4 6,Lentiform Loewenfeld,3.3.14,6,y,0,left,left,right,left,NA,481,1806,1797,481,NA,2,legacy,6,1024,2,48000,-16,experiment,2,even,6,340194,336896,337960,1099,75117,337966,284447,1121,73319,342210,342692,338979,2938,342210,NA,Sternberg Task,49,30547,58,yes,1024
84.74576271,84.74576271,526.1694915254237,526.1694915254237,black,experiment,legacy,legacy,legacy,0,uniform,1,undefined,1,right,58,58,58,0,0,58,58,0,0,58,58,58,0,58,0,Mon Oct 16 11:09:59 2023,The main experiment item,yes,SternbergTask.osexp,/Users/Thingtwo/Desktop,no,mono,no,18,no,white,no,yes,768,legacy,46,11,/Users/Thingtwo/Desktop/Advanced Quant. Sternberg/NC-subject-2.csv,legacy,2 8 9,Lentiform Loewenfeld,3.3.14,0,n,0,right,left,right,right,NA,497,1806,1797,497,NA,2,legacy,3,1024,2,48000,-16,experiment,2,even,6,345997,342697,343764,1099,75117,343769,284447,1121,73319,348008,348506,344784,2938,348008,NA,Sternberg Task,50,31044,59,yes,1024
85,85,526.8,526.8,black,experiment,legacy,legacy,legacy,0,uniform,1,undefined,1,left,59,59,59,0,0,59,59,0,0,59,59,59,0,59,0,Mon Oct 16 11:09:59 2023,The main experiment item,yes,SternbergTask.osexp,/Users/Thingtwo/Desktop,no,mono,no,18,no,white,no,yes,768,legacy,47,11,/Users/Thingtwo/Desktop/Advanced Quant. Sternberg/NC-subject-2.csv,legacy,1 4 9 3 2 5,Lentiform Loewenfeld,3.3.14,3,y,0,left,left,right,left,NA,564,1806,1797,564,NA,2,legacy,6,1024,2,48000,-16,experiment,2,even,9,351809,348512,349577,1099,75117,349582,284447,1121,73319,353822,354387,350595,2938,353822,NA,Sternberg Task,51,31608,60,yes,1024
85.24590163934427,85.24590163934427,526.7377049180328,526.7377049180328,black,experiment,legacy,legacy,legacy,0,uniform,1,undefined,1,left,60,60,60,0,0,60,60,0,0,60,60,60,0,60,0,Mon Oct 16 11:09:59 2023,The main experiment item,yes,SternbergTask.osexp,/Users/Thingtwo/Desktop,no,mono,no,18,no,white,no,yes,768,legacy,48,11,/Users/Thingtwo/Desktop/Advanced Quant. Sternberg/NC-subject-2.csv,legacy,9 6 2 4 1,Lentiform Loewenfeld,3.3.14,4,y,0,left,left,right,left,NA,523,1806,1797,523,NA,2,legacy,5,1024,2,48000,-16,experiment,2,even,4,357689,354393,355457,1099,75117,355462,284447,1121,73319,359701,360226,356475,2938,359701,NA,Sternberg Task,52,32131,61,yes,1024
85.48387096774194,85.48387096774194,525.5322580645161,525.5322580645161,black,experiment,legacy,legacy,legacy,0,uniform,1,undefined,1,left,61,61,61,0,0,61,61,0,0,61,61,61,0,61,0,Mon Oct 16 11:09:59 2023,The main experiment item,yes,SternbergTask.osexp,/Users/Thingtwo/Desktop,no,mono,no,18,no,white,no,yes,768,legacy,49,11,/Users/Thingtwo/Desktop/Advanced Quant. Sternberg/NC-subject-2.csv,legacy,2 5 4 8 7,Lentiform Loewenfeld,3.3.14,3,y,0,left,left,right,left,NA,452,1806,1797,452,NA,2,legacy,5,1024,2,48000,-16,experiment,2,even,4,363531,360231,361296,1099,75117,361301,284447,1121,73319,365542,365996,362312,2938,365542,NA,Sternberg Task,53,32583,62,yes,1024
85.71428571428571,85.71428571428571,526.2857142857143,526.2857142857143,black,experiment,legacy,legacy,legacy,0,uniform,1,undefined,1,right,62,62,62,0,0,62,62,0,0,62,62,62,0,62,0,Mon Oct 16 11:09:59 2023,The main experiment item,yes,SternbergTask.osexp,/Users/Thingtwo/Desktop,no,mono,no,18,no,white,no,yes,768,legacy,50,11,/Users/Thingtwo/Desktop/Advanced Quant. Sternberg/NC-subject-2.csv,legacy,5 3 8 7 2 4,Lentiform Loewenfeld,3.3.14,0,n,0,right,left,right,right,NA,573,1806,1797,573,NA,2,legacy,6,1024,2,48000,-16,experiment,2,even,9,369297,366001,367067,1099,75117,367072,284447,1121,73319,371310,371884,368083,2938,371310,NA,Sternberg Task,54,33156,63,yes,1024
85.9375,85.9375,526.21875,526.21875,black,experiment,legacy,legacy,legacy,0,uniform,1,undefined,1,left,63,63,63,0,0,63,63,0,0,63,63,63,0,63,0,Mon Oct 16 11:09:59 2023,The main experiment item,yes,SternbergTask.osexp,/Users/Thingtwo/Desktop,no,mono,no,18,no,white,no,yes,768,legacy,51,11,/Users/Thingtwo/Desktop/Advanced Quant. Sternberg/NC-subject-2.csv,legacy,6 7 9 3 1 2,Lentiform Loewenfeld,3.3.14,1,y,0,left,left,right,left,NA,522,1806,1797,522,NA,2,legacy,6,1024,2,48000,-16,experiment,2,even,6,375188,371890,372955,1099,75117,372961,284447,1121,73319,377206,377729,373973,2938,377205,NA,Sternberg Task,55,33678,64,yes,1024
86.15384615384616,86.15384615384616,525.3076923076923,525.3076923076923,black,experiment,legacy,legacy,legacy,0,uniform,1,undefined,1,right,64,64,64,0,0,64,64,0,0,64,64,64,0,64,0,Mon Oct 16 11:09:59 2023,The main experiment item,yes,SternbergTask.osexp,/Users/Thingtwo/Desktop,no,mono,no,18,no,white,no,yes,768,legacy,52,11,/Users/Thingtwo/Desktop/Advanced Quant. Sternberg/NC-subject-2.csv,legacy,1 7 5 2 9,Lentiform Loewenfeld,3.3.14,0,n,0,right,left,right,right,NA,467,1806,1797,467,NA,2,legacy,5,1024,2,48000,-16,experiment,2,even,3,381034,377735,378800,1099,75117,378806,284447,1121,73319,383052,383521,379820,2938,383052,NA,Sternberg Task,56,34145,65,yes,1024
86.36363636363636,86.36363636363636,525.1818181818181,525.1818181818181,black,experiment,legacy,legacy,legacy,0,uniform,1,undefined,1,right,65,65,65,0,0,65,65,0,0,65,65,65,0,65,0,Mon Oct 16 11:09:59 2023,The main experiment item,yes,SternbergTask.osexp,/Users/Thingtwo/Desktop,no,mono,no,18,no,white,no,yes,768,legacy,53,11,/Users/Thingtwo/Desktop/Advanced Quant. Sternberg/NC-subject-2.csv,legacy,8 5 4 2 9 6,Lentiform Loewenfeld,3.3.14,0,n,0,right,left,right,right,NA,517,1806,1797,517,NA,2,legacy,6,1024,2,48000,-16,experiment,2,even,3,386824,383526,384591,1099,75117,384596,284447,1121,73319,388840,389358,385610,2938,388840,NA,Sternberg Task,57,34662,66,yes,1024
86.56716417910448,86.56716417910448,524.5522388059702,524.5522388059702,black,experiment,legacy,legacy,legacy,0,uniform,1,undefined,1,left,66,66,66,0,0,66,66,0,0,66,66,66,0,66,0,Mon Oct 16 11:09:59 2023,The main experiment item,yes,SternbergTask.osexp,/Users/Thingtwo/Desktop,no,mono,no,18,no,white,no,yes,768,legacy,54,11,/Users/Thingtwo/Desktop/Advanced Quant. Sternberg/NC-subject-2.csv,legacy,9 4 2,Lentiform Loewenfeld,3.3.14,1,y,0,left,left,right,left,NA,483,1806,1797,483,NA,2,legacy,3,1024,2,48000,-16,experiment,2,even,9,392663,389364,390428,1099,75117,390434,284447,1121,73319,394674,395158,391449,2938,394674,NA,Sternberg Task,58,35145,67,yes,1024
86.76470588235294,86.76470588235294,523.1323529411765,523.1323529411765,black,experiment,legacy,legacy,legacy,0,uniform,1,undefined,1,left,67,67,67,0,0,67,67,0,0,67,67,67,0,67,0,Mon Oct 16 11:09:59 2023,The main experiment item,yes,SternbergTask.osexp,/Users/Thingtwo/Desktop,no,mono,no,18,no,white,no,yes,768,legacy,55,11,/Users/Thingtwo/Desktop/Advanced Quant. Sternberg/NC-subject-2.csv,legacy,8 9 5 7 1 6,Lentiform Loewenfeld,3.3.14,4,y,0,left,left,right,left,NA,428,1806,1797,428,NA,2,legacy,6,1024,2,48000,-16,experiment,2,even,7,398460,395164,396229,1099,75117,396234,284447,1121,73319,400471,400901,397247,2938,400471,NA,Sternberg Task,59,35573,68,yes,1024
86.95652173913044,86.95652173913044,526.2173913043479,526.2173913043479,black,experiment,legacy,legacy,legacy,0,uniform,1,undefined,1,right,68,68,68,0,0,68,68,0,0,68,68,68,0,68,0,Mon Oct 16 11:09:59 2023,The main experiment item,yes,SternbergTask.osexp,/Users/Thingtwo/Desktop,no,mono,no,18,no,white,no,yes,768,legacy,56,11,/Users/Thingtwo/Desktop/Advanced Quant. Sternberg/NC-subject-2.csv,legacy,7 6 4 8 1 2,Lentiform Loewenfeld,3.3.14,0,n,0,right,left,right,right,NA,736,1806,1797,736,NA,2,legacy,6,1024,2,48000,-16,experiment,2,even,9,404200,400906,401970,1099,75117,401975,284447,1121,73319,406209,406946,402985,2938,406209,NA,Sternberg Task,60,36309,69,yes,1024
87.14285714285714,87.14285714285714,523.9,523.9,black,experiment,legacy,legacy,legacy,0,uniform,1,undefined,1,left,69,69,69,0,0,69,69,0,0,69,69,69,0,69,0,Mon Oct 16 11:09:59 2023,The main experiment item,yes,SternbergTask.osexp,/Users/Thingtwo/Desktop,no,mono,no,18,no,white,no,yes,768,legacy,57,11,/Users/Thingtwo/Desktop/Advanced Quant. Sternberg/NC-subject-2.csv,legacy,6 5,Lentiform Loewenfeld,3.3.14,2,y,0,left,left,right,left,NA,364,1806,1797,364,NA,2,legacy,2,1024,2,48000,-16,experiment,2,even,5,410249,406951,408016,1099,75117,408022,284447,1121,73319,412262,412626,409036,2938,412261,NA,Sternberg Task,61,36673,70,yes,1024
87.32394366197182,87.32394366197182,522.6478873239437,522.6478873239437,black,experiment,legacy,legacy,legacy,0,uniform,1,undefined,1,left,70,70,70,0,0,70,70,0,0,70,70,70,0,70,0,Mon Oct 16 11:09:59 2023,The main experiment item,yes,SternbergTask.osexp,/Users/Thingtwo/Desktop,no,mono,no,18,no,white,no,yes,768,legacy,58,11,/Users/Thingtwo/Desktop/Advanced Quant. Sternberg/NC-subject-2.csv,legacy,3 9 7 6 4,Lentiform Loewenfeld,3.3.14,3,y,0,left,left,right,left,NA,435,1806,1797,435,NA,2,legacy,5,1024,2,48000,-16,experiment,2,even,7,415927,412632,413698,1099,75117,413703,284447,1121,73319,417938,418374,414713,2938,417937,NA,Sternberg Task,62,37108,71,yes,1024
87.5,87.5,522.875,522.875,black,experiment,legacy,legacy,legacy,0,uniform,1,undefined,1,left,71,71,71,0,0,71,71,0,0,71,71,71,0,71,0,Mon Oct 16 11:09:59 2023,The main experiment item,yes,SternbergTask.osexp,/Users/Thingtwo/Desktop,no,mono,no,18,no,white,no,yes,768,legacy,59,11,/Users/Thingtwo/Desktop/Advanced Quant. Sternberg/NC-subject-2.csv,legacy,7 6,Lentiform Loewenfeld,3.3.14,2,y,0,left,left,right,left,NA,539,1806,1797,539,NA,2,legacy,2,1024,2,48000,-16,experiment,2,even,6,421676,418380,419445,1099,75117,419450,284447,1121,73319,423687,424227,420461,2938,423687,NA,Sternberg Task,63,37647,72,yes,1024
87.67123287671232,87.67123287671232,522.0821918,522.0821918,black,experiment,legacy,legacy,legacy,0,uniform,1,undefined,1,right,72,72,72,0,0,72,72,0,0,72,72,72,0,72,0,Mon Oct 16 11:09:59 2023,The main experiment item,yes,SternbergTask.osexp,/Users/Thingtwo/Desktop,no,mono,no,18,no,white,no,yes,768,legacy,60,11,/Users/Thingtwo/Desktop/Advanced Quant. Sternberg/NC-subject-2.csv,legacy,2 8 6 3 1,Lentiform Loewenfeld,3.3.14,0,n,0,right,left,right,right,NA,465,1806,1797,465,NA,2,legacy,5,1024,2,48000,-16,experiment,2,even,7,427526,424233,425299,1099,75117,425305,284447,1121,73319,429538,430004,426314,2938,429538,NA,Sternberg Task,64,38112,73,yes,1024
87.83783783783784,87.83783783783784,524.4864864864865,524.4864864864865,black,experiment,legacy,legacy,legacy,0,uniform,1,undefined,1,right,73,73,73,0,0,73,73,0,0,73,73,73,0,73,0,Mon Oct 16 11:09:59 2023,The main experiment item,yes,SternbergTask.osexp,/Users/Thingtwo/Desktop,no,mono,no,18,no,white,no,yes,768,legacy,61,11,/Users/Thingtwo/Desktop/Advanced Quant. Sternberg/NC-subject-2.csv,legacy,4 2 6 9,Lentiform Loewenfeld,3.3.14,0,n,0,right,left,right,right,NA,700,1806,1797,700,NA,2,legacy,4,1024,2,48000,-16,experiment,2,even,7,433302,430010,431073,1099,75117,431078,284447,1121,73319,435312,436013,432089,2938,435312,NA,Sternberg Task,65,38812,74,yes,1024
88,88,524,524,black,experiment,legacy,legacy,legacy,0,uniform,1,undefined,1,right,74,74,74,0,0,74,74,0,0,74,74,74,0,74,0,Mon Oct 16 11:09:59 2023,The main experiment item,yes,SternbergTask.osexp,/Users/Thingtwo/Desktop,no,mono,no,18,no,white,no,yes,768,legacy,62,11,/Users/Thingtwo/Desktop/Advanced Quant. Sternberg/NC-subject-2.csv,legacy,1 4 9 2 5,Lentiform Loewenfeld,3.3.14,0,n,0,right,left,right,right,NA,488,1806,1797,488,NA,2,legacy,5,1024,2,48000,-16,experiment,2,even,7,439318,436018,437085,1099,75117,437090,284447,1121,73319,441334,441823,438103,2938,441334,NA,Sternberg Task,66,39300,75,yes,1024
88.15789473684211,88.15789473684211,528.1710526,528.1710526,black,experiment,legacy,legacy,legacy,0,uniform,1,undefined,1,right,75,75,75,0,0,75,75,0,0,75,75,75,0,75,0,Mon Oct 16 11:09:59 2023,The main experiment item,yes,SternbergTask.osexp,/Users/Thingtwo/Desktop,no,mono,no,18,no,white,no,yes,768,legacy,63,11,/Users/Thingtwo/Desktop/Advanced Quant. Sternberg/NC-subject-2.csv,legacy,8 2 1 4 5 9,Lentiform Loewenfeld,3.3.14,0,n,0,right,left,right,right,NA,841,1806,1797,841,NA,2,legacy,6,1024,2,48000,-16,experiment,2,even,7,445126,441829,442892,1099,75117,442897,284447,1121,73319,447135,447978,443908,2938,447135,NA,Sternberg Task,67,40141,76,yes,1024
88.31168831168831,88.31168831168831,528.5584415584416,528.5584415584416,black,experiment,legacy,legacy,legacy,0,uniform,1,undefined,1,right,76,76,76,0,0,76,76,0,0,76,76,76,0,76,0,Mon Oct 16 11:09:59 2023,The main experiment item,yes,SternbergTask.osexp,/Users/Thingtwo/Desktop,no,mono,no,18,no,white,no,yes,768,legacy,64,11,/Users/Thingtwo/Desktop/Advanced Quant. Sternberg/NC-subject-2.csv,legacy,6 9 4 5 2,Lentiform Loewenfeld,3.3.14,0,n,0,right,left,right,right,NA,558,1806,1797,558,NA,2,legacy,5,1024,2,48000,-16,experiment,2,even,1,451283,447983,449048,1099,75117,449054,284447,1121,73319,453294,453854,450066,2938,453294,NA,Sternberg Task,68,40699,77,yes,1024
88.46153846153847,88.46153846153847,527.8974358974359,527.8974358974359,black,experiment,legacy,legacy,legacy,0,uniform,1,undefined,1,right,77,77,77,0,0,77,77,0,0,77,77,77,0,77,0,Mon Oct 16 11:09:59 2023,The main experiment item,yes,SternbergTask.osexp,/Users/Thingtwo/Desktop,no,mono,no,18,no,white,no,yes,768,legacy,65,11,/Users/Thingtwo/Desktop/Advanced Quant. Sternberg/NC-subject-2.csv,legacy,7 1,Lentiform Loewenfeld,3.3.14,0,n,0,right,left,right,right,NA,477,1806,1797,477,NA,2,legacy,2,1024,2,48000,-16,experiment,2,even,8,457161,453859,454926,1099,75117,454932,284447,1121,73319,459177,459655,455946,2938,459176,NA,Sternberg Task,69,41176,78,yes,1024
88.60759493670886,88.60759493670886,529.7974683544304,529.7974683544304,black,experiment,legacy,legacy,legacy,0,uniform,1,undefined,1,right,78,78,78,0,0,78,78,0,0,78,78,78,0,78,0,Mon Oct 16 11:09:59 2023,The main experiment item,yes,SternbergTask.osexp,/Users/Thingtwo/Desktop,no,mono,no,18,no,white,no,yes,768,legacy,66,11,/Users/Thingtwo/Desktop/Advanced Quant. Sternberg/NC-subject-2.csv,legacy,3 9 8 1 6 4,Lentiform Loewenfeld,3.3.14,0,n,0,right,left,right,right,NA,678,1806,1797,678,NA,2,legacy,6,1024,2,48000,-16,experiment,2,even,7,462958,459661,460723,1099,75117,460728,284447,1121,73319,464973,465652,461744,2938,464973,NA,Sternberg Task,70,41854,79,yes,1024
88.75,88.75,533.9375,533.9375,black,experiment,legacy,legacy,legacy,0,uniform,1,undefined,1,left,79,79,79,0,0,79,79,0,0,79,79,79,0,79,0,Mon Oct 16 11:09:59 2023,The main experiment item,yes,SternbergTask.osexp,/Users/Thingtwo/Desktop,no,mono,no,18,no,white,no,yes,768,legacy,67,11,/Users/Thingtwo/Desktop/Advanced Quant. Sternberg/NC-subject-2.csv,legacy,3 2 1 4 7,Lentiform Loewenfeld,3.3.14,2,y,0,left,left,right,left,NA,861,1806,1797,861,NA,2,legacy,5,1024,2,48000,-16,experiment,2,even,2,468956,465658,466722,1099,75117,466727,284447,1121,73319,470970,471832,467741,2938,470969,NA,Sternberg Task,71,42715,80,yes,1024
88.88888888888889,88.88888888888889,533.6049383,533.6049383,black,experiment,legacy,legacy,legacy,0,uniform,1,undefined,1,left,80,80,80,0,0,80,80,0,0,80,80,80,0,80,0,Mon Oct 16 11:09:59 2023,The main experiment item,yes,SternbergTask.osexp,/Users/Thingtwo/Desktop,no,mono,no,18,no,white,no,yes,768,legacy,68,11,/Users/Thingtwo/Desktop/Advanced Quant. Sternberg/NC-subject-2.csv,legacy,8 7 3,Lentiform Loewenfeld,3.3.14,1,y,0,left,left,right,left,NA,507,1806,1797,507,NA,2,legacy,3,1024,2,48000,-16,experiment,2,even,8,475136,471837,472903,1099,75117,472909,284447,1121,73319,477150,477658,473922,2938,477150,NA,Sternberg Task,72,43222,81,yes,1024
89.02439024390245,89.02439024390245,533.6219512195122,533.6219512195122,black,experiment,legacy,legacy,legacy,0,uniform,1,undefined,1,right,81,81,81,0,0,81,81,0,0,81,81,81,0,81,0,Mon Oct 16 11:09:59 2023,The main experiment item,yes,SternbergTask.osexp,/Users/Thingtwo/Desktop,no,mono,no,18,no,white,no,yes,768,legacy,69,11,/Users/Thingtwo/Desktop/Advanced Quant. Sternberg/NC-subject-2.csv,legacy,4 2 7 6 1 3,Lentiform Loewenfeld,3.3.14,0,n,0,right,left,right,right,NA,535,1806,1797,535,NA,2,legacy,6,1024,2,48000,-16,experiment,2,even,8,480960,477664,478728,1099,75117,478734,284447,1121,73319,482973,483510,479744,2938,482973,NA,Sternberg Task,73,43757,82,yes,1024
89.15662651,89.15662651,534.4216867469879,534.4216867469879,black,experiment,legacy,legacy,legacy,0,uniform,1,undefined,1,left,82,82,82,0,0,82,82,0,0,82,82,82,0,82,0,Mon Oct 16 11:09:59 2023,The main experiment item,yes,SternbergTask.osexp,/Users/Thingtwo/Desktop,no,mono,no,18,no,white,no,yes,768,legacy,70,11,/Users/Thingtwo/Desktop/Advanced Quant. Sternberg/NC-subject-2.csv,legacy,3 5 7 1,Lentiform Loewenfeld,3.3.14,3,y,0,left,left,right,left,NA,600,1806,1797,600,NA,2,legacy,4,1024,2,48000,-16,experiment,2,even,7,486808,483515,484578,1099,75117,484583,284447,1121,73319,488818,489419,485594,2938,488818,NA,Sternberg Task,74,44357,83,yes,1024
88.0952381,88.0952381,534.3809523809524,534.3809523809524,black,experiment,legacy,legacy,legacy,0,uniform,0,undefined,0,left,83,83,83,0,0,83,83,0,0,83,83,83,0,83,0,Mon Oct 16 11:09:59 2023,The main experiment item,yes,SternbergTask.osexp,/Users/Thingtwo/Desktop,no,mono,no,18,no,white,no,yes,768,legacy,71,11,/Users/Thingtwo/Desktop/Advanced Quant. Sternberg/NC-subject-2.csv,legacy,3 5 9 6 2 4,Lentiform Loewenfeld,3.3.14,1,y,0,right,left,right,right,NA,531,1806,1797,531,NA,2,legacy,6,1024,2,48000,-16,experiment,2,even,3,492720,489424,490488,1099,75117,490494,284447,1121,73319,494739,495271,491506,2938,494739,NA,Sternberg Task,74,44888,84,yes,1024
88.23529411764706,88.23529411764706,533.6588235294117,533.6588235294117,black,experiment,legacy,legacy,legacy,0,uniform,1,undefined,1,left,84,84,84,0,0,84,84,0,0,84,84,84,0,84,0,Mon Oct 16 11:09:59 2023,The main experiment item,yes,SternbergTask.osexp,/Users/Thingtwo/Desktop,no,mono,no,18,no,white,no,yes,768,legacy,72,11,/Users/Thingtwo/Desktop/Advanced Quant. Sternberg/NC-subject-2.csv,legacy,5 2 6,Lentiform Loewenfeld,3.3.14,2,y,0,left,left,right,left,NA,473,1806,1797,473,NA,2,legacy,3,1024,2,48000,-16,experiment,2,even,2,498573,489424,496342,1099,75117,496348,495277,1121,73319,500583,501057,497360,2938,500583,NA,Sternberg Task,75,45361,85,yes,1024
88.37209302325581,88.37209302325581,532.1162790697674,532.1162790697674,black,experiment,legacy,legacy,legacy,0,uniform,1,undefined,1,right,85,85,85,0,0,85,85,0,0,85,85,85,0,85,0,Mon Oct 16 11:09:59 2023,The main experiment item,yes,SternbergTask.osexp,/Users/Thingtwo/Desktop,no,mono,no,18,no,white,no,yes,768,legacy,73,11,/Users/Thingtwo/Desktop/Advanced Quant. Sternberg/NC-subject-2.csv,legacy,9,Lentiform Loewenfeld,3.3.14,0,n,0,right,left,right,right,NA,401,1806,1797,401,NA,2,legacy,1,1024,2,48000,-16,experiment,2,even,6,504355,501062,502125,1099,75117,502130,495277,1121,73319,506368,506770,503142,2938,506368,NA,Sternberg Task,76,45762,86,yes,1024
88.50574712643679,88.50574712643679,530.8965517241379,530.8965517241379,black,experiment,legacy,legacy,legacy,0,uniform,1,undefined,1,left,86,86,86,0,0,86,86,0,0,86,86,86,0,86,0,Mon Oct 16 11:09:59 2023,The main experiment item,yes,SternbergTask.osexp,/Users/Thingtwo/Desktop,no,mono,no,18,no,white,no,yes,768,legacy,74,11,/Users/Thingtwo/Desktop/Advanced Quant. Sternberg/NC-subject-2.csv,legacy,3 4,Lentiform Loewenfeld,3.3.14,1,y,0,left,left,right,left,NA,426,1806,1797,426,NA,2,legacy,2,1024,2,48000,-16,experiment,2,even,3,510070,506776,507837,1099,75117,507842,495277,1121,73319,512084,512511,508854,2938,512084,NA,Sternberg Task,77,46188,87,yes,1024
87.5,87.5,530.6590909090909,530.6590909090909,black,experiment,legacy,legacy,legacy,0,uniform,0,undefined,0,left,87,87,87,0,0,87,87,0,0,87,87,87,0,87,0,Mon Oct 16 11:09:59 2023,The main experiment item,yes,SternbergTask.osexp,/Users/Thingtwo/Desktop,no,mono,no,18,no,white,no,yes,768,legacy,75,11,/Users/Thingtwo/Desktop/Advanced Quant. Sternberg/NC-subject-2.csv,legacy,7 8 4 6 9 5,Lentiform Loewenfeld,3.3.14,4,y,0,right,left,right,right,NA,510,1806,1797,510,NA,2,legacy,6,1024,2,48000,-16,experiment,2,even,6,515816,512517,513582,1099,75117,513587,495277,1121,73319,517834,518345,514601,2938,517834,NA,Sternberg Task,77,46698,88,yes,1024
87.64044943820225,87.64044943820225,529.7303370786517,529.7303370786517,black,experiment,legacy,legacy,legacy,0,uniform,1,undefined,1,left,88,88,88,0,0,88,88,0,0,88,88,88,0,88,0,Mon Oct 16 11:09:59 2023,The main experiment item,yes,SternbergTask.osexp,/Users/Thingtwo/Desktop,no,mono,no,18,no,white,no,yes,768,legacy,76,11,/Users/Thingtwo/Desktop/Advanced Quant. Sternberg/NC-subject-2.csv,legacy,9 8 4,Lentiform Loewenfeld,3.3.14,1,y,0,left,left,right,left,NA,448,1806,1797,448,NA,2,legacy,3,1024,2,48000,-16,experiment,2,even,9,521652,512517,519418,1099,75117,519424,518351,1121,73319,523668,524117,520436,2938,523668,NA,Sternberg Task,78,47146,89,yes,1024
87.77777777777777,87.77777777777777,529.6111111111111,529.6111111111111,black,experiment,legacy,legacy,legacy,0,uniform,1,undefined,1,right,89,89,89,0,0,89,89,0,0,89,89,89,0,89,0,Mon Oct 16 11:09:59 2023,The main experiment item,yes,SternbergTask.osexp,/Users/Thingtwo/Desktop,no,mono,no,18,no,white,no,yes,768,legacy,77,11,/Users/Thingtwo/Desktop/Advanced Quant. Sternberg/NC-subject-2.csv,legacy,6 3 1 7 9 8,Lentiform Loewenfeld,3.3.14,0,n,0,right,left,right,right,NA,519,1806,1797,519,NA,2,legacy,6,1024,2,48000,-16,experiment,2,even,4,527422,524123,525187,1099,75117,525193,518351,1121,73319,529439,529959,526205,2938,529439,NA,Sternberg Task,79,47665,90,yes,1024
87.91208791208791,87.91208791208791,527.9230769230769,527.9230769230769,black,experiment,legacy,legacy,legacy,0,uniform,1,undefined,1,left,90,90,90,0,0,90,90,0,0,90,90,90,0,90,0,Mon Oct 16 11:09:59 2023,The main experiment item,yes,SternbergTask.osexp,/Users/Thingtwo/Desktop,no,mono,no,18,no,white,no,yes,768,legacy,78,11,/Users/Thingtwo/Desktop/Advanced Quant. Sternberg/NC-subject-2.csv,legacy,4 6 5 8,Lentiform Loewenfeld,3.3.14,1,y,0,left,left,right,left,NA,376,1806,1797,376,NA,2,legacy,4,1024,2,48000,-16,experiment,2,even,4,533266,529964,531032,1099,75117,531038,518351,1121,73319,535282,535659,532052,2938,535281,NA,Sternberg Task,80,48041,91,yes,1024
88.04347826086956,88.04347826086956,528.9565217391304,528.9565217391304,black,experiment,legacy,legacy,legacy,0,uniform,1,undefined,1,left,91,91,91,0,0,91,91,0,0,91,91,91,0,91,0,Mon Oct 16 11:09:59 2023,The main experiment item,yes,SternbergTask.osexp,/Users/Thingtwo/Desktop,no,mono,no,18,no,white,no,yes,768,legacy,79,11,/Users/Thingtwo/Desktop/Advanced Quant. Sternberg/NC-subject-2.csv,legacy,4 9 7 8 5 3,Lentiform Loewenfeld,3.3.14,4,y,0,left,left,right,left,NA,623,1806,1797,623,NA,2,legacy,6,1024,2,48000,-16,experiment,2,even,8,538960,535664,536727,1099,75117,536732,518351,1121,73319,540975,541599,537746,2938,540975,NA,Sternberg Task,81,48664,92,yes,1024
88.17204301075269,88.17204301075269,528.0860215053764,528.0860215053764,black,experiment,legacy,legacy,legacy,0,uniform,1,undefined,1,left,92,92,92,0,0,92,92,0,0,92,92,92,0,92,0,Mon Oct 16 11:09:59 2023,The main experiment item,yes,SternbergTask.osexp,/Users/Thingtwo/Desktop,no,mono,no,18,no,white,no,yes,768,legacy,80,11,/Users/Thingtwo/Desktop/Advanced Quant. Sternberg/NC-subject-2.csv,legacy,8,Lentiform Loewenfeld,3.3.14,1,y,0,left,left,right,left,NA,448,1806,1797,448,NA,2,legacy,1,1024,2,48000,-16,experiment,2,even,8,544908,541605,542670,1099,75117,542676,518351,1121,73319,546915,547364,543690,2938,546915,NA,Sternberg Task,82,49112,93,yes,1024
88.29787234042553,88.29787234042553,527.5425531914893,527.5425531914893,black,experiment,legacy,legacy,legacy,0,uniform,1,undefined,1,right,93,93,93,0,0,93,93,0,0,93,93,93,0,93,0,Mon Oct 16 11:09:59 2023,The main experiment item,yes,SternbergTask.osexp,/Users/Thingtwo/Desktop,no,mono,no,18,no,white,no,yes,768,legacy,81,11,/Users/Thingtwo/Desktop/Advanced Quant. Sternberg/NC-subject-2.csv,legacy,6 7 5 9,Lentiform Loewenfeld,3.3.14,0,n,0,right,left,right,right,NA,477,1806,1797,477,NA,2,legacy,4,1024,2,48000,-16,experiment,2,even,2,550664,547370,548435,1099,75117,548440,518351,1121,73319,552678,553157,549451,2938,552678,NA,Sternberg Task,83,49589,94,yes,1024
88.42105263157895,88.42105263157895,529.5894736842105,529.5894736842105,black,experiment,legacy,legacy,legacy,0,uniform,1,undefined,1,right,94,94,94,0,0,94,94,0,0,94,94,94,0,94,0,Mon Oct 16 11:09:59 2023,The main experiment item,yes,SternbergTask.osexp,/Users/Thingtwo/Desktop,no,mono,no,18,no,white,no,yes,768,legacy,82,11,/Users/Thingtwo/Desktop/Advanced Quant. Sternberg/NC-subject-2.csv,legacy,6 9 4 5 3 2,Lentiform Loewenfeld,3.3.14,0,n,0,right,left,right,right,NA,722,1806,1797,722,NA,2,legacy,6,1024,2,48000,-16,experiment,2,even,8,556455,553162,554226,1099,75117,554231,518351,1121,73319,558471,559195,555241,2938,558471,NA,Sternberg Task,84,50311,95,yes,1024
88.54166666666667,88.54166666666667,530.3229166666666,530.3229166666666,black,experiment,legacy,legacy,legacy,0,uniform,1,undefined,1,right,95,95,95,0,0,95,95,0,0,95,95,95,0,95,0,Mon Oct 16 11:09:59 2023,The main experiment item,yes,SternbergTask.osexp,/Users/Thingtwo/Desktop,no,mono,no,18,no,white,no,yes,768,legacy,83,11,/Users/Thingtwo/Desktop/Advanced Quant. Sternberg/NC-subject-2.csv,legacy,7 9 1 6,Lentiform Loewenfeld,3.3.14,0,n,0,right,left,right,right,NA,600,1806,1797,600,NA,2,legacy,4,1024,2,48000,-16,experiment,2,even,4,562495,559200,560264,1099,75117,560269,518351,1121,73319,564505,565106,561280,2938,564505,NA,Sternberg Task,85,50911,96,yes,1024
87.62886597938144,87.62886597938144,529.9896907216495,529.9896907216495,black,experiment,legacy,legacy,legacy,0,uniform,0,undefined,0,right,96,96,96,0,0,96,96,0,0,96,96,96,0,96,0,Mon Oct 16 11:09:59 2023,The main experiment item,yes,SternbergTask.osexp,/Users/Thingtwo/Desktop,no,mono,no,18,no,white,no,yes,768,legacy,84,11,/Users/Thingtwo/Desktop/Advanced Quant. Sternberg/NC-subject-2.csv,legacy,8 4 3 9,Lentiform Loewenfeld,3.3.14,0,n,0,left,left,right,left,NA,498,1806,1797,498,NA,2,legacy,4,1024,2,48000,-16,experiment,2,even,5,568401,565112,566173,1099,75117,566178,518351,1121,73319,570412,570911,567188,2938,570412,NA,Sternberg Task,85,51409,97,yes,1024
86.73469387755102,86.73469387755102,534.1122448979592,534.1122448979592,black,experiment,legacy,legacy,legacy,0,uniform,0,undefined,0,left,97,97,97,0,0,97,97,0,0,97,97,97,0,97,0,Mon Oct 16 11:09:59 2023,The main experiment item,yes,SternbergTask.osexp,/Users/Thingtwo/Desktop,no,mono,no,18,no,white,no,yes,768,legacy,85,11,/Users/Thingtwo/Desktop/Advanced Quant. Sternberg/NC-subject-2.csv,legacy,4 6 2 5 1,Lentiform Loewenfeld,3.3.14,5,y,0,right,left,right,right,NA,934,1806,1797,934,NA,2,legacy,5,1024,2,48000,-16,experiment,2,even,1,574212,565112,571982,1099,75117,571987,570917,1121,73319,576224,577159,572997,2938,576224,NA,Sternberg Task,85,52343,98,yes,1024
86.86868686868686,86.86868686868686,534.7676767676768,534.7676767676768,black,experiment,legacy,legacy,legacy,0,uniform,1,undefined,1,left,98,98,98,0,0,98,98,0,0,98,98,98,0,98,0,Mon Oct 16 11:09:59 2023,The main experiment item,yes,SternbergTask.osexp,/Users/Thingtwo/Desktop,no,mono,no,18,no,white,no,yes,768,legacy,86,11,/Users/Thingtwo/Desktop/Advanced Quant. Sternberg/NC-subject-2.csv,legacy,9 5 3 8 4,Lentiform Loewenfeld,3.3.14,1,y,0,left,left,right,left,NA,599,1806,1797,599,NA,2,legacy,5,1024,2,48000,-16,experiment,2,even,9,580460,565112,578230,1099,75117,578235,577164,1121,73319,582472,583072,579247,2938,582472,NA,Sternberg Task,86,52942,99,yes,1024
87,87,533.81,533.81,black,experiment,legacy,legacy,legacy,0,uniform,1,undefined,1,right,99,99,99,0,0,99,99,0,0,99,99,99,0,99,0,Mon Oct 16 11:09:59 2023,The main experiment item,yes,SternbergTask.osexp,/Users/Thingtwo/Desktop,no,mono,no,18,no,white,no,yes,768,legacy,87,11,/Users/Thingtwo/Desktop/Advanced Quant. Sternberg/NC-subject-2.csv,legacy,5,Lentiform Loewenfeld,3.3.14,0,n,0,right,left,right,right,NA,439,1806,1797,439,NA,2,legacy,1,1024,2,48000,-16,experiment,2,even,8,586375,583078,584143,1099,75117,584148,577164,1121,73319,588392,588832,585161,2938,588392,NA,Sternberg Task,87,53381,100,yes,1024
87.12871287128714,87.12871287128714,533.7029702970297,533.7029702970297,black,experiment,legacy,legacy,legacy,0,uniform,1,undefined,1,right,100,100,100,0,0,100,100,0,0,100,100,100,0,100,0,Mon Oct 16 11:09:59 2023,The main experiment item,yes,SternbergTask.osexp,/Users/Thingtwo/Desktop,no,mono,no,18,no,white,no,yes,768,legacy,88,11,/Users/Thingtwo/Desktop/Advanced Quant. Sternberg/NC-subject-2.csv,legacy,7 9,Lentiform Loewenfeld,3.3.14,0,n,0,right,left,right,right,NA,523,1806,1797,523,NA,2,legacy,2,1024,2,48000,-16,experiment,2,even,1,592130,588838,589902,1099,75117,589907,577164,1121,73319,594142,594666,590918,2938,594142,NA,Sternberg Task,88,53904,101,yes,1024
86.27450980392157,86.27450980392157,533.9313725490196,533.9313725490196,black,experiment,legacy,legacy,legacy,0,uniform,0,undefined,0,left,101,101,101,0,0,101,101,0,0,101,101,101,0,101,0,Mon Oct 16 11:09:59 2023,The main experiment item,yes,SternbergTask.osexp,/Users/Thingtwo/Desktop,no,mono,no,18,no,white,no,yes,768,legacy,89,11,/Users/Thingtwo/Desktop/Advanced Quant. Sternberg/NC-subject-2.csv,legacy,3 4 9 6 2 9,Lentiform Loewenfeld,3.3.14,5,y,0,right,left,right,right,NA,557,1806,1797,557,NA,2,legacy,6,1024,2,48000,-16,experiment,2,even,2,597968,594671,595737,1099,75117,595742,577164,1121,73319,599979,600537,596755,2938,599978,NA,Sternberg Task,88,54461,102,yes,1024
86.40776699029126,86.40776699029126,533.8834951456311,533.8834951456311,black,experiment,legacy,legacy,legacy,0,uniform,1,undefined,1,left,102,102,102,0,0,102,102,0,0,102,102,102,0,102,0,Mon Oct 16 11:09:59 2023,The main experiment item,yes,SternbergTask.osexp,/Users/Thingtwo/Desktop,no,mono,no,18,no,white,no,yes,768,legacy,90,11,/Users/Thingtwo/Desktop/Advanced Quant. Sternberg/NC-subject-2.csv,legacy,7,Lentiform Loewenfeld,3.3.14,1,y,0,left,left,right,left,NA,529,1806,1797,529,NA,2,legacy,1,1024,2,48000,-16,experiment,2,even,7,603837,594671,601606,1099,75117,601611,600542,1121,73319,605847,606377,602622,2938,605847,NA,Sternberg Task,89,54990,103,yes,1024
86.53846153846153,86.53846153846153,534.0865384615385,534.0865384615385,black,experiment,legacy,legacy,legacy,0,uniform,1,undefined,1,right,103,103,103,0,0,103,103,0,0,103,103,103,0,103,0,Mon Oct 16 11:09:59 2023,The main experiment item,yes,SternbergTask.osexp,/Users/Thingtwo/Desktop,no,mono,no,18,no,white,no,yes,768,legacy,91,11,/Users/Thingtwo/Desktop/Advanced Quant. Sternberg/NC-subject-2.csv,legacy,1 4 3 6 5,Lentiform Loewenfeld,3.3.14,0,n,0,right,left,right,right,NA,555,1806,1797,555,NA,2,legacy,5,1024,2,48000,-16,experiment,2,even,8,609677,606383,607447,1099,75117,607452,600542,1121,73319,611688,612244,608462,2938,611688,NA,Sternberg Task,90,55545,104,yes,1024
86.66666666666667,86.66666666666667,534.9714285714285,534.9714285714285,black,experiment,legacy,legacy,legacy,0,uniform,1,undefined,1,right,104,104,104,0,0,104,104,0,0,104,104,104,0,104,0,Mon Oct 16 11:09:59 2023,The main experiment item,yes,SternbergTask.osexp,/Users/Thingtwo/Desktop,no,mono,no,18,no,white,no,yes,768,legacy,92,11,/Users/Thingtwo/Desktop/Advanced Quant. Sternberg/NC-subject-2.csv,legacy,8 4 3 5,Lentiform Loewenfeld,3.3.14,0,n,0,right,left,right,right,NA,627,1806,1797,627,NA,2,legacy,4,1024,2,48000,-16,experiment,2,even,6,615544,612250,613314,1099,75117,613319,600542,1121,73319,617555,618184,614330,2938,617554,NA,Sternberg Task,91,56172,105,yes,1024
85.84905660377359,85.84905660377359,534.0566037735849,534.0566037735849,black,experiment,legacy,legacy,legacy,0,uniform,0,undefined,0,right,105,105,105,0,0,105,105,0,0,105,105,105,0,105,0,Mon Oct 16 11:09:59 2023,The main experiment item,yes,SternbergTask.osexp,/Users/Thingtwo/Desktop,no,mono,no,18,no,white,no,yes,768,legacy,93,11,/Users/Thingtwo/Desktop/Advanced Quant. Sternberg/NC-subject-2.csv,legacy,7 1 8 4 9 3,Lentiform Loewenfeld,3.3.14,0,n,0,left,left,right,left,NA,438,1806,1797,438,NA,2,legacy,6,1024,2,48000,-16,experiment,2,even,6,621483,618190,619254,1099,75117,619259,600542,1121,73319,623494,623934,620270,2938,623493,NA,Sternberg Task,91,56610,106,yes,1024
85.04672897196262,85.04672897196262,533.0747663551402,533.0747663551402,black,experiment,legacy,legacy,legacy,0,uniform,0,undefined,0,left,106,106,106,0,0,106,106,0,0,106,106,106,0,106,0,Mon Oct 16 11:09:59 2023,The main experiment item,yes,SternbergTask.osexp,/Users/Thingtwo/Desktop,no,mono,no,18,no,white,no,yes,768,legacy,94,11,/Users/Thingtwo/Desktop/Advanced Quant. Sternberg/NC-subject-2.csv,legacy,3 9 6 2,Lentiform Loewenfeld,3.3.14,4,y,0,right,left,right,right,NA,429,1806,1797,429,NA,2,legacy,4,1024,2,48000,-16,experiment,2,even,2,627229,618190,625000,1099,75117,625005,623939,1121,73319,629239,629670,626016,2938,629239,NA,Sternberg Task,91,57039,107,yes,1024
85.18518518518519,85.18518518518519,533.2685185185185,533.2685185185185,black,experiment,legacy,legacy,legacy,0,uniform,1,undefined,1,right,107,107,107,0,0,107,107,0,0,107,107,107,0,107,0,Mon Oct 16 11:09:59 2023,The main experiment item,yes,SternbergTask.osexp,/Users/Thingtwo/Desktop,no,mono,no,18,no,white,no,yes,768,legacy,95,11,/Users/Thingtwo/Desktop/Advanced Quant. Sternberg/NC-subject-2.csv,legacy,7 8 6 1,Lentiform Loewenfeld,3.3.14,0,n,0,right,left,right,right,NA,554,1806,1797,554,NA,2,legacy,4,1024,2,48000,-16,experiment,2,even,3,632966,618190,630737,1099,75117,630742,629676,1121,73319,634977,635532,631753,2938,634977,NA,Sternberg Task,92,57593,108,yes,1024
85.32110092,85.32110092,534.5229357798165,534.5229357798165,black,experiment,legacy,legacy,legacy,0,uniform,1,undefined,1,right,108,108,108,0,0,108,108,0,0,108,108,108,0,108,0,Mon Oct 16 11:09:59 2023,The main experiment item,yes,SternbergTask.osexp,/Users/Thingtwo/Desktop,no,mono,no,18,no,white,no,yes,768,legacy,96,11,/Users/Thingtwo/Desktop/Advanced Quant. Sternberg/NC-subject-2.csv,legacy,2 7 5,Lentiform Loewenfeld,3.3.14,0,n,0,right,left,right,right,NA,670,1806,1797,670,NA,2,legacy,3,1024,2,48000,-16,experiment,2,even,8,638825,635538,636598,1099,75117,636603,629676,1121,73319,640837,641508,637613,2938,640837,NA,Sternberg Task,93,58263,109,yes,1024
84.54545454545455,84.54545454545455,537.3090909090909,537.3090909090909,black,experiment,legacy,legacy,legacy,0,uniform,0,undefined,0,left,109,109,109,0,0,109,109,0,0,109,109,109,0,109,0,Mon Oct 16 11:09:59 2023,The main experiment item,yes,SternbergTask.osexp,/Users/Thingtwo/Desktop,no,mono,no,18,no,white,no,yes,768,legacy,97,11,/Users/Thingtwo/Desktop/Advanced Quant. Sternberg/NC-subject-2.csv,legacy,5 7 8 2 3 8,Lentiform Loewenfeld,3.3.14,5,y,0,right,left,right,right,NA,841,1806,1797,841,NA,2,legacy,6,1024,2,48000,-16,experiment,2,even,3,644809,641513,642579,1099,75117,642584,629676,1121,73319,646820,647662,643595,2938,646820,NA,Sternberg Task,93,59104,110,yes,1024
84.68468468468468,84.68468468468468,536.7837837837837,536.7837837837837,black,experiment,legacy,legacy,legacy,0,uniform,1,undefined,1,left,110,110,110,0,0,110,110,0,0,110,110,110,0,110,0,Mon Oct 16 11:09:59 2023,The main experiment item,yes,SternbergTask.osexp,/Users/Thingtwo/Desktop,no,mono,no,18,no,white,no,yes,768,legacy,98,11,/Users/Thingtwo/Desktop/Advanced Quant. Sternberg/NC-subject-2.csv,legacy,4 1 8 7 5,Lentiform Loewenfeld,3.3.14,3,y,0,left,left,right,left,NA,479,1806,1797,479,NA,2,legacy,5,1024,2,48000,-16,experiment,2,even,8,650961,641513,648732,1099,75117,648736,647668,1121,73319,652971,653451,649747,2938,652971,NA,Sternberg Task,94,59583,111,yes,1024
84.82142857142857,84.82142857142857,536.5089285714286,536.5089285714286,black,experiment,legacy,legacy,legacy,0,uniform,1,undefined,1,left,111,111,111,0,0,111,111,0,0,111,111,111,0,111,0,Mon Oct 16 11:09:59 2023,The main experiment item,yes,SternbergTask.osexp,/Users/Thingtwo/Desktop,no,mono,no,18,no,white,no,yes,768,legacy,99,11,/Users/Thingtwo/Desktop/Advanced Quant. Sternberg/NC-subject-2.csv,legacy,9 3 1 2 5,Lentiform Loewenfeld,3.3.14,4,y,0,left,left,right,left,NA,506,1806,1797,506,NA,2,legacy,5,1024,2,48000,-16,experiment,2,even,2,656745,653457,654519,1099,75117,654524,647668,1121,73319,658757,659265,655533,2938,658757,NA,Sternberg Task,95,60089,112,yes,1024
84.95575221238938,84.95575221238938,536.0619469026549,536.0619469026549,black,experiment,legacy,legacy,legacy,0,uniform,1,undefined,1,left,112,112,112,0,0,112,112,0,0,112,112,112,0,112,0,Mon Oct 16 11:09:59 2023,The main experiment item,yes,SternbergTask.osexp,/Users/Thingtwo/Desktop,no,mono,no,18,no,white,no,yes,768,legacy,100,11,/Users/Thingtwo/Desktop/Advanced Quant. Sternberg/NC-subject-2.csv,legacy,4 3 2 5 8,Lentiform Loewenfeld,3.3.14,2,y,0,left,left,right,left,NA,486,1806,1797,486,NA,2,legacy,5,1024,2,48000,-16,experiment,2,even,3,662569,659270,660331,1099,75117,660336,647668,1121,73319,664579,665066,661350,2938,664579,NA,Sternberg Task,96,60575,113,yes,1024
85.08771929824562,85.08771929824562,536.6929824561404,536.6929824561404,black,experiment,legacy,legacy,legacy,0,uniform,1,undefined,1,right,113,113,113,0,0,113,113,0,0,113,113,113,0,113,0,Mon Oct 16 11:09:59 2023,The main experiment item,yes,SternbergTask.osexp,/Users/Thingtwo/Desktop,no,mono,no,18,no,white,no,yes,768,legacy,101,11,/Users/Thingtwo/Desktop/Advanced Quant. Sternberg/NC-subject-2.csv,legacy,9 5 3 2 8 6,Lentiform Loewenfeld,3.3.14,0,n,0,right,left,right,right,NA,608,1806,1797,608,NA,2,legacy,6,1024,2,48000,-16,experiment,2,even,7,668364,665072,666136,1099,75117,666141,647668,1121,73319,670374,670984,667150,2938,670374,NA,Sternberg Task,97,61183,114,yes,1024
85.21739130434783,85.21739130434783,538.2608695652174,538.2608695652174,black,experiment,legacy,legacy,legacy,0,uniform,1,undefined,1,left,114,114,114,0,0,114,114,0,0,114,114,114,0,114,0,Mon Oct 16 11:09:59 2023,The main experiment item,yes,SternbergTask.osexp,/Users/Thingtwo/Desktop,no,mono,no,18,no,white,no,yes,768,legacy,102,11,/Users/Thingtwo/Desktop/Advanced Quant. Sternberg/NC-subject-2.csv,legacy,8 9 6 1,Lentiform Loewenfeld,3.3.14,2,y,0,left,left,right,left,NA,717,1806,1797,717,NA,2,legacy,4,1024,2,48000,-16,experiment,2,even,9,674285,670990,672054,1099,75117,672059,647668,1121,73319,676298,677016,673070,2938,676298,NA,Sternberg Task,98,61900,115,yes,1024
85.34482758620689,85.34482758620689,537.7327586206897,537.7327586206897,black,experiment,legacy,legacy,legacy,0,uniform,1,undefined,1,right,115,115,115,0,0,115,115,0,0,115,115,115,0,115,0,Mon Oct 16 11:09:59 2023,The main experiment item,yes,SternbergTask.osexp,/Users/Thingtwo/Desktop,no,mono,no,18,no,white,no,yes,768,legacy,103,11,/Users/Thingtwo/Desktop/Advanced Quant. Sternberg/NC-subject-2.csv,legacy,1 3 2 6 9,Lentiform Loewenfeld,3.3.14,0,n,0,right,left,right,right,NA,477,1806,1797,477,NA,2,legacy,5,1024,2,48000,-16,experiment,2,even,5,680332,677021,678087,1099,75117,678095,647668,1121,73319,682344,682822,679110,2938,682344,NA,Sternberg Task,99,62377,116,yes,1024
85.47008547008546,85.47008547008546,537.8461538461538,537.8461538461538,black,experiment,legacy,legacy,legacy,0,uniform,1,undefined,1,right,116,116,116,0,0,116,116,0,0,116,116,116,0,116,0,Mon Oct 16 11:09:59 2023,The main experiment item,yes,SternbergTask.osexp,/Users/Thingtwo/Desktop,no,mono,no,18,no,white,no,yes,768,legacy,104,11,/Users/Thingtwo/Desktop/Advanced Quant. Sternberg/NC-subject-2.csv,legacy,1 5 3 2 8,Lentiform Loewenfeld,3.3.14,0,n,0,right,left,right,right,NA,551,1806,1797,551,NA,2,legacy,5,1024,2,48000,-16,experiment,2,even,4,686125,682827,683891,1099,75117,683898,647668,1121,73319,688135,688687,684909,2938,688135,NA,Sternberg Task,100,62928,117,yes,1024
85.59322033898304,85.59322033898304,536.2966101694915,536.2966101694915,black,experiment,legacy,legacy,legacy,0,uniform,1,undefined,1,left,117,117,117,0,0,117,117,0,0,117,117,117,0,117,0,Mon Oct 16 11:09:59 2023,The main experiment item,yes,SternbergTask.osexp,/Users/Thingtwo/Desktop,no,mono,no,18,no,white,no,yes,768,legacy,105,11,/Users/Thingtwo/Desktop/Advanced Quant. Sternberg/NC-subject-2.csv,legacy,5 2 9 6 1 7,Lentiform Loewenfeld,3.3.14,3,y,0,left,left,right,left,NA,355,1806,1797,355,NA,2,legacy,6,1024,2,48000,-16,experiment,2,even,9,691990,688693,689758,1099,75117,689763,647668,1121,73319,694001,694357,690774,2938,694001,NA,Sternberg Task,101,63283,118,yes,1024
85.71428571428571,85.71428571428571,541.5882352941177,541.5882352941177,black,experiment,legacy,legacy,legacy,0,uniform,1,undefined,1,left,118,118,118,0,0,118,118,0,0,118,118,118,0,118,0,Mon Oct 16 11:09:59 2023,The main experiment item,yes,SternbergTask.osexp,/Users/Thingtwo/Desktop,no,mono,no,18,no,white,no,yes,768,legacy,106,11,/Users/Thingtwo/Desktop/Advanced Quant. Sternberg/NC-subject-2.csv,legacy,4 7 6 8 2 3,Lentiform Loewenfeld,3.3.14,6,y,0,left,left,right,left,NA,1166,1806,1797,1166,NA,2,legacy,6,1024,2,48000,-16,experiment,2,even,3,697659,694363,695429,1099,75117,695434,647668,1121,73319,699675,700842,696445,2938,699675,NA,Sternberg Task,102,64449,119,yes,1024
85.83333333333333,85.83333333333333,541.5,541.5,black,experiment,legacy,legacy,legacy,0,uniform,1,undefined,1,right,119,119,119,0,0,119,119,0,0,119,119,119,0,119,0,Mon Oct 16 11:09:59 2023,The main experiment item,yes,SternbergTask.osexp,/Users/Thingtwo/Desktop,no,mono,no,18,no,white,no,yes,768,legacy,107,11,/Users/Thingtwo/Desktop/Advanced Quant. Sternberg/NC-subject-2.csv,legacy,4 1,Lentiform Loewenfeld,3.3.14,0,n,0,right,left,right,right,NA,531,1806,1797,531,NA,2,legacy,2,1024,2,48000,-16,experiment,2,even,6,704143,700847,701913,1099,75117,701918,647668,1121,73319,706154,706687,702929,2938,706154,NA,Sternberg Task,103,64980,120,yes,1024
85.12396694214875,85.12396694214875,542,542,black,experiment,legacy,legacy,legacy,0,uniform,0,undefined,0,right,120,120,120,0,0,120,120,0,0,120,120,120,0,120,0,Mon Oct 16 11:09:59 2023,The main experiment item,yes,SternbergTask.osexp,/Users/Thingtwo/Desktop,no,mono,no,18,no,white,no,yes,768,legacy,108,11,/Users/Thingtwo/Desktop/Advanced Quant. Sternberg/NC-subject-2.csv,legacy,6 8,Lentiform Loewenfeld,3.3.14,0,n,0,left,left,right,left,NA,602,1806,1797,602,NA,2,legacy,2,1024,2,48000,-16,experiment,2,even,9,709983,706693,707756,1099,75117,707760,647668,1121,73319,711994,712598,708770,2938,711994,NA,Sternberg Task,103,65582,121,yes,1024
85.24590163934427,85.24590163934427,541.9344262295082,541.9344262295082,black,experiment,legacy,legacy,legacy,0,uniform,1,undefined,1,left,121,121,121,0,0,121,121,0,0,121,121,121,0,121,0,Mon Oct 16 11:09:59 2023,The main experiment item,yes,SternbergTask.osexp,/Users/Thingtwo/Desktop,no,mono,no,18,no,white,no,yes,768,legacy,109,11,/Users/Thingtwo/Desktop/Advanced Quant. Sternberg/NC-subject-2.csv,legacy,6 1 2,Lentiform Loewenfeld,3.3.14,3,y,0,left,left,right,left,NA,534,1806,1797,534,NA,2,legacy,3,1024,2,48000,-16,experiment,2,even,2,715901,706693,713667,1099,75117,713672,712604,1121,73319,717909,718444,714685,2938,717909,NA,Sternberg Task,104,66116,122,yes,1024
85.36585365853658,85.36585365853658,542.2113821138212,542.2113821138212,black,experiment,legacy,legacy,legacy,0,uniform,1,undefined,1,right,122,122,122,0,0,122,122,0,0,122,122,122,0,122,0,Mon Oct 16 11:09:59 2023,The main experiment item,yes,SternbergTask.osexp,/Users/Thingtwo/Desktop,no,mono,no,18,no,white,no,yes,768,legacy,110,11,/Users/Thingtwo/Desktop/Advanced Quant. Sternberg/NC-subject-2.csv,legacy,3 4 9 6 7 8,Lentiform Loewenfeld,3.3.14,0,n,0,right,left,right,right,NA,576,1806,1797,576,NA,2,legacy,6,1024,2,48000,-16,experiment,2,even,2,721746,718450,719515,1099,75117,719520,712604,1121,73319,723757,724334,720531,2938,723757,NA,Sternberg Task,105,66692,123,yes,1024
85.48387096774194,85.48387096774194,541.5967741935484,541.5967741935484,black,experiment,legacy,legacy,legacy,0,uniform,1,undefined,1,right,123,123,123,0,0,123,123,0,0,123,123,123,0,123,0,Mon Oct 16 11:09:59 2023,The main experiment item,yes,SternbergTask.osexp,/Users/Thingtwo/Desktop,no,mono,no,18,no,white,no,yes,768,legacy,111,11,/Users/Thingtwo/Desktop/Advanced Quant. Sternberg/NC-subject-2.csv,legacy,6 9 7 3 8 2,Lentiform Loewenfeld,3.3.14,0,n,0,right,left,right,right,NA,466,1806,1797,466,NA,2,legacy,6,1024,2,48000,-16,experiment,2,even,5,727634,724340,725404,1099,75117,725409,712604,1121,73319,729644,730111,726420,2938,729644,NA,Sternberg Task,106,67158,124,yes,1024
85.6,85.6,541.208,541.208,black,experiment,legacy,legacy,legacy,0,uniform,1,undefined,1,left,124,124,124,0,0,124,124,0,0,124,124,124,0,124,0,Mon Oct 16 11:09:59 2023,The main experiment item,yes,SternbergTask.osexp,/Users/Thingtwo/Desktop,no,mono,no,18,no,white,no,yes,768,legacy,112,11,/Users/Thingtwo/Desktop/Advanced Quant. Sternberg/NC-subject-2.csv,legacy,6 9 7 4 5 1,Lentiform Loewenfeld,3.3.14,2,y,0,left,left,right,left,NA,493,1806,1797,493,NA,2,legacy,6,1024,2,48000,-16,experiment,2,even,9,733410,730117,731180,1099,75117,731185,712604,1121,73319,735419,735913,732197,2938,735418,NA,Sternberg Task,107,67651,125,yes,1024
85.71428571428571,85.71428571428571,540.5634921,540.5634921,black,experiment,legacy,legacy,legacy,0,uniform,1,undefined,1,right,125,125,125,0,0,125,125,0,0,125,125,125,0,125,0,Mon Oct 16 11:09:59 2023,The main experiment item,yes,SternbergTask.osexp,/Users/Thingtwo/Desktop,no,mono,no,18,no,white,no,yes,768,legacy,113,11,/Users/Thingtwo/Desktop/Advanced Quant. Sternberg/NC-subject-2.csv,legacy,7 3 2 8,Lentiform Loewenfeld,3.3.14,0,n,0,right,left,right,right,NA,460,1806,1797,460,NA,2,legacy,4,1024,2,48000,-16,experiment,2,even,4,739213,735918,736983,1099,75117,736987,712604,1121,73319,741224,741685,737997,2938,741224,NA,Sternberg Task,108,68111,126,yes,1024
85.82677165,85.82677165,539.5275590551181,539.5275590551181,black,experiment,legacy,legacy,legacy,0,uniform,1,undefined,1,right,126,126,126,0,0,126,126,0,0,126,126,126,0,126,0,Mon Oct 16 11:09:59 2023,The main experiment item,yes,SternbergTask.osexp,/Users/Thingtwo/Desktop,no,mono,no,18,no,white,no,yes,768,legacy,114,11,/Users/Thingtwo/Desktop/Advanced Quant. Sternberg/NC-subject-2.csv,legacy,1 6 4,Lentiform Loewenfeld,3.3.14,0,n,0,right,left,right,right,NA,409,1806,1797,409,NA,2,legacy,3,1024,2,48000,-16,experiment,2,even,7,744984,741691,742755,1099,75117,742760,712604,1121,73319,746994,747404,743771,2938,746994,NA,Sternberg Task,109,68520,127,yes,1024
85.9375,85.9375,540.3125,540.3125,black,experiment,legacy,legacy,legacy,0,uniform,1,undefined,1,right,127,127,127,0,0,127,127,0,0,127,127,127,0,127,0,Mon Oct 16 11:09:59 2023,The main experiment item,yes,SternbergTask.osexp,/Users/Thingtwo/Desktop,no,mono,no,18,no,white,no,yes,768,legacy,115,11,/Users/Thingtwo/Desktop/Advanced Quant. Sternberg/NC-subject-2.csv,legacy,2 8 7 9 5 3,Lentiform Loewenfeld,3.3.14,0,n,0,right,left,right,right,NA,640,1806,1797,640,NA,2,legacy,6,1024,2,48000,-16,experiment,2,even,6,750700,747409,748471,1099,75117,748476,712604,1121,73319,752710,753351,749485,2938,752710,NA,Sternberg Task,110,69160,128,yes,1024
86.04651162790698,86.04651162790698,540.2093023255813,540.2093023255813,black,experiment,legacy,legacy,legacy,0,uniform,1,undefined,1,left,128,128,128,0,0,128,128,0,0,128,128,128,0,128,0,Mon Oct 16 11:09:59 2023,The main experiment item,yes,SternbergTask.osexp,/Users/Thingtwo/Desktop,no,mono,no,18,no,white,no,yes,768,legacy,116,11,/Users/Thingtwo/Desktop/Advanced Quant. Sternberg/NC-subject-2.csv,legacy,3 5 4 7,Lentiform Loewenfeld,3.3.14,1,y,0,left,left,right,left,NA,527,1806,1797,527,NA,2,legacy,4,1024,2,48000,-16,experiment,2,even,3,756647,753357,754418,1099,75117,754422,712604,1121,73319,758657,759185,755433,2938,758657,NA,Sternberg Task,111,69687,129,yes,1024
86.15384615384616,86.15384615384616,539.1538461538462,539.1538461538462,black,experiment,legacy,legacy,legacy,0,uniform,1,undefined,1,right,129,129,129,0,0,129,129,0,0,129,129,129,0,129,0,Mon Oct 16 11:09:59 2023,The main experiment item,yes,SternbergTask.osexp,/Users/Thingtwo/Desktop,no,mono,no,18,no,white,no,yes,768,legacy,117,11,/Users/Thingtwo/Desktop/Advanced Quant. Sternberg/NC-subject-2.csv,legacy,8 5 7 3 6,Lentiform Loewenfeld,3.3.14,0,n,0,right,left,right,right,NA,403,1806,1797,403,NA,2,legacy,5,1024,2,48000,-16,experiment,2,even,9,762483,759190,760256,1099,75117,760260,712604,1121,73319,764493,764898,761270,2938,764493,NA,Sternberg Task,112,70090,130,yes,1024
86.25954198473282,86.25954198473282,540.7633588,540.7633588,black,experiment,legacy,legacy,legacy,0,uniform,1,undefined,1,left,130,130,130,0,0,130,130,0,0,130,130,130,0,130,0,Mon Oct 16 11:09:59 2023,The main experiment item,yes,SternbergTask.osexp,/Users/Thingtwo/Desktop,no,mono,no,18,no,white,no,yes,768,legacy,118,11,/Users/Thingtwo/Desktop/Advanced Quant. Sternberg/NC-subject-2.csv,legacy,2 8 5 1,Lentiform Loewenfeld,3.3.14,4,y,0,left,left,right,left,NA,750,1806,1797,750,NA,2,legacy,4,1024,2,48000,-16,experiment,2,even,1,768198,764903,765968,1099,75117,765973,712604,1121,73319,770209,770961,766985,2938,770209,NA,Sternberg Task,113,70840,131,yes,1024
86.36363636363636,86.36363636363636,542.280303,542.280303,black,experiment,legacy,legacy,legacy,0,uniform,1,undefined,1,left,131,131,131,0,0,131,131,0,0,131,131,131,0,131,0,Mon Oct 16 11:09:59 2023,The main experiment item,yes,SternbergTask.osexp,/Users/Thingtwo/Desktop,no,mono,no,18,no,white,no,yes,768,legacy,119,11,/Users/Thingtwo/Desktop/Advanced Quant. Sternberg/NC-subject-2.csv,legacy,5 7 3 6 2,Lentiform Loewenfeld,3.3.14,5,y,0,left,left,right,left,NA,741,1806,1797,741,NA,2,legacy,5,1024,2,48000,-16,experiment,2,even,2,774262,770966,772032,1099,75117,772037,712604,1121,73319,776273,777015,773047,2938,776272,NA,Sternberg Task,114,71581,132,yes,1024
86.46616541353383,86.46616541353383,542.0075187969925,542.0075187969925,black,experiment,legacy,legacy,legacy,0,uniform,1,undefined,1,right,132,132,132,0,0,132,132,0,0,132,132,132,0,132,0,Mon Oct 16 11:09:59 2023,The main experiment item,yes,SternbergTask.osexp,/Users/Thingtwo/Desktop,no,mono,no,18,no,white,no,yes,768,legacy,120,11,/Users/Thingtwo/Desktop/Advanced Quant. Sternberg/NC-subject-2.csv,legacy,1 4 9 3,Lentiform Loewenfeld,3.3.14,0,n,0,right,left,right,right,NA,506,1806,1797,506,NA,2,legacy,4,1024,2,48000,-16,experiment,2,even,5,780316,777021,778086,1099,75117,778091,712604,1121,73319,782327,782834,779102,2938,782327,NA,Sternberg Task,115,72087,133,yes,1024
86.56716417910448,86.56716417910448,541.5,541.5,black,experiment,legacy,legacy,legacy,0,uniform,1,undefined,1,right,133,133,133,0,0,133,133,0,0,133,133,133,0,133,0,Mon Oct 16 11:09:59 2023,The main experiment item,yes,SternbergTask.osexp,/Users/Thingtwo/Desktop,no,mono,no,18,no,white,no,yes,768,legacy,121,11,/Users/Thingtwo/Desktop/Advanced Quant. Sternberg/NC-subject-2.csv,legacy,8 6 3 4 7,Lentiform Loewenfeld,3.3.14,0,n,0,right,left,right,right,NA,474,1806,1797,474,NA,2,legacy,5,1024,2,48000,-16,experiment,2,even,1,786135,782840,783902,1099,75117,783906,712604,1121,73319,788145,788620,784920,2938,788145,NA,Sternberg Task,116,72561,134,yes,1024
86.66666666666667,86.66666666666667,540.6296296296297,540.6296296296297,black,experiment,legacy,legacy,legacy,0,uniform,1,undefined,1,right,134,134,134,0,0,134,134,0,0,134,134,134,0,134,0,Mon Oct 16 11:09:59 2023,The main experiment item,yes,SternbergTask.osexp,/Users/Thingtwo/Desktop,no,mono,no,18,no,white,no,yes,768,legacy,122,11,/Users/Thingtwo/Desktop/Advanced Quant. Sternberg/NC-subject-2.csv,legacy,6 9 5,Lentiform Loewenfeld,3.3.14,0,n,0,right,left,right,right,NA,424,1806,1797,424,NA,2,legacy,3,1024,2,48000,-16,experiment,2,even,8,791921,788626,789690,1099,75117,789694,712604,1121,73319,793931,794356,790707,2938,793931,NA,Sternberg Task,117,72985,135,yes,1024
86.02941176470588,86.02941176470588,540.0808823529412,540.0808823529412,black,experiment,legacy,legacy,legacy,0,uniform,0,undefined,0,right,135,135,135,0,0,135,135,0,0,135,135,135,0,135,0,Mon Oct 16 11:09:59 2023,The main experiment item,yes,SternbergTask.osexp,/Users/Thingtwo/Desktop,no,mono,no,18,no,white,no,yes,768,legacy,123,11,/Users/Thingtwo/Desktop/Advanced Quant. Sternberg/NC-subject-2.csv,legacy,2 6 4 3 9,Lentiform Loewenfeld,3.3.14,0,n,0,left,left,right,left,NA,466,1806,1797,466,NA,2,legacy,5,1024,2,48000,-16,experiment,2,even,1,797654,794362,795426,1099,75117,795430,712604,1121,73319,799664,800131,796441,2938,799664,NA,Sternberg Task,117,73451,136,yes,1024
86.13138686131387,86.13138686131387,539.8175182481751,539.8175182481751,black,experiment,legacy,legacy,legacy,0,uniform,1,undefined,1,right,136,136,136,0,0,136,136,0,0,136,136,136,0,136,0,Mon Oct 16 11:09:59 2023,The main experiment item,yes,SternbergTask.osexp,/Users/Thingtwo/Desktop,no,mono,no,18,no,white,no,yes,768,legacy,124,11,/Users/Thingtwo/Desktop/Advanced Quant. Sternberg/NC-subject-2.csv,legacy,1,Lentiform Loewenfeld,3.3.14,0,n,0,right,left,right,right,NA,504,1806,1797,504,NA,2,legacy,1,1024,2,48000,-16,experiment,2,even,7,803432,794362,801202,1099,75117,801207,800137,1121,73319,805443,805949,802218,2938,805442,NA,Sternberg Task,118,73955,137,yes,1024
85.50724638,85.50724638,540.1086956521739,540.1086956521739,black,experiment,legacy,legacy,legacy,0,uniform,0,undefined,0,left,137,137,137,0,0,137,137,0,0,137,137,137,0,137,0,Mon Oct 16 11:09:59 2023,The main experiment item,yes,SternbergTask.osexp,/Users/Thingtwo/Desktop,no,mono,no,18,no,white,no,yes,768,legacy,125,11,/Users/Thingtwo/Desktop/Advanced Quant. Sternberg/NC-subject-2.csv,legacy,6 2,Lentiform Loewenfeld,3.3.14,1,y,0,right,left,right,right,NA,580,1806,1797,580,NA,2,legacy,2,1024,2,48000,-16,experiment,2,even,6,809247,805954,807019,1099,75117,807024,800137,1121,73319,811258,811839,808035,2938,811258,NA,Sternberg Task,118,74535,138,yes,1024