acc,accuracy,average_response_time,avg_rt,background,block,canvas_backend,clock_backend,color_backend,compensation,coordinates,correct,correct_instruction1,correct_keyboard_response,correct_response,count_ISI,count_correct_feedback,count_exp_sequence,count_experiment,count_experiment_loop,count_fixation,count_incorrect_feedback,count_instruction1,count_instructions2,count_keyboard_response,count_logger,count_memory_set,count_practice_loop,count_probe,count_thankyou,datetime,description,disable_garbage_collection,experiment_path,font_bold,font_family,font_italic,font_size,font_underline,foreground,form_clicks,fullscreen,height,keyboard_backend,live_row,live_row_practice_loop,logfile,mouse_backend,numberSet,opensesame_codename,opensesame_version,posInSet,present,repeat_cycle,response,response_instruction1,response_instructions2,response_keyboard_response,response_thankyou,response_time,response_time_instruction1,response_time_instructions2,response_time_keyboard_response,response_time_thankyou,round_decimals,sampler_backend,setSize,sound_buf_size,sound_channels,sound_freq,sound_sample_size,start,subject_nr,subject_parity,target,time_ISI,time_correct_feedback,time_exp_sequence,time_experiment,time_experiment_loop,time_fixation,time_incorrect_feedback,time_instruction1,time_instructions2,time_keyboard_response,time_logger,time_memory_set,time_practice_loop,time_probe,time_thankyou,title,total_correct,total_response_time,total_responses,uniform_coordinates,width
100,100,640,640,black,practice,legacy,legacy,legacy,0,uniform,1,undefined,1,left,0,0,0,0,0,0,0,0,0,0,0,0,0,0,0,Mon Oct 16 14:12:39 2023,The main experiment item,yes,/Users/Thingtwo/Desktop/SternbergTask.osexp,no,mono,no,18,no,white,no,yes,768,legacy,0,0,/Users/Thingtwo/Desktop/Advanced Quant. Sternberg/NC-subject-3.csv,legacy,1 7 9 8 5,Lentiform Loewenfeld,3.3.14,4,y,0,left,right,NA,left,NA,640,854,NA,640,NA,2,legacy,5,1024,2,48000,-16,experiment,3,odd,8,4382,NA,2146,1143,NA,2153,NA,1169,NA,6399,7040,3167,2040,6399,NA,Sternberg Task,1,640,1,yes,1024
100,100,603.5,603.5,black,practice,legacy,legacy,legacy,0,uniform,1,undefined,1,right,1,1,1,0,0,1,1,0,0,1,1,1,0,1,0,Mon Oct 16 14:12:39 2023,The main experiment item,yes,/Users/Thingtwo/Desktop/SternbergTask.osexp,no,mono,no,18,no,white,no,yes,768,legacy,1,1,/Users/Thingtwo/Desktop/Advanced Quant. Sternberg/NC-subject-3.csv,legacy,3 1 9 4,Lentiform Loewenfeld,3.3.14,0,n,0,right,right,NA,right,NA,567,854,NA,567,NA,2,legacy,4,1024,2,48000,-16,experiment,3,odd,6,10374,7063,8138,1143,NA,8144,NA,1169,NA,12386,12954,9159,2040,12386,NA,Sternberg Task,2,1207,2,yes,1024
100,100,553,553,black,practice,legacy,legacy,legacy,0,uniform,1,undefined,1,right,2,2,2,0,0,2,2,0,0,2,2,2,0,2,0,Mon Oct 16 14:12:39 2023,The main experiment item,yes,/Users/Thingtwo/Desktop/SternbergTask.osexp,no,mono,no,18,no,white,no,yes,768,legacy,2,2,/Users/Thingtwo/Desktop/Advanced Quant. Sternberg/NC-subject-3.csv,legacy,4 1 5,Lentiform Loewenfeld,3.3.14,0,n,0,right,right,NA,right,NA,452,854,NA,452,NA,2,legacy,3,1024,2,48000,-16,experiment,3,odd,2,16259,12960,14027,1143,NA,14032,NA,1169,NA,18269,18728,15045,2040,18269,NA,Sternberg Task,3,1659,3,yes,1024
100,100,559.5,559.5,black,practice,legacy,legacy,legacy,0,uniform,1,undefined,1,right,3,3,3,0,0,3,3,0,0,3,3,3,0,3,0,Mon Oct 16 14:12:39 2023,The main experiment item,yes,/Users/Thingtwo/Desktop/SternbergTask.osexp,no,mono,no,18,no,white,no,yes,768,legacy,3,3,/Users/Thingtwo/Desktop/Advanced Quant. Sternberg/NC-subject-3.csv,legacy,2 1,Lentiform Loewenfeld,3.3.14,0,n,0,right,right,NA,right,NA,579,854,NA,579,NA,2,legacy,2,1024,2,48000,-16,experiment,3,odd,5,22030,18733,19799,1143,NA,19804,NA,1169,NA,24041,24621,20815,2040,24041,NA,Sternberg Task,4,2238,4,yes,1024
100,100,534.6,534.6,black,practice,legacy,legacy,legacy,0,uniform,1,undefined,1,left,4,4,4,0,0,4,4,0,0,4,4,4,0,4,0,Mon Oct 16 14:12:39 2023,The main experiment item,yes,/Users/Thingtwo/Desktop/SternbergTask.osexp,no,mono,no,18,no,white,no,yes,768,legacy,4,4,/Users/Thingtwo/Desktop/Advanced Quant. Sternberg/NC-subject-3.csv,legacy,4 3 1 7 9 8,Lentiform Loewenfeld,3.3.14,1,y,0,left,right,NA,left,NA,435,854,NA,435,NA,2,legacy,6,1024,2,48000,-16,experiment,3,odd,4,27928,24626,25698,1143,NA,25703,NA,1169,NA,29939,30375,26715,2040,29939,NA,Sternberg Task,5,2673,5,yes,1024
100,100,524.5,524.5,black,practice,legacy,legacy,legacy,0,uniform,1,undefined,1,right,5,5,5,0,0,5,5,0,0,5,5,5,0,5,0,Mon Oct 16 14:12:39 2023,The main experiment item,yes,/Users/Thingtwo/Desktop/SternbergTask.osexp,no,mono,no,18,no,white,no,yes,768,legacy,5,5,/Users/Thingtwo/Desktop/Advanced Quant. Sternberg/NC-subject-3.csv,legacy,5,Lentiform Loewenfeld,3.3.14,0,n,0,right,right,NA,right,NA,474,854,NA,474,NA,2,legacy,1,1024,2,48000,-16,experiment,3,odd,3,33685,30381,31452,1143,NA,31458,NA,1169,NA,35695,36170,32470,2040,35695,NA,Sternberg Task,6,3147,6,yes,1024
85.71428571428571,85.71428571428571,545.5714285714286,545.5714285714286,black,practice,legacy,legacy,legacy,0,uniform,0,undefined,0,right,6,6,6,0,0,6,6,0,0,6,6,6,0,6,0,Mon Oct 16 14:12:39 2023,The main experiment item,yes,/Users/Thingtwo/Desktop/SternbergTask.osexp,no,mono,no,18,no,white,no,yes,768,legacy,6,6,/Users/Thingtwo/Desktop/Advanced Quant. Sternberg/NC-subject-3.csv,legacy,9 6 7 4 5,Lentiform Loewenfeld,3.3.14,0,n,0,left,right,NA,left,NA,672,854,NA,672,NA,2,legacy,5,1024,2,48000,-16,experiment,3,odd,3,39479,36175,37241,1143,NA,37246,NA,1169,NA,41505,42178,38258,2040,41505,NA,Sternberg Task,6,3819,7,yes,1024
87.5,87.5,526,526,black,practice,legacy,legacy,legacy,0,uniform,1,undefined,1,left,7,7,7,0,0,7,7,0,0,7,7,7,0,7,0,Mon Oct 16 14:12:39 2023,The main experiment item,yes,/Users/Thingtwo/Desktop/SternbergTask.osexp,no,mono,no,18,no,white,no,yes,768,legacy,7,7,/Users/Thingtwo/Desktop/Advanced Quant. Sternberg/NC-subject-3.csv,legacy,6,Lentiform Loewenfeld,3.3.14,1,y,0,left,right,NA,left,NA,389,854,NA,389,NA,2,legacy,1,1024,2,48000,-16,experiment,3,odd,6,45497,36175,43251,1143,NA,43257,42184,1169,NA,47507,47896,44274,2040,47506,NA,Sternberg Task,7,4208,8,yes,1024
88.88888888888889,88.88888888888889,530.2222222222222,530.2222222222222,black,practice,legacy,legacy,legacy,0,uniform,1,undefined,1,left,8,8,8,0,0,8,8,0,0,8,8,8,0,8,0,Mon Oct 16 14:12:39 2023,The main experiment item,yes,/Users/Thingtwo/Desktop/SternbergTask.osexp,no,mono,no,18,no,white,no,yes,768,legacy,8,8,/Users/Thingtwo/Desktop/Advanced Quant. Sternberg/NC-subject-3.csv,legacy,2 9 4,Lentiform Loewenfeld,3.3.14,3,y,0,left,right,NA,left,NA,564,854,NA,564,NA,2,legacy,3,1024,2,48000,-16,experiment,3,odd,4,51198,47901,48964,1143,NA,48970,42184,1169,NA,53210,53774,49983,2040,53210,NA,Sternberg Task,8,4772,9,yes,1024
90,90,523.7,523.7,black,practice,legacy,legacy,legacy,0,uniform,1,undefined,1,left,9,9,9,0,0,9,9,0,0,9,9,9,0,9,0,Mon Oct 16 14:12:39 2023,The main experiment item,yes,/Users/Thingtwo/Desktop/SternbergTask.osexp,no,mono,no,18,no,white,no,yes,768,legacy,9,9,/Users/Thingtwo/Desktop/Advanced Quant. Sternberg/NC-subject-3.csv,legacy,4 8,Lentiform Loewenfeld,3.3.14,1,y,0,left,right,NA,left,NA,465,854,NA,465,NA,2,legacy,2,1024,2,48000,-16,experiment,3,odd,4,57073,53780,54842,1143,NA,54848,42184,1169,NA,59084,59550,55860,2040,59084,NA,Sternberg Task,9,5237,10,yes,1024
90.90909091,90.90909091,517.2727272727273,517.2727272727273,black,practice,legacy,legacy,legacy,0,uniform,1,undefined,1,left,10,10,10,0,0,10,10,0,0,10,10,10,0,10,0,Mon Oct 16 14:12:39 2023,The main experiment item,yes,/Users/Thingtwo/Desktop/SternbergTask.osexp,no,mono,no,18,no,white,no,yes,768,legacy,10,10,/Users/Thingtwo/Desktop/Advanced Quant. Sternberg/NC-subject-3.csv,legacy,1 5 2 9,Lentiform Loewenfeld,3.3.14,2,y,0,left,right,NA,left,NA,453,854,NA,453,NA,2,legacy,4,1024,2,48000,-16,experiment,3,odd,5,62851,59555,60619,1143,NA,60625,42184,1169,NA,64861,65315,61637,2040,64861,NA,Sternberg Task,10,5690,11,yes,1024
91.66666666666667,91.66666666666667,510.75,510.75,black,practice,legacy,legacy,legacy,0,uniform,1,undefined,1,right,11,11,11,0,0,11,11,0,0,11,11,11,0,11,0,Mon Oct 16 14:12:39 2023,The main experiment item,yes,/Users/Thingtwo/Desktop/SternbergTask.osexp,no,mono,no,18,no,white,no,yes,768,legacy,11,11,/Users/Thingtwo/Desktop/Advanced Quant. Sternberg/NC-subject-3.csv,legacy,5 7 8 4 1 2,Lentiform Loewenfeld,3.3.14,0,n,0,right,right,NA,right,NA,439,854,NA,439,NA,2,legacy,6,1024,2,48000,-16,experiment,3,odd,6,68626,65320,66390,1143,NA,66397,42184,1169,NA,70639,71079,67411,2040,70639,NA,Sternberg Task,11,6129,12,yes,1024
92.30769231,92.30769231,507.53846153846155,507.53846153846155,black,experiment,legacy,legacy,legacy,0,uniform,1,undefined,1,left,12,12,12,0,0,12,12,0,0,12,12,12,0,12,0,Mon Oct 16 14:12:39 2023,The main experiment item,yes,/Users/Thingtwo/Desktop/SternbergTask.osexp,no,mono,no,18,no,white,no,yes,768,legacy,0,11,/Users/Thingtwo/Desktop/Advanced Quant. Sternberg/NC-subject-3.csv,legacy,9 6 2 4 1,Lentiform Loewenfeld,3.3.14,4,y,0,left,right,right,left,NA,469,854,63963,469,NA,2,legacy,5,1024,2,48000,-16,experiment,3,odd,4,138361,71086,136130,1143,136095,136134,42184,1169,72131,140374,140844,137146,2040,140374,NA,Sternberg Task,12,6598,13,yes,1024
92.85714285714286,92.85714285714286,506.2142857142857,506.2142857142857,black,experiment,legacy,legacy,legacy,0,uniform,1,undefined,1,right,13,13,13,0,0,13,13,0,0,13,13,13,0,13,0,Mon Oct 16 14:12:39 2023,The main experiment item,yes,/Users/Thingtwo/Desktop/SternbergTask.osexp,no,mono,no,18,no,white,no,yes,768,legacy,1,11,/Users/Thingtwo/Desktop/Advanced Quant. Sternberg/NC-subject-3.csv,legacy,5 9 2 3,Lentiform Loewenfeld,3.3.14,0,n,0,right,right,right,right,NA,489,854,63963,489,NA,2,legacy,4,1024,2,48000,-16,experiment,3,odd,8,144151,140851,141920,1143,136095,141925,42184,1169,72131,146162,146651,142938,2040,146161,NA,Sternberg Task,13,7087,14,yes,1024
93.33333333333333,93.33333333333333,506.8,506.8,black,experiment,legacy,legacy,legacy,0,uniform,1,undefined,1,right,14,14,14,0,0,14,14,0,0,14,14,14,0,14,0,Mon Oct 16 14:12:39 2023,The main experiment item,yes,/Users/Thingtwo/Desktop/SternbergTask.osexp,no,mono,no,18,no,white,no,yes,768,legacy,2,11,/Users/Thingtwo/Desktop/Advanced Quant. Sternberg/NC-subject-3.csv,legacy,4 8 1 2,Lentiform Loewenfeld,3.3.14,0,n,0,right,right,right,right,NA,515,854,63963,515,NA,2,legacy,4,1024,2,48000,-16,experiment,3,odd,7,149952,146657,147721,1143,136095,147726,42184,1169,72131,151962,152478,148738,2040,151962,NA,Sternberg Task,14,7602,15,yes,1024
93.75,93.75,508.375,508.375,black,experiment,legacy,legacy,legacy,0,uniform,1,undefined,1,right,15,15,15,0,0,15,15,0,0,15,15,15,0,15,0,Mon Oct 16 14:12:39 2023,The main experiment item,yes,/Users/Thingtwo/Desktop/SternbergTask.osexp,no,mono,no,18,no,white,no,yes,768,legacy,3,11,/Users/Thingtwo/Desktop/Advanced Quant. Sternberg/NC-subject-3.csv,legacy,7 1 5 6 3,Lentiform Loewenfeld,3.3.14,0,n,0,right,right,right,right,NA,532,854,63963,532,NA,2,legacy,5,1024,2,48000,-16,experiment,3,odd,8,155780,152483,153547,1143,136095,153552,42184,1169,72131,157796,158329,154565,2040,157796,NA,Sternberg Task,15,8134,16,yes,1024
94.11764705882354,94.11764705882354,510.3529411764706,510.3529411764706,black,experiment,legacy,legacy,legacy,0,uniform,1,undefined,1,left,16,16,16,0,0,16,16,0,0,16,16,16,0,16,0,Mon Oct 16 14:12:39 2023,The main experiment item,yes,/Users/Thingtwo/Desktop/SternbergTask.osexp,no,mono,no,18,no,white,no,yes,768,legacy,4,11,/Users/Thingtwo/Desktop/Advanced Quant. Sternberg/NC-subject-3.csv,legacy,6 7 8 5,Lentiform Loewenfeld,3.3.14,3,y,0,left,right,right,left,NA,542,854,63963,542,NA,2,legacy,4,1024,2,48000,-16,experiment,3,odd,8,161631,158334,159399,1143,136095,159406,42184,1169,72131,163642,164185,160418,2040,163642,NA,Sternberg Task,16,8676,17,yes,1024
94.44444444444444,94.44444444444444,513.4444444444445,513.4444444444445,black,experiment,legacy,legacy,legacy,0,uniform,1,undefined,1,right,17,17,17,0,0,17,17,0,0,17,17,17,0,17,0,Mon Oct 16 14:12:39 2023,The main experiment item,yes,/Users/Thingtwo/Desktop/SternbergTask.osexp,no,mono,no,18,no,white,no,yes,768,legacy,5,11,/Users/Thingtwo/Desktop/Advanced Quant. Sternberg/NC-subject-3.csv,legacy,8 9,Lentiform Loewenfeld,3.3.14,0,n,0,right,right,right,right,NA,566,854,63963,566,NA,2,legacy,2,1024,2,48000,-16,experiment,3,odd,5,167494,164191,165259,1143,136095,165266,42184,1169,72131,169505,170072,166280,2040,169505,NA,Sternberg Task,17,9242,18,yes,1024
89.47368421052632,89.47368421052632,508.2105263157895,508.2105263157895,black,experiment,legacy,legacy,legacy,0,uniform,0,undefined,0,right,18,18,18,0,0,18,18,0,0,18,18,18,0,18,0,Mon Oct 16 14:12:39 2023,The main experiment item,yes,/Users/Thingtwo/Desktop/SternbergTask.osexp,no,mono,no,18,no,white,no,yes,768,legacy,6,11,/Users/Thingtwo/Desktop/Advanced Quant. Sternberg/NC-subject-3.csv,legacy,7 1 8 4 9 3,Lentiform Loewenfeld,3.3.14,0,n,0,left,right,right,left,NA,414,854,63963,414,NA,2,legacy,6,1024,2,48000,-16,experiment,3,odd,6,173377,170077,171143,1143,136095,171150,42184,1169,72131,175388,175803,172163,2040,175388,NA,Sternberg Task,17,9656,19,yes,1024
90,90,512.85,512.85,black,experiment,legacy,legacy,legacy,0,uniform,1,undefined,1,right,19,19,19,0,0,19,19,0,0,19,19,19,0,19,0,Mon Oct 16 14:12:39 2023,The main experiment item,yes,/Users/Thingtwo/Desktop/SternbergTask.osexp,no,mono,no,18,no,white,no,yes,768,legacy,7,11,/Users/Thingtwo/Desktop/Advanced Quant. Sternberg/NC-subject-3.csv,legacy,1 7 8 3 9,Lentiform Loewenfeld,3.3.14,0,n,0,right,right,right,right,NA,601,854,63963,601,NA,2,legacy,5,1024,2,48000,-16,experiment,3,odd,2,179102,170077,176873,1143,136095,176878,175809,1169,72131,181116,181718,177890,2040,181115,NA,Sternberg Task,18,10257,20,yes,1024
85.71428571428571,85.71428571428571,515.1904761904761,515.1904761904761,black,experiment,legacy,legacy,legacy,0,uniform,0,undefined,0,left,20,20,20,0,0,20,20,0,0,20,20,20,0,20,0,Mon Oct 16 14:12:39 2023,The main experiment item,yes,/Users/Thingtwo/Desktop/SternbergTask.osexp,no,mono,no,18,no,white,no,yes,768,legacy,8,11,/Users/Thingtwo/Desktop/Advanced Quant. Sternberg/NC-subject-3.csv,legacy,8 5 4 7 3 1,Lentiform Loewenfeld,3.3.14,2,y,0,right,right,right,right,NA,562,854,63963,562,NA,2,legacy,6,1024,2,48000,-16,experiment,3,odd,5,185021,181723,182790,1143,136095,182796,175809,1169,72131,187030,187593,183808,2040,187030,NA,Sternberg Task,18,10819,21,yes,1024
86.36363636363636,86.36363636363636,513.4545454545455,513.4545454545455,black,experiment,legacy,legacy,legacy,0,uniform,1,undefined,1,right,21,21,21,0,0,21,21,0,0,21,21,21,0,21,0,Mon Oct 16 14:12:39 2023,The main experiment item,yes,/Users/Thingtwo/Desktop/SternbergTask.osexp,no,mono,no,18,no,white,no,yes,768,legacy,9,11,/Users/Thingtwo/Desktop/Advanced Quant. Sternberg/NC-subject-3.csv,legacy,7 9,Lentiform Loewenfeld,3.3.14,0,n,0,right,right,right,right,NA,477,854,63963,477,NA,2,legacy,2,1024,2,48000,-16,experiment,3,odd,1,190870,181723,188634,1143,136095,188641,187599,1169,72131,192882,193360,189656,2040,192881,NA,Sternberg Task,19,11296,22,yes,1024
86.95652173913044,86.95652173913044,507.04347826086956,507.04347826086956,black,experiment,legacy,legacy,legacy,0,uniform,1,undefined,1,left,22,22,22,0,0,22,22,0,0,22,22,22,0,22,0,Mon Oct 16 14:12:39 2023,The main experiment item,yes,/Users/Thingtwo/Desktop/SternbergTask.osexp,no,mono,no,18,no,white,no,yes,768,legacy,10,11,/Users/Thingtwo/Desktop/Advanced Quant. Sternberg/NC-subject-3.csv,legacy,3 5 9 6 2 4,Lentiform Loewenfeld,3.3.14,1,y,0,left,right,right,left,NA,366,854,63963,366,NA,2,legacy,6,1024,2,48000,-16,experiment,3,odd,3,196661,193365,194429,1143,136095,194435,187599,1169,72131,198671,199038,195448,2040,198671,NA,Sternberg Task,20,11662,23,yes,1024
87.5,87.5,513.625,513.625,black,experiment,legacy,legacy,legacy,0,uniform,1,undefined,1,left,23,23,23,0,0,23,23,0,0,23,23,23,0,23,0,Mon Oct 16 14:12:39 2023,The main experiment item,yes,/Users/Thingtwo/Desktop/SternbergTask.osexp,no,mono,no,18,no,white,no,yes,768,legacy,11,11,/Users/Thingtwo/Desktop/Advanced Quant. Sternberg/NC-subject-3.csv,legacy,8 7 3,Lentiform Loewenfeld,3.3.14,1,y,0,left,right,right,left,NA,665,854,63963,665,NA,2,legacy,3,1024,2,48000,-16,experiment,3,odd,8,202344,199043,200109,1143,136095,200116,187599,1169,72131,204354,205020,201131,2040,204354,NA,Sternberg Task,21,12327,24,yes,1024
88,88,511.64,511.64,black,experiment,legacy,legacy,legacy,0,uniform,1,undefined,1,left,24,24,24,0,0,24,24,0,0,24,24,24,0,24,0,Mon Oct 16 14:12:39 2023,The main experiment item,yes,/Users/Thingtwo/Desktop/SternbergTask.osexp,no,mono,no,18,no,white,no,yes,768,legacy,12,11,/Users/Thingtwo/Desktop/Advanced Quant. Sternberg/NC-subject-3.csv,legacy,8 1 6,Lentiform Loewenfeld,3.3.14,3,y,0,left,right,right,left,NA,464,854,63963,464,NA,2,legacy,3,1024,2,48000,-16,experiment,3,odd,6,208323,205026,206089,1143,136095,206096,187599,1169,72131,210333,210798,207109,2040,210333,NA,Sternberg Task,22,12791,25,yes,1024
84.61538461538461,84.61538461538461,522.7692307692307,522.7692307692307,black,experiment,legacy,legacy,legacy,0,uniform,0,undefined,0,right,25,25,25,0,0,25,25,0,0,25,25,25,0,25,0,Mon Oct 16 14:12:39 2023,The main experiment item,yes,/Users/Thingtwo/Desktop/SternbergTask.osexp,no,mono,no,18,no,white,no,yes,768,legacy,13,11,/Users/Thingtwo/Desktop/Advanced Quant. Sternberg/NC-subject-3.csv,legacy,2 8 7 9 5 3,Lentiform Loewenfeld,3.3.14,0,n,0,left,right,right,left,NA,801,854,63963,801,NA,2,legacy,6,1024,2,48000,-16,experiment,3,odd,6,214102,210804,211866,1143,136095,211872,187599,1169,72131,216113,216915,212887,2040,216113,NA,Sternberg Task,22,13592,26,yes,1024
81.48148148148148,81.48148148148148,522.0740741,522.0740741,black,experiment,legacy,legacy,legacy,0,uniform,0,undefined,0,left,26,26,26,0,0,26,26,0,0,26,26,26,0,26,0,Mon Oct 16 14:12:39 2023,The main experiment item,yes,/Users/Thingtwo/Desktop/SternbergTask.osexp,no,mono,no,18,no,white,no,yes,768,legacy,14,11,/Users/Thingtwo/Desktop/Advanced Quant. Sternberg/NC-subject-3.csv,legacy,6 7 9 3 1 2,Lentiform Loewenfeld,3.3.14,1,y,0,right,right,right,right,NA,504,854,63963,504,NA,2,legacy,6,1024,2,48000,-16,experiment,3,odd,6,220221,210804,217985,1143,136095,217992,216921,1169,72131,222233,222738,219006,2040,222233,NA,Sternberg Task,22,14096,27,yes,1024
78.57142857142857,78.57142857142857,522.25,522.25,black,experiment,legacy,legacy,legacy,0,uniform,0,undefined,0,right,27,27,27,0,0,27,27,0,0,27,27,27,0,27,0,Mon Oct 16 14:12:39 2023,The main experiment item,yes,/Users/Thingtwo/Desktop/SternbergTask.osexp,no,mono,no,18,no,white,no,yes,768,legacy,15,11,/Users/Thingtwo/Desktop/Advanced Quant. Sternberg/NC-subject-3.csv,legacy,8 4 3 5,Lentiform Loewenfeld,3.3.14,0,n,0,left,right,right,left,NA,527,854,63963,527,NA,2,legacy,4,1024,2,48000,-16,experiment,3,odd,6,226042,210804,223808,1143,136095,223816,222745,1169,72131,228054,228582,224829,2040,228054,NA,Sternberg Task,22,14623,28,yes,1024
75.86206896551724,75.86206896551724,522.3448275862069,522.3448275862069,black,experiment,legacy,legacy,legacy,0,uniform,0,undefined,0,left,28,28,28,0,0,28,28,0,0,28,28,28,0,28,0,Mon Oct 16 14:12:39 2023,The main experiment item,yes,/Users/Thingtwo/Desktop/SternbergTask.osexp,no,mono,no,18,no,white,no,yes,768,legacy,16,11,/Users/Thingtwo/Desktop/Advanced Quant. Sternberg/NC-subject-3.csv,legacy,6 9 7 4 5 1,Lentiform Loewenfeld,3.3.14,2,y,0,right,right,right,right,NA,525,854,63963,525,NA,2,legacy,6,1024,2,48000,-16,experiment,3,odd,9,231885,210804,229652,1143,136095,229658,228588,1169,72131,233895,234420,230671,2040,233895,NA,Sternberg Task,22,15148,29,yes,1024
76.66666666666667,76.66666666666667,528.8666666666667,528.8666666666667,black,experiment,legacy,legacy,legacy,0,uniform,1,undefined,1,right,29,29,29,0,0,29,29,0,0,29,29,29,0,29,0,Mon Oct 16 14:12:39 2023,The main experiment item,yes,/Users/Thingtwo/Desktop/SternbergTask.osexp,no,mono,no,18,no,white,no,yes,768,legacy,17,11,/Users/Thingtwo/Desktop/Advanced Quant. Sternberg/NC-subject-3.csv,legacy,1 8 7,Lentiform Loewenfeld,3.3.14,0,n,0,right,right,right,right,NA,718,854,63963,718,NA,2,legacy,3,1024,2,48000,-16,experiment,3,odd,4,237724,210804,235490,1143,136095,235496,234425,1169,72131,239736,240456,236509,2040,239736,NA,Sternberg Task,23,15866,30,yes,1024
77.41935483870968,77.41935483870968,528.4193548387096,528.4193548387096,black,experiment,legacy,legacy,legacy,0,uniform,1,undefined,1,right,30,30,30,0,0,30,30,0,0,30,30,30,0,30,0,Mon Oct 16 14:12:39 2023,The main experiment item,yes,/Users/Thingtwo/Desktop/SternbergTask.osexp,no,mono,no,18,no,white,no,yes,768,legacy,18,11,/Users/Thingtwo/Desktop/Advanced Quant. Sternberg/NC-subject-3.csv,legacy,2 8 9,Lentiform Loewenfeld,3.3.14,0,n,0,right,right,right,right,NA,515,854,63963,515,NA,2,legacy,3,1024,2,48000,-16,experiment,3,odd,6,243762,240461,241525,1143,136095,241532,234425,1169,72131,245774,246290,242545,2040,245774,NA,Sternberg Task,24,16381,31,yes,1024
78.125,78.125,524.40625,524.40625,black,experiment,legacy,legacy,legacy,0,uniform,1,undefined,1,left,31,31,31,0,0,31,31,0,0,31,31,31,0,31,0,Mon Oct 16 14:12:39 2023,The main experiment item,yes,/Users/Thingtwo/Desktop/SternbergTask.osexp,no,mono,no,18,no,white,no,yes,768,legacy,19,11,/Users/Thingtwo/Desktop/Advanced Quant. Sternberg/NC-subject-3.csv,legacy,3 2 1 4 7,Lentiform Loewenfeld,3.3.14,2,y,0,left,right,right,left,NA,400,854,63963,400,NA,2,legacy,5,1024,2,48000,-16,experiment,3,odd,2,249593,246295,247360,1143,136095,247366,234425,1169,72131,251604,252005,248379,2040,251603,NA,Sternberg Task,25,16781,32,yes,1024
78.78787878787878,78.78787878787878,529.8484848484849,529.8484848484849,black,experiment,legacy,legacy,legacy,0,uniform,1,undefined,1,right,32,32,32,0,0,32,32,0,0,32,32,32,0,32,0,Mon Oct 16 14:12:39 2023,The main experiment item,yes,/Users/Thingtwo/Desktop/SternbergTask.osexp,no,mono,no,18,no,white,no,yes,768,legacy,20,11,/Users/Thingtwo/Desktop/Advanced Quant. Sternberg/NC-subject-3.csv,legacy,6 9 7 3 8 2,Lentiform Loewenfeld,3.3.14,0,n,0,right,right,right,right,NA,704,854,63963,704,NA,2,legacy,6,1024,2,48000,-16,experiment,3,odd,5,255311,252010,253078,1143,136095,253084,234425,1169,72131,257323,258028,254096,2040,257323,NA,Sternberg Task,26,17485,33,yes,1024
79.41176470588235,79.41176470588235,528.5,528.5,black,experiment,legacy,legacy,legacy,0,uniform,1,undefined,1,left,33,33,33,0,0,33,33,0,0,33,33,33,0,33,0,Mon Oct 16 14:12:39 2023,The main experiment item,yes,/Users/Thingtwo/Desktop/SternbergTask.osexp,no,mono,no,18,no,white,no,yes,768,legacy,21,11,/Users/Thingtwo/Desktop/Advanced Quant. Sternberg/NC-subject-3.csv,legacy,2 4 6 9,Lentiform Loewenfeld,3.3.14,3,y,0,left,right,right,left,NA,484,854,63963,484,NA,2,legacy,4,1024,2,48000,-16,experiment,3,odd,6,261327,258033,259096,1143,136095,259102,234425,1169,72131,263338,263823,260113,2040,263338,NA,Sternberg Task,27,17969,34,yes,1024
80,80,524.7428571428571,524.7428571428571,black,experiment,legacy,legacy,legacy,0,uniform,1,undefined,1,right,34,34,34,0,0,34,34,0,0,34,34,34,0,34,0,Mon Oct 16 14:12:39 2023,The main experiment item,yes,/Users/Thingtwo/Desktop/SternbergTask.osexp,no,mono,no,18,no,white,no,yes,768,legacy,22,11,/Users/Thingtwo/Desktop/Advanced Quant. Sternberg/NC-subject-3.csv,legacy,5,Lentiform Loewenfeld,3.3.14,0,n,0,right,right,right,right,NA,397,854,63963,397,NA,2,legacy,1,1024,2,48000,-16,experiment,3,odd,8,267120,263828,264890,1143,136095,264895,234425,1169,72131,269131,269529,265905,2040,269131,NA,Sternberg Task,28,18366,35,yes,1024
80.55555555555556,80.55555555555556,526.2222222222222,526.2222222222222,black,experiment,legacy,legacy,legacy,0,uniform,1,undefined,1,left,35,35,35,0,0,35,35,0,0,35,35,35,0,35,0,Mon Oct 16 14:12:39 2023,The main experiment item,yes,/Users/Thingtwo/Desktop/SternbergTask.osexp,no,mono,no,18,no,white,no,yes,768,legacy,23,11,/Users/Thingtwo/Desktop/Advanced Quant. Sternberg/NC-subject-3.csv,legacy,7 8 4 6 9 5,Lentiform Loewenfeld,3.3.14,4,y,0,left,right,right,left,NA,578,854,63963,578,NA,2,legacy,6,1024,2,48000,-16,experiment,3,odd,6,272830,269534,270599,1143,136095,270604,234425,1169,72131,274840,275419,271617,2040,274840,NA,Sternberg Task,29,18944,36,yes,1024
81.08108108108108,81.08108108108108,527.6216216216217,527.6216216216217,black,experiment,legacy,legacy,legacy,0,uniform,1,undefined,1,right,36,36,36,0,0,36,36,0,0,36,36,36,0,36,0,Mon Oct 16 14:12:39 2023,The main experiment item,yes,/Users/Thingtwo/Desktop/SternbergTask.osexp,no,mono,no,18,no,white,no,yes,768,legacy,24,11,/Users/Thingtwo/Desktop/Advanced Quant. Sternberg/NC-subject-3.csv,legacy,2 3 8 5 6 7,Lentiform Loewenfeld,3.3.14,0,n,0,right,right,right,right,NA,578,854,63963,578,NA,2,legacy,6,1024,2,48000,-16,experiment,3,odd,1,278720,275424,276490,1143,136095,276495,234425,1169,72131,280731,281310,277506,2040,280731,NA,Sternberg Task,30,19522,37,yes,1024
81.57894736842105,81.57894736842105,525.7105263157895,525.7105263157895,black,experiment,legacy,legacy,legacy,0,uniform,1,undefined,1,left,37,37,37,0,0,37,37,0,0,37,37,37,0,37,0,Mon Oct 16 14:12:39 2023,The main experiment item,yes,/Users/Thingtwo/Desktop/SternbergTask.osexp,no,mono,no,18,no,white,no,yes,768,legacy,25,11,/Users/Thingtwo/Desktop/Advanced Quant. Sternberg/NC-subject-3.csv,legacy,4,Lentiform Loewenfeld,3.3.14,1,y,0,left,right,right,left,NA,455,854,63963,455,NA,2,legacy,1,1024,2,48000,-16,experiment,3,odd,4,284610,281315,282380,1143,136095,282385,234425,1169,72131,286620,287076,283397,2040,286620,NA,Sternberg Task,31,19977,38,yes,1024
79.48717948717949,79.48717948717949,526.7435897435897,526.7435897435897,black,experiment,legacy,legacy,legacy,0,uniform,0,undefined,0,left,38,38,38,0,0,38,38,0,0,38,38,38,0,38,0,Mon Oct 16 14:12:39 2023,The main experiment item,yes,/Users/Thingtwo/Desktop/SternbergTask.osexp,no,mono,no,18,no,white,no,yes,768,legacy,26,11,/Users/Thingtwo/Desktop/Advanced Quant. Sternberg/NC-subject-3.csv,legacy,2 8 5 1,Lentiform Loewenfeld,3.3.14,4,y,0,right,right,right,right,NA,566,854,63963,566,NA,2,legacy,4,1024,2,48000,-16,experiment,3,odd,1,290373,287082,288143,1143,136095,288147,234425,1169,72131,292383,292950,289158,2040,292383,NA,Sternberg Task,31,20543,39,yes,1024
80,80,525.25,525.25,black,experiment,legacy,legacy,legacy,0,uniform,1,undefined,1,left,39,39,39,0,0,39,39,0,0,39,39,39,0,39,0,Mon Oct 16 14:12:39 2023,The main experiment item,yes,/Users/Thingtwo/Desktop/SternbergTask.osexp,no,mono,no,18,no,white,no,yes,768,legacy,27,11,/Users/Thingtwo/Desktop/Advanced Quant. Sternberg/NC-subject-3.csv,legacy,2 5 4 8 7,Lentiform Loewenfeld,3.3.14,3,y,0,left,right,right,left,NA,467,854,63963,467,NA,2,legacy,5,1024,2,48000,-16,experiment,3,odd,4,296246,287082,294018,1143,136095,294022,292955,1169,72131,298257,298725,295033,2040,298257,NA,Sternberg Task,32,21010,40,yes,1024
80.48780487804878,80.48780487804878,528.3170731707318,528.3170731707318,black,experiment,legacy,legacy,legacy,0,uniform,1,undefined,1,right,40,40,40,0,0,40,40,0,0,40,40,40,0,40,0,Mon Oct 16 14:12:39 2023,The main experiment item,yes,/Users/Thingtwo/Desktop/SternbergTask.osexp,no,mono,no,18,no,white,no,yes,768,legacy,28,11,/Users/Thingtwo/Desktop/Advanced Quant. Sternberg/NC-subject-3.csv,legacy,2 8 9 4 1,Lentiform Loewenfeld,3.3.14,0,n,0,right,right,right,right,NA,651,854,63963,651,NA,2,legacy,5,1024,2,48000,-16,experiment,3,odd,5,302025,298730,299796,1143,136095,299801,292955,1169,72131,304035,304687,300812,2040,304035,NA,Sternberg Task,33,21661,41,yes,1024
78.57142857142857,78.57142857142857,532.2619047619048,532.2619047619048,black,experiment,legacy,legacy,legacy,0,uniform,0,undefined,0,left,41,41,41,0,0,41,41,0,0,41,41,41,0,41,0,Mon Oct 16 14:12:39 2023,The main experiment item,yes,/Users/Thingtwo/Desktop/SternbergTask.osexp,no,mono,no,18,no,white,no,yes,768,legacy,29,11,/Users/Thingtwo/Desktop/Advanced Quant. Sternberg/NC-subject-3.csv,legacy,9 5 8 1,Lentiform Loewenfeld,3.3.14,2,y,0,right,right,right,right,NA,694,854,63963,694,NA,2,legacy,4,1024,2,48000,-16,experiment,3,odd,5,307982,304692,305753,1143,136095,305758,292955,1169,72131,309992,310687,306768,2040,309992,NA,Sternberg Task,33,22355,42,yes,1024
79.06976744186046,79.06976744186046,529.4651162790698,529.4651162790698,black,experiment,legacy,legacy,legacy,0,uniform,1,undefined,1,left,42,42,42,0,0,42,42,0,0,42,42,42,0,42,0,Mon Oct 16 14:12:39 2023,The main experiment item,yes,/Users/Thingtwo/Desktop/SternbergTask.osexp,no,mono,no,18,no,white,no,yes,768,legacy,30,11,/Users/Thingtwo/Desktop/Advanced Quant. Sternberg/NC-subject-3.csv,legacy,5 2 9 6 1 7,Lentiform Loewenfeld,3.3.14,3,y,0,left,right,right,left,NA,412,854,63963,412,NA,2,legacy,6,1024,2,48000,-16,experiment,3,odd,9,313987,304692,311758,1143,136095,311763,310693,1169,72131,315997,316409,312773,2040,315997,NA,Sternberg Task,34,22767,43,yes,1024
77.27272727272727,77.27272727272727,530.3409090909091,530.3409090909091,black,experiment,legacy,legacy,legacy,0,uniform,0,undefined,0,left,43,43,43,0,0,43,43,0,0,43,43,43,0,43,0,Mon Oct 16 14:12:39 2023,The main experiment item,yes,/Users/Thingtwo/Desktop/SternbergTask.osexp,no,mono,no,18,no,white,no,yes,768,legacy,31,11,/Users/Thingtwo/Desktop/Advanced Quant. Sternberg/NC-subject-3.csv,legacy,7 1 3,Lentiform Loewenfeld,3.3.14,2,y,0,right,right,right,right,NA,568,854,63963,568,NA,2,legacy,3,1024,2,48000,-16,experiment,3,odd,1,319704,316415,317475,1143,136095,317480,310693,1169,72131,321714,322283,318491,2040,321714,NA,Sternberg Task,34,23335,44,yes,1024
75.55555555555556,75.55555555555556,533.9111111111112,533.9111111111112,black,experiment,legacy,legacy,legacy,0,uniform,0,undefined,0,right,44,44,44,0,0,44,44,0,0,44,44,44,0,44,0,Mon Oct 16 14:12:39 2023,The main experiment item,yes,/Users/Thingtwo/Desktop/SternbergTask.osexp,no,mono,no,18,no,white,no,yes,768,legacy,32,11,/Users/Thingtwo/Desktop/Advanced Quant. Sternberg/NC-subject-3.csv,legacy,7 4 2 8 1 9,Lentiform Loewenfeld,3.3.14,0,n,0,left,right,right,left,NA,691,854,63963,691,NA,2,legacy,6,1024,2,48000,-16,experiment,3,odd,5,325584,316415,323353,1143,136095,323358,322289,1169,72131,327595,328287,324369,2040,327594,NA,Sternberg Task,34,24026,45,yes,1024
73.91304347826087,73.91304347826087,533.6956522,533.6956522,black,experiment,legacy,legacy,legacy,0,uniform,0,undefined,0,left,45,45,45,0,0,45,45,0,0,45,45,45,0,45,0,Mon Oct 16 14:12:39 2023,The main experiment item,yes,/Users/Thingtwo/Desktop/SternbergTask.osexp,no,mono,no,18,no,white,no,yes,768,legacy,33,11,/Users/Thingtwo/Desktop/Advanced Quant. Sternberg/NC-subject-3.csv,legacy,6 9 3 1,Lentiform Loewenfeld,3.3.14,4,y,0,right,right,right,right,NA,524,854,63963,524,NA,2,legacy,4,1024,2,48000,-16,experiment,3,odd,1,331586,316415,329355,1143,136095,329360,328292,1169,72131,333597,334122,330372,2040,333597,NA,Sternberg Task,34,24550,46,yes,1024
72.34042553191489,72.34042553191489,535.2553191489362,535.2553191489362,black,experiment,legacy,legacy,legacy,0,uniform,0,undefined,0,right,46,46,46,0,0,46,46,0,0,46,46,46,0,46,0,Mon Oct 16 14:12:39 2023,The main experiment item,yes,/Users/Thingtwo/Desktop/SternbergTask.osexp,no,mono,no,18,no,white,no,yes,768,legacy,34,11,/Users/Thingtwo/Desktop/Advanced Quant. Sternberg/NC-subject-3.csv,legacy,3 4 2,Lentiform Loewenfeld,3.3.14,0,n,0,left,right,right,left,NA,607,854,63963,607,NA,2,legacy,3,1024,2,48000,-16,experiment,3,odd,5,337423,316415,335191,1143,136095,335196,334128,1169,72131,339433,340042,336208,2040,339433,NA,Sternberg Task,34,25157,47,yes,1024
72.91666666666667,72.91666666666667,536.1666666666666,536.1666666666666,black,experiment,legacy,legacy,legacy,0,uniform,1,undefined,1,left,47,47,47,0,0,47,47,0,0,47,47,47,0,47,0,Mon Oct 16 14:12:39 2023,The main experiment item,yes,/Users/Thingtwo/Desktop/SternbergTask.osexp,no,mono,no,18,no,white,no,yes,768,legacy,35,11,/Users/Thingtwo/Desktop/Advanced Quant. Sternberg/NC-subject-3.csv,legacy,8 3,Lentiform Loewenfeld,3.3.14,2,y,0,left,right,right,left,NA,579,854,63963,579,NA,2,legacy,2,1024,2,48000,-16,experiment,3,odd,3,343339,316415,341111,1143,136095,341116,340047,1169,72131,345349,345929,342126,2040,345349,NA,Sternberg Task,35,25736,48,yes,1024
73.46938775510205,73.46938775510205,536.1224489795918,536.1224489795918,black,experiment,legacy,legacy,legacy,0,uniform,1,undefined,1,left,48,48,48,0,0,48,48,0,0,48,48,48,0,48,0,Mon Oct 16 14:12:39 2023,The main experiment item,yes,/Users/Thingtwo/Desktop/SternbergTask.osexp,no,mono,no,18,no,white,no,yes,768,legacy,36,11,/Users/Thingtwo/Desktop/Advanced Quant. Sternberg/NC-subject-3.csv,legacy,9 3 1 2 5,Lentiform Loewenfeld,3.3.14,4,y,0,left,right,right,left,NA,534,854,63963,534,NA,2,legacy,5,1024,2,48000,-16,experiment,3,odd,2,349229,345934,346999,1143,136095,347004,340047,1169,72131,351239,351775,348015,2040,351239,NA,Sternberg Task,36,26270,49,yes,1024
74,74,534.86,534.86,black,experiment,legacy,legacy,legacy,0,uniform,1,undefined,1,right,49,49,49,0,0,49,49,0,0,49,49,49,0,49,0,Mon Oct 16 14:12:39 2023,The main experiment item,yes,/Users/Thingtwo/Desktop/SternbergTask.osexp,no,mono,no,18,no,white,no,yes,768,legacy,37,11,/Users/Thingtwo/Desktop/Advanced Quant. Sternberg/NC-subject-3.csv,legacy,1 4 9 2 5,Lentiform Loewenfeld,3.3.14,0,n,0,right,right,right,right,NA,473,854,63963,473,NA,2,legacy,5,1024,2,48000,-16,experiment,3,odd,7,355074,351780,352843,1143,136095,352848,340047,1169,72131,357084,357558,353860,2040,357084,NA,Sternberg Task,37,26743,50,yes,1024
74.50980392156863,74.50980392156863,535.1568627,535.1568627,black,experiment,legacy,legacy,legacy,0,uniform,1,undefined,1,left,50,50,50,0,0,50,50,0,0,50,50,50,0,50,0,Mon Oct 16 14:12:39 2023,The main experiment item,yes,/Users/Thingtwo/Desktop/SternbergTask.osexp,no,mono,no,18,no,white,no,yes,768,legacy,38,11,/Users/Thingtwo/Desktop/Advanced Quant. Sternberg/NC-subject-3.csv,legacy,3 9 6 2,Lentiform Loewenfeld,3.3.14,4,y,0,left,right,right,left,NA,550,854,63963,550,NA,2,legacy,4,1024,2,48000,-16,experiment,3,odd,2,360858,357563,358629,1143,136095,358634,340047,1169,72131,362867,363418,359645,2040,362867,NA,Sternberg Task,38,27293,51,yes,1024
73.07692307692308,73.07692307692308,537.9615384615385,537.9615384615385,black,experiment,legacy,legacy,legacy,0,uniform,0,undefined,0,right,51,51,51,0,0,51,51,0,0,51,51,51,0,51,0,Mon Oct 16 14:12:39 2023,The main experiment item,yes,/Users/Thingtwo/Desktop/SternbergTask.osexp,no,mono,no,18,no,white,no,yes,768,legacy,39,11,/Users/Thingtwo/Desktop/Advanced Quant. Sternberg/NC-subject-3.csv,legacy,9 7 4 5 8,Lentiform Loewenfeld,3.3.14,0,n,0,left,right,right,left,NA,681,854,63963,681,NA,2,legacy,5,1024,2,48000,-16,experiment,3,odd,6,366719,363424,364488,1143,136095,364493,340047,1169,72131,368729,369411,365504,2040,368729,NA,Sternberg Task,38,27974,52,yes,1024
73.58490566037736,73.58490566037736,540.3773585,540.3773585,black,experiment,legacy,legacy,legacy,0,uniform,1,undefined,1,right,52,52,52,0,0,52,52,0,0,52,52,52,0,52,0,Mon Oct 16 14:12:39 2023,The main experiment item,yes,/Users/Thingtwo/Desktop/SternbergTask.osexp,no,mono,no,18,no,white,no,yes,768,legacy,40,11,/Users/Thingtwo/Desktop/Advanced Quant. Sternberg/NC-subject-3.csv,legacy,7 9 1 6,Lentiform Loewenfeld,3.3.14,0,n,0,right,right,right,right,NA,666,854,63963,666,NA,2,legacy,4,1024,2,48000,-16,experiment,3,odd,4,372711,363424,370480,1143,136095,370485,369417,1169,72131,374722,375389,371497,2040,374722,NA,Sternberg Task,39,28640,53,yes,1024
72.22222222222223,72.22222222222223,541.8703703703703,541.8703703703703,black,experiment,legacy,legacy,legacy,0,uniform,0,undefined,0,right,53,53,53,0,0,53,53,0,0,53,53,53,0,53,0,Mon Oct 16 14:12:39 2023,The main experiment item,yes,/Users/Thingtwo/Desktop/SternbergTask.osexp,no,mono,no,18,no,white,no,yes,768,legacy,41,11,/Users/Thingtwo/Desktop/Advanced Quant. Sternberg/NC-subject-3.csv,legacy,2 5 1 4,Lentiform Loewenfeld,3.3.14,0,n,0,left,right,right,left,NA,621,854,63963,621,NA,2,legacy,4,1024,2,48000,-16,experiment,3,odd,6,378688,375396,376459,1143,136095,376463,369417,1169,72131,380698,381319,377475,2040,380698,NA,Sternberg Task,39,29261,54,yes,1024
72.72727272727273,72.72727272727273,542.3636363636364,542.3636363636364,black,experiment,legacy,legacy,legacy,0,uniform,1,undefined,1,left,54,54,54,0,0,54,54,0,0,54,54,54,0,54,0,Mon Oct 16 14:12:39 2023,The main experiment item,yes,/Users/Thingtwo/Desktop/SternbergTask.osexp,no,mono,no,18,no,white,no,yes,768,legacy,42,11,/Users/Thingtwo/Desktop/Advanced Quant. Sternberg/NC-subject-3.csv,legacy,4 1 8 7 5,Lentiform Loewenfeld,3.3.14,3,y,0,left,right,right,left,NA,569,854,63963,569,NA,2,legacy,5,1024,2,48000,-16,experiment,3,odd,8,384618,375396,382389,1143,136095,382393,381325,1169,72131,386629,387199,383405,2040,386629,NA,Sternberg Task,40,29830,55,yes,1024
73.21428571428571,73.21428571428571,541.6785714285714,541.6785714285714,black,experiment,legacy,legacy,legacy,0,uniform,1,undefined,1,left,55,55,55,0,0,55,55,0,0,55,55,55,0,55,0,Mon Oct 16 14:12:39 2023,The main experiment item,yes,/Users/Thingtwo/Desktop/SternbergTask.osexp,no,mono,no,18,no,white,no,yes,768,legacy,43,11,/Users/Thingtwo/Desktop/Advanced Quant. Sternberg/NC-subject-3.csv,legacy,8 9 5 6 7,Lentiform Loewenfeld,3.3.14,1,y,0,left,right,right,left,NA,504,854,63963,504,NA,2,legacy,5,1024,2,48000,-16,experiment,3,odd,8,390500,387205,388270,1143,136095,388275,381325,1169,72131,392510,393015,389285,2040,392510,NA,Sternberg Task,41,30334,56,yes,1024
73.68421053,73.68421053,541.3508771929825,541.3508771929825,black,experiment,legacy,legacy,legacy,0,uniform,1,undefined,1,right,56,56,56,0,0,56,56,0,0,56,56,56,0,56,0,Mon Oct 16 14:12:39 2023,The main experiment item,yes,/Users/Thingtwo/Desktop/SternbergTask.osexp,no,mono,no,18,no,white,no,yes,768,legacy,44,11,/Users/Thingtwo/Desktop/Advanced Quant. Sternberg/NC-subject-3.csv,legacy,3 9 8 1 6 4,Lentiform Loewenfeld,3.3.14,0,n,0,right,right,right,right,NA,523,854,63963,523,NA,2,legacy,6,1024,2,48000,-16,experiment,3,odd,7,396312,393021,394084,1143,136095,394089,381325,1169,72131,398323,398847,395099,2040,398323,NA,Sternberg Task,42,30857,57,yes,1024
74.13793103448276,74.13793103448276,539.2068965517242,539.2068965517242,black,experiment,legacy,legacy,legacy,0,uniform,1,undefined,1,left,57,57,57,0,0,57,57,0,0,57,57,57,0,57,0,Mon Oct 16 14:12:39 2023,The main experiment item,yes,/Users/Thingtwo/Desktop/SternbergTask.osexp,no,mono,no,18,no,white,no,yes,768,legacy,45,11,/Users/Thingtwo/Desktop/Advanced Quant. Sternberg/NC-subject-3.csv,legacy,6 2,Lentiform Loewenfeld,3.3.14,1,y,0,left,right,right,left,NA,417,854,63963,417,NA,2,legacy,2,1024,2,48000,-16,experiment,3,odd,6,402144,398852,399914,1143,136095,399919,381325,1169,72131,404154,404572,400930,2040,404154,NA,Sternberg Task,43,31274,58,yes,1024
74.57627118644068,74.57627118644068,538.0169491525423,538.0169491525423,black,experiment,legacy,legacy,legacy,0,uniform,1,undefined,1,right,58,58,58,0,0,58,58,0,0,58,58,58,0,58,0,Mon Oct 16 14:12:39 2023,The main experiment item,yes,/Users/Thingtwo/Desktop/SternbergTask.osexp,no,mono,no,18,no,white,no,yes,768,legacy,46,11,/Users/Thingtwo/Desktop/Advanced Quant. Sternberg/NC-subject-3.csv,legacy,5 2,Lentiform Loewenfeld,3.3.14,0,n,0,right,right,right,right,NA,469,854,63963,469,NA,2,legacy,2,1024,2,48000,-16,experiment,3,odd,7,407875,404579,405644,1143,136095,405649,381325,1169,72131,409885,410354,406660,2040,409885,NA,Sternberg Task,44,31743,59,yes,1024
75,75,539.2166666666667,539.2166666666667,black,experiment,legacy,legacy,legacy,0,uniform,1,undefined,1,left,59,59,59,0,0,59,59,0,0,59,59,59,0,59,0,Mon Oct 16 14:12:39 2023,The main experiment item,yes,/Users/Thingtwo/Desktop/SternbergTask.osexp,no,mono,no,18,no,white,no,yes,768,legacy,47,11,/Users/Thingtwo/Desktop/Advanced Quant. Sternberg/NC-subject-3.csv,legacy,7 8 6 3 1,Lentiform Loewenfeld,3.3.14,5,y,0,left,right,right,left,NA,610,854,63963,610,NA,2,legacy,5,1024,2,48000,-16,experiment,3,odd,1,413655,410360,411424,1143,136095,411429,381325,1169,72131,415666,416277,412441,2040,415666,NA,Sternberg Task,45,32353,60,yes,1024
73.77049180327869,73.77049180327869,541.4098360655738,541.4098360655738,black,experiment,legacy,legacy,legacy,0,uniform,0,undefined,0,left,60,60,60,0,0,60,60,0,0,60,60,60,0,60,0,Mon Oct 16 14:12:39 2023,The main experiment item,yes,/Users/Thingtwo/Desktop/SternbergTask.osexp,no,mono,no,18,no,white,no,yes,768,legacy,48,11,/Users/Thingtwo/Desktop/Advanced Quant. Sternberg/NC-subject-3.csv,legacy,2 4 8 5 1 3,Lentiform Loewenfeld,3.3.14,1,y,0,right,right,right,right,NA,673,854,63963,673,NA,2,legacy,6,1024,2,48000,-16,experiment,3,odd,2,419587,416283,417356,1143,136095,417360,381325,1169,72131,421597,422271,418372,2040,421597,NA,Sternberg Task,45,33026,61,yes,1024
74.19354838709677,74.19354838709677,543.2741935483871,543.2741935483871,black,experiment,legacy,legacy,legacy,0,uniform,1,undefined,1,right,61,61,61,0,0,61,61,0,0,61,61,61,0,61,0,Mon Oct 16 14:12:39 2023,The main experiment item,yes,/Users/Thingtwo/Desktop/SternbergTask.osexp,no,mono,no,18,no,white,no,yes,768,legacy,49,11,/Users/Thingtwo/Desktop/Advanced Quant. Sternberg/NC-subject-3.csv,legacy,5 7 3,Lentiform Loewenfeld,3.3.14,0,n,0,right,right,right,right,NA,657,854,63963,657,NA,2,legacy,3,1024,2,48000,-16,experiment,3,odd,9,425570,416283,423341,1143,136095,423346,422277,1169,72131,427582,428240,424358,2040,427581,NA,Sternberg Task,46,33683,62,yes,1024
73.01587301587301,73.01587301587301,546.6825396825396,546.6825396825396,black,experiment,legacy,legacy,legacy,0,uniform,0,undefined,0,right,62,62,62,0,0,62,62,0,0,62,62,62,0,62,0,Mon Oct 16 14:12:39 2023,The main experiment item,yes,/Users/Thingtwo/Desktop/SternbergTask.osexp,no,mono,no,18,no,white,no,yes,768,legacy,50,11,/Users/Thingtwo/Desktop/Advanced Quant. Sternberg/NC-subject-3.csv,legacy,6 9 4 5 2,Lentiform Loewenfeld,3.3.14,0,n,0,left,right,right,left,NA,758,854,63963,758,NA,2,legacy,5,1024,2,48000,-16,experiment,3,odd,1,431540,428246,429312,1143,136095,429317,422277,1169,72131,433551,434310,430327,2040,433551,NA,Sternberg Task,46,34441,63,yes,1024
73.4375,73.4375,565.203125,565.203125,black,experiment,legacy,legacy,legacy,0,uniform,1,undefined,1,right,63,63,63,0,0,63,63,0,0,63,63,63,0,63,0,Mon Oct 16 14:12:39 2023,The main experiment item,yes,/Users/Thingtwo/Desktop/SternbergTask.osexp,no,mono,no,18,no,white,no,yes,768,legacy,51,11,/Users/Thingtwo/Desktop/Advanced Quant. Sternberg/NC-subject-3.csv,legacy,1,Lentiform Loewenfeld,3.3.14,0,n,0,right,right,right,right,NA,1732,854,63963,1732,NA,2,legacy,1,1024,2,48000,-16,experiment,3,odd,7,437610,428246,435379,1143,136095,435384,434316,1169,72131,439621,441354,436395,2040,439621,NA,Sternberg Task,47,36173,64,yes,1024
73.84615384615384,73.84615384615384,566.2769231,566.2769231,black,experiment,legacy,legacy,legacy,0,uniform,1,undefined,1,right,64,64,64,0,0,64,64,0,0,64,64,64,0,64,0,Mon Oct 16 14:12:39 2023,The main experiment item,yes,/Users/Thingtwo/Desktop/SternbergTask.osexp,no,mono,no,18,no,white,no,yes,768,legacy,52,11,/Users/Thingtwo/Desktop/Advanced Quant. Sternberg/NC-subject-3.csv,legacy,2 6 4 3 9,Lentiform Loewenfeld,3.3.14,0,n,0,right,right,right,right,NA,635,854,63963,635,NA,2,legacy,5,1024,2,48000,-16,experiment,3,odd,1,444644,441359,442423,1143,136095,442427,434316,1169,72131,446655,447291,443431,2040,446655,NA,Sternberg Task,48,36808,65,yes,1024
74.24242424242425,74.24242424242425,571.030303,571.030303,black,experiment,legacy,legacy,legacy,0,uniform,1,undefined,1,right,65,65,65,0,0,65,65,0,0,65,65,65,0,65,0,Mon Oct 16 14:12:39 2023,The main experiment item,yes,/Users/Thingtwo/Desktop/SternbergTask.osexp,no,mono,no,18,no,white,no,yes,768,legacy,53,11,/Users/Thingtwo/Desktop/Advanced Quant. Sternberg/NC-subject-3.csv,legacy,5 3 8 7 2 4,Lentiform Loewenfeld,3.3.14,0,n,0,right,right,right,right,NA,880,854,63963,880,NA,2,legacy,6,1024,2,48000,-16,experiment,3,odd,9,450594,447296,448363,1143,136095,448367,434316,1169,72131,452605,453486,449380,2040,452605,NA,Sternberg Task,49,37688,66,yes,1024
74.62686567,74.62686567,578.0149253731344,578.0149253731344,black,experiment,legacy,legacy,legacy,0,uniform,1,undefined,1,left,66,66,66,0,0,66,66,0,0,66,66,66,0,66,0,Mon Oct 16 14:12:39 2023,The main experiment item,yes,/Users/Thingtwo/Desktop/SternbergTask.osexp,no,mono,no,18,no,white,no,yes,768,legacy,54,11,/Users/Thingtwo/Desktop/Advanced Quant. Sternberg/NC-subject-3.csv,legacy,6 8 9 3 4 9,Lentiform Loewenfeld,3.3.14,5,y,0,left,right,right,left,NA,1039,854,63963,1039,NA,2,legacy,6,1024,2,48000,-16,experiment,3,odd,4,456786,453493,454557,1143,136095,454562,434316,1169,72131,458798,459838,455573,2040,458798,NA,Sternberg Task,50,38727,67,yes,1024
75,75,576.0294117647059,576.0294117647059,black,experiment,legacy,legacy,legacy,0,uniform,1,undefined,1,left,67,67,67,0,0,67,67,0,0,67,67,67,0,67,0,Mon Oct 16 14:12:39 2023,The main experiment item,yes,/Users/Thingtwo/Desktop/SternbergTask.osexp,no,mono,no,18,no,white,no,yes,768,legacy,55,11,/Users/Thingtwo/Desktop/Advanced Quant. Sternberg/NC-subject-3.csv,legacy,4 3 2 5 8,Lentiform Loewenfeld,3.3.14,2,y,0,left,right,right,left,NA,443,854,63963,443,NA,2,legacy,5,1024,2,48000,-16,experiment,3,odd,3,463134,459845,460906,1143,136095,460911,434316,1169,72131,465144,465589,461921,2040,465144,NA,Sternberg Task,51,39170,68,yes,1024
75.36231884,75.36231884,576.4202898550725,576.4202898550725,black,experiment,legacy,legacy,legacy,0,uniform,1,undefined,1,right,68,68,68,0,0,68,68,0,0,68,68,68,0,68,0,Mon Oct 16 14:12:39 2023,The main experiment item,yes,/Users/Thingtwo/Desktop/SternbergTask.osexp,no,mono,no,18,no,white,no,yes,768,legacy,56,11,/Users/Thingtwo/Desktop/Advanced Quant. Sternberg/NC-subject-3.csv,legacy,4 1,Lentiform Loewenfeld,3.3.14,0,n,0,right,right,right,right,NA,603,854,63963,603,NA,2,legacy,2,1024,2,48000,-16,experiment,3,odd,6,468889,465594,466659,1143,136095,466664,434316,1169,72131,470899,471503,467674,2040,470899,NA,Sternberg Task,52,39773,69,yes,1024
75.71428571428571,75.71428571428571,580.1285714285714,580.1285714285714,black,experiment,legacy,legacy,legacy,0,uniform,1,undefined,1,left,69,69,69,0,0,69,69,0,0,69,69,69,0,69,0,Mon Oct 16 14:12:39 2023,The main experiment item,yes,/Users/Thingtwo/Desktop/SternbergTask.osexp,no,mono,no,18,no,white,no,yes,768,legacy,57,11,/Users/Thingtwo/Desktop/Advanced Quant. Sternberg/NC-subject-3.csv,legacy,3 4,Lentiform Loewenfeld,3.3.14,1,y,0,left,right,right,left,NA,836,854,63963,836,NA,2,legacy,2,1024,2,48000,-16,experiment,3,odd,3,474802,471509,472573,1143,136095,472578,434316,1169,72131,476812,477649,473589,2040,476812,NA,Sternberg Task,53,40609,70,yes,1024
74.64788732394366,74.64788732394366,580.6338028169014,580.6338028169014,black,experiment,legacy,legacy,legacy,0,uniform,0,undefined,0,left,70,70,70,0,0,70,70,0,0,70,70,70,0,70,0,Mon Oct 16 14:12:39 2023,The main experiment item,yes,/Users/Thingtwo/Desktop/SternbergTask.osexp,no,mono,no,18,no,white,no,yes,768,legacy,58,11,/Users/Thingtwo/Desktop/Advanced Quant. Sternberg/NC-subject-3.csv,legacy,6 1 2,Lentiform Loewenfeld,3.3.14,3,y,0,right,right,right,right,NA,616,854,63963,616,NA,2,legacy,3,1024,2,48000,-16,experiment,3,odd,2,480952,477656,478721,1143,136095,478726,434316,1169,72131,482964,483581,479737,2040,482964,NA,Sternberg Task,53,41225,71,yes,1024
75,75,579.375,579.375,black,experiment,legacy,legacy,legacy,0,uniform,1,undefined,1,left,71,71,71,0,0,71,71,0,0,71,71,71,0,71,0,Mon Oct 16 14:12:39 2023,The main experiment item,yes,/Users/Thingtwo/Desktop/SternbergTask.osexp,no,mono,no,18,no,white,no,yes,768,legacy,59,11,/Users/Thingtwo/Desktop/Advanced Quant. Sternberg/NC-subject-3.csv,legacy,7 4 2 6 3 5,Lentiform Loewenfeld,3.3.14,6,y,0,left,right,right,left,NA,490,854,63963,490,NA,2,legacy,6,1024,2,48000,-16,experiment,3,odd,5,486884,477656,484652,1143,136095,484657,483587,1169,72131,488893,489384,485668,2040,488893,NA,Sternberg Task,54,41715,72,yes,1024
73.97260273972603,73.97260273972603,581.0684932,581.0684932,black,experiment,legacy,legacy,legacy,0,uniform,0,undefined,0,right,72,72,72,0,0,72,72,0,0,72,72,72,0,72,0,Mon Oct 16 14:12:39 2023,The main experiment item,yes,/Users/Thingtwo/Desktop/SternbergTask.osexp,no,mono,no,18,no,white,no,yes,768,legacy,60,11,/Users/Thingtwo/Desktop/Advanced Quant. Sternberg/NC-subject-3.csv,legacy,1 6 4,Lentiform Loewenfeld,3.3.14,0,n,0,left,right,right,left,NA,703,854,63963,703,NA,2,legacy,3,1024,2,48000,-16,experiment,3,odd,7,492683,489390,490452,1143,136095,490457,483587,1169,72131,494694,495399,491468,2040,494694,NA,Sternberg Task,54,42418,73,yes,1024
74.32432432432432,74.32432432432432,579.2297297297297,579.2297297297297,black,experiment,legacy,legacy,legacy,0,uniform,1,undefined,1,right,73,73,73,0,0,73,73,0,0,73,73,73,0,73,0,Mon Oct 16 14:12:39 2023,The main experiment item,yes,/Users/Thingtwo/Desktop/SternbergTask.osexp,no,mono,no,18,no,white,no,yes,768,legacy,61,11,/Users/Thingtwo/Desktop/Advanced Quant. Sternberg/NC-subject-3.csv,legacy,6 7 5 9,Lentiform Loewenfeld,3.3.14,0,n,0,right,right,right,right,NA,445,854,63963,445,NA,2,legacy,4,1024,2,48000,-16,experiment,3,odd,2,498698,489390,496469,1143,136095,496474,495404,1169,72131,500709,501156,497485,2040,500708,NA,Sternberg Task,55,42863,74,yes,1024
74.66666666666667,74.66666666666667,577.6533333333333,577.6533333333333,black,experiment,legacy,legacy,legacy,0,uniform,1,undefined,1,left,74,74,74,0,0,74,74,0,0,74,74,74,0,74,0,Mon Oct 16 14:12:39 2023,The main experiment item,yes,/Users/Thingtwo/Desktop/SternbergTask.osexp,no,mono,no,18,no,white,no,yes,768,legacy,62,11,/Users/Thingtwo/Desktop/Advanced Quant. Sternberg/NC-subject-3.csv,legacy,8 9 6 1,Lentiform Loewenfeld,3.3.14,2,y,0,left,right,right,left,NA,461,854,63963,461,NA,2,legacy,4,1024,2,48000,-16,experiment,3,odd,9,504451,501161,502222,1143,136095,502227,495404,1169,72131,506462,506924,503237,2040,506462,NA,Sternberg Task,56,43324,75,yes,1024
73.68421053,73.68421053,580.2105263157895,580.2105263157895,black,experiment,legacy,legacy,legacy,0,uniform,0,undefined,0,right,75,75,75,0,0,75,75,0,0,75,75,75,0,75,0,Mon Oct 16 14:12:39 2023,The main experiment item,yes,/Users/Thingtwo/Desktop/SternbergTask.osexp,no,mono,no,18,no,white,no,yes,768,legacy,63,11,/Users/Thingtwo/Desktop/Advanced Quant. Sternberg/NC-subject-3.csv,legacy,4 2 6 9,Lentiform Loewenfeld,3.3.14,0,n,0,left,right,right,left,NA,772,854,63963,772,NA,2,legacy,4,1024,2,48000,-16,experiment,3,odd,7,510223,506930,507995,1143,136095,508000,495404,1169,72131,512234,513008,509011,2040,512234,NA,Sternberg Task,56,44096,76,yes,1024
72.72727272727273,72.72727272727273,581.3246753246754,581.3246753246754,black,experiment,legacy,legacy,legacy,0,uniform,0,undefined,0,left,76,76,76,0,0,76,76,0,0,76,76,76,0,76,0,Mon Oct 16 14:12:39 2023,The main experiment item,yes,/Users/Thingtwo/Desktop/SternbergTask.osexp,no,mono,no,18,no,white,no,yes,768,legacy,64,11,/Users/Thingtwo/Desktop/Advanced Quant. Sternberg/NC-subject-3.csv,legacy,8 9 5 7 1 6,Lentiform Loewenfeld,3.3.14,4,y,0,right,right,right,right,NA,666,854,63963,666,NA,2,legacy,6,1024,2,48000,-16,experiment,3,odd,7,516309,506930,514081,1143,136095,514086,513013,1169,72131,518319,518987,515096,2040,518319,NA,Sternberg Task,56,44762,77,yes,1024
73.07692307692308,73.07692307692308,579.6410256410256,579.6410256410256,black,experiment,legacy,legacy,legacy,0,uniform,1,undefined,1,left,77,77,77,0,0,77,77,0,0,77,77,77,0,77,0,Mon Oct 16 14:12:39 2023,The main experiment item,yes,/Users/Thingtwo/Desktop/SternbergTask.osexp,no,mono,no,18,no,white,no,yes,768,legacy,65,11,/Users/Thingtwo/Desktop/Advanced Quant. Sternberg/NC-subject-3.csv,legacy,2 6 1 7 4,Lentiform Loewenfeld,3.3.14,2,y,0,left,right,right,left,NA,450,854,63963,450,NA,2,legacy,5,1024,2,48000,-16,experiment,3,odd,6,522285,506930,520057,1143,136095,520061,518993,1169,72131,524301,524753,521072,2040,524300,NA,Sternberg Task,57,45212,78,yes,1024
73.41772151898734,73.41772151898734,581.5443037974684,581.5443037974684,black,experiment,legacy,legacy,legacy,0,uniform,1,undefined,1,left,78,78,78,0,0,78,78,0,0,78,78,78,0,78,0,Mon Oct 16 14:12:39 2023,The main experiment item,yes,/Users/Thingtwo/Desktop/SternbergTask.osexp,no,mono,no,18,no,white,no,yes,768,legacy,66,11,/Users/Thingtwo/Desktop/Advanced Quant. Sternberg/NC-subject-3.csv,legacy,3 5 4 7,Lentiform Loewenfeld,3.3.14,1,y,0,left,right,right,left,NA,730,854,63963,730,NA,2,legacy,4,1024,2,48000,-16,experiment,3,odd,3,528051,524758,525823,1143,136095,525827,518993,1169,72131,530061,530792,526838,2040,530061,NA,Sternberg Task,58,45942,79,yes,1024
73.75,73.75,582.9,582.9,black,experiment,legacy,legacy,legacy,0,uniform,1,undefined,1,left,79,79,79,0,0,79,79,0,0,79,79,79,0,79,0,Mon Oct 16 14:12:39 2023,The main experiment item,yes,/Users/Thingtwo/Desktop/SternbergTask.osexp,no,mono,no,18,no,white,no,yes,768,legacy,67,11,/Users/Thingtwo/Desktop/Advanced Quant. Sternberg/NC-subject-3.csv,legacy,2 3 7 4,Lentiform Loewenfeld,3.3.14,1,y,0,left,right,right,left,NA,690,854,63963,690,NA,2,legacy,4,1024,2,48000,-16,experiment,3,odd,2,534093,530798,531862,1143,136095,531867,518993,1169,72131,536103,536794,532879,2040,536103,NA,Sternberg Task,59,46632,80,yes,1024
74.07407407407408,74.07407407407408,581.1604938271605,581.1604938271605,black,experiment,legacy,legacy,legacy,0,uniform,1,undefined,1,left,80,80,80,0,0,80,80,0,0,80,80,80,0,80,0,Mon Oct 16 14:12:39 2023,The main experiment item,yes,/Users/Thingtwo/Desktop/SternbergTask.osexp,no,mono,no,18,no,white,no,yes,768,legacy,68,11,/Users/Thingtwo/Desktop/Advanced Quant. Sternberg/NC-subject-3.csv,legacy,9 1 6 7 8,Lentiform Loewenfeld,3.3.14,1,y,0,left,right,right,left,NA,442,854,63963,442,NA,2,legacy,5,1024,2,48000,-16,experiment,3,odd,9,540094,536800,537865,1143,136095,537870,518993,1169,72131,542104,542547,538881,2040,542104,NA,Sternberg Task,60,47074,81,yes,1024
74.39024390243902,74.39024390243902,580.3658536585366,580.3658536585366,black,experiment,legacy,legacy,legacy,0,uniform,1,undefined,1,left,81,81,81,0,0,81,81,0,0,81,81,81,0,81,0,Mon Oct 16 14:12:39 2023,The main experiment item,yes,/Users/Thingtwo/Desktop/SternbergTask.osexp,no,mono,no,18,no,white,no,yes,768,legacy,69,11,/Users/Thingtwo/Desktop/Advanced Quant. Sternberg/NC-subject-3.csv,legacy,7 6,Lentiform Loewenfeld,3.3.14,2,y,0,left,right,right,left,NA,516,854,63963,516,NA,2,legacy,2,1024,2,48000,-16,experiment,3,odd,6,545848,542552,543617,1143,136095,543622,518993,1169,72131,547858,548375,544634,2040,547858,NA,Sternberg Task,61,47590,82,yes,1024
74.69879518,74.69879518,578.0602409638554,578.0602409638554,black,experiment,legacy,legacy,legacy,0,uniform,1,undefined,1,left,82,82,82,0,0,82,82,0,0,82,82,82,0,82,0,Mon Oct 16 14:12:39 2023,The main experiment item,yes,/Users/Thingtwo/Desktop/SternbergTask.osexp,no,mono,no,18,no,white,no,yes,768,legacy,70,11,/Users/Thingtwo/Desktop/Advanced Quant. Sternberg/NC-subject-3.csv,legacy,2 3,Lentiform Loewenfeld,3.3.14,1,y,0,left,right,right,left,NA,389,854,63963,389,NA,2,legacy,2,1024,2,48000,-16,experiment,3,odd,2,551675,548380,549443,1143,136095,549448,518993,1169,72131,553683,554074,550460,2040,553683,NA,Sternberg Task,62,47979,83,yes,1024
75,75,578.7142857142857,578.7142857142857,black,experiment,legacy,legacy,legacy,0,uniform,1,undefined,1,right,83,83,83,0,0,83,83,0,0,83,83,83,0,83,0,Mon Oct 16 14:12:39 2023,The main experiment item,yes,/Users/Thingtwo/Desktop/SternbergTask.osexp,no,mono,no,18,no,white,no,yes,768,legacy,71,11,/Users/Thingtwo/Desktop/Advanced Quant. Sternberg/NC-subject-3.csv,legacy,5 3 2 6 9 8,Lentiform Loewenfeld,3.3.14,0,n,0,right,right,right,right,NA,633,854,63963,633,NA,2,legacy,6,1024,2,48000,-16,experiment,3,odd,4,557368,554079,555140,1143,136095,555145,518993,1169,72131,559380,560015,556155,2040,559379,NA,Sternberg Task,63,48612,84,yes,1024
75.29411764705883,75.29411764705883,580.3529411764706,580.3529411764706,black,experiment,legacy,legacy,legacy,0,uniform,1,undefined,1,left,84,84,84,0,0,84,84,0,0,84,84,84,0,84,0,Mon Oct 16 14:12:39 2023,The main experiment item,yes,/Users/Thingtwo/Desktop/SternbergTask.osexp,no,mono,no,18,no,white,no,yes,768,legacy,72,11,/Users/Thingtwo/Desktop/Advanced Quant. Sternberg/NC-subject-3.csv,legacy,5 2 6,Lentiform Loewenfeld,3.3.14,2,y,0,left,right,right,left,NA,718,854,63963,718,NA,2,legacy,3,1024,2,48000,-16,experiment,3,odd,2,563318,560020,561083,1143,136095,561088,518993,1169,72131,565328,566048,562100,2040,565328,NA,Sternberg Task,64,49330,85,yes,1024
75.58139535,75.58139535,589.0697674418604,589.0697674418604,black,experiment,legacy,legacy,legacy,0,uniform,1,undefined,1,left,85,85,85,0,0,85,85,0,0,85,85,85,0,85,0,Mon Oct 16 14:12:39 2023,The main experiment item,yes,/Users/Thingtwo/Desktop/SternbergTask.osexp,no,mono,no,18,no,white,no,yes,768,legacy,73,11,/Users/Thingtwo/Desktop/Advanced Quant. Sternberg/NC-subject-3.csv,legacy,4 1 5,Lentiform Loewenfeld,3.3.14,2,y,0,left,right,right,left,NA,1330,854,63963,1330,NA,2,legacy,3,1024,2,48000,-16,experiment,3,odd,1,569346,566053,567117,1143,136095,567121,518993,1169,72131,571356,572687,568132,2040,571356,NA,Sternberg Task,65,50660,86,yes,1024
74.71264367816092,74.71264367816092,587.9885057471264,587.9885057471264,black,experiment,legacy,legacy,legacy,0,uniform,0,undefined,0,right,86,86,86,0,0,86,86,0,0,86,86,86,0,86,0,Mon Oct 16 14:12:39 2023,The main experiment item,yes,/Users/Thingtwo/Desktop/SternbergTask.osexp,no,mono,no,18,no,white,no,yes,768,legacy,74,11,/Users/Thingtwo/Desktop/Advanced Quant. Sternberg/NC-subject-3.csv,legacy,8 5 7 3 6,Lentiform Loewenfeld,3.3.14,0,n,0,left,right,right,left,NA,495,854,63963,495,NA,2,legacy,5,1024,2,48000,-16,experiment,3,odd,9,575987,572693,573758,1143,136095,573763,518993,1169,72131,577997,578494,574774,2040,577997,NA,Sternberg Task,65,51155,87,yes,1024
75,75,585.6363636363636,585.6363636363636,black,experiment,legacy,legacy,legacy,0,uniform,1,undefined,1,left,87,87,87,0,0,87,87,0,0,87,87,87,0,87,0,Mon Oct 16 14:12:39 2023,The main experiment item,yes,/Users/Thingtwo/Desktop/SternbergTask.osexp,no,mono,no,18,no,white,no,yes,768,legacy,75,11,/Users/Thingtwo/Desktop/Advanced Quant. Sternberg/NC-subject-3.csv,legacy,8,Lentiform Loewenfeld,3.3.14,1,y,0,left,right,right,left,NA,381,854,63963,381,NA,2,legacy,1,1024,2,48000,-16,experiment,3,odd,8,581794,572693,579564,1143,136095,579569,578499,1169,72131,583804,584187,580581,2040,583804,NA,Sternberg Task,66,51536,88,yes,1024
74.15730337078652,74.15730337078652,583.6629213483146,583.6629213483146,black,experiment,legacy,legacy,legacy,0,uniform,0,undefined,0,left,88,88,88,0,0,88,88,0,0,88,88,88,0,88,0,Mon Oct 16 14:12:39 2023,The main experiment item,yes,/Users/Thingtwo/Desktop/SternbergTask.osexp,no,mono,no,18,no,white,no,yes,768,legacy,76,11,/Users/Thingtwo/Desktop/Advanced Quant. Sternberg/NC-subject-3.csv,legacy,3 5 7 1,Lentiform Loewenfeld,3.3.14,3,y,0,right,right,right,right,NA,410,854,63963,410,NA,2,legacy,4,1024,2,48000,-16,experiment,3,odd,7,587485,584192,585257,1143,136095,585262,578499,1169,72131,589496,589907,586272,2040,589496,NA,Sternberg Task,66,51946,89,yes,1024
74.44444444444444,74.44444444444444,589.7444444444444,589.7444444444444,black,experiment,legacy,legacy,legacy,0,uniform,1,undefined,1,left,89,89,89,0,0,89,89,0,0,89,89,89,0,89,0,Mon Oct 16 14:12:39 2023,The main experiment item,yes,/Users/Thingtwo/Desktop/SternbergTask.osexp,no,mono,no,18,no,white,no,yes,768,legacy,77,11,/Users/Thingtwo/Desktop/Advanced Quant. Sternberg/NC-subject-3.csv,legacy,5 7 3 6 2,Lentiform Loewenfeld,3.3.14,5,y,0,left,right,right,left,NA,1131,854,63963,1131,NA,2,legacy,5,1024,2,48000,-16,experiment,3,odd,2,593208,584192,590979,1143,136095,590984,589913,1169,72131,595218,596350,591995,2040,595218,NA,Sternberg Task,67,53077,90,yes,1024
73.62637362637362,73.62637362637362,590.3296703296703,590.3296703296703,black,experiment,legacy,legacy,legacy,0,uniform,0,undefined,0,right,90,90,90,0,0,90,90,0,0,90,90,90,0,90,0,Mon Oct 16 14:12:39 2023,The main experiment item,yes,/Users/Thingtwo/Desktop/SternbergTask.osexp,no,mono,no,18,no,white,no,yes,768,legacy,78,11,/Users/Thingtwo/Desktop/Advanced Quant. Sternberg/NC-subject-3.csv,legacy,3 4 9 6 7 8,Lentiform Loewenfeld,3.3.14,0,n,0,left,right,right,left,NA,643,854,63963,643,NA,2,legacy,6,1024,2,48000,-16,experiment,3,odd,2,599651,596356,597421,1143,136095,597426,589913,1169,72131,601661,602306,598437,2040,601661,NA,Sternberg Task,67,53720,91,yes,1024
72.82608695652173,72.82608695652173,600.7826086956521,600.7826086956521,black,experiment,legacy,legacy,legacy,0,uniform,0,undefined,0,right,91,91,91,0,0,91,91,0,0,91,91,91,0,91,0,Mon Oct 16 14:12:39 2023,The main experiment item,yes,/Users/Thingtwo/Desktop/SternbergTask.osexp,no,mono,no,18,no,white,no,yes,768,legacy,79,11,/Users/Thingtwo/Desktop/Advanced Quant. Sternberg/NC-subject-3.csv,legacy,1 3 2 6 9,Lentiform Loewenfeld,3.3.14,0,n,0,left,right,right,left,NA,1552,854,63963,1552,NA,2,legacy,5,1024,2,48000,-16,experiment,3,odd,5,605605,596356,603376,1143,136095,603381,602311,1169,72131,607616,609169,604392,2040,607616,NA,Sternberg Task,67,55272,92,yes,1024
72.04301075268818,72.04301075268818,600.7956989247311,600.7956989247311,black,experiment,legacy,legacy,legacy,0,uniform,0,undefined,0,right,92,92,92,0,0,92,92,0,0,92,92,92,0,92,0,Mon Oct 16 14:12:39 2023,The main experiment item,yes,/Users/Thingtwo/Desktop/SternbergTask.osexp,no,mono,no,18,no,white,no,yes,768,legacy,80,11,/Users/Thingtwo/Desktop/Advanced Quant. Sternberg/NC-subject-3.csv,legacy,6 8,Lentiform Loewenfeld,3.3.14,0,n,0,left,right,right,left,NA,602,854,63963,602,NA,2,legacy,2,1024,2,48000,-16,experiment,3,odd,9,612467,596356,610237,1143,136095,610242,609174,1169,72131,614476,615079,611254,2040,614476,NA,Sternberg Task,67,55874,93,yes,1024
72.34042553191489,72.34042553191489,602.5531914893617,602.5531914893617,black,experiment,legacy,legacy,legacy,0,uniform,1,undefined,1,right,93,93,93,0,0,93,93,0,0,93,93,93,0,93,0,Mon Oct 16 14:12:39 2023,The main experiment item,yes,/Users/Thingtwo/Desktop/SternbergTask.osexp,no,mono,no,18,no,white,no,yes,768,legacy,81,11,/Users/Thingtwo/Desktop/Advanced Quant. Sternberg/NC-subject-3.csv,legacy,1 7 5 2 9,Lentiform Loewenfeld,3.3.14,0,n,0,right,right,right,right,NA,766,854,63963,766,NA,2,legacy,5,1024,2,48000,-16,experiment,3,odd,3,618379,596356,616148,1143,136095,616154,615085,1169,72131,620391,621158,617164,2040,620391,NA,Sternberg Task,68,56640,94,yes,1024
72.63157894736842,72.63157894736842,601.9052631578948,601.9052631578948,black,experiment,legacy,legacy,legacy,0,uniform,1,undefined,1,left,94,94,94,0,0,94,94,0,0,94,94,94,0,94,0,Mon Oct 16 14:12:39 2023,The main experiment item,yes,/Users/Thingtwo/Desktop/SternbergTask.osexp,no,mono,no,18,no,white,no,yes,768,legacy,82,11,/Users/Thingtwo/Desktop/Advanced Quant. Sternberg/NC-subject-3.csv,legacy,7 1 8 5 6 2,Lentiform Loewenfeld,3.3.14,2,y,0,left,right,right,left,NA,541,854,63963,541,NA,2,legacy,6,1024,2,48000,-16,experiment,3,odd,1,624458,621163,622228,1143,136095,622233,615085,1169,72131,626468,627010,623242,2040,626468,NA,Sternberg Task,69,57181,95,yes,1024
72.91666666666667,72.91666666666667,599.6458333333334,599.6458333333334,black,experiment,legacy,legacy,legacy,0,uniform,1,undefined,1,left,95,95,95,0,0,95,95,0,0,95,95,95,0,95,0,Mon Oct 16 14:12:39 2023,The main experiment item,yes,/Users/Thingtwo/Desktop/SternbergTask.osexp,no,mono,no,18,no,white,no,yes,768,legacy,83,11,/Users/Thingtwo/Desktop/Advanced Quant. Sternberg/NC-subject-3.csv,legacy,4 9 7 8 5 3,Lentiform Loewenfeld,3.3.14,4,y,0,left,right,right,left,NA,385,854,63963,385,NA,2,legacy,6,1024,2,48000,-16,experiment,3,odd,8,630313,627015,628080,1143,136095,628085,615085,1169,72131,632323,632709,629098,2040,632323,NA,Sternberg Task,70,57566,96,yes,1024
73.19587628865979,73.19587628865979,597.6288659793814,597.6288659793814,black,experiment,legacy,legacy,legacy,0,uniform,1,undefined,1,left,96,96,96,0,0,96,96,0,0,96,96,96,0,96,0,Mon Oct 16 14:12:39 2023,The main experiment item,yes,/Users/Thingtwo/Desktop/SternbergTask.osexp,no,mono,no,18,no,white,no,yes,768,legacy,84,11,/Users/Thingtwo/Desktop/Advanced Quant. Sternberg/NC-subject-3.csv,legacy,9 4 2,Lentiform Loewenfeld,3.3.14,1,y,0,left,right,right,left,NA,404,854,63963,404,NA,2,legacy,3,1024,2,48000,-16,experiment,3,odd,9,636008,632714,633779,1143,136095,633784,615085,1169,72131,638018,638423,634794,2040,638018,NA,Sternberg Task,71,57970,97,yes,1024
73.46938775510205,73.46938775510205,595.8979591836735,595.8979591836735,black,experiment,legacy,legacy,legacy,0,uniform,1,undefined,1,left,97,97,97,0,0,97,97,0,0,97,97,97,0,97,0,Mon Oct 16 14:12:39 2023,The main experiment item,yes,/Users/Thingtwo/Desktop/SternbergTask.osexp,no,mono,no,18,no,white,no,yes,768,legacy,85,11,/Users/Thingtwo/Desktop/Advanced Quant. Sternberg/NC-subject-3.csv,legacy,1 4 9 3 2 5,Lentiform Loewenfeld,3.3.14,3,y,0,left,right,right,left,NA,428,854,63963,428,NA,2,legacy,6,1024,2,48000,-16,experiment,3,odd,9,641721,638429,639492,1143,136095,639497,615085,1169,72131,643732,644162,640508,2040,643732,NA,Sternberg Task,72,58398,98,yes,1024
73.73737373737374,73.73737373737374,595.030303,595.030303,black,experiment,legacy,legacy,legacy,0,uniform,1,undefined,1,right,98,98,98,0,0,98,98,0,0,98,98,98,0,98,0,Mon Oct 16 14:12:39 2023,The main experiment item,yes,/Users/Thingtwo/Desktop/SternbergTask.osexp,no,mono,no,18,no,white,no,yes,768,legacy,86,11,/Users/Thingtwo/Desktop/Advanced Quant. Sternberg/NC-subject-3.csv,legacy,1 5 3 2 8,Lentiform Loewenfeld,3.3.14,0,n,0,right,right,right,right,NA,510,854,63963,510,NA,2,legacy,5,1024,2,48000,-16,experiment,3,odd,4,647461,644167,645231,1143,136095,645236,615085,1169,72131,649478,649989,646247,2040,649478,NA,Sternberg Task,73,58908,99,yes,1024
74,74,593.86,593.86,black,experiment,legacy,legacy,legacy,0,uniform,1,undefined,1,left,99,99,99,0,0,99,99,0,0,99,99,99,0,99,0,Mon Oct 16 14:12:39 2023,The main experiment item,yes,/Users/Thingtwo/Desktop/SternbergTask.osexp,no,mono,no,18,no,white,no,yes,768,legacy,87,11,/Users/Thingtwo/Desktop/Advanced Quant. Sternberg/NC-subject-3.csv,legacy,6 5,Lentiform Loewenfeld,3.3.14,2,y,0,left,right,right,left,NA,478,854,63963,478,NA,2,legacy,2,1024,2,48000,-16,experiment,3,odd,5,653290,649995,651059,1143,136095,651064,615085,1169,72131,655300,655778,652075,2040,655300,NA,Sternberg Task,74,59386,100,yes,1024
74.25742574257426,74.25742574257426,592.4554455445544,592.4554455445544,black,experiment,legacy,legacy,legacy,0,uniform,1,undefined,1,right,100,100,100,0,0,100,100,0,0,100,100,100,0,100,0,Mon Oct 16 14:12:39 2023,The main experiment item,yes,/Users/Thingtwo/Desktop/SternbergTask.osexp,no,mono,no,18,no,white,no,yes,768,legacy,88,11,/Users/Thingtwo/Desktop/Advanced Quant. Sternberg/NC-subject-3.csv,legacy,8 4 3 9,Lentiform Loewenfeld,3.3.14,0,n,0,right,right,right,right,NA,452,854,63963,452,NA,2,legacy,4,1024,2,48000,-16,experiment,3,odd,5,659076,655783,656847,1143,136095,656852,615085,1169,72131,661086,661539,657862,2040,661086,NA,Sternberg Task,75,59838,101,yes,1024
74.50980392156863,74.50980392156863,593.5294117647059,593.5294117647059,black,experiment,legacy,legacy,legacy,0,uniform,1,undefined,1,right,101,101,101,0,0,101,101,0,0,101,101,101,0,101,0,Mon Oct 16 14:12:39 2023,The main experiment item,yes,/Users/Thingtwo/Desktop/SternbergTask.osexp,no,mono,no,18,no,white,no,yes,768,legacy,89,11,/Users/Thingtwo/Desktop/Advanced Quant. Sternberg/NC-subject-3.csv,legacy,6 8 4,Lentiform Loewenfeld,3.3.14,0,n,0,right,right,right,right,NA,702,854,63963,702,NA,2,legacy,3,1024,2,48000,-16,experiment,3,odd,1,664837,661545,662607,1143,136095,662612,615085,1169,72131,666845,667548,663623,2040,666845,NA,Sternberg Task,76,60540,102,yes,1024
73.78640777,73.78640777,592.9029126213592,592.9029126213592,black,experiment,legacy,legacy,legacy,0,uniform,0,undefined,0,left,102,102,102,0,0,102,102,0,0,102,102,102,0,102,0,Mon Oct 16 14:12:39 2023,The main experiment item,yes,/Users/Thingtwo/Desktop/SternbergTask.osexp,no,mono,no,18,no,white,no,yes,768,legacy,90,11,/Users/Thingtwo/Desktop/Advanced Quant. Sternberg/NC-subject-3.csv,legacy,8 5 3 7 4 6,Lentiform Loewenfeld,3.3.14,6,y,0,right,right,right,right,NA,529,854,63963,529,NA,2,legacy,6,1024,2,48000,-16,experiment,3,odd,6,670847,667553,668617,1143,136095,668622,615085,1169,72131,672857,673387,669633,2040,672857,NA,Sternberg Task,76,61069,103,yes,1024
74.03846153846153,74.03846153846153,592.0865384615385,592.0865384615385,black,experiment,legacy,legacy,legacy,0,uniform,1,undefined,1,left,103,103,103,0,0,103,103,0,0,103,103,103,0,103,0,Mon Oct 16 14:12:39 2023,The main experiment item,yes,/Users/Thingtwo/Desktop/SternbergTask.osexp,no,mono,no,18,no,white,no,yes,768,legacy,91,11,/Users/Thingtwo/Desktop/Advanced Quant. Sternberg/NC-subject-3.csv,legacy,3 4 9 6 2 9,Lentiform Loewenfeld,3.3.14,5,y,0,left,right,right,left,NA,508,854,63963,508,NA,2,legacy,6,1024,2,48000,-16,experiment,3,odd,2,676686,667553,674457,1143,136095,674463,673392,1169,72131,678696,679205,675472,2040,678696,NA,Sternberg Task,77,61577,104,yes,1024
73.33333333333333,73.33333333333333,591.3619047619047,591.3619047619047,black,experiment,legacy,legacy,legacy,0,uniform,0,undefined,0,right,104,104,104,0,0,104,104,0,0,104,104,104,0,104,0,Mon Oct 16 14:12:39 2023,The main experiment item,yes,/Users/Thingtwo/Desktop/SternbergTask.osexp,no,mono,no,18,no,white,no,yes,768,legacy,92,11,/Users/Thingtwo/Desktop/Advanced Quant. Sternberg/NC-subject-3.csv,legacy,6 3 1 7 9 8,Lentiform Loewenfeld,3.3.14,0,n,0,left,right,right,left,NA,516,854,63963,516,NA,2,legacy,6,1024,2,48000,-16,experiment,3,odd,4,682506,679209,680274,1143,136095,680279,673392,1169,72131,684516,685034,681291,2040,684516,NA,Sternberg Task,77,62093,105,yes,1024
73.58490566037736,73.58490566037736,590.1226415,590.1226415,black,experiment,legacy,legacy,legacy,0,uniform,1,undefined,1,left,105,105,105,0,0,105,105,0,0,105,105,105,0,105,0,Mon Oct 16 14:12:39 2023,The main experiment item,yes,/Users/Thingtwo/Desktop/SternbergTask.osexp,no,mono,no,18,no,white,no,yes,768,legacy,93,11,/Users/Thingtwo/Desktop/Advanced Quant. Sternberg/NC-subject-3.csv,legacy,4 6 5 8,Lentiform Loewenfeld,3.3.14,1,y,0,left,right,right,left,NA,460,854,63963,460,NA,2,legacy,4,1024,2,48000,-16,experiment,3,odd,4,688334,679209,686103,1143,136095,686108,685040,1169,72131,690344,690805,687119,2040,690344,NA,Sternberg Task,78,62553,106,yes,1024
73.83177570093459,73.83177570093459,588.4672897196261,588.4672897196261,black,experiment,legacy,legacy,legacy,0,uniform,1,undefined,1,right,106,106,106,0,0,106,106,0,0,106,106,106,0,106,0,Mon Oct 16 14:12:39 2023,The main experiment item,yes,/Users/Thingtwo/Desktop/SternbergTask.osexp,no,mono,no,18,no,white,no,yes,768,legacy,94,11,/Users/Thingtwo/Desktop/Advanced Quant. Sternberg/NC-subject-3.csv,legacy,2 7 5,Lentiform Loewenfeld,3.3.14,0,n,0,right,right,right,right,NA,413,854,63963,413,NA,2,legacy,3,1024,2,48000,-16,experiment,3,odd,8,694107,690811,691877,1143,136095,691882,685040,1169,72131,696118,696533,692893,2040,696118,NA,Sternberg Task,79,62966,107,yes,1024
74.07407407407408,74.07407407407408,587.6574074074074,587.6574074074074,black,experiment,legacy,legacy,legacy,0,uniform,1,undefined,1,left,107,107,107,0,0,107,107,0,0,107,107,107,0,107,0,Mon Oct 16 14:12:39 2023,The main experiment item,yes,/Users/Thingtwo/Desktop/SternbergTask.osexp,no,mono,no,18,no,white,no,yes,768,legacy,95,11,/Users/Thingtwo/Desktop/Advanced Quant. Sternberg/NC-subject-3.csv,legacy,9 8 4,Lentiform Loewenfeld,3.3.14,1,y,0,left,right,right,left,NA,501,854,63963,501,NA,2,legacy,3,1024,2,48000,-16,experiment,3,odd,9,699832,696538,697601,1143,136095,697606,685040,1169,72131,701843,702345,698618,2040,701843,NA,Sternberg Task,80,63467,108,yes,1024
74.31192660550458,74.31192660550458,586.9633027522935,586.9633027522935,black,experiment,legacy,legacy,legacy,0,uniform,1,undefined,1,left,108,108,108,0,0,108,108,0,0,108,108,108,0,108,0,Mon Oct 16 14:12:39 2023,The main experiment item,yes,/Users/Thingtwo/Desktop/SternbergTask.osexp,no,mono,no,18,no,white,no,yes,768,legacy,96,11,/Users/Thingtwo/Desktop/Advanced Quant. Sternberg/NC-subject-3.csv,legacy,5 7 8 2 3 8,Lentiform Loewenfeld,3.3.14,5,y,0,left,right,right,left,NA,512,854,63963,512,NA,2,legacy,6,1024,2,48000,-16,experiment,3,odd,3,705646,702350,703414,1143,136095,703418,685040,1169,72131,707657,708171,704431,2040,707656,NA,Sternberg Task,81,63979,109,yes,1024
74.54545454545455,74.54545454545455,585.8545454545455,585.8545454545455,black,experiment,legacy,legacy,legacy,0,uniform,1,undefined,1,left,109,109,109,0,0,109,109,0,0,109,109,109,0,109,0,Mon Oct 16 14:12:39 2023,The main experiment item,yes,/Users/Thingtwo/Desktop/SternbergTask.osexp,no,mono,no,18,no,white,no,yes,768,legacy,97,11,/Users/Thingtwo/Desktop/Advanced Quant. Sternberg/NC-subject-3.csv,legacy,9 1 7 2,Lentiform Loewenfeld,3.3.14,2,y,0,left,right,right,left,NA,465,854,63963,465,NA,2,legacy,4,1024,2,48000,-16,experiment,3,odd,1,711470,708176,709242,1143,136095,709247,685040,1169,72131,713481,713948,710257,2040,713481,NA,Sternberg Task,82,64444,110,yes,1024
74.77477477477477,74.77477477477477,588.0810811,588.0810811,black,experiment,legacy,legacy,legacy,0,uniform,1,undefined,1,right,110,110,110,0,0,110,110,0,0,110,110,110,0,110,0,Mon Oct 16 14:12:39 2023,The main experiment item,yes,/Users/Thingtwo/Desktop/SternbergTask.osexp,no,mono,no,18,no,white,no,yes,768,legacy,98,11,/Users/Thingtwo/Desktop/Advanced Quant. Sternberg/NC-subject-3.csv,legacy,9 5 3 2 8 6,Lentiform Loewenfeld,3.3.14,0,n,0,right,right,right,right,NA,833,854,63963,833,NA,2,legacy,6,1024,2,48000,-16,experiment,3,odd,7,717247,713953,715017,1143,136095,715022,685040,1169,72131,719257,720092,716033,2040,719257,NA,Sternberg Task,83,65277,111,yes,1024
75,75,587.5089285714286,587.5089285714286,black,experiment,legacy,legacy,legacy,0,uniform,1,undefined,1,left,111,111,111,0,0,111,111,0,0,111,111,111,0,111,0,Mon Oct 16 14:12:39 2023,The main experiment item,yes,/Users/Thingtwo/Desktop/SternbergTask.osexp,no,mono,no,18,no,white,no,yes,768,legacy,99,11,/Users/Thingtwo/Desktop/Advanced Quant. Sternberg/NC-subject-3.csv,legacy,8 5 1 3 9,Lentiform Loewenfeld,3.3.14,4,y,0,left,right,right,left,NA,524,854,63963,524,NA,2,legacy,5,1024,2,48000,-16,experiment,3,odd,3,723392,720097,721163,1143,136095,721168,685040,1169,72131,725403,725928,722179,2040,725402,NA,Sternberg Task,84,65801,112,yes,1024
75.22123893805309,75.22123893805309,585.8407079646017,585.8407079646017,black,experiment,legacy,legacy,legacy,0,uniform,1,undefined,1,left,112,112,112,0,0,112,112,0,0,112,112,112,0,112,0,Mon Oct 16 14:12:39 2023,The main experiment item,yes,/Users/Thingtwo/Desktop/SternbergTask.osexp,no,mono,no,18,no,white,no,yes,768,legacy,100,11,/Users/Thingtwo/Desktop/Advanced Quant. Sternberg/NC-subject-3.csv,legacy,7,Lentiform Loewenfeld,3.3.14,1,y,0,left,right,right,left,NA,399,854,63963,399,NA,2,legacy,1,1024,2,48000,-16,experiment,3,odd,7,729225,725933,726996,1143,136095,727001,685040,1169,72131,731235,731635,728012,2040,731235,NA,Sternberg Task,85,66200,113,yes,1024
75.43859649122807,75.43859649122807,585.7105263157895,585.7105263157895,black,experiment,legacy,legacy,legacy,0,uniform,1,undefined,1,left,113,113,113,0,0,113,113,0,0,113,113,113,0,113,0,Mon Oct 16 14:12:39 2023,The main experiment item,yes,/Users/Thingtwo/Desktop/SternbergTask.osexp,no,mono,no,18,no,white,no,yes,768,legacy,101,11,/Users/Thingtwo/Desktop/Advanced Quant. Sternberg/NC-subject-3.csv,legacy,9 3 8 2 1 4,Lentiform Loewenfeld,3.3.14,3,y,0,left,right,right,left,NA,571,854,63963,571,NA,2,legacy,6,1024,2,48000,-16,experiment,3,odd,8,734938,731640,732707,1143,136095,732712,685040,1169,72131,736948,737520,733724,2040,736948,NA,Sternberg Task,86,66771,114,yes,1024
75.65217391304348,75.65217391304348,585.1130434782609,585.1130434782609,black,experiment,legacy,legacy,legacy,0,uniform,1,undefined,1,right,114,114,114,0,0,114,114,0,0,114,114,114,0,114,0,Mon Oct 16 14:12:39 2023,The main experiment item,yes,/Users/Thingtwo/Desktop/SternbergTask.osexp,no,mono,no,18,no,white,no,yes,768,legacy,102,11,/Users/Thingtwo/Desktop/Advanced Quant. Sternberg/NC-subject-3.csv,legacy,4 2 7 6 1 3,Lentiform Loewenfeld,3.3.14,0,n,0,right,right,right,right,NA,517,854,63963,517,NA,2,legacy,6,1024,2,48000,-16,experiment,3,odd,8,740818,737526,738589,1143,136095,738594,685040,1169,72131,742828,743345,739605,2040,742828,NA,Sternberg Task,87,67288,115,yes,1024
75.86206896551724,75.86206896551724,590.6551724137931,590.6551724137931,black,experiment,legacy,legacy,legacy,0,uniform,1,undefined,1,right,115,115,115,0,0,115,115,0,0,115,115,115,0,115,0,Mon Oct 16 14:12:39 2023,The main experiment item,yes,/Users/Thingtwo/Desktop/SternbergTask.osexp,no,mono,no,18,no,white,no,yes,768,legacy,103,11,/Users/Thingtwo/Desktop/Advanced Quant. Sternberg/NC-subject-3.csv,legacy,1 7 5 2,Lentiform Loewenfeld,3.3.14,0,n,0,right,right,right,right,NA,1228,854,63963,1228,NA,2,legacy,4,1024,2,48000,-16,experiment,3,odd,3,746643,743350,744415,1143,136095,744419,685040,1169,72131,748653,749882,745430,2040,748653,NA,Sternberg Task,88,68516,116,yes,1024
76.06837606837607,76.06837606837607,591.4017094017094,591.4017094017094,black,experiment,legacy,legacy,legacy,0,uniform,1,undefined,1,left,116,116,116,0,0,116,116,0,0,116,116,116,0,116,0,Mon Oct 16 14:12:39 2023,The main experiment item,yes,/Users/Thingtwo/Desktop/SternbergTask.osexp,no,mono,no,18,no,white,no,yes,768,legacy,104,11,/Users/Thingtwo/Desktop/Advanced Quant. Sternberg/NC-subject-3.csv,legacy,3 9 7 6 4,Lentiform Loewenfeld,3.3.14,3,y,0,left,right,right,left,NA,678,854,63963,678,NA,2,legacy,5,1024,2,48000,-16,experiment,3,odd,7,753176,749888,750949,1143,136095,750954,685040,1169,72131,755187,755867,751963,2040,755186,NA,Sternberg Task,89,69194,117,yes,1024
76.27118644067797,76.27118644067797,593.5847457627119,593.5847457627119,black,experiment,legacy,legacy,legacy,0,uniform,1,undefined,1,right,117,117,117,0,0,117,117,0,0,117,117,117,0,117,0,Mon Oct 16 14:12:39 2023,The main experiment item,yes,/Users/Thingtwo/Desktop/SternbergTask.osexp,no,mono,no,18,no,white,no,yes,768,legacy,105,11,/Users/Thingtwo/Desktop/Advanced Quant. Sternberg/NC-subject-3.csv,legacy,6 9 4 5 3 2,Lentiform Loewenfeld,3.3.14,0,n,0,right,right,right,right,NA,849,854,63963,849,NA,2,legacy,6,1024,2,48000,-16,experiment,3,odd,8,759166,755872,756938,1143,136095,756943,685040,1169,72131,761176,762026,757953,2040,761176,NA,Sternberg Task,90,70043,118,yes,1024
76.47058823529412,76.47058823529412,594.1596638655462,594.1596638655462,black,experiment,legacy,legacy,legacy,0,uniform,1,undefined,1,right,118,118,118,0,0,118,118,0,0,118,118,118,0,118,0,Mon Oct 16 14:12:39 2023,The main experiment item,yes,/Users/Thingtwo/Desktop/SternbergTask.osexp,no,mono,no,18,no,white,no,yes,768,legacy,106,11,/Users/Thingtwo/Desktop/Advanced Quant. Sternberg/NC-subject-3.csv,legacy,7 6 4 8 1 2,Lentiform Loewenfeld,3.3.14,0,n,0,right,right,right,right,NA,662,854,63963,662,NA,2,legacy,6,1024,2,48000,-16,experiment,3,odd,9,765328,762032,763098,1143,136095,763102,685040,1169,72131,767338,768002,764114,2040,767338,NA,Sternberg Task,91,70705,119,yes,1024
75.83333333333333,75.83333333333333,594.8083333333333,594.8083333333333,black,experiment,legacy,legacy,legacy,0,uniform,0,undefined,0,right,119,119,119,0,0,119,119,0,0,119,119,119,0,119,0,Mon Oct 16 14:12:39 2023,The main experiment item,yes,/Users/Thingtwo/Desktop/SternbergTask.osexp,no,mono,no,18,no,white,no,yes,768,legacy,107,11,/Users/Thingtwo/Desktop/Advanced Quant. Sternberg/NC-subject-3.csv,legacy,9 8 2 7 4,Lentiform Loewenfeld,3.3.14,0,n,0,left,right,right,left,NA,672,854,63963,672,NA,2,legacy,5,1024,2,48000,-16,experiment,3,odd,5,771300,768007,769070,1143,136095,769075,685040,1169,72131,773311,773985,770086,2040,773311,NA,Sternberg Task,91,71377,120,yes,1024
76.03305785123968,76.03305785123968,596.3966942,596.3966942,black,experiment,legacy,legacy,legacy,0,uniform,1,undefined,1,right,120,120,120,0,0,120,120,0,0,120,120,120,0,120,0,Mon Oct 16 14:12:39 2023,The main experiment item,yes,/Users/Thingtwo/Desktop/SternbergTask.osexp,no,mono,no,18,no,white,no,yes,768,legacy,108,11,/Users/Thingtwo/Desktop/Advanced Quant. Sternberg/NC-subject-3.csv,legacy,1 6 4 3 9 7,Lentiform Loewenfeld,3.3.14,0,n,0,right,right,right,right,NA,787,854,63963,787,NA,2,legacy,6,1024,2,48000,-16,experiment,3,odd,8,777284,768007,775054,1143,136095,775059,773990,1169,72131,779295,780084,776069,2040,779295,NA,Sternberg Task,92,72164,121,yes,1024
76.22950819672131,76.22950819672131,598.7295081967213,598.7295081967213,black,experiment,legacy,legacy,legacy,0,uniform,1,undefined,1,right,121,121,121,0,0,121,121,0,0,121,121,121,0,121,0,Mon Oct 16 14:12:39 2023,The main experiment item,yes,/Users/Thingtwo/Desktop/SternbergTask.osexp,no,mono,no,18,no,white,no,yes,768,legacy,109,11,/Users/Thingtwo/Desktop/Advanced Quant. Sternberg/NC-subject-3.csv,legacy,9,Lentiform Loewenfeld,3.3.14,0,n,0,right,right,right,right,NA,881,854,63963,881,NA,2,legacy,1,1024,2,48000,-16,experiment,3,odd,6,783380,780089,781152,1143,136095,781156,773990,1169,72131,785391,786273,782165,2040,785391,NA,Sternberg Task,93,73045,122,yes,1024
76.42276422764228,76.42276422764228,602.5528455284552,602.5528455284552,black,experiment,legacy,legacy,legacy,0,uniform,1,undefined,1,right,122,122,122,0,0,122,122,0,0,122,122,122,0,122,0,Mon Oct 16 14:12:39 2023,The main experiment item,yes,/Users/Thingtwo/Desktop/SternbergTask.osexp,no,mono,no,18,no,white,no,yes,768,legacy,110,11,/Users/Thingtwo/Desktop/Advanced Quant. Sternberg/NC-subject-3.csv,legacy,6 9 5,Lentiform Loewenfeld,3.3.14,0,n,0,right,right,right,right,NA,1069,854,63963,1069,NA,2,legacy,3,1024,2,48000,-16,experiment,3,odd,8,789570,786279,787342,1143,136095,787347,773990,1169,72131,791581,792652,788357,2040,791581,NA,Sternberg Task,94,74114,123,yes,1024
75.80645161290323,75.80645161290323,602.6290322580645,602.6290322580645,black,experiment,legacy,legacy,legacy,0,uniform,0,undefined,0,right,123,123,123,0,0,123,123,0,0,123,123,123,0,123,0,Mon Oct 16 14:12:39 2023,The main experiment item,yes,/Users/Thingtwo/Desktop/SternbergTask.osexp,no,mono,no,18,no,white,no,yes,768,legacy,111,11,/Users/Thingtwo/Desktop/Advanced Quant. Sternberg/NC-subject-3.csv,legacy,1 4 3 6 5,Lentiform Loewenfeld,3.3.14,0,n,0,left,right,right,left,NA,612,854,63963,612,NA,2,legacy,5,1024,2,48000,-16,experiment,3,odd,8,795950,792657,793721,1143,136095,793725,773990,1169,72131,797961,798575,794736,2040,797961,NA,Sternberg Task,94,74726,124,yes,1024
75.2,75.2,604.256,604.256,black,experiment,legacy,legacy,legacy,0,uniform,0,undefined,0,left,124,124,124,0,0,124,124,0,0,124,124,124,0,124,0,Mon Oct 16 14:12:39 2023,The main experiment item,yes,/Users/Thingtwo/Desktop/SternbergTask.osexp,no,mono,no,18,no,white,no,yes,768,legacy,112,11,/Users/Thingtwo/Desktop/Advanced Quant. Sternberg/NC-subject-3.csv,legacy,4 7 6 8 2 3,Lentiform Loewenfeld,3.3.14,6,y,0,right,right,right,right,NA,806,854,63963,806,NA,2,legacy,6,1024,2,48000,-16,experiment,3,odd,3,801872,792657,799643,1143,136095,799648,798580,1169,72131,803881,804688,800657,2040,803881,NA,Sternberg Task,94,75532,125,yes,1024
74.60317460317461,74.60317460317461,606.4365079,606.4365079,black,experiment,legacy,legacy,legacy,0,uniform,0,undefined,0,right,125,125,125,0,0,125,125,0,0,125,125,125,0,125,0,Mon Oct 16 14:12:39 2023,The main experiment item,yes,/Users/Thingtwo/Desktop/SternbergTask.osexp,no,mono,no,18,no,white,no,yes,768,legacy,113,11,/Users/Thingtwo/Desktop/Advanced Quant. Sternberg/NC-subject-3.csv,legacy,6 2 9 3 8 4,Lentiform Loewenfeld,3.3.14,0,n,0,left,right,right,left,NA,879,854,63963,879,NA,2,legacy,6,1024,2,48000,-16,experiment,3,odd,1,807987,792657,805759,1143,136095,805763,804694,1169,72131,809997,810878,806774,2040,809997,NA,Sternberg Task,94,76411,126,yes,1024
74.80314960629921,74.80314960629921,605.5354330708661,605.5354330708661,black,experiment,legacy,legacy,legacy,0,uniform,1,undefined,1,left,126,126,126,0,0,126,126,0,0,126,126,126,0,126,0,Mon Oct 16 14:12:39 2023,The main experiment item,yes,/Users/Thingtwo/Desktop/SternbergTask.osexp,no,mono,no,18,no,white,no,yes,768,legacy,114,11,/Users/Thingtwo/Desktop/Advanced Quant. Sternberg/NC-subject-3.csv,legacy,9 5 3 8 4,Lentiform Loewenfeld,3.3.14,1,y,0,left,right,right,left,NA,492,854,63963,492,NA,2,legacy,5,1024,2,48000,-16,experiment,3,odd,9,814175,792657,811946,1143,136095,811951,810883,1169,72131,816186,816680,812962,2040,816186,NA,Sternberg Task,95,76903,127,yes,1024
75,75,605.9296875,605.9296875,black,experiment,legacy,legacy,legacy,0,uniform,1,undefined,1,right,127,127,127,0,0,127,127,0,0,127,127,127,0,127,0,Mon Oct 16 14:12:39 2023,The main experiment item,yes,/Users/Thingtwo/Desktop/SternbergTask.osexp,no,mono,no,18,no,white,no,yes,768,legacy,115,11,/Users/Thingtwo/Desktop/Advanced Quant. Sternberg/NC-subject-3.csv,legacy,8 2 1 4 5 9,Lentiform Loewenfeld,3.3.14,0,n,0,right,right,right,right,NA,656,854,63963,656,NA,2,legacy,6,1024,2,48000,-16,experiment,3,odd,7,819977,816685,817748,1143,136095,817753,810883,1169,72131,821988,822646,818763,2040,821987,NA,Sternberg Task,96,77559,128,yes,1024
75.19379845,75.19379845,607.8372093023256,607.8372093023256,black,experiment,legacy,legacy,legacy,0,uniform,1,undefined,1,right,128,128,128,0,0,128,128,0,0,128,128,128,0,128,0,Mon Oct 16 14:12:39 2023,The main experiment item,yes,/Users/Thingtwo/Desktop/SternbergTask.osexp,no,mono,no,18,no,white,no,yes,768,legacy,116,11,/Users/Thingtwo/Desktop/Advanced Quant. Sternberg/NC-subject-3.csv,legacy,2 8 6 3 1,Lentiform Loewenfeld,3.3.14,0,n,0,right,right,right,right,NA,852,854,63963,852,NA,2,legacy,5,1024,2,48000,-16,experiment,3,odd,7,825948,822651,823717,1143,136095,823722,810883,1169,72131,827957,828811,824733,2040,827957,NA,Sternberg Task,97,78411,129,yes,1024
75.38461538461539,75.38461538461539,606.9384615384615,606.9384615384615,black,experiment,legacy,legacy,legacy,0,uniform,1,undefined,1,right,129,129,129,0,0,129,129,0,0,129,129,129,0,129,0,Mon Oct 16 14:12:39 2023,The main experiment item,yes,/Users/Thingtwo/Desktop/SternbergTask.osexp,no,mono,no,18,no,white,no,yes,768,legacy,117,11,/Users/Thingtwo/Desktop/Advanced Quant. Sternberg/NC-subject-3.csv,legacy,7 3 2 8,Lentiform Loewenfeld,3.3.14,0,n,0,right,right,right,right,NA,491,854,63963,491,NA,2,legacy,4,1024,2,48000,-16,experiment,3,odd,4,832111,828816,829882,1143,136095,829887,810883,1169,72131,834121,834614,830897,2040,834121,NA,Sternberg Task,98,78902,130,yes,1024
75.57251908396947,75.57251908396947,608.3969465648855,608.3969465648855,black,experiment,legacy,legacy,legacy,0,uniform,1,undefined,1,right,130,130,130,0,0,130,130,0,0,130,130,130,0,130,0,Mon Oct 16 14:12:39 2023,The main experiment item,yes,/Users/Thingtwo/Desktop/SternbergTask.osexp,no,mono,no,18,no,white,no,yes,768,legacy,118,11,/Users/Thingtwo/Desktop/Advanced Quant. Sternberg/NC-subject-3.csv,legacy,8 5 4 2 9 6,Lentiform Loewenfeld,3.3.14,0,n,0,right,right,right,right,NA,798,854,63963,798,NA,2,legacy,6,1024,2,48000,-16,experiment,3,odd,3,837912,834619,835683,1143,136095,835688,810883,1169,72131,839923,840723,836699,2040,839923,NA,Sternberg Task,99,79700,131,yes,1024
75.75757575757575,75.75757575757575,607.0227272727273,607.0227272727273,black,experiment,legacy,legacy,legacy,0,uniform,1,undefined,1,right,131,131,131,0,0,131,131,0,0,131,131,131,0,131,0,Mon Oct 16 14:12:39 2023,The main experiment item,yes,/Users/Thingtwo/Desktop/SternbergTask.osexp,no,mono,no,18,no,white,no,yes,768,legacy,119,11,/Users/Thingtwo/Desktop/Advanced Quant. Sternberg/NC-subject-3.csv,legacy,7 1,Lentiform Loewenfeld,3.3.14,0,n,0,right,right,right,right,NA,427,854,63963,427,NA,2,legacy,2,1024,2,48000,-16,experiment,3,odd,8,844020,840729,841790,1143,136095,841795,810883,1169,72131,846030,846458,842806,2040,846030,NA,Sternberg Task,100,80127,132,yes,1024
75.93984962406014,75.93984962406014,606.5338345864661,606.5338345864661,black,experiment,legacy,legacy,legacy,0,uniform,1,undefined,1,right,132,132,132,0,0,132,132,0,0,132,132,132,0,132,0,Mon Oct 16 14:12:39 2023,The main experiment item,yes,/Users/Thingtwo/Desktop/SternbergTask.osexp,no,mono,no,18,no,white,no,yes,768,legacy,120,11,/Users/Thingtwo/Desktop/Advanced Quant. Sternberg/NC-subject-3.csv,legacy,1 4 9 3,Lentiform Loewenfeld,3.3.14,0,n,0,right,right,right,right,NA,542,854,63963,542,NA,2,legacy,4,1024,2,48000,-16,experiment,3,odd,5,849758,846464,847529,1143,136095,847534,810883,1169,72131,851769,852313,848545,2040,851769,NA,Sternberg Task,101,80669,133,yes,1024
76.11940298507463,76.11940298507463,606.1194029850747,606.1194029850747,black,experiment,legacy,legacy,legacy,0,uniform,1,undefined,1,right,133,133,133,0,0,133,133,0,0,133,133,133,0,133,0,Mon Oct 16 14:12:39 2023,The main experiment item,yes,/Users/Thingtwo/Desktop/SternbergTask.osexp,no,mono,no,18,no,white,no,yes,768,legacy,121,11,/Users/Thingtwo/Desktop/Advanced Quant. Sternberg/NC-subject-3.csv,legacy,3 9 1,Lentiform Loewenfeld,3.3.14,0,n,0,right,right,right,right,NA,551,854,63963,551,NA,2,legacy,3,1024,2,48000,-16,experiment,3,odd,7,855611,852319,853381,1143,136095,853386,810883,1169,72131,857621,858173,854397,2040,857621,NA,Sternberg Task,102,81220,134,yes,1024
76.29629629629629,76.29629629629629,608.5333333333333,608.5333333333333,black,experiment,legacy,legacy,legacy,0,uniform,1,undefined,1,left,134,134,134,0,0,134,134,0,0,134,134,134,0,134,0,Mon Oct 16 14:12:39 2023,The main experiment item,yes,/Users/Thingtwo/Desktop/SternbergTask.osexp,no,mono,no,18,no,white,no,yes,768,legacy,122,11,/Users/Thingtwo/Desktop/Advanced Quant. Sternberg/NC-subject-3.csv,legacy,7 2 3,Lentiform Loewenfeld,3.3.14,3,y,0,left,right,right,left,NA,932,854,63963,932,NA,2,legacy,3,1024,2,48000,-16,experiment,3,odd,3,861474,858179,859243,1143,136095,859248,810883,1169,72131,863485,864418,860260,2040,863484,NA,Sternberg Task,103,82152,135,yes,1024
76.47058823529412,76.47058823529412,607.8897058823529,607.8897058823529,black,experiment,legacy,legacy,legacy,0,uniform,1,undefined,1,right,135,135,135,0,0,135,135,0,0,135,135,135,0,135,0,Mon Oct 16 14:12:39 2023,The main experiment item,yes,/Users/Thingtwo/Desktop/SternbergTask.osexp,no,mono,no,18,no,white,no,yes,768,legacy,123,11,/Users/Thingtwo/Desktop/Advanced Quant. Sternberg/NC-subject-3.csv,legacy,7 8 6 1,Lentiform Loewenfeld,3.3.14,0,n,0,right,right,right,right,NA,521,854,63963,521,NA,2,legacy,4,1024,2,48000,-16,experiment,3,odd,3,867718,864424,865488,1143,136095,865493,810883,1169,72131,869729,870251,866503,2040,869728,NA,Sternberg Task,104,82673,136,yes,1024
76.64233576642336,76.64233576642336,608.1897810218978,608.1897810218978,black,experiment,legacy,legacy,legacy,0,uniform,1,undefined,1,left,136,136,136,0,0,136,136,0,0,136,136,136,0,136,0,Mon Oct 16 14:12:39 2023,The main experiment item,yes,/Users/Thingtwo/Desktop/SternbergTask.osexp,no,mono,no,18,no,white,no,yes,768,legacy,124,11,/Users/Thingtwo/Desktop/Advanced Quant. Sternberg/NC-subject-3.csv,legacy,4 6 2 5 1,Lentiform Loewenfeld,3.3.14,5,y,0,left,right,right,left,NA,649,854,63963,649,NA,2,legacy,5,1024,2,48000,-16,experiment,3,odd,1,873552,870257,871323,1143,136095,871328,810883,1169,72131,875562,876213,872339,2040,875562,NA,Sternberg Task,105,83322,137,yes,1024
76.81159420289855,76.81159420289855,609.0362319,609.0362319,black,experiment,legacy,legacy,legacy,0,uniform,1,undefined,1,right,137,137,137,0,0,137,137,0,0,137,137,137,0,137,0,Mon Oct 16 14:12:39 2023,The main experiment item,yes,/Users/Thingtwo/Desktop/SternbergTask.osexp,no,mono,no,18,no,white,no,yes,768,legacy,125,11,/Users/Thingtwo/Desktop/Advanced Quant. Sternberg/NC-subject-3.csv,legacy,8 6 3 4 7,Lentiform Loewenfeld,3.3.14,0,n,0,right,right,right,right,NA,725,854,63963,725,NA,2,legacy,5,1024,2,48000,-16,experiment,3,odd,1,879518,876218,877285,1143,136095,877290,810883,1169,72131,881528,882255,878303,2040,881528,NA,Sternberg Task,106,84047,138,yes,1024