"acc","accuracy","average_response_time","avg_rt","background","block","canvas_backend","clock_backend","color_backend","correct","correct_instruction1","correct_keyboard_response","correct_response","count_correctFeedback","count_expSequence","count_experiment","count_experimentalLoop","count_fixation","count_incorrectFeedback","count_instruction1","count_keyboard_response","count_logger","count_memorySet","count_new_1_sketchpad","count_new_sketchpad","count_practiceLoop","count_probe","count_thankYou","datetime","description","disable_garbage_collection","experiment_file","experiment_path","font_bold","font_family","font_italic","font_size","font_underline","foreground","form_clicks","fullscreen","height","keyboard_backend","live_row","live_row_practiceLoop","logfile","mouse_backend","numberSet","opensesame_codename","opensesame_version","posInSet","present","repeat_cycle","response","response_instruction1","response_keyboard_response","response_new_1_sketchpad","response_thankYou","response_time","response_time_instruction1","response_time_keyboard_response","response_time_new_1_sketchpad","response_time_thankYou","round_decimals","sampler_backend","setSize","sound_buf_size","sound_channels","sound_freq","sound_sample_size","start","subject_nr","subject_parity","target","time_correctFeedback","time_expSequence","time_experiment","time_experimentalLoop","time_fixation","time_incorrectFeedback","time_instruction1","time_keyboard_response","time_logger","time_memorySet","time_new_1_sketchpad","time_new_sketchpad","time_practiceLoop","time_probe","time_thankYou","title","total_correct","total_response_time","total_responses","width"
"0","0","2000","2000","#3d3846","practice","legacy","legacy","legacy","0","undefined","0","right","0","0","0","0","0","0","0","0","0","0","0","0","0","0","0","Mon Oct 16 18:29:59 2023","The main experiment item","True","Edward Banda Sternbergtask.osexp","C:\Users\Edward Banda\Desktop","False","mono","False","18","no","white","no","yes","768","legacy","0","0","C:/Users/Edward Banda/Desktop/subject-3.csv","legacy","5 7 8 4 1 2","Melodramatic Milgram","4.0.5","0","n","0","None","right","None","NA","NA","2000.0","162356","2000","NA","NA","2","legacy","6","1024","2","48000","-16","experiment","3","odd","6","NA","165470","2366","NA","165472","NA","2369","169675","171675","166473","NA","167674","164727","169675","NA","Sternberg task","0","2000.0","1","1024"
"0","0","2000","2000","#3d3846","practice","legacy","legacy","legacy","0","undefined","0","left","1","1","0","0","1","1","0","1","1","1","0","1","0","1","0","Mon Oct 16 18:29:59 2023","The main experiment item","True","Edward Banda Sternbergtask.osexp","C:\Users\Edward Banda\Desktop","False","mono","False","18","no","white","no","yes","768","legacy","1","1","C:/Users/Edward Banda/Desktop/subject-3.csv","legacy","1 7 9 8 5","Melodramatic Milgram","4.0.5","4","y","0","None","right","None","NA","NA","2000.0","162356","2000","NA","NA","2","legacy","5","1024","2","48000","-16","experiment","3","odd","8","NA","172770","2366","NA","172772","171725","2369","176977","178977","173773","NA","174974","164727","176976","NA","Sternberg task","0","4000.0","2","1024"
"0","0","2000","2000","#3d3846","practice","legacy","legacy","legacy","0","undefined","0","right","2","2","0","0","2","2","0","2","2","2","0","2","0","2","0","Mon Oct 16 18:29:59 2023","The main experiment item","True","Edward Banda Sternbergtask.osexp","C:\Users\Edward Banda\Desktop","False","mono","False","18","no","white","no","yes","768","legacy","2","2","C:/Users/Edward Banda/Desktop/subject-3.csv","legacy","5","Melodramatic Milgram","4.0.5","0","n","0","None","right","None","NA","NA","2000.0","162356","2000","NA","NA","2","legacy","1","1024","2","48000","-16","experiment","3","odd","3","NA","180031","2366","NA","180033","178979","2369","184236","186236","181034","NA","182235","164727","184236","NA","Sternberg task","0","6000.0","3","1024"
"25","25","1647","1647","#3d3846","practice","legacy","legacy","legacy","1","undefined","1","right","3","3","0","0","3","3","0","3","3","3","0","3","0","3","0","Mon Oct 16 18:29:59 2023","The main experiment item","True","Edward Banda Sternbergtask.osexp","C:\Users\Edward Banda\Desktop","False","mono","False","18","no","white","no","yes","768","legacy","3","3","C:/Users/Edward Banda/Desktop/subject-3.csv","legacy","9 6 7 4 5","Melodramatic Milgram","4.0.5","0","n","0","right","right","right","NA","NA","588.0","162356","588","NA","NA","2","legacy","5","1024","2","48000","-16","experiment","3","odd","3","NA","187284","2366","NA","187285","186238","2369","191489","192078","188287","NA","189488","164727","191489","NA","Sternberg task","1","6588.0","4","1024"
"40","40","1520","1520","#3d3846","practice","legacy","legacy","legacy","1","undefined","1","left","4","4","0","0","4","4","0","4","4","4","0","4","0","4","0","Mon Oct 16 18:29:59 2023","The main experiment item","True","Edward Banda Sternbergtask.osexp","C:\Users\Edward Banda\Desktop","False","mono","False","18","no","white","no","yes","768","legacy","4","4","C:/Users/Edward Banda/Desktop/subject-3.csv","legacy","4 3 1 7 9 8","Melodramatic Milgram","4.0.5","1","y","0","left","right","left","NA","NA","1015.0","162356","1015","NA","NA","2","legacy","6","1024","2","48000","-16","experiment","3","odd","4","192090","193130","2366","NA","193132","186238","2369","197337","198352","194133","NA","195336","164727","197337","NA","Sternberg task","2","7603.0","5","1024"
"33","33","1600","1600","#3d3846","practice","legacy","legacy","legacy","0","undefined","0","left","5","5","0","0","5","5","0","5","5","5","0","5","0","5","0","Mon Oct 16 18:29:59 2023","The main experiment item","True","Edward Banda Sternbergtask.osexp","C:\Users\Edward Banda\Desktop","False","mono","False","18","no","white","no","yes","768","legacy","5","5","C:/Users/Edward Banda/Desktop/subject-3.csv","legacy","6","Melodramatic Milgram","4.0.5","1","y","0","None","right","None","NA","NA","2000.0","162356","2000","NA","NA","2","legacy","1","1024","2","48000","-16","experiment","3","odd","6","198364","199416","2366","NA","199418","186238","2369","203621","205621","200419","NA","201620","164727","203621","NA","Sternberg task","2","9603.0","6","1024"
"28","28","1475","1475","#3d3846","practice","legacy","legacy","legacy","0","undefined","0","left","6","6","0","0","6","6","0","6","6","6","0","6","0","6","0","Mon Oct 16 18:29:59 2023","The main experiment item","True","Edward Banda Sternbergtask.osexp","C:\Users\Edward Banda\Desktop","False","mono","False","18","no","white","no","yes","768","legacy","6","6","C:/Users/Edward Banda/Desktop/subject-3.csv","legacy","2 9 4","Melodramatic Milgram","4.0.5","3","y","0","right","right","right","NA","NA","728.0","162356","728","NA","NA","2","legacy","3","1024","2","48000","-16","experiment","3","odd","4","198364","206670","2366","NA","206672","205633","2369","210876","211605","207673","NA","208874","164727","210875","NA","Sternberg task","2","10331.0","7","1024"
"25","25","1375","1375","#3d3846","practice","legacy","legacy","legacy","0","undefined","0","right","7","7","0","0","7","7","0","7","7","7","0","7","0","7","0","Mon Oct 16 18:29:59 2023","The main experiment item","True","Edward Banda Sternbergtask.osexp","C:\Users\Edward Banda\Desktop","False","mono","False","18","no","white","no","yes","768","legacy","7","7","C:/Users/Edward Banda/Desktop/subject-3.csv","legacy","4 1 5","Melodramatic Milgram","4.0.5","0","n","0","left","right","left","NA","NA","670.0","162356","670","NA","NA","2","legacy","3","1024","2","48000","-16","experiment","3","odd","2","198364","212655","2366","NA","212657","211607","2369","216860","217531","213658","NA","214859","164727","216860","NA","Sternberg task","2","11001.0","8","1024"
"33","33","1299","1299","#3d3846","practice","legacy","legacy","legacy","1","undefined","1","right","8","8","0","0","8","8","0","8","8","8","0","8","0","8","0","Mon Oct 16 18:29:59 2023","The main experiment item","True","Edward Banda Sternbergtask.osexp","C:\Users\Edward Banda\Desktop","False","mono","False","18","no","white","no","yes","768","legacy","8","8","C:/Users/Edward Banda/Desktop/subject-3.csv","legacy","3 1 9 4","Melodramatic Milgram","4.0.5","0","n","0","right","right","right","NA","NA","697.0","162356","697","NA","NA","2","legacy","4","1024","2","48000","-16","experiment","3","odd","6","198364","218587","2366","NA","218589","217543","2369","222793","223491","219590","NA","220791","164727","222792","NA","Sternberg task","3","11698.0","9","1024"
"40","40","1280","1280","#3d3846","practice","legacy","legacy","legacy","1","undefined","1","left","9","9","0","0","9","9","0","9","9","9","0","9","0","9","0","Mon Oct 16 18:29:59 2023","The main experiment item","True","Edward Banda Sternbergtask.osexp","C:\Users\Edward Banda\Desktop","False","mono","False","18","no","white","no","yes","768","legacy","9","9","C:/Users/Edward Banda/Desktop/subject-3.csv","legacy","1 5 2 9","Melodramatic Milgram","4.0.5","2","y","0","left","right","left","NA","NA","1103.0","162356","1103","NA","NA","2","legacy","4","1024","2","48000","-16","experiment","3","odd","5","223503","224553","2366","NA","224554","217543","2369","228757","229861","225555","NA","226756","164727","228757","NA","Sternberg task","4","12801.0","10","1024"
"45","45","1233","1233","#3d3846","practice","legacy","legacy","legacy","1","undefined","1","right","10","10","0","0","10","10","0","10","10","10","0","10","0","10","0","Mon Oct 16 18:29:59 2023","The main experiment item","True","Edward Banda Sternbergtask.osexp","C:\Users\Edward Banda\Desktop","False","mono","False","18","no","white","no","yes","768","legacy","10","10","C:/Users/Edward Banda/Desktop/subject-3.csv","legacy","2 1","Melodramatic Milgram","4.0.5","0","n","0","right","right","right","NA","NA","767.0","162356","767","NA","NA","2","legacy","2","1024","2","48000","-16","experiment","3","odd","5","229863","230903","2366","NA","230905","217543","2369","235108","235875","231906","NA","233107","164727","235108","NA","Sternberg task","5","13568.0","11","1024"
"50","50","1177","1177","#3d3846","practice","legacy","legacy","legacy","1","undefined","1","left","11","11","0","0","11","11","0","11","11","11","0","11","0","11","0","Mon Oct 16 18:29:59 2023","The main experiment item","True","Edward Banda Sternbergtask.osexp","C:\Users\Edward Banda\Desktop","False","mono","False","18","no","white","no","yes","768","legacy","11","11","C:/Users/Edward Banda/Desktop/subject-3.csv","legacy","4 8","Melodramatic Milgram","4.0.5","1","y","0","left","right","left","NA","NA","562.0","162356","562","NA","NA","2","legacy","2","1024","2","48000","-16","experiment","3","odd","4","235888","236934","2366","NA","236935","217543","2369","241138","241701","237936","NA","239137","164727","241138","NA","Sternberg task","6","14130.0","12","1024"
"46","46","1142","1142","#3d3846","experiment","legacy","legacy","legacy","0","undefined","0","left","12","12","0","0","12","12","0","12","12","12","0","12","0","12","0","Mon Oct 16 18:29:59 2023","The main experiment item","True","Edward Banda Sternbergtask.osexp","C:\Users\Edward Banda\Desktop","False","mono","False","18","no","white","no","yes","768","legacy","0","11","C:/Users/Edward Banda/Desktop/subject-3.csv","legacy","8","Melodramatic Milgram","4.0.5","1","y","0","right","right","right","right","NA","728.0","162356","728","31268","NA","2","legacy","1","1024","2","48000","-16","experiment","3","odd","8","241712","274110","2366","273981","274111","217543","2369","278314","279043","275112","242713","276313","164727","278314","NA","Sternberg task","6","14858.0","13","1024"
"42","42","1121","1121","#3d3846","experiment","legacy","legacy","legacy","0","undefined","0","left","13","13","0","0","13","13","0","13","13","13","0","13","0","13","0","Mon Oct 16 18:29:59 2023","The main experiment item","True","Edward Banda Sternbergtask.osexp","C:\Users\Edward Banda\Desktop","False","mono","False","18","no","white","no","yes","768","legacy","1","11","C:/Users/Edward Banda/Desktop/subject-3.csv","legacy","9 3 1 2 5","Melodramatic Milgram","4.0.5","4","y","0","right","right","right","right","NA","837.0","162356","837","31268","NA","2","legacy","5","1024","2","48000","-16","experiment","3","odd","2","241712","280095","2366","273981","280097","279055","2369","284300","285138","281098","242713","282299","164727","284300","NA","Sternberg task","6","15695.0","14","1024"
"40","40","1096","1096","#3d3846","experiment","legacy","legacy","legacy","0","undefined","0","right","14","14","0","0","14","14","0","14","14","14","0","14","0","14","0","Mon Oct 16 18:29:59 2023","The main experiment item","True","Edward Banda Sternbergtask.osexp","C:\Users\Edward Banda\Desktop","False","mono","False","18","no","white","no","yes","768","legacy","2","11","C:/Users/Edward Banda/Desktop/subject-3.csv","legacy","3 4 2","Melodramatic Milgram","4.0.5","0","n","0","left","right","left","right","NA","749.0","162356","749","31268","NA","2","legacy","3","1024","2","48000","-16","experiment","3","odd","5","241712","286193","2366","273981","286195","285151","2369","290398","291148","287196","242713","288397","164727","290398","NA","Sternberg task","6","16444.0","15","1024"
"37","37","1066","1066","#3d3846","experiment","legacy","legacy","legacy","0","undefined","0","left","15","15","0","0","15","15","0","15","15","15","0","15","0","15","0","Mon Oct 16 18:29:59 2023","The main experiment item","True","Edward Banda Sternbergtask.osexp","C:\Users\Edward Banda\Desktop","False","mono","False","18","no","white","no","yes","768","legacy","3","11","C:/Users/Edward Banda/Desktop/subject-3.csv","legacy","6 5","Melodramatic Milgram","4.0.5","2","y","0","right","right","right","right","NA","626.0","162356","626","31268","NA","2","legacy","2","1024","2","48000","-16","experiment","3","odd","5","241712","292206","2366","273981","292208","291161","2369","296411","297038","293209","242713","294410","164727","296411","NA","Sternberg task","6","17070.0","16","1024"
"35","35","1121","1121","#3d3846","experiment","legacy","legacy","legacy","0","undefined","0","left","16","16","0","0","16","16","0","16","16","16","0","16","0","16","0","Mon Oct 16 18:29:59 2023","The main experiment item","True","Edward Banda Sternbergtask.osexp","C:\Users\Edward Banda\Desktop","False","mono","False","18","no","white","no","yes","768","legacy","4","11","C:/Users/Edward Banda/Desktop/subject-3.csv","legacy","9 5 3 8 4","Melodramatic Milgram","4.0.5","1","y","0","None","right","None","right","NA","2000.0","162356","2000","31268","NA","2","legacy","5","1024","2","48000","-16","experiment","3","odd","9","241712","298096","2366","273981","298098","297050","2369","302301","304301","299099","242713","300299","164727","302301","NA","Sternberg task","6","19070.0","17","1024"
"38","38","1126","1126","#3d3846","experiment","legacy","legacy","legacy","1","undefined","1","right","17","17","0","0","17","17","0","17","17","17","0","17","0","17","0","Mon Oct 16 18:29:59 2023","The main experiment item","True","Edward Banda Sternbergtask.osexp","C:\Users\Edward Banda\Desktop","False","mono","False","18","no","white","no","yes","768","legacy","5","11","C:/Users/Edward Banda/Desktop/subject-3.csv","legacy","8 5 7 3 6","Melodramatic Milgram","4.0.5","0","n","0","right","right","right","right","NA","1199.0","162356","1199","31268","NA","2","legacy","5","1024","2","48000","-16","experiment","3","odd","9","241712","305350","2366","273981","305352","304312","2369","309555","310755","306353","242713","307554","164727","309555","NA","Sternberg task","7","20269.0","18","1024"
"36","36","1120","1120","#3d3846","experiment","legacy","legacy","legacy","0","undefined","0","right","18","18","0","0","18","18","0","18","18","18","0","18","0","18","0","Mon Oct 16 18:29:59 2023","The main experiment item","True","Edward Banda Sternbergtask.osexp","C:\Users\Edward Banda\Desktop","False","mono","False","18","no","white","no","yes","768","legacy","6","11","C:/Users/Edward Banda/Desktop/subject-3.csv","legacy","8 2 1 4 5 9","Melodramatic Milgram","4.0.5","0","n","0","left","right","left","right","NA","1023.0","162356","1023","31268","NA","2","legacy","6","1024","2","48000","-16","experiment","3","odd","7","310758","311798","2366","273981","311799","304312","2369","316002","317025","312800","242713","314001","164727","316002","NA","Sternberg task","7","21292.0","19","1024"
"40","40","1114","1114","#3d3846","experiment","legacy","legacy","legacy","1","undefined","1","left","19","19","0","0","19","19","0","19","19","19","0","19","0","19","0","Mon Oct 16 18:29:59 2023","The main experiment item","True","Edward Banda Sternbergtask.osexp","C:\Users\Edward Banda\Desktop","False","mono","False","18","no","white","no","yes","768","legacy","7","11","C:/Users/Edward Banda/Desktop/subject-3.csv","legacy","2 8 5 1","Melodramatic Milgram","4.0.5","4","y","0","left","right","left","right","NA","992.0","162356","992","31268","NA","2","legacy","4","1024","2","48000","-16","experiment","3","odd","1","310758","318082","2366","273981","318083","317038","2369","322286","323279","319083","242713","320285","164727","322286","NA","Sternberg task","8","22284.0","20","1024"
"42","42","1099","1099","#3d3846","experiment","legacy","legacy","legacy","1","undefined","1","left","20","20","0","0","20","20","0","20","20","20","0","20","0","20","0","Mon Oct 16 18:29:59 2023","The main experiment item","True","Edward Banda Sternbergtask.osexp","C:\Users\Edward Banda\Desktop","False","mono","False","18","no","white","no","yes","768","legacy","8","11","C:/Users/Edward Banda/Desktop/subject-3.csv","legacy","8 1 6","Melodramatic Milgram","4.0.5","3","y","0","left","right","left","right","NA","805.0","162356","805","31268","NA","2","legacy","3","1024","2","48000","-16","experiment","3","odd","6","323291","324332","2366","273981","324333","317038","2369","328536","329342","325334","242713","326535","164727","328536","NA","Sternberg task","9","23089.0","21","1024"
"40","40","1099","1099","#3d3846","experiment","legacy","legacy","legacy","0","undefined","0","right","21","21","0","0","21","21","0","21","21","21","0","21","0","21","0","Mon Oct 16 18:29:59 2023","The main experiment item","True","Edward Banda Sternbergtask.osexp","C:\Users\Edward Banda\Desktop","False","mono","False","18","no","white","no","yes","768","legacy","9","11","C:/Users/Edward Banda/Desktop/subject-3.csv","legacy","3 9 8 1 6 4","Melodramatic Milgram","4.0.5","0","n","0","left","right","left","right","NA","1091.0","162356","1091","31268","NA","2","legacy","6","1024","2","48000","-16","experiment","3","odd","7","329354","330393","2366","273981","330394","317038","2369","334597","335688","331395","242713","332596","164727","334597","NA","Sternberg task","9","24180.0","22","1024"
"39","39","1080","1080","#3d3846","experiment","legacy","legacy","legacy","0","undefined","0","left","22","22","0","0","22","22","0","22","22","22","0","22","0","22","0","Mon Oct 16 18:29:59 2023","The main experiment item","True","Edward Banda Sternbergtask.osexp","C:\Users\Edward Banda\Desktop","False","mono","False","18","no","white","no","yes","768","legacy","10","11","C:/Users/Edward Banda/Desktop/subject-3.csv","legacy","3 9 7 6 4","Melodramatic Milgram","4.0.5","3","y","0","right","right","right","right","NA","678.0","162356","678","31268","NA","2","legacy","5","1024","2","48000","-16","experiment","3","odd","7","329354","336745","2366","273981","336747","335700","2369","340950","341629","337748","242713","338949","164727","340950","NA","Sternberg task","9","24858.0","23","1024"
"41","41","1072","1072","#3d3846","experiment","legacy","legacy","legacy","1","undefined","1","right","23","23","0","0","23","23","0","23","23","23","0","23","0","23","0","Mon Oct 16 18:29:59 2023","The main experiment item","True","Edward Banda Sternbergtask.osexp","C:\Users\Edward Banda\Desktop","False","mono","False","18","no","white","no","yes","768","legacy","11","11","C:/Users/Edward Banda/Desktop/subject-3.csv","legacy","8 4 3 9","Melodramatic Milgram","4.0.5","0","n","0","right","right","right","right","NA","878.0","162356","878","31268","NA","2","legacy","4","1024","2","48000","-16","experiment","3","odd","5","329354","342696","2366","273981","342698","341641","2369","346901","347779","343699","242713","344900","164727","346901","NA","Sternberg task","10","25736.0","24","1024"
"44","44","1080","1080","#3d3846","experiment","legacy","legacy","legacy","1","undefined","1","right","24","24","0","0","24","24","0","24","24","24","0","24","0","24","0","Mon Oct 16 18:29:59 2023","The main experiment item","True","Edward Banda Sternbergtask.osexp","C:\Users\Edward Banda\Desktop","False","mono","False","18","no","white","no","yes","768","legacy","12","11","C:/Users/Edward Banda/Desktop/subject-3.csv","legacy","8 5 4 2 9 6","Melodramatic Milgram","4.0.5","0","n","0","right","right","right","right","NA","1276.0","162356","1276","31268","NA","2","legacy","6","1024","2","48000","-16","experiment","3","odd","3","347792","348836","2366","273981","348837","341641","2369","353041","354318","349839","242713","351040","164727","353041","NA","Sternberg task","11","27012.0","25","1024"
"42","42","1074","1074","#3d3846","experiment","legacy","legacy","legacy","0","undefined","0","right","25","25","0","0","25","25","0","25","25","25","0","25","0","25","0","Mon Oct 16 18:29:59 2023","The main experiment item","True","Edward Banda Sternbergtask.osexp","C:\Users\Edward Banda\Desktop","False","mono","False","18","no","white","no","yes","768","legacy","13","11","C:/Users/Edward Banda/Desktop/subject-3.csv","legacy","8 6 3 4 7","Melodramatic Milgram","4.0.5","0","n","0","left","right","left","right","NA","918.0","162356","918","31268","NA","2","legacy","5","1024","2","48000","-16","experiment","3","odd","1","354330","355369","2366","273981","355371","341641","2369","359574","360493","356372","242713","357573","164727","359574","NA","Sternberg task","11","27930.0","26","1024"
"44","44","1039","1039","#3d3846","experiment","legacy","legacy","legacy","1","undefined","1","right","26","26","0","0","26","26","0","26","26","26","0","26","0","26","0","Mon Oct 16 18:29:59 2023","The main experiment item","True","Edward Banda Sternbergtask.osexp","C:\Users\Edward Banda\Desktop","False","mono","False","18","no","white","no","yes","768","legacy","14","11","C:/Users/Edward Banda/Desktop/subject-3.csv","legacy","4 1","Melodramatic Milgram","4.0.5","0","n","0","right","right","right","right","NA","146.0","162356","146","31268","NA","2","legacy","2","1024","2","48000","-16","experiment","3","odd","6","354330","361542","2366","273981","361544","360495","2369","365747","365893","362545","242713","363746","164727","365747","NA","Sternberg task","12","28076.0","27","1024"
"46","46","1042","1042","#3d3846","experiment","legacy","legacy","legacy","1","undefined","1","left","27","27","0","0","27","27","0","27","27","27","0","27","0","27","0","Mon Oct 16 18:29:59 2023","The main experiment item","True","Edward Banda Sternbergtask.osexp","C:\Users\Edward Banda\Desktop","False","mono","False","18","no","white","no","yes","768","legacy","15","11","C:/Users/Edward Banda/Desktop/subject-3.csv","legacy","3 5 9 6 2 4","Melodramatic Milgram","4.0.5","1","y","0","left","right","left","right","NA","1122.0","162356","1122","31268","NA","2","legacy","6","1024","2","48000","-16","experiment","3","odd","3","365905","366945","2366","273981","366947","360495","2369","371150","372272","367948","242713","369149","164727","371150","NA","Sternberg task","13","29198.0","28","1024"
"48","48","1044","1044","#3d3846","experiment","legacy","legacy","legacy","1","undefined","1","right","28","28","0","0","28","28","0","28","28","28","0","28","0","28","0","Mon Oct 16 18:29:59 2023","The main experiment item","True","Edward Banda Sternbergtask.osexp","C:\Users\Edward Banda\Desktop","False","mono","False","18","no","white","no","yes","768","legacy","16","11","C:/Users/Edward Banda/Desktop/subject-3.csv","legacy","7 9","Melodramatic Milgram","4.0.5","0","n","0","right","right","right","right","NA","1098.0","162356","1098","31268","NA","2","legacy","2","1024","2","48000","-16","experiment","3","odd","1","372275","373323","2366","273981","373325","360495","2369","377528","378627","374326","242713","375527","164727","377528","NA","Sternberg task","14","30296.0","29","1024"
"50","50","1039","1039","#3d3846","experiment","legacy","legacy","legacy","1","undefined","1","right","29","29","0","0","29","29","0","29","29","29","0","29","0","29","0","Mon Oct 16 18:29:59 2023","The main experiment item","True","Edward Banda Sternbergtask.osexp","C:\Users\Edward Banda\Desktop","False","mono","False","18","no","white","no","yes","768","legacy","17","11","C:/Users/Edward Banda/Desktop/subject-3.csv","legacy","7 9 1 6","Melodramatic Milgram","4.0.5","0","n","0","right","right","right","right","NA","891.0","162356","891","31268","NA","2","legacy","4","1024","2","48000","-16","experiment","3","odd","4","378630","379669","2366","273981","379670","360495","2369","383875","384767","380671","242713","381872","164727","383874","NA","Sternberg task","15","31187.0","30","1024"
"48","48","1037","1037","#3d3846","experiment","legacy","legacy","legacy","0","undefined","0","right","30","30","0","0","30","30","0","30","30","30","0","30","0","30","0","Mon Oct 16 18:29:59 2023","The main experiment item","True","Edward Banda Sternbergtask.osexp","C:\Users\Edward Banda\Desktop","False","mono","False","18","no","white","no","yes","768","legacy","18","11","C:/Users/Edward Banda/Desktop/subject-3.csv","legacy","7 1 5 6 3","Melodramatic Milgram","4.0.5","0","n","0","left","right","left","right","NA","978.0","162356","978","31268","NA","2","legacy","5","1024","2","48000","-16","experiment","3","odd","8","384779","385828","2366","273981","385829","360495","2369","390032","391011","386830","242713","388031","164727","390032","NA","Sternberg task","15","32165.0","31","1024"
"46","46","1029","1029","#3d3846","experiment","legacy","legacy","legacy","0","undefined","0","left","31","31","0","0","31","31","0","31","31","31","0","31","0","31","0","Mon Oct 16 18:29:59 2023","The main experiment item","True","Edward Banda Sternbergtask.osexp","C:\Users\Edward Banda\Desktop","False","mono","False","18","no","white","no","yes","768","legacy","19","11","C:/Users/Edward Banda/Desktop/subject-3.csv","legacy","9 8 4","Melodramatic Milgram","4.0.5","1","y","0","right","right","right","right","NA","784.0","162356","784","31268","NA","2","legacy","3","1024","2","48000","-16","experiment","3","odd","9","384779","392067","2366","273981","392069","391024","2369","396272","397057","393070","242713","394271","164727","396272","NA","Sternberg task","15","32949.0","32","1024"
"48","48","1025","1025","#3d3846","experiment","legacy","legacy","legacy","1","undefined","1","left","32","32","0","0","32","32","0","32","32","32","0","32","0","32","0","Mon Oct 16 18:29:59 2023","The main experiment item","True","Edward Banda Sternbergtask.osexp","C:\Users\Edward Banda\Desktop","False","mono","False","18","no","white","no","yes","768","legacy","20","11","C:/Users/Edward Banda/Desktop/subject-3.csv","legacy","8 9 5 7 1 6","Melodramatic Milgram","4.0.5","4","y","0","left","right","left","right","NA","887.0","162356","887","31268","NA","2","legacy","6","1024","2","48000","-16","experiment","3","odd","7","384779","398112","2366","273981","398115","397069","2369","402318","403206","399116","242713","400317","164727","402318","NA","Sternberg task","16","33836.0","33","1024"
"47","47","1024","1024","#3d3846","experiment","legacy","legacy","legacy","0","undefined","0","right","33","33","0","0","33","33","0","33","33","33","0","33","0","33","0","Mon Oct 16 18:29:59 2023","The main experiment item","True","Edward Banda Sternbergtask.osexp","C:\Users\Edward Banda\Desktop","False","mono","False","18","no","white","no","yes","768","legacy","21","11","C:/Users/Edward Banda/Desktop/subject-3.csv","legacy","1 8 7","Melodramatic Milgram","4.0.5","0","n","0","left","right","left","right","NA","989.0","162356","989","31268","NA","2","legacy","3","1024","2","48000","-16","experiment","3","odd","4","403218","404265","2366","273981","404267","397069","2369","408470","409461","405268","242713","406469","164727","408470","NA","Sternberg task","16","34825.0","34","1024"
"48","48","1025","1025","#3d3846","experiment","legacy","legacy","legacy","1","undefined","1","right","34","34","0","0","34","34","0","34","34","34","0","34","0","34","0","Mon Oct 16 18:29:59 2023","The main experiment item","True","Edward Banda Sternbergtask.osexp","C:\Users\Edward Banda\Desktop","False","mono","False","18","no","white","no","yes","768","legacy","22","11","C:/Users/Edward Banda/Desktop/subject-3.csv","legacy","2 8 6 3 1","Melodramatic Milgram","4.0.5","0","n","0","right","right","right","right","NA","1057.0","162356","1057","31268","NA","2","legacy","5","1024","2","48000","-16","experiment","3","odd","7","403218","410517","2366","273981","410519","409473","2369","414722","415780","411520","242713","412721","164727","414722","NA","Sternberg task","17","35882.0","35","1024"
"47","47","1019","1019","#3d3846","experiment","legacy","legacy","legacy","0","undefined","0","right","35","35","0","0","35","35","0","35","35","35","0","35","0","35","0","Mon Oct 16 18:29:59 2023","The main experiment item","True","Edward Banda Sternbergtask.osexp","C:\Users\Edward Banda\Desktop","False","mono","False","18","no","white","no","yes","768","legacy","23","11","C:/Users/Edward Banda/Desktop/subject-3.csv","legacy","3 9 1","Melodramatic Milgram","4.0.5","0","n","0","left","right","left","right","NA","837.0","162356","837","31268","NA","2","legacy","3","1024","2","48000","-16","experiment","3","odd","7","415782","416827","2366","273981","416828","409473","2369","421031","421869","417829","242713","419030","164727","421031","NA","Sternberg task","17","36719.0","36","1024"
"48","48","1004","1004","#3d3846","experiment","legacy","legacy","legacy","1","undefined","1","right","36","36","0","0","36","36","0","36","36","36","0","36","0","36","0","Mon Oct 16 18:29:59 2023","The main experiment item","True","Edward Banda Sternbergtask.osexp","C:\Users\Edward Banda\Desktop","False","mono","False","18","no","white","no","yes","768","legacy","24","11","C:/Users/Edward Banda/Desktop/subject-3.csv","legacy","1 5 3 2 8","Melodramatic Milgram","4.0.5","0","n","0","right","right","right","right","NA","448.0","162356","448","31268","NA","2","legacy","5","1024","2","48000","-16","experiment","3","odd","4","415782","422921","2366","273981","422922","421882","2369","427126","427575","423923","242713","425124","164727","427126","NA","Sternberg task","18","37167.0","37","1024"
"50","50","989","989","#3d3846","experiment","legacy","legacy","legacy","1","undefined","1","left","37","37","0","0","37","37","0","37","37","37","0","37","0","37","0","Mon Oct 16 18:29:59 2023","The main experiment item","True","Edward Banda Sternbergtask.osexp","C:\Users\Edward Banda\Desktop","False","mono","False","18","no","white","no","yes","768","legacy","25","11","C:/Users/Edward Banda/Desktop/subject-3.csv","legacy","7 6","Melodramatic Milgram","4.0.5","2","y","0","left","right","left","right","NA","423.0","162356","423","31268","NA","2","legacy","2","1024","2","48000","-16","experiment","3","odd","6","427577","428616","2366","273981","428618","421882","2369","432821","433245","429619","242713","430820","164727","432821","NA","Sternberg task","19","37590.0","38","1024"
"51","51","973","973","#3d3846","experiment","legacy","legacy","legacy","1","undefined","1","left","38","38","0","0","38","38","0","38","38","38","0","38","0","38","0","Mon Oct 16 18:29:59 2023","The main experiment item","True","Edward Banda Sternbergtask.osexp","C:\Users\Edward Banda\Desktop","False","mono","False","18","no","white","no","yes","768","legacy","26","11","C:/Users/Edward Banda/Desktop/subject-3.csv","legacy","8 3","Melodramatic Milgram","4.0.5","2","y","0","left","right","left","right","NA","377.0","162356","377","31268","NA","2","legacy","2","1024","2","48000","-16","experiment","3","odd","3","433258","434302","2366","273981","434304","421882","2369","438508","438886","435305","242713","436506","164727","438507","NA","Sternberg task","20","37967.0","39","1024"
"52","52","970","970","#3d3846","experiment","legacy","legacy","legacy","1","undefined","1","right","39","39","0","0","39","39","0","39","39","39","0","39","0","39","0","Mon Oct 16 18:29:59 2023","The main experiment item","True","Edward Banda Sternbergtask.osexp","C:\Users\Edward Banda\Desktop","False","mono","False","18","no","white","no","yes","768","legacy","27","11","C:/Users/Edward Banda/Desktop/subject-3.csv","legacy","1 4 3 6 5","Melodramatic Milgram","4.0.5","0","n","0","right","right","right","right","NA","861.0","162356","861","31268","NA","2","legacy","5","1024","2","48000","-16","experiment","3","odd","8","438899","439945","2366","273981","439946","421882","2369","444149","445011","440947","242713","442148","164727","444149","NA","Sternberg task","21","38828.0","40","1024"
"53","53","969","969","#3d3846","experiment","legacy","legacy","legacy","1","undefined","1","left","40","40","0","0","40","40","0","40","40","40","0","40","0","40","0","Mon Oct 16 18:29:59 2023","The main experiment item","True","Edward Banda Sternbergtask.osexp","C:\Users\Edward Banda\Desktop","False","mono","False","18","no","white","no","yes","768","legacy","28","11","C:/Users/Edward Banda/Desktop/subject-3.csv","legacy","3 9 6 2","Melodramatic Milgram","4.0.5","4","y","0","left","right","left","right","NA","937.0","162356","937","31268","NA","2","legacy","4","1024","2","48000","-16","experiment","3","odd","2","445023","446069","2366","273981","446070","421882","2369","450273","451211","447071","242713","448272","164727","450273","NA","Sternberg task","22","39765.0","41","1024"
"52","52","994","994","#3d3846","experiment","legacy","legacy","legacy","0","undefined","0","right","41","41","0","0","41","41","0","41","41","41","0","41","0","41","0","Mon Oct 16 18:29:59 2023","The main experiment item","True","Edward Banda Sternbergtask.osexp","C:\Users\Edward Banda\Desktop","False","mono","False","18","no","white","no","yes","768","legacy","29","11","C:/Users/Edward Banda/Desktop/subject-3.csv","legacy","9","Melodramatic Milgram","4.0.5","0","n","0","None","right","None","right","NA","2000.0","162356","2000","31268","NA","2","legacy","1","1024","2","48000","-16","experiment","3","odd","6","451213","452256","2366","273981","452258","421882","2369","456463","458463","453260","242713","454461","164727","456463","NA","Sternberg task","22","41765.0","42","1024"
"53","53","991","991","#3d3846","experiment","legacy","legacy","legacy","1","undefined","1","right","42","42","0","0","42","42","0","42","42","42","0","42","0","42","0","Mon Oct 16 18:29:59 2023","The main experiment item","True","Edward Banda Sternbergtask.osexp","C:\Users\Edward Banda\Desktop","False","mono","False","18","no","white","no","yes","768","legacy","30","11","C:/Users/Edward Banda/Desktop/subject-3.csv","legacy","5 3 8 7 2 4","Melodramatic Milgram","4.0.5","0","n","0","right","right","right","right","NA","857.0","162356","857","31268","NA","2","legacy","6","1024","2","48000","-16","experiment","3","odd","9","451213","459519","2366","273981","459521","458476","2369","463725","464584","460522","242713","461723","164727","463725","NA","Sternberg task","23","42622.0","43","1024"
"54","54","987","987","#3d3846","experiment","legacy","legacy","legacy","1","undefined","1","left","43","43","0","0","43","43","0","43","43","43","0","43","0","43","0","Mon Oct 16 18:29:59 2023","The main experiment item","True","Edward Banda Sternbergtask.osexp","C:\Users\Edward Banda\Desktop","False","mono","False","18","no","white","no","yes","768","legacy","31","11","C:/Users/Edward Banda/Desktop/subject-3.csv","legacy","4 7 6 8 2 3","Melodramatic Milgram","4.0.5","6","y","0","left","right","left","right","NA","836.0","162356","836","31268","NA","2","legacy","6","1024","2","48000","-16","experiment","3","odd","3","464596","465638","2366","273981","465641","458476","2369","469845","470683","466643","242713","467844","164727","469845","NA","Sternberg task","24","43458.0","44","1024"
"53","53","991","991","#3d3846","experiment","legacy","legacy","legacy","0","undefined","0","right","44","44","0","0","44","44","0","44","44","44","0","44","0","44","0","Mon Oct 16 18:29:59 2023","The main experiment item","True","Edward Banda Sternbergtask.osexp","C:\Users\Edward Banda\Desktop","False","mono","False","18","no","white","no","yes","768","legacy","32","11","C:/Users/Edward Banda/Desktop/subject-3.csv","legacy","2 8 7 9 5 3","Melodramatic Milgram","4.0.5","0","n","0","left","right","left","right","NA","1160.0","162356","1160","31268","NA","2","legacy","6","1024","2","48000","-16","experiment","3","odd","6","470695","471744","2366","273981","471745","458476","2369","475950","477111","472747","242713","473949","164727","475950","NA","Sternberg task","24","44618.0","45","1024"
"52","52","981","981","#3d3846","experiment","legacy","legacy","legacy","0","undefined","0","left","45","45","0","0","45","45","0","45","45","45","0","45","0","45","0","Mon Oct 16 18:29:59 2023","The main experiment item","True","Edward Banda Sternbergtask.osexp","C:\Users\Edward Banda\Desktop","False","mono","False","18","no","white","no","yes","768","legacy","33","11","C:/Users/Edward Banda/Desktop/subject-3.csv","legacy","8 5 4 7 3 1","Melodramatic Milgram","4.0.5","2","y","0","right","right","right","right","NA","531.0","162356","531","31268","NA","2","legacy","6","1024","2","48000","-16","experiment","3","odd","5","470695","478161","2366","273981","478162","477123","2369","482365","482896","479163","242713","480364","164727","482365","NA","Sternberg task","24","45149.0","46","1024"
"53","53","970","970","#3d3846","experiment","legacy","legacy","legacy","1","undefined","1","left","46","46","0","0","46","46","0","46","46","46","0","46","0","46","0","Mon Oct 16 18:29:59 2023","The main experiment item","True","Edward Banda Sternbergtask.osexp","C:\Users\Edward Banda\Desktop","False","mono","False","18","no","white","no","yes","768","legacy","34","11","C:/Users/Edward Banda/Desktop/subject-3.csv","legacy","4 1 8 7 5","Melodramatic Milgram","4.0.5","3","y","0","left","right","left","right","NA","472.0","162356","472","31268","NA","2","legacy","5","1024","2","48000","-16","experiment","3","odd","8","470695","483943","2366","273981","483946","482899","2369","488149","488623","484947","242713","486148","164727","488149","NA","Sternberg task","25","45621.0","47","1024"
"52","52","962","962","#3d3846","experiment","legacy","legacy","legacy","0","undefined","0","right","47","47","0","0","47","47","0","47","47","47","0","47","0","47","0","Mon Oct 16 18:29:59 2023","The main experiment item","True","Edward Banda Sternbergtask.osexp","C:\Users\Edward Banda\Desktop","False","mono","False","18","no","white","no","yes","768","legacy","35","11","C:/Users/Edward Banda/Desktop/subject-3.csv","legacy","4 2 7 6 1 3","Melodramatic Milgram","4.0.5","0","n","0","left","right","left","right","NA","565.0","162356","565","31268","NA","2","legacy","6","1024","2","48000","-16","experiment","3","odd","8","488635","489677","2366","273981","489679","482899","2369","493882","494447","490680","242713","491881","164727","493882","NA","Sternberg task","25","46186.0","48","1024"
"51","51","952","952","#3d3846","experiment","legacy","legacy","legacy","0","undefined","0","left","48","48","0","0","48","48","0","48","48","48","0","48","0","48","0","Mon Oct 16 18:29:59 2023","The main experiment item","True","Edward Banda Sternbergtask.osexp","C:\Users\Edward Banda\Desktop","False","mono","False","18","no","white","no","yes","768","legacy","36","11","C:/Users/Edward Banda/Desktop/subject-3.csv","legacy","9 1 6 7 8","Melodramatic Milgram","4.0.5","1","y","0","right","right","right","right","NA","472.0","162356","472","31268","NA","2","legacy","5","1024","2","48000","-16","experiment","3","odd","9","488635","495501","2366","273981","495502","494460","2369","499705","500178","496503","242713","497704","164727","499705","NA","Sternberg task","25","46658.0","49","1024"
"50","50","947","947","#3d3846","experiment","legacy","legacy","legacy","0","undefined","0","right","49","49","0","0","49","49","0","49","49","49","0","49","0","49","0","Mon Oct 16 18:29:59 2023","The main experiment item","True","Edward Banda Sternbergtask.osexp","C:\Users\Edward Banda\Desktop","False","mono","False","18","no","white","no","yes","768","legacy","37","11","C:/Users/Edward Banda/Desktop/subject-3.csv","legacy","6 9 5","Melodramatic Milgram","4.0.5","0","n","0","left","right","left","right","NA","703.0","162356","703","31268","NA","2","legacy","3","1024","2","48000","-16","experiment","3","odd","8","488635","501223","2366","273981","501224","500180","2369","505429","506133","502227","242713","503428","164727","505429","NA","Sternberg task","25","47361.0","50","1024"
"50","50","940","940","#3d3846","experiment","legacy","legacy","legacy","1","undefined","1","right","50","50","0","0","50","50","0","50","50","50","0","50","0","50","0","Mon Oct 16 18:29:59 2023","The main experiment item","True","Edward Banda Sternbergtask.osexp","C:\Users\Edward Banda\Desktop","False","mono","False","18","no","white","no","yes","768","legacy","38","11","C:/Users/Edward Banda/Desktop/subject-3.csv","legacy","5 9 2 3","Melodramatic Milgram","4.0.5","0","n","0","right","right","right","right","NA","614.0","162356","614","31268","NA","2","legacy","4","1024","2","48000","-16","experiment","3","odd","8","488635","507187","2366","273981","507188","506145","2369","511393","512008","508190","242713","509392","164727","511393","NA","Sternberg task","26","47975.0","51","1024"
"51","51","938","938","#3d3846","experiment","legacy","legacy","legacy","1","undefined","1","left","51","51","0","0","51","51","0","51","51","51","0","51","0","51","0","Mon Oct 16 18:29:59 2023","The main experiment item","True","Edward Banda Sternbergtask.osexp","C:\Users\Edward Banda\Desktop","False","mono","False","18","no","white","no","yes","768","legacy","39","11","C:/Users/Edward Banda/Desktop/subject-3.csv","legacy","2 5 4 8 7","Melodramatic Milgram","4.0.5","3","y","0","left","right","left","right","NA","829.0","162356","829","31268","NA","2","legacy","5","1024","2","48000","-16","experiment","3","odd","4","512020","513061","2366","273981","513063","506145","2369","517267","518097","514064","242713","515266","164727","517267","NA","Sternberg task","27","48804.0","52","1024"
"50","50","932","932","#3d3846","experiment","legacy","legacy","legacy","0","undefined","0","right","52","52","0","0","52","52","0","52","52","52","0","52","0","52","0","Mon Oct 16 18:29:59 2023","The main experiment item","True","Edward Banda Sternbergtask.osexp","C:\Users\Edward Banda\Desktop","False","mono","False","18","no","white","no","yes","768","legacy","40","11","C:/Users/Edward Banda/Desktop/subject-3.csv","legacy","7 1 8 4 9 3","Melodramatic Milgram","4.0.5","0","n","0","left","right","left","right","NA","642.0","162356","642","31268","NA","2","legacy","6","1024","2","48000","-16","experiment","3","odd","6","518109","519153","2366","273981","519155","506145","2369","523359","524002","520156","242713","521357","164727","523359","NA","Sternberg task","27","49446.0","53","1024"
"51","51","928","928","#3d3846","experiment","legacy","legacy","legacy","1","undefined","1","left","53","53","0","0","53","53","0","53","53","53","0","53","0","53","0","Mon Oct 16 18:29:59 2023","The main experiment item","True","Edward Banda Sternbergtask.osexp","C:\Users\Edward Banda\Desktop","False","mono","False","18","no","white","no","yes","768","legacy","41","11","C:/Users/Edward Banda/Desktop/subject-3.csv","legacy","6 2","Melodramatic Milgram","4.0.5","1","y","0","left","right","left","right","NA","680.0","162356","680","31268","NA","2","legacy","2","1024","2","48000","-16","experiment","3","odd","6","518109","525066","2366","273981","525067","524015","2369","529271","529952","526068","242713","527269","164727","529271","NA","Sternberg task","28","50126.0","54","1024"
"52","52","922","922","#3d3846","experiment","legacy","legacy","legacy","1","undefined","1","left","54","54","0","0","54","54","0","54","54","54","0","54","0","54","0","Mon Oct 16 18:29:59 2023","The main experiment item","True","Edward Banda Sternbergtask.osexp","C:\Users\Edward Banda\Desktop","False","mono","False","18","no","white","no","yes","768","legacy","42","11","C:/Users/Edward Banda/Desktop/subject-3.csv","legacy","4 6 5 8","Melodramatic Milgram","4.0.5","1","y","0","left","right","left","right","NA","593.0","162356","593","31268","NA","2","legacy","4","1024","2","48000","-16","experiment","3","odd","4","529964","531009","2366","273981","531010","524015","2369","535213","535807","532011","242713","533212","164727","535213","NA","Sternberg task","29","50719.0","55","1024"
"53","53","919","919","#3d3846","experiment","legacy","legacy","legacy","1","undefined","1","left","55","55","0","0","55","55","0","55","55","55","0","55","0","55","0","Mon Oct 16 18:29:59 2023","The main experiment item","True","Edward Banda Sternbergtask.osexp","C:\Users\Edward Banda\Desktop","False","mono","False","18","no","white","no","yes","768","legacy","43","11","C:/Users/Edward Banda/Desktop/subject-3.csv","legacy","4 9 7 8 5 3","Melodramatic Milgram","4.0.5","4","y","0","left","right","left","right","NA","787.0","162356","787","31268","NA","2","legacy","6","1024","2","48000","-16","experiment","3","odd","8","535819","536862","2366","273981","536864","524015","2369","541069","541857","537866","242713","539067","164727","541068","NA","Sternberg task","30","51506.0","56","1024"
"52","52","914","914","#3d3846","experiment","legacy","legacy","legacy","0","undefined","0","right","56","56","0","0","56","56","0","56","56","56","0","56","0","56","0","Mon Oct 16 18:29:59 2023","The main experiment item","True","Edward Banda Sternbergtask.osexp","C:\Users\Edward Banda\Desktop","False","mono","False","18","no","white","no","yes","768","legacy","44","11","C:/Users/Edward Banda/Desktop/subject-3.csv","legacy","9 7 4 5 8","Melodramatic Milgram","4.0.5","0","n","0","left","right","left","right","NA","623.0","162356","623","31268","NA","2","legacy","5","1024","2","48000","-16","experiment","3","odd","6","541869","542912","2366","273981","542914","524015","2369","547118","547742","543916","242713","545117","164727","547118","NA","Sternberg task","30","52129.0","57","1024"
"53","53","916","916","#3d3846","experiment","legacy","legacy","legacy","1","undefined","1","left","57","57","0","0","57","57","0","57","57","57","0","57","0","57","0","Mon Oct 16 18:29:59 2023","The main experiment item","True","Edward Banda Sternbergtask.osexp","C:\Users\Edward Banda\Desktop","False","mono","False","18","no","white","no","yes","768","legacy","45","11","C:/Users/Edward Banda/Desktop/subject-3.csv","legacy","7 1 8 5 6 2","Melodramatic Milgram","4.0.5","2","y","0","left","right","left","right","NA","1049.0","162356","1049","31268","NA","2","legacy","6","1024","2","48000","-16","experiment","3","odd","1","541869","548841","2366","273981","548843","547791","2369","553047","554096","549844","242713","551046","164727","553047","NA","Sternberg task","31","53178.0","58","1024"
"54","54","916","916","#3d3846","experiment","legacy","legacy","legacy","1","undefined","1","right","58","58","0","0","58","58","0","58","58","58","0","58","0","58","0","Mon Oct 16 18:29:59 2023","The main experiment item","True","Edward Banda Sternbergtask.osexp","C:\Users\Edward Banda\Desktop","False","mono","False","18","no","white","no","yes","768","legacy","46","11","C:/Users/Edward Banda/Desktop/subject-3.csv","legacy","7 3 2 8","Melodramatic Milgram","4.0.5","0","n","0","right","right","right","right","NA","917.0","162356","917","31268","NA","2","legacy","4","1024","2","48000","-16","experiment","3","odd","4","554109","555148","2366","273981","555150","547791","2369","559353","560271","556151","242713","557352","164727","559353","NA","Sternberg task","32","54095.0","59","1024"
"55","55","911","911","#3d3846","experiment","legacy","legacy","legacy","1","undefined","1","left","59","59","0","0","59","59","0","59","59","59","0","59","0","59","0","Mon Oct 16 18:29:59 2023","The main experiment item","True","Edward Banda Sternbergtask.osexp","C:\Users\Edward Banda\Desktop","False","mono","False","18","no","white","no","yes","768","legacy","47","11","C:/Users/Edward Banda/Desktop/subject-3.csv","legacy","6 9 3 1","Melodramatic Milgram","4.0.5","4","y","0","left","right","left","right","NA","624.0","162356","624","31268","NA","2","legacy","4","1024","2","48000","-16","experiment","3","odd","1","560284","561330","2366","273981","561332","547791","2369","565537","566162","562334","242713","563535","164727","565537","NA","Sternberg task","33","54719.0","60","1024"
"55","55","907","907","#3d3846","experiment","legacy","legacy","legacy","1","undefined","1","left","60","60","0","0","60","60","0","60","60","60","0","60","0","60","0","Mon Oct 16 18:29:59 2023","The main experiment item","True","Edward Banda Sternbergtask.osexp","C:\Users\Edward Banda\Desktop","False","mono","False","18","no","white","no","yes","768","legacy","48","11","C:/Users/Edward Banda/Desktop/subject-3.csv","legacy","6 7 9 3 1 2","Melodramatic Milgram","4.0.5","1","y","0","left","right","left","right","NA","635.0","162356","635","31268","NA","2","legacy","6","1024","2","48000","-16","experiment","3","odd","6","566174","567215","2366","273981","567217","547791","2369","571421","572057","568218","242713","569419","164727","571420","NA","Sternberg task","34","55354.0","61","1024"
"56","56","900","900","#3d3846","experiment","legacy","legacy","legacy","1","undefined","1","left","61","61","0","0","61","61","0","61","61","61","0","61","0","61","0","Mon Oct 16 18:29:59 2023","The main experiment item","True","Edward Banda Sternbergtask.osexp","C:\Users\Edward Banda\Desktop","False","mono","False","18","no","white","no","yes","768","legacy","49","11","C:/Users/Edward Banda/Desktop/subject-3.csv","legacy","2 4 8 5 1 3","Melodramatic Milgram","4.0.5","1","y","0","left","right","left","right","NA","468.0","162356","468","31268","NA","2","legacy","6","1024","2","48000","-16","experiment","3","odd","2","572070","573123","2366","273981","573124","547791","2369","577329","577798","574126","242713","575327","164727","577329","NA","Sternberg task","35","55822.0","62","1024"
"55","55","897","897","#3d3846","experiment","legacy","legacy","legacy","0","undefined","0","right","62","62","0","0","62","62","0","62","62","62","0","62","0","62","0","Mon Oct 16 18:29:59 2023","The main experiment item","True","Edward Banda Sternbergtask.osexp","C:\Users\Edward Banda\Desktop","False","mono","False","18","no","white","no","yes","768","legacy","50","11","C:/Users/Edward Banda/Desktop/subject-3.csv","legacy","6 3 1 7 9 8","Melodramatic Milgram","4.0.5","0","n","0","left","right","left","right","NA","692.0","162356","692","31268","NA","2","legacy","6","1024","2","48000","-16","experiment","3","odd","4","577838","578885","2366","273981","578887","547791","2369","583090","583783","579888","242713","581089","164727","583090","NA","Sternberg task","35","56514.0","63","1024"
"54","54","891","891","#3d3846","experiment","legacy","legacy","legacy","0","undefined","0","left","63","63","0","0","63","63","0","63","63","63","0","63","0","63","0","Mon Oct 16 18:29:59 2023","The main experiment item","True","Edward Banda Sternbergtask.osexp","C:\Users\Edward Banda\Desktop","False","mono","False","18","no","white","no","yes","768","legacy","51","11","C:/Users/Edward Banda/Desktop/subject-3.csv","legacy","8 7 3","Melodramatic Milgram","4.0.5","1","y","0","right","right","right","right","NA","519.0","162356","519","31268","NA","2","legacy","3","1024","2","48000","-16","experiment","3","odd","8","577838","584833","2366","273981","584835","583792","2369","589039","589558","585836","242713","587037","164727","589039","NA","Sternberg task","35","57033.0","64","1024"
"53","53","885","885","#3d3846","experiment","legacy","legacy","legacy","0","undefined","0","right","64","64","0","0","64","64","0","64","64","64","0","64","0","64","0","Mon Oct 16 18:29:59 2023","The main experiment item","True","Edward Banda Sternbergtask.osexp","C:\Users\Edward Banda\Desktop","False","mono","False","18","no","white","no","yes","768","legacy","52","11","C:/Users/Edward Banda/Desktop/subject-3.csv","legacy","6 2 9 3 8 4","Melodramatic Milgram","4.0.5","0","n","0","left","right","left","right","NA","516.0","162356","516","31268","NA","2","legacy","6","1024","2","48000","-16","experiment","3","odd","1","577838","590612","2366","273981","590613","589570","2369","594817","595334","591614","242713","592816","164727","594817","NA","Sternberg task","35","57549.0","65","1024"
"54","54","883","883","#3d3846","experiment","legacy","legacy","legacy","1","undefined","1","right","65","65","0","0","65","65","0","65","65","65","0","65","0","65","0","Mon Oct 16 18:29:59 2023","The main experiment item","True","Edward Banda Sternbergtask.osexp","C:\Users\Edward Banda\Desktop","False","mono","False","18","no","white","no","yes","768","legacy","53","11","C:/Users/Edward Banda/Desktop/subject-3.csv","legacy","6 8","Melodramatic Milgram","4.0.5","0","n","0","right","right","right","right","NA","764.0","162356","764","31268","NA","2","legacy","2","1024","2","48000","-16","experiment","3","odd","9","577838","596385","2366","273981","596387","595346","2369","600590","601355","597388","242713","598589","164727","600590","NA","Sternberg task","36","58313.0","66","1024"
"53","53","880","880","#3d3846","experiment","legacy","legacy","legacy","0","undefined","0","right","66","66","0","0","66","66","0","66","66","66","0","66","0","66","0","Mon Oct 16 18:29:59 2023","The main experiment item","True","Edward Banda Sternbergtask.osexp","C:\Users\Edward Banda\Desktop","False","mono","False","18","no","white","no","yes","768","legacy","54","11","C:/Users/Edward Banda/Desktop/subject-3.csv","legacy","3 4 9 6 7 8","Melodramatic Milgram","4.0.5","0","n","0","left","right","left","right","NA","664.0","162356","664","31268","NA","2","legacy","6","1024","2","48000","-16","experiment","3","odd","2","601367","602404","2366","273981","602407","595346","2369","606611","607276","603408","242713","604610","164727","606611","NA","Sternberg task","36","58977.0","67","1024"
"54","54","876","876","#3d3846","experiment","legacy","legacy","legacy","1","undefined","1","left","67","67","0","0","67","67","0","67","67","67","0","67","0","67","0","Mon Oct 16 18:29:59 2023","The main experiment item","True","Edward Banda Sternbergtask.osexp","C:\Users\Edward Banda\Desktop","False","mono","False","18","no","white","no","yes","768","legacy","55","11","C:/Users/Edward Banda/Desktop/subject-3.csv","legacy","7","Melodramatic Milgram","4.0.5","1","y","0","left","right","left","right","NA","643.0","162356","643","31268","NA","2","legacy","1","1024","2","48000","-16","experiment","3","odd","7","601367","608331","2366","273981","608333","607289","2369","612536","613180","609334","242713","610535","164727","612536","NA","Sternberg task","37","59620.0","68","1024"
"55","55","874","874","#3d3846","experiment","legacy","legacy","legacy","1","undefined","1","left","68","68","0","0","68","68","0","68","68","68","0","68","0","68","0","Mon Oct 16 18:29:59 2023","The main experiment item","True","Edward Banda Sternbergtask.osexp","C:\Users\Edward Banda\Desktop","False","mono","False","18","no","white","no","yes","768","legacy","56","11","C:/Users/Edward Banda/Desktop/subject-3.csv","legacy","8 9 5 6 7","Melodramatic Milgram","4.0.5","1","y","0","left","right","left","right","NA","750.0","162356","750","31268","NA","2","legacy","5","1024","2","48000","-16","experiment","3","odd","8","613193","614245","2366","273981","614246","607289","2369","618450","619201","615248","242713","616449","164727","618450","NA","Sternberg task","38","60370.0","69","1024"
"54","54","871","871","#3d3846","experiment","legacy","legacy","legacy","0","undefined","0","right","69","69","0","0","69","69","0","69","69","69","0","69","0","69","0","Mon Oct 16 18:29:59 2023","The main experiment item","True","Edward Banda Sternbergtask.osexp","C:\Users\Edward Banda\Desktop","False","mono","False","18","no","white","no","yes","768","legacy","57","11","C:/Users/Edward Banda/Desktop/subject-3.csv","legacy","7 4 2 8 1 9","Melodramatic Milgram","4.0.5","0","n","0","left","right","left","right","NA","623.0","162356","623","31268","NA","2","legacy","6","1024","2","48000","-16","experiment","3","odd","5","619213","620256","2366","273981","620258","607289","2369","624463","625087","621259","242713","622461","164727","624462","NA","Sternberg task","38","60993.0","70","1024"
"54","54","872","872","#3d3846","experiment","legacy","legacy","legacy","1","undefined","1","right","70","70","0","0","70","70","0","70","70","70","0","70","0","70","0","Mon Oct 16 18:29:59 2023","The main experiment item","True","Edward Banda Sternbergtask.osexp","C:\Users\Edward Banda\Desktop","False","mono","False","18","no","white","no","yes","768","legacy","58","11","C:/Users/Edward Banda/Desktop/subject-3.csv","legacy","1 7 8 3 9","Melodramatic Milgram","4.0.5","0","n","0","right","right","right","right","NA","942.0","162356","942","31268","NA","2","legacy","5","1024","2","48000","-16","experiment","3","odd","2","619213","626139","2366","273981","626140","625099","2369","630344","631287","627141","242713","628343","164727","630344","NA","Sternberg task","39","61935.0","71","1024"
"55","55","872","872","#3d3846","experiment","legacy","legacy","legacy","1","undefined","1","left","71","71","0","0","71","71","0","71","71","71","0","71","0","71","0","Mon Oct 16 18:29:59 2023","The main experiment item","True","Edward Banda Sternbergtask.osexp","C:\Users\Edward Banda\Desktop","False","mono","False","18","no","white","no","yes","768","legacy","59","11","C:/Users/Edward Banda/Desktop/subject-3.csv","legacy","3 2 1 4 7","Melodramatic Milgram","4.0.5","2","y","0","left","right","left","right","NA","878.0","162356","878","31268","NA","2","legacy","5","1024","2","48000","-16","experiment","3","odd","2","631299","632344","2366","273981","632346","625099","2369","636550","637429","633348","242713","634549","164727","636550","NA","Sternberg task","40","62813.0","72","1024"
"56","56","875","875","#3d3846","experiment","legacy","legacy","legacy","1","undefined","1","right","72","72","0","0","72","72","0","72","72","72","0","72","0","72","0","Mon Oct 16 18:29:59 2023","The main experiment item","True","Edward Banda Sternbergtask.osexp","C:\Users\Edward Banda\Desktop","False","mono","False","18","no","white","no","yes","768","legacy","60","11","C:/Users/Edward Banda/Desktop/subject-3.csv","legacy","4 2 6 9","Melodramatic Milgram","4.0.5","0","n","0","right","right","right","right","NA","1103.0","162356","1103","31268","NA","2","legacy","4","1024","2","48000","-16","experiment","3","odd","7","637441","638483","2366","273981","638484","625099","2369","642688","643792","639485","242713","640687","164727","642688","NA","Sternberg task","41","63916.0","73","1024"
"55","55","877","877","#3d3846","experiment","legacy","legacy","legacy","0","undefined","0","left","73","73","0","0","73","73","0","73","73","73","0","73","0","73","0","Mon Oct 16 18:29:59 2023","The main experiment item","True","Edward Banda Sternbergtask.osexp","C:\Users\Edward Banda\Desktop","False","mono","False","18","no","white","no","yes","768","legacy","61","11","C:/Users/Edward Banda/Desktop/subject-3.csv","legacy","4 3 2 5 8","Melodramatic Milgram","4.0.5","2","y","0","right","right","right","right","NA","1026.0","162356","1026","31268","NA","2","legacy","5","1024","2","48000","-16","experiment","3","odd","3","643804","644849","2366","273981","644851","625099","2369","649055","650082","645852","242713","647054","164727","649055","NA","Sternberg task","41","64942.0","74","1024"
"56","56","876","876","#3d3846","experiment","legacy","legacy","legacy","1","undefined","1","left","74","74","0","0","74","74","0","74","74","74","0","74","0","74","0","Mon Oct 16 18:29:59 2023","The main experiment item","True","Edward Banda Sternbergtask.osexp","C:\Users\Edward Banda\Desktop","False","mono","False","18","no","white","no","yes","768","legacy","62","11","C:/Users/Edward Banda/Desktop/subject-3.csv","legacy","9 3 8 2 1 4","Melodramatic Milgram","4.0.5","3","y","0","left","right","left","right","NA","773.0","162356","773","31268","NA","2","legacy","6","1024","2","48000","-16","experiment","3","odd","8","643804","651128","2366","273981","651130","650095","2369","655333","656107","652131","242713","653332","164727","655333","NA","Sternberg task","42","65715.0","75","1024"
"55","55","877","877","#3d3846","experiment","legacy","legacy","legacy","0","undefined","0","right","75","75","0","0","75","75","0","75","75","75","0","75","0","75","0","Mon Oct 16 18:29:59 2023","The main experiment item","True","Edward Banda Sternbergtask.osexp","C:\Users\Edward Banda\Desktop","False","mono","False","18","no","white","no","yes","768","legacy","63","11","C:/Users/Edward Banda/Desktop/subject-3.csv","legacy","1 6 4 3 9 7","Melodramatic Milgram","4.0.5","0","n","0","left","right","left","right","NA","953.0","162356","953","31268","NA","2","legacy","6","1024","2","48000","-16","experiment","3","odd","8","656119","657163","2366","273981","657164","650095","2369","661368","662321","658164","242713","659366","164727","661368","NA","Sternberg task","42","66668.0","76","1024"
"54","54","879","879","#3d3846","experiment","legacy","legacy","legacy","0","undefined","0","left","76","76","0","0","76","76","0","76","76","76","0","76","0","76","0","Mon Oct 16 18:29:59 2023","The main experiment item","True","Edward Banda Sternbergtask.osexp","C:\Users\Edward Banda\Desktop","False","mono","False","18","no","white","no","yes","768","legacy","64","11","C:/Users/Edward Banda/Desktop/subject-3.csv","legacy","3 5 7 1","Melodramatic Milgram","4.0.5","3","y","0","right","right","right","right","NA","1046.0","162356","1046","31268","NA","2","legacy","4","1024","2","48000","-16","experiment","3","odd","7","656119","663380","2366","273981","663381","662334","2369","667584","668631","664382","242713","665583","164727","667584","NA","Sternberg task","42","67714.0","77","1024"
"55","55","881","881","#3d3846","experiment","legacy","legacy","legacy","1","undefined","1","right","77","77","0","0","77","77","0","77","77","77","0","77","0","77","0","Mon Oct 16 18:29:59 2023","The main experiment item","True","Edward Banda Sternbergtask.osexp","C:\Users\Edward Banda\Desktop","False","mono","False","18","no","white","no","yes","768","legacy","65","11","C:/Users/Edward Banda/Desktop/subject-3.csv","legacy","1","Melodramatic Milgram","4.0.5","0","n","0","right","right","right","right","NA","1016.0","162356","1016","31268","NA","2","legacy","1","1024","2","48000","-16","experiment","3","odd","7","656119","669714","2366","273981","669715","668672","2369","673919","674936","670716","242713","671917","164727","673919","NA","Sternberg task","43","68730.0","78","1024"
"55","55","880","880","#3d3846","experiment","legacy","legacy","legacy","1","undefined","1","left","78","78","0","0","78","78","0","78","78","78","0","78","0","78","0","Mon Oct 16 18:29:59 2023","The main experiment item","True","Edward Banda Sternbergtask.osexp","C:\Users\Edward Banda\Desktop","False","mono","False","18","no","white","no","yes","768","legacy","66","11","C:/Users/Edward Banda/Desktop/subject-3.csv","legacy","5 2 9 6 1 7","Melodramatic Milgram","4.0.5","3","y","0","left","right","left","right","NA","849.0","162356","849","31268","NA","2","legacy","6","1024","2","48000","-16","experiment","3","odd","9","674948","675992","2366","273981","675993","668672","2369","680197","681046","676994","242713","678196","164727","680197","NA","Sternberg task","44","69579.0","79","1024"
"56","56","878","878","#3d3846","experiment","legacy","legacy","legacy","1","undefined","1","right","79","79","0","0","79","79","0","79","79","79","0","79","0","79","0","Mon Oct 16 18:29:59 2023","The main experiment item","True","Edward Banda Sternbergtask.osexp","C:\Users\Edward Banda\Desktop","False","mono","False","18","no","white","no","yes","768","legacy","67","11","C:/Users/Edward Banda/Desktop/subject-3.csv","legacy","5","Melodramatic Milgram","4.0.5","0","n","0","right","right","right","right","NA","715.0","162356","715","31268","NA","2","legacy","1","1024","2","48000","-16","experiment","3","odd","8","681059","682096","2366","273981","682098","668672","2369","686301","687017","683099","242713","684300","164727","686301","NA","Sternberg task","45","70294.0","80","1024"
"55","55","879","879","#3d3846","experiment","legacy","legacy","legacy","0","undefined","0","left","80","80","0","0","80","80","0","80","80","80","0","80","0","80","0","Mon Oct 16 18:29:59 2023","The main experiment item","True","Edward Banda Sternbergtask.osexp","C:\Users\Edward Banda\Desktop","False","mono","False","18","no","white","no","yes","768","legacy","68","11","C:/Users/Edward Banda/Desktop/subject-3.csv","legacy","3 5 4 7","Melodramatic Milgram","4.0.5","1","y","0","right","right","right","right","NA","969.0","162356","969","31268","NA","2","legacy","4","1024","2","48000","-16","experiment","3","odd","3","687030","688069","2366","273981","688070","668672","2369","692273","693243","689071","242713","690272","164727","692273","NA","Sternberg task","45","71263.0","81","1024"
"56","56","880","880","#3d3846","experiment","legacy","legacy","legacy","1","undefined","1","right","81","81","0","0","81","81","0","81","81","81","0","81","0","81","0","Mon Oct 16 18:29:59 2023","The main experiment item","True","Edward Banda Sternbergtask.osexp","C:\Users\Edward Banda\Desktop","False","mono","False","18","no","white","no","yes","768","legacy","69","11","C:/Users/Edward Banda/Desktop/subject-3.csv","legacy","2 6 4 3 9","Melodramatic Milgram","4.0.5","0","n","0","right","right","right","right","NA","911.0","162356","911","31268","NA","2","legacy","5","1024","2","48000","-16","experiment","3","odd","1","687030","694296","2366","273981","694297","693255","2369","698500","699413","695298","242713","696499","164727","698500","NA","Sternberg task","46","72174.0","82","1024"
"56","56","880","880","#3d3846","experiment","legacy","legacy","legacy","1","undefined","1","right","82","82","0","0","82","82","0","82","82","82","0","82","0","82","0","Mon Oct 16 18:29:59 2023","The main experiment item","True","Edward Banda Sternbergtask.osexp","C:\Users\Edward Banda\Desktop","False","mono","False","18","no","white","no","yes","768","legacy","70","11","C:/Users/Edward Banda/Desktop/subject-3.csv","legacy","2 5 1 4","Melodramatic Milgram","4.0.5","0","n","0","right","right","right","right","NA","905.0","162356","905","31268","NA","2","legacy","4","1024","2","48000","-16","experiment","3","odd","6","699425","700468","2366","273981","700469","693255","2369","704672","705578","701470","242713","702671","164727","704672","NA","Sternberg task","47","73079.0","83","1024"
"57","57","881","881","#3d3846","experiment","legacy","legacy","legacy","1","undefined","1","left","83","83","0","0","83","83","0","83","83","83","0","83","0","83","0","Mon Oct 16 18:29:59 2023","The main experiment item","True","Edward Banda Sternbergtask.osexp","C:\Users\Edward Banda\Desktop","False","mono","False","18","no","white","no","yes","768","legacy","71","11","C:/Users/Edward Banda/Desktop/subject-3.csv","legacy","1 4 9 3 2 5","Melodramatic Milgram","4.0.5","3","y","0","left","right","left","right","NA","937.0","162356","937","31268","NA","2","legacy","6","1024","2","48000","-16","experiment","3","odd","9","705590","706636","2366","273981","706637","693255","2369","710840","711778","707638","242713","708839","164727","710840","NA","Sternberg task","48","74016.0","84","1024"
"56","56","886","886","#3d3846","experiment","legacy","legacy","legacy","0","undefined","0","right","84","84","0","0","84","84","0","84","84","84","0","84","0","84","0","Mon Oct 16 18:29:59 2023","The main experiment item","True","Edward Banda Sternbergtask.osexp","C:\Users\Edward Banda\Desktop","False","mono","False","18","no","white","no","yes","768","legacy","72","11","C:/Users/Edward Banda/Desktop/subject-3.csv","legacy","2 8 9 4 1","Melodramatic Milgram","4.0.5","0","n","0","left","right","left","right","NA","1372.0","162356","1372","31268","NA","2","legacy","5","1024","2","48000","-16","experiment","3","odd","5","711790","712833","2366","273981","712834","693255","2369","717039","718413","713836","242713","715037","164727","717039","NA","Sternberg task","48","75388.0","85","1024"
"56","56","889","889","#3d3846","experiment","legacy","legacy","legacy","1","undefined","1","right","85","85","0","0","85","85","0","85","85","85","0","85","0","85","0","Mon Oct 16 18:29:59 2023","The main experiment item","True","Edward Banda Sternbergtask.osexp","C:\Users\Edward Banda\Desktop","False","mono","False","18","no","white","no","yes","768","legacy","73","11","C:/Users/Edward Banda/Desktop/subject-3.csv","legacy","7 1","Melodramatic Milgram","4.0.5","0","n","0","right","right","right","right","NA","1105.0","162356","1105","31268","NA","2","legacy","2","1024","2","48000","-16","experiment","3","odd","8","711790","719466","2366","273981","719467","718426","2369","723671","724778","720469","242713","721670","164727","723671","NA","Sternberg task","49","76493.0","86","1024"
"56","56","889","889","#3d3846","experiment","legacy","legacy","legacy","0","undefined","0","right","86","86","0","0","86","86","0","86","86","86","0","86","0","86","0","Mon Oct 16 18:29:59 2023","The main experiment item","True","Edward Banda Sternbergtask.osexp","C:\Users\Edward Banda\Desktop","False","mono","False","18","no","white","no","yes","768","legacy","74","11","C:/Users/Edward Banda/Desktop/subject-3.csv","legacy","8 4 3 5","Melodramatic Milgram","4.0.5","0","n","0","left","right","left","right","NA","882.0","162356","882","31268","NA","2","legacy","4","1024","2","48000","-16","experiment","3","odd","6","724790","725829","2366","273981","725831","718426","2369","730034","730917","726832","242713","728033","164727","730034","NA","Sternberg task","49","77375.0","87","1024"
"56","56","887","887","#3d3846","experiment","legacy","legacy","legacy","1","undefined","1","right","87","87","0","0","87","87","0","87","87","87","0","87","0","87","0","Mon Oct 16 18:29:59 2023","The main experiment item","True","Edward Banda Sternbergtask.osexp","C:\Users\Edward Banda\Desktop","False","mono","False","18","no","white","no","yes","768","legacy","75","11","C:/Users/Edward Banda/Desktop/subject-3.csv","legacy","6 8 4","Melodramatic Milgram","4.0.5","0","n","0","right","right","right","right","NA","713.0","162356","713","31268","NA","2","legacy","3","1024","2","48000","-16","experiment","3","odd","1","724790","731973","2366","273981","731975","730930","2369","736179","736893","732976","242713","734178","164727","736179","NA","Sternberg task","50","78088.0","88","1024"
"57","57","886","886","#3d3846","experiment","legacy","legacy","legacy","1","undefined","1","left","88","88","0","0","88","88","0","88","88","88","0","88","0","88","0","Mon Oct 16 18:29:59 2023","The main experiment item","True","Edward Banda Sternbergtask.osexp","C:\Users\Edward Banda\Desktop","False","mono","False","18","no","white","no","yes","768","legacy","76","11","C:/Users/Edward Banda/Desktop/subject-3.csv","legacy","3 4","Melodramatic Milgram","4.0.5","1","y","0","left","right","left","right","NA","784.0","162356","784","31268","NA","2","legacy","2","1024","2","48000","-16","experiment","3","odd","3","736905","737948","2366","273981","737950","730930","2369","742154","742939","738951","242713","740152","164727","742154","NA","Sternberg task","51","78872.0","89","1024"
"57","57","886","886","#3d3846","experiment","legacy","legacy","legacy","1","undefined","1","right","89","89","0","0","89","89","0","89","89","89","0","89","0","89","0","Mon Oct 16 18:29:59 2023","The main experiment item","True","Edward Banda Sternbergtask.osexp","C:\Users\Edward Banda\Desktop","False","mono","False","18","no","white","no","yes","768","legacy","77","11","C:/Users/Edward Banda/Desktop/subject-3.csv","legacy","6 9 4 5 2","Melodramatic Milgram","4.0.5","0","n","0","right","right","right","right","NA","922.0","162356","922","31268","NA","2","legacy","5","1024","2","48000","-16","experiment","3","odd","1","742951","743994","2366","273981","743996","730930","2369","748200","749123","744997","242713","746199","164727","748200","NA","Sternberg task","52","79794.0","90","1024"
"57","57","888","888","#3d3846","experiment","legacy","legacy","legacy","0","undefined","0","left","90","90","0","0","90","90","0","90","90","90","0","90","0","90","0","Mon Oct 16 18:29:59 2023","The main experiment item","True","Edward Banda Sternbergtask.osexp","C:\Users\Edward Banda\Desktop","False","mono","False","18","no","white","no","yes","768","legacy","78","11","C:/Users/Edward Banda/Desktop/subject-3.csv","legacy","6 9 7 4 5 1","Melodramatic Milgram","4.0.5","2","y","0","right","right","right","right","NA","1082.0","162356","1082","31268","NA","2","legacy","6","1024","2","48000","-16","experiment","3","odd","9","749135","750179","2366","273981","750181","730930","2369","754384","755467","751182","242713","752383","164727","754384","NA","Sternberg task","52","80876.0","91","1024"
"57","57","888","888","#3d3846","experiment","legacy","legacy","legacy","1","undefined","1","right","91","91","0","0","91","91","0","91","91","91","0","91","0","91","0","Mon Oct 16 18:29:59 2023","The main experiment item","True","Edward Banda Sternbergtask.osexp","C:\Users\Edward Banda\Desktop","False","mono","False","18","no","white","no","yes","768","legacy","79","11","C:/Users/Edward Banda/Desktop/subject-3.csv","legacy","8 9","Melodramatic Milgram","4.0.5","0","n","0","right","right","right","right","NA","853.0","162356","853","31268","NA","2","legacy","2","1024","2","48000","-16","experiment","3","odd","5","749135","756540","2366","273981","756542","755479","2369","760745","761599","757543","242713","758744","164727","760745","NA","Sternberg task","53","81729.0","92","1024"
"58","58","893","893","#3d3846","experiment","legacy","legacy","legacy","1","undefined","1","right","92","92","0","0","92","92","0","92","92","92","0","92","0","92","0","Mon Oct 16 18:29:59 2023","The main experiment item","True","Edward Banda Sternbergtask.osexp","C:\Users\Edward Banda\Desktop","False","mono","False","18","no","white","no","yes","768","legacy","80","11","C:/Users/Edward Banda/Desktop/subject-3.csv","legacy","1 3 2 6 9","Melodramatic Milgram","4.0.5","0","n","0","right","right","right","right","NA","1356.0","162356","1356","31268","NA","2","legacy","5","1024","2","48000","-16","experiment","3","odd","5","761611","762646","2366","273981","762647","755479","2369","766850","768207","763648","242713","764849","164727","766850","NA","Sternberg task","54","83085.0","93","1024"
"58","58","897","897","#3d3846","experiment","legacy","legacy","legacy","1","undefined","1","left","93","93","0","0","93","93","0","93","93","93","0","93","0","93","0","Mon Oct 16 18:29:59 2023","The main experiment item","True","Edward Banda Sternbergtask.osexp","C:\Users\Edward Banda\Desktop","False","mono","False","18","no","white","no","yes","768","legacy","81","11","C:/Users/Edward Banda/Desktop/subject-3.csv","legacy","3 4 9 6 2 9","Melodramatic Milgram","4.0.5","5","y","0","left","right","left","right","NA","1238.0","162356","1238","31268","NA","2","legacy","6","1024","2","48000","-16","experiment","3","odd","2","768220","769257","2366","273981","769258","755479","2369","773463","774702","770260","242713","771462","164727","773463","NA","Sternberg task","55","84323.0","94","1024"
"58","58","894","894","#3d3846","experiment","legacy","legacy","legacy","1","undefined","1","left","94","94","0","0","94","94","0","94","94","94","0","94","0","94","0","Mon Oct 16 18:29:59 2023","The main experiment item","True","Edward Banda Sternbergtask.osexp","C:\Users\Edward Banda\Desktop","False","mono","False","18","no","white","no","yes","768","legacy","82","11","C:/Users/Edward Banda/Desktop/subject-3.csv","legacy","4","Melodramatic Milgram","4.0.5","1","y","0","left","right","left","right","NA","649.0","162356","649","31268","NA","2","legacy","1","1024","2","48000","-16","experiment","3","odd","4","774714","775759","2366","273981","775760","755479","2369","779963","780614","776761","242713","777962","164727","779963","NA","Sternberg task","56","84972.0","95","1024"
"59","59","892","892","#3d3846","experiment","legacy","legacy","legacy","1","undefined","1","left","95","95","0","0","95","95","0","95","95","95","0","95","0","95","0","Mon Oct 16 18:29:59 2023","The main experiment item","True","Edward Banda Sternbergtask.osexp","C:\Users\Edward Banda\Desktop","False","mono","False","18","no","white","no","yes","768","legacy","83","11","C:/Users/Edward Banda/Desktop/subject-3.csv","legacy","2 3","Melodramatic Milgram","4.0.5","1","y","0","left","right","left","right","NA","708.0","162356","708","31268","NA","2","legacy","2","1024","2","48000","-16","experiment","3","odd","2","780626","781665","2366","273981","781667","755479","2369","785870","786579","782668","242713","783869","164727","785870","NA","Sternberg task","57","85680.0","96","1024"
"59","59","889","889","#3d3846","experiment","legacy","legacy","legacy","1","undefined","1","left","96","96","0","0","96","96","0","96","96","96","0","96","0","96","0","Mon Oct 16 18:29:59 2023","The main experiment item","True","Edward Banda Sternbergtask.osexp","C:\Users\Edward Banda\Desktop","False","mono","False","18","no","white","no","yes","768","legacy","84","11","C:/Users/Edward Banda/Desktop/subject-3.csv","legacy","5 7 8 2 3 8","Melodramatic Milgram","4.0.5","5","y","0","left","right","left","right","NA","621.0","162356","621","31268","NA","2","legacy","6","1024","2","48000","-16","experiment","3","odd","3","786592","787638","2366","273981","787640","755479","2369","791844","792466","788641","242713","789843","164727","791844","NA","Sternberg task","58","86301.0","97","1024"
"60","60","885","885","#3d3846","experiment","legacy","legacy","legacy","1","undefined","1","left","97","97","0","0","97","97","0","97","97","97","0","97","0","97","0","Mon Oct 16 18:29:59 2023","The main experiment item","True","Edward Banda Sternbergtask.osexp","C:\Users\Edward Banda\Desktop","False","mono","False","18","no","white","no","yes","768","legacy","85","11","C:/Users/Edward Banda/Desktop/subject-3.csv","legacy","5 2 6","Melodramatic Milgram","4.0.5","2","y","0","left","right","left","right","NA","497.0","162356","497","31268","NA","2","legacy","3","1024","2","48000","-16","experiment","3","odd","2","792478","793521","2366","273981","793522","755479","2369","797727","798226","794523","242713","795724","164727","797727","NA","Sternberg task","59","86798.0","98","1024"
"60","60","883","883","#3d3846","experiment","legacy","legacy","legacy","1","undefined","1","left","98","98","0","0","98","98","0","98","98","98","0","98","0","98","0","Mon Oct 16 18:29:59 2023","The main experiment item","True","Edward Banda Sternbergtask.osexp","C:\Users\Edward Banda\Desktop","False","mono","False","18","no","white","no","yes","768","legacy","86","11","C:/Users/Edward Banda/Desktop/subject-3.csv","legacy","6 7 8 5","Melodramatic Milgram","4.0.5","3","y","0","left","right","left","right","NA","653.0","162356","653","31268","NA","2","legacy","4","1024","2","48000","-16","experiment","3","odd","8","798238","799291","2366","273981","799292","755479","2369","803496","804150","800293","242713","801494","164727","803496","NA","Sternberg task","60","87451.0","99","1024"
"61","61","881","881","#3d3846","experiment","legacy","legacy","legacy","1","undefined","1","left","99","99","0","0","99","99","0","99","99","99","0","99","0","99","0","Mon Oct 16 18:29:59 2023","The main experiment item","True","Edward Banda Sternbergtask.osexp","C:\Users\Edward Banda\Desktop","False","mono","False","18","no","white","no","yes","768","legacy","87","11","C:/Users/Edward Banda/Desktop/subject-3.csv","legacy","9 5 8 1","Melodramatic Milgram","4.0.5","2","y","0","left","right","left","right","NA","713.0","162356","713","31268","NA","2","legacy","4","1024","2","48000","-16","experiment","3","odd","5","804162","805202","2366","273981","805203","755479","2369","809407","810121","806204","242713","807406","164727","809407","NA","Sternberg task","61","88164.0","100","1024"
"61","61","879","879","#3d3846","experiment","legacy","legacy","legacy","1","undefined","1","left","100","100","0","0","100","100","0","100","100","100","0","100","0","100","0","Mon Oct 16 18:29:59 2023","The main experiment item","True","Edward Banda Sternbergtask.osexp","C:\Users\Edward Banda\Desktop","False","mono","False","18","no","white","no","yes","768","legacy","88","11","C:/Users/Edward Banda/Desktop/subject-3.csv","legacy","2 3 7 4","Melodramatic Milgram","4.0.5","1","y","0","left","right","left","right","NA","703.0","162356","703","31268","NA","2","legacy","4","1024","2","48000","-16","experiment","3","odd","2","810124","811168","2366","273981","811170","755479","2369","815373","816077","812171","242713","813372","164727","815373","NA","Sternberg task","62","88867.0","101","1024"
"60","60","878","878","#3d3846","experiment","legacy","legacy","legacy","0","undefined","0","right","101","101","0","0","101","101","0","101","101","101","0","101","0","101","0","Mon Oct 16 18:29:59 2023","The main experiment item","True","Edward Banda Sternbergtask.osexp","C:\Users\Edward Banda\Desktop","False","mono","False","18","no","white","no","yes","768","legacy","89","11","C:/Users/Edward Banda/Desktop/subject-3.csv","legacy","9 5 3 2 8 6","Melodramatic Milgram","4.0.5","0","n","0","left","right","left","right","NA","723.0","162356","723","31268","NA","2","legacy","6","1024","2","48000","-16","experiment","3","odd","7","816089","817134","2366","273981","817136","755479","2369","821342","822066","818137","242713","819339","164727","821341","NA","Sternberg task","62","89590.0","102","1024"
"61","61","874","874","#3d3846","experiment","legacy","legacy","legacy","1","undefined","1","left","102","102","0","0","102","102","0","102","102","102","0","102","0","102","0","Mon Oct 16 18:29:59 2023","The main experiment item","True","Edward Banda Sternbergtask.osexp","C:\Users\Edward Banda\Desktop","False","mono","False","18","no","white","no","yes","768","legacy","90","11","C:/Users/Edward Banda/Desktop/subject-3.csv","legacy","6 8 9 3 4 9","Melodramatic Milgram","4.0.5","5","y","0","left","right","left","right","NA","500.0","162356","500","31268","NA","2","legacy","6","1024","2","48000","-16","experiment","3","odd","4","816089","823120","2366","273981","823122","822078","2369","827327","827828","824123","242713","825324","164727","827326","NA","Sternberg task","63","90090.0","103","1024"
"61","61","873","873","#3d3846","experiment","legacy","legacy","legacy","1","undefined","1","right","103","103","0","0","103","103","0","103","103","103","0","103","0","103","0","Mon Oct 16 18:29:59 2023","The main experiment item","True","Edward Banda Sternbergtask.osexp","C:\Users\Edward Banda\Desktop","False","mono","False","18","no","white","no","yes","768","legacy","91","11","C:/Users/Edward Banda/Desktop/subject-3.csv","legacy","1 4 9 2 5","Melodramatic Milgram","4.0.5","0","n","0","right","right","right","right","NA","770.0","162356","770","31268","NA","2","legacy","5","1024","2","48000","-16","experiment","3","odd","7","827840","828881","2366","273981","828883","822078","2369","833086","833857","829884","242713","831085","164727","833086","NA","Sternberg task","64","90860.0","104","1024"
"61","61","866","866","#3d3846","experiment","legacy","legacy","legacy","1","undefined","1","left","104","104","0","0","104","104","0","104","104","104","0","104","0","104","0","Mon Oct 16 18:29:59 2023","The main experiment item","True","Edward Banda Sternbergtask.osexp","C:\Users\Edward Banda\Desktop","False","mono","False","18","no","white","no","yes","768","legacy","92","11","C:/Users/Edward Banda/Desktop/subject-3.csv","legacy","7 8 6 3 1","Melodramatic Milgram","4.0.5","5","y","0","left","right","left","right","NA","97.0","162356","97","31268","NA","2","legacy","5","1024","2","48000","-16","experiment","3","odd","1","833869","834911","2366","273981","834912","822078","2369","839115","839213","835913","242713","837114","164727","839115","NA","Sternberg task","65","90957.0","105","1024"
"62","62","864","864","#3d3846","experiment","legacy","legacy","legacy","1","undefined","1","left","105","105","0","0","105","105","0","105","105","105","0","105","0","105","0","Mon Oct 16 18:29:59 2023","The main experiment item","True","Edward Banda Sternbergtask.osexp","C:\Users\Edward Banda\Desktop","False","mono","False","18","no","white","no","yes","768","legacy","93","11","C:/Users/Edward Banda/Desktop/subject-3.csv","legacy","7 2 3","Melodramatic Milgram","4.0.5","3","y","0","left","right","left","right","NA","673.0","162356","673","31268","NA","2","legacy","3","1024","2","48000","-16","experiment","3","odd","3","839226","840271","2366","273981","840274","822078","2369","844479","845153","841276","242713","842477","164727","844479","NA","Sternberg task","66","91630.0","106","1024"
"62","62","862","862","#3d3846","experiment","legacy","legacy","legacy","1","undefined","1","left","106","106","0","0","106","106","0","106","106","106","0","106","0","106","0","Mon Oct 16 18:29:59 2023","The main experiment item","True","Edward Banda Sternbergtask.osexp","C:\Users\Edward Banda\Desktop","False","mono","False","18","no","white","no","yes","768","legacy","94","11","C:/Users/Edward Banda/Desktop/subject-3.csv","legacy","7 1 3","Melodramatic Milgram","4.0.5","2","y","0","left","right","left","right","NA","619.0","162356","619","31268","NA","2","legacy","3","1024","2","48000","-16","experiment","3","odd","1","845166","846218","2366","273981","846220","822078","2369","850424","851044","847222","242713","848423","164727","850424","NA","Sternberg task","67","92249.0","107","1024"
"62","62","859","859","#3d3846","experiment","legacy","legacy","legacy","1","undefined","1","left","107","107","0","0","107","107","0","107","107","107","0","107","0","107","0","Mon Oct 16 18:29:59 2023","The main experiment item","True","Edward Banda Sternbergtask.osexp","C:\Users\Edward Banda\Desktop","False","mono","False","18","no","white","no","yes","768","legacy","95","11","C:/Users/Edward Banda/Desktop/subject-3.csv","legacy","8 5 1 3 9","Melodramatic Milgram","4.0.5","4","y","0","left","right","left","right","NA","546.0","162356","546","31268","NA","2","legacy","5","1024","2","48000","-16","experiment","3","odd","3","851056","852098","2366","273981","852099","822078","2369","856302","856849","853100","242713","854301","164727","856302","NA","Sternberg task","68","92795.0","108","1024"
"63","63","856","856","#3d3846","experiment","legacy","legacy","legacy","1","undefined","1","left","108","108","0","0","108","108","0","108","108","108","0","108","0","108","0","Mon Oct 16 18:29:59 2023","The main experiment item","True","Edward Banda Sternbergtask.osexp","C:\Users\Edward Banda\Desktop","False","mono","False","18","no","white","no","yes","768","legacy","96","11","C:/Users/Edward Banda/Desktop/subject-3.csv","legacy","8 5 3 7 4 6","Melodramatic Milgram","4.0.5","6","y","0","left","right","left","right","NA","527.0","162356","527","31268","NA","2","legacy","6","1024","2","48000","-16","experiment","3","odd","6","856861","857902","2366","273981","857904","822078","2369","862107","862635","858905","242713","860106","164727","862107","NA","Sternberg task","69","93322.0","109","1024"
"62","62","853","853","#3d3846","experiment","legacy","legacy","legacy","0","undefined","0","right","109","109","0","0","109","109","0","109","109","109","0","109","0","109","0","Mon Oct 16 18:29:59 2023","The main experiment item","True","Edward Banda Sternbergtask.osexp","C:\Users\Edward Banda\Desktop","False","mono","False","18","no","white","no","yes","768","legacy","97","11","C:/Users/Edward Banda/Desktop/subject-3.csv","legacy","6 9 7 3 8 2","Melodramatic Milgram","4.0.5","0","n","0","left","right","left","right","NA","525.0","162356","525","31268","NA","2","legacy","6","1024","2","48000","-16","experiment","3","odd","5","862647","863694","2366","273981","863696","822078","2369","867899","868426","864697","242713","865898","164727","867899","NA","Sternberg task","69","93847.0","110","1024"
"62","62","846","846","#3d3846","experiment","legacy","legacy","legacy","0","undefined","0","left","110","110","0","0","110","110","0","110","110","110","0","110","0","110","0","Mon Oct 16 18:29:59 2023","The main experiment item","True","Edward Banda Sternbergtask.osexp","C:\Users\Edward Banda\Desktop","False","mono","False","18","no","white","no","yes","768","legacy","98","11","C:/Users/Edward Banda/Desktop/subject-3.csv","legacy","8 9 6 1","Melodramatic Milgram","4.0.5","2","y","0","right","right","right","right","NA","103.0","162356","103","31268","NA","2","legacy","4","1024","2","48000","-16","experiment","3","odd","9","862647","869482","2366","273981","869483","868438","2369","873687","873791","870484","242713","871686","164727","873687","NA","Sternberg task","69","93950.0","111","1024"
"61","61","844","844","#3d3846","experiment","legacy","legacy","legacy","0","undefined","0","left","111","111","0","0","111","111","0","111","111","111","0","111","0","111","0","Mon Oct 16 18:29:59 2023","The main experiment item","True","Edward Banda Sternbergtask.osexp","C:\Users\Edward Banda\Desktop","False","mono","False","18","no","white","no","yes","768","legacy","99","11","C:/Users/Edward Banda/Desktop/subject-3.csv","legacy","9 4 2","Melodramatic Milgram","4.0.5","1","y","0","right","right","right","right","NA","612.0","162356","612","31268","NA","2","legacy","3","1024","2","48000","-16","experiment","3","odd","9","862647","874839","2366","273981","874840","873804","2369","879044","879657","875842","242713","877043","164727","879044","NA","Sternberg task","69","94562.0","112","1024"
"61","61","844","844","#3d3846","experiment","legacy","legacy","legacy","0","undefined","0","left","112","112","0","0","112","112","0","112","112","112","0","112","0","112","0","Mon Oct 16 18:29:59 2023","The main experiment item","True","Edward Banda Sternbergtask.osexp","C:\Users\Edward Banda\Desktop","False","mono","False","18","no","white","no","yes","768","legacy","100","11","C:/Users/Edward Banda/Desktop/subject-3.csv","legacy","5 7 3 6 2","Melodramatic Milgram","4.0.5","5","y","0","right","right","right","right","NA","819.0","162356","819","31268","NA","2","legacy","5","1024","2","48000","-16","experiment","3","odd","2","862647","880702","2366","273981","880704","879660","2369","884908","885729","881705","242713","882906","164727","884908","NA","Sternberg task","69","95381.0","113","1024"
"61","61","841","841","#3d3846","experiment","legacy","legacy","legacy","1","undefined","1","left","113","113","0","0","113","113","0","113","113","113","0","113","0","113","0","Mon Oct 16 18:29:59 2023","The main experiment item","True","Edward Banda Sternbergtask.osexp","C:\Users\Edward Banda\Desktop","False","mono","False","18","no","white","no","yes","768","legacy","101","11","C:/Users/Edward Banda/Desktop/subject-3.csv","legacy","7 4 2 6 3 5","Melodramatic Milgram","4.0.5","6","y","0","left","right","left","right","NA","526.0","162356","526","31268","NA","2","legacy","6","1024","2","48000","-16","experiment","3","odd","5","862647","886794","2366","273981","886795","885742","2369","890999","891526","887796","242713","888997","164727","890999","NA","Sternberg task","70","95907.0","114","1024"
"60","60","840","840","#3d3846","experiment","legacy","legacy","legacy","0","undefined","0","right","114","114","0","0","114","114","0","114","114","114","0","114","0","114","0","Mon Oct 16 18:29:59 2023","The main experiment item","True","Edward Banda Sternbergtask.osexp","C:\Users\Edward Banda\Desktop","False","mono","False","18","no","white","no","yes","768","legacy","102","11","C:/Users/Edward Banda/Desktop/subject-3.csv","legacy","5 7 3","Melodramatic Milgram","4.0.5","0","n","0","left","right","left","right","NA","780.0","162356","780","31268","NA","2","legacy","3","1024","2","48000","-16","experiment","3","odd","9","891538","892575","2366","273981","892578","885742","2369","896782","897564","893579","242713","894781","164727","896782","NA","Sternberg task","70","96687.0","115","1024"
"61","61","841","841","#3d3846","experiment","legacy","legacy","legacy","1","undefined","1","right","115","115","0","0","115","115","0","115","115","115","0","115","0","115","0","Mon Oct 16 18:29:59 2023","The main experiment item","True","Edward Banda Sternbergtask.osexp","C:\Users\Edward Banda\Desktop","False","mono","False","18","no","white","no","yes","768","legacy","103","11","C:/Users/Edward Banda/Desktop/subject-3.csv","legacy","1 7 5 2 9","Melodramatic Milgram","4.0.5","0","n","0","right","right","right","right","NA","910.0","162356","910","31268","NA","2","legacy","5","1024","2","48000","-16","experiment","3","odd","3","891538","898621","2366","273981","898623","897576","2369","902827","903738","899624","242713","900826","164727","902827","NA","Sternberg task","71","97597.0","116","1024"
"61","61","844","844","#3d3846","experiment","legacy","legacy","legacy","1","undefined","1","right","116","116","0","0","116","116","0","116","116","116","0","116","0","116","0","Mon Oct 16 18:29:59 2023","The main experiment item","True","Edward Banda Sternbergtask.osexp","C:\Users\Edward Banda\Desktop","False","mono","False","18","no","white","no","yes","768","legacy","104","11","C:/Users/Edward Banda/Desktop/subject-3.csv","legacy","2 8 9","Melodramatic Milgram","4.0.5","0","n","0","right","right","right","right","NA","1218.0","162356","1218","31268","NA","2","legacy","3","1024","2","48000","-16","experiment","3","odd","6","903750","904798","2366","273981","904799","897576","2369","909003","910222","905800","242713","907001","164727","909002","NA","Sternberg task","72","98815.0","117","1024"
"61","61","843","843","#3d3846","experiment","legacy","legacy","legacy","1","undefined","1","right","117","117","0","0","117","117","0","117","117","117","0","117","0","117","0","Mon Oct 16 18:29:59 2023","The main experiment item","True","Edward Banda Sternbergtask.osexp","C:\Users\Edward Banda\Desktop","False","mono","False","18","no","white","no","yes","768","legacy","105","11","C:/Users/Edward Banda/Desktop/subject-3.csv","legacy","2 3 8 5 6 7","Melodramatic Milgram","4.0.5","0","n","0","right","right","right","right","NA","762.0","162356","762","31268","NA","2","legacy","6","1024","2","48000","-16","experiment","3","odd","1","910234","911269","2366","273981","911271","897576","2369","915474","916238","912272","242713","913473","164727","915474","NA","Sternberg task","73","99577.0","118","1024"
"62","62","847","847","#3d3846","experiment","legacy","legacy","legacy","1","undefined","1","left","118","118","0","0","118","118","0","118","118","118","0","118","0","118","0","Mon Oct 16 18:29:59 2023","The main experiment item","True","Edward Banda Sternbergtask.osexp","C:\Users\Edward Banda\Desktop","False","mono","False","18","no","white","no","yes","768","legacy","106","11","C:/Users/Edward Banda/Desktop/subject-3.csv","legacy","2 6 1 7 4","Melodramatic Milgram","4.0.5","2","y","0","left","right","left","right","NA","1235.0","162356","1235","31268","NA","2","legacy","5","1024","2","48000","-16","experiment","3","odd","6","916251","917295","2366","273981","917297","897576","2369","921500","922737","918298","242713","919499","164727","921500","NA","Sternberg task","74","100812.0","119","1024"
"62","62","848","848","#3d3846","experiment","legacy","legacy","legacy","1","undefined","1","left","119","119","0","0","119","119","0","119","119","119","0","119","0","119","0","Mon Oct 16 18:29:59 2023","The main experiment item","True","Edward Banda Sternbergtask.osexp","C:\Users\Edward Banda\Desktop","False","mono","False","18","no","white","no","yes","768","legacy","107","11","C:/Users/Edward Banda/Desktop/subject-3.csv","legacy","4 1 5","Melodramatic Milgram","4.0.5","2","y","0","left","right","left","right","NA","1028.0","162356","1028","31268","NA","2","legacy","3","1024","2","48000","-16","experiment","3","odd","1","922750","923787","2366","273981","923788","897576","2369","927993","929022","924789","242713","925990","164727","927993","NA","Sternberg task","75","101840.0","120","1024"
"62","62","850","850","#3d3846","experiment","legacy","legacy","legacy","1","undefined","1","left","120","120","0","0","120","120","0","120","120","120","0","120","0","120","0","Mon Oct 16 18:29:59 2023","The main experiment item","True","Edward Banda Sternbergtask.osexp","C:\Users\Edward Banda\Desktop","False","mono","False","18","no","white","no","yes","768","legacy","108","11","C:/Users/Edward Banda/Desktop/subject-3.csv","legacy","9 6 2 4 1","Melodramatic Milgram","4.0.5","4","y","0","left","right","left","right","NA","1025.0","162356","1025","31268","NA","2","legacy","5","1024","2","48000","-16","experiment","3","odd","4","929034","930075","2366","273981","930077","897576","2369","934280","935305","931078","242713","932279","164727","934280","NA","Sternberg task","76","102865.0","121","1024"
"63","63","850","850","#3d3846","experiment","legacy","legacy","legacy","1","undefined","1","left","121","121","0","0","121","121","0","121","121","121","0","121","0","121","0","Mon Oct 16 18:29:59 2023","The main experiment item","True","Edward Banda Sternbergtask.osexp","C:\Users\Edward Banda\Desktop","False","mono","False","18","no","white","no","yes","768","legacy","109","11","C:/Users/Edward Banda/Desktop/subject-3.csv","legacy","7 8 4 6 9 5","Melodramatic Milgram","4.0.5","4","y","0","left","right","left","right","NA","912.0","162356","912","31268","NA","2","legacy","6","1024","2","48000","-16","experiment","3","odd","6","935318","936362","2366","273981","936363","897576","2369","940567","941481","937364","242713","938565","164727","940567","NA","Sternberg task","77","103777.0","122","1024"
"62","62","850","850","#3d3846","experiment","legacy","legacy","legacy","0","undefined","0","right","122","122","0","0","122","122","0","122","122","122","0","122","0","122","0","Mon Oct 16 18:29:59 2023","The main experiment item","True","Edward Banda Sternbergtask.osexp","C:\Users\Edward Banda\Desktop","False","mono","False","18","no","white","no","yes","768","legacy","110","11","C:/Users/Edward Banda/Desktop/subject-3.csv","legacy","1 4 9 3","Melodramatic Milgram","4.0.5","0","n","0","left","right","left","right","NA","858.0","162356","858","31268","NA","2","legacy","4","1024","2","48000","-16","experiment","3","odd","5","941493","942541","2366","273981","942542","897576","2369","946746","947606","943544","242713","944745","164727","946746","NA","Sternberg task","77","104635.0","123","1024"
