"acc","accuracy","average_response_time","avg_rt","background","block","canvas_backend","clock_backend","color_backend","correct","correct_Instruction1","correct_new_keyboard_response","correct_response","count_ISI","count_Instruction1","count_ThankYou","count_correctFeedback","count_expSequence","count_experiment","count_experimentLoop","count_fixation","count_incorrectFeedback","count_instructions2","count_memorySet","count_new_keyboard_response","count_new_logger","count_practiceloop","count_probe","datetime","description","disable_garbage_collection","experiment_file","experiment_path","font_bold","font_family","font_italic","font_size","font_underline","foreground","form_clicks","fullscreen","height","keyboard_backend","live_row","live_row_practiceloop","logfile","mouse_backend","numberSet","opensesame_codename","opensesame_version","posInSet","present","repeat_cycle","response","response_Instruction1","response_ThankYou","response_instructions2","response_new_keyboard_response","response_time","response_time_Instruction1","response_time_ThankYou","response_time_instructions2","response_time_new_keyboard_response","round_decimals","sampler_backend","setSize","sound_buf_size","sound_channels","sound_freq","sound_sample_size","start","subject_nr","subject_parity","target","time_ISI","time_Instruction1","time_ThankYou","time_correctFeedback","time_expSequence","time_experiment","time_experimentLoop","time_fixation","time_incorrectFeedback","time_instructions2","time_memorySet","time_new_keyboard_response","time_new_logger","time_practiceloop","time_probe","title","total_correct","total_response_time","total_responses","width"
"0","0","929","929","#3d3846","practice","legacy","legacy","legacy","0","undefined","0","left","0","0","0","0","0","0","0","0","0","0","0","0","0","0","0","Thu Oct 12 10:28:05 2023","The main experiment item","True","Sternberg Task Elizabeth McGibbon .osexp","/Users/izzymcgibbon/Desktop/College/Tarleton State /2023 /Fall /Stats /3.0 ","False","mono","False","18","no","white","no","yes","768","legacy","0","0","/Users/izzymcgibbon/Desktop/College/Tarleton State /2023 /Fall /Stats /3.0 /EWM subject-1.csv","legacy","1 5 2 9","Melodramatic Milgram","4.0.5","2","y","0","right","right","NA","NA","right","929.0","27090","NA","NA","929","2","legacy","4","1024","2","48000","-16","experiment","1","odd","5","33212","3588","NA","NA","30997","3411","NA","31006","NA","NA","32009","35215","36148","30715","35215","New experiment","0","929.0","1","1024"
"0","0","824","824","#3d3846","practice","legacy","legacy","legacy","0","undefined","0","right","1","0","0","1","1","0","0","1","1","0","1","1","1","0","1","Thu Oct 12 10:28:05 2023","The main experiment item","True","Sternberg Task Elizabeth McGibbon .osexp","/Users/izzymcgibbon/Desktop/College/Tarleton State /2023 /Fall /Stats /3.0 ","False","mono","False","18","no","white","no","yes","768","legacy","1","1","/Users/izzymcgibbon/Desktop/College/Tarleton State /2023 /Fall /Stats /3.0 /EWM subject-1.csv","legacy","2 1","Melodramatic Milgram","4.0.5","0","n","0","left","right","NA","NA","left","720.0","27090","NA","NA","720","2","legacy","2","1024","2","48000","-16","experiment","1","odd","5","39441","3588","NA","NA","37233","3411","NA","37235","36184","NA","38238","41444","42165","30715","41443","New experiment","0","1649.0","2","1024"
"33","33","800","800","#3d3846","practice","legacy","legacy","legacy","1","undefined","1","left","2","0","0","2","2","0","0","2","2","0","2","2","2","0","2","Thu Oct 12 10:28:05 2023","The main experiment item","True","Sternberg Task Elizabeth McGibbon .osexp","/Users/izzymcgibbon/Desktop/College/Tarleton State /2023 /Fall /Stats /3.0 ","False","mono","False","18","no","white","no","yes","768","legacy","2","2","/Users/izzymcgibbon/Desktop/College/Tarleton State /2023 /Fall /Stats /3.0 /EWM subject-1.csv","legacy","1 7 9 8 5","Melodramatic Milgram","4.0.5","4","y","0","left","right","NA","NA","left","753.0","27090","NA","NA","753","2","legacy","5","1024","2","48000","-16","experiment","1","odd","8","45429","3588","NA","NA","43219","3411","NA","43221","42168","NA","44227","47433","48187","30715","47432","New experiment","1","2402.0","3","1024"
"50","50","767","767","#3d3846","practice","legacy","legacy","legacy","1","undefined","1","right","3","0","0","3","3","0","0","3","3","0","3","3","3","0","3","Thu Oct 12 10:28:05 2023","The main experiment item","True","Sternberg Task Elizabeth McGibbon .osexp","/Users/izzymcgibbon/Desktop/College/Tarleton State /2023 /Fall /Stats /3.0 ","False","mono","False","18","no","white","no","yes","768","legacy","3","3","/Users/izzymcgibbon/Desktop/College/Tarleton State /2023 /Fall /Stats /3.0 /EWM subject-1.csv","legacy","5 7 8 4 1 2","Melodramatic Milgram","4.0.5","0","n","0","right","right","NA","NA","right","667.0","27090","NA","NA","667","2","legacy","6","1024","2","48000","-16","experiment","1","odd","6","51446","3588","NA","48190","49240","3411","NA","49242","42168","NA","50244","53449","54117","30715","53449","New experiment","2","3069.0","4","1024"
"60","60","776","776","#3d3846","practice","legacy","legacy","legacy","1","undefined","1","right","4","0","0","4","4","0","0","4","4","0","4","4","4","0","4","Thu Oct 12 10:28:05 2023","The main experiment item","True","Sternberg Task Elizabeth McGibbon .osexp","/Users/izzymcgibbon/Desktop/College/Tarleton State /2023 /Fall /Stats /3.0 ","False","mono","False","18","no","white","no","yes","768","legacy","4","4","/Users/izzymcgibbon/Desktop/College/Tarleton State /2023 /Fall /Stats /3.0 /EWM subject-1.csv","legacy","9 6 7 4 5","Melodramatic Milgram","4.0.5","0","n","0","right","right","NA","NA","right","815.0","27090","NA","NA","815","2","legacy","5","1024","2","48000","-16","experiment","1","odd","3","57380","3588","NA","54120","55172","3411","NA","55174","42168","NA","56177","59382","60198","30715","59382","New experiment","3","3884.0","5","1024"
"66","66","751","751","#3d3846","practice","legacy","legacy","legacy","1","undefined","1","right","5","0","0","5","5","0","0","5","5","0","5","5","5","0","5","Thu Oct 12 10:28:05 2023","The main experiment item","True","Sternberg Task Elizabeth McGibbon .osexp","/Users/izzymcgibbon/Desktop/College/Tarleton State /2023 /Fall /Stats /3.0 ","False","mono","False","18","no","white","no","yes","768","legacy","5","5","/Users/izzymcgibbon/Desktop/College/Tarleton State /2023 /Fall /Stats /3.0 /EWM subject-1.csv","legacy","4 1 5","Melodramatic Milgram","4.0.5","0","n","0","right","right","NA","NA","right","622.0","27090","NA","NA","622","2","legacy","3","1024","2","48000","-16","experiment","1","odd","2","63458","3588","NA","60201","61250","3411","NA","61252","42168","NA","62255","65461","66083","30715","65460","New experiment","4","4506.0","6","1024"
"71","71","770","770","#3d3846","practice","legacy","legacy","legacy","1","undefined","1","left","6","0","0","6","6","0","0","6","6","0","6","6","6","0","6","Thu Oct 12 10:28:05 2023","The main experiment item","True","Sternberg Task Elizabeth McGibbon .osexp","/Users/izzymcgibbon/Desktop/College/Tarleton State /2023 /Fall /Stats /3.0 ","False","mono","False","18","no","white","no","yes","768","legacy","6","6","/Users/izzymcgibbon/Desktop/College/Tarleton State /2023 /Fall /Stats /3.0 /EWM subject-1.csv","legacy","6","Melodramatic Milgram","4.0.5","1","y","0","left","right","NA","NA","left","886.0","27090","NA","NA","886","2","legacy","1","1024","2","48000","-16","experiment","1","odd","6","69355","3588","NA","66087","67146","3411","NA","67148","42168","NA","68151","71357","72244","30715","71357","New experiment","5","5392.0","7","1024"
"75","75","750","750","#3d3846","practice","legacy","legacy","legacy","1","undefined","1","left","7","0","0","7","7","0","0","7","7","0","7","7","7","0","7","Thu Oct 12 10:28:05 2023","The main experiment item","True","Sternberg Task Elizabeth McGibbon .osexp","/Users/izzymcgibbon/Desktop/College/Tarleton State /2023 /Fall /Stats /3.0 ","False","mono","False","18","no","white","no","yes","768","legacy","7","7","/Users/izzymcgibbon/Desktop/College/Tarleton State /2023 /Fall /Stats /3.0 /EWM subject-1.csv","legacy","4 8","Melodramatic Milgram","4.0.5","1","y","0","left","right","NA","NA","left","611.0","27090","NA","NA","611","2","legacy","2","1024","2","48000","-16","experiment","1","odd","4","75502","3588","NA","72248","73288","3411","NA","73290","42168","NA","74292","77505","78117","30715","77505","New experiment","6","6003.0","8","1024"
"66","66","739","739","#3d3846","practice","legacy","legacy","legacy","0","undefined","0","left","8","0","0","8","8","0","0","8","8","0","8","8","8","0","8","Thu Oct 12 10:28:05 2023","The main experiment item","True","Sternberg Task Elizabeth McGibbon .osexp","/Users/izzymcgibbon/Desktop/College/Tarleton State /2023 /Fall /Stats /3.0 ","False","mono","False","18","no","white","no","yes","768","legacy","8","8","/Users/izzymcgibbon/Desktop/College/Tarleton State /2023 /Fall /Stats /3.0 /EWM subject-1.csv","legacy","2 9 4","Melodramatic Milgram","4.0.5","3","y","0","right","right","NA","NA","right","650.0","27090","NA","NA","650","2","legacy","3","1024","2","48000","-16","experiment","1","odd","4","81373","3588","NA","78120","79165","3411","NA","79167","42168","NA","80170","83376","84027","30715","83375","New experiment","6","6653.0","9","1024"
"70","70","735","735","#3d3846","practice","legacy","legacy","legacy","1","undefined","1","left","9","0","0","9","9","0","0","9","9","0","9","9","9","0","9","Thu Oct 12 10:28:05 2023","The main experiment item","True","Sternberg Task Elizabeth McGibbon .osexp","/Users/izzymcgibbon/Desktop/College/Tarleton State /2023 /Fall /Stats /3.0 ","False","mono","False","18","no","white","no","yes","768","legacy","9","9","/Users/izzymcgibbon/Desktop/College/Tarleton State /2023 /Fall /Stats /3.0 /EWM subject-1.csv","legacy","4 3 1 7 9 8","Melodramatic Milgram","4.0.5","1","y","0","left","right","NA","NA","left","705.0","27090","NA","NA","705","2","legacy","6","1024","2","48000","-16","experiment","1","odd","4","87288","3588","NA","78120","85080","3411","NA","85082","84030","NA","86086","89290","89996","30715","89290","New experiment","7","7358.0","10","1024"
"63","63","850","850","#3d3846","practice","legacy","legacy","legacy","0","undefined","0","right","10","0","0","10","10","0","0","10","10","0","10","10","10","0","10","Thu Oct 12 10:28:05 2023","The main experiment item","True","Sternberg Task Elizabeth McGibbon .osexp","/Users/izzymcgibbon/Desktop/College/Tarleton State /2023 /Fall /Stats /3.0 ","False","mono","False","18","no","white","no","yes","768","legacy","10","10","/Users/izzymcgibbon/Desktop/College/Tarleton State /2023 /Fall /Stats /3.0 /EWM subject-1.csv","legacy","5","Melodramatic Milgram","4.0.5","0","n","0","None","right","NA","NA","None","2000.0","27090","NA","NA","2000","2","legacy","1","1024","2","48000","-16","experiment","1","odd","3","93256","3588","NA","90000","91049","3411","NA","91051","84030","NA","92053","95259","97259","30715","95259","New experiment","7","9358.0","11","1024"
"58","58","869","869","#3d3846","practice","legacy","legacy","legacy","0","undefined","0","right","11","0","0","11","11","0","0","11","11","0","11","11","11","0","11","Thu Oct 12 10:28:05 2023","The main experiment item","True","Sternberg Task Elizabeth McGibbon .osexp","/Users/izzymcgibbon/Desktop/College/Tarleton State /2023 /Fall /Stats /3.0 ","False","mono","False","18","no","white","no","yes","768","legacy","11","11","/Users/izzymcgibbon/Desktop/College/Tarleton State /2023 /Fall /Stats /3.0 /EWM subject-1.csv","legacy","3 1 9 4","Melodramatic Milgram","4.0.5","0","n","0","left","right","NA","NA","left","1071.0","27090","NA","NA","1071","2","legacy","4","1024","2","48000","-16","experiment","1","odd","6","100520","3588","NA","90000","98313","3411","NA","98315","97263","NA","99317","102522","103594","30715","102522","New experiment","7","10429.0","12","1024"
"53","53","956","956","#3d3846","experiment","legacy","legacy","legacy","0","undefined","0","right","12","0","0","12","12","0","0","12","12","0","12","12","12","0","12","Thu Oct 12 10:28:05 2023","The main experiment item","True","Sternberg Task Elizabeth McGibbon .osexp","/Users/izzymcgibbon/Desktop/College/Tarleton State /2023 /Fall /Stats /3.0 ","False","mono","False","18","no","white","no","yes","768","legacy","0","11","/Users/izzymcgibbon/Desktop/College/Tarleton State /2023 /Fall /Stats /3.0 /EWM subject-1.csv","legacy","4 8 1 2","Melodramatic Milgram","4.0.5","0","n","0","None","right","NA","left","None","2000.0","27090","NA","174224","2000","2","legacy","4","1024","2","48000","-16","experiment","1","odd","7","281171","3588","NA","90000","278937","3411","278828","278955","103597","104603","279958","283176","285176","30715","283175","New experiment","7","12429.0","13","1024"
"57","57","935","935","#3d3846","experiment","legacy","legacy","legacy","1","undefined","1","left","13","0","0","13","13","0","0","13","13","0","13","13","13","0","13","Thu Oct 12 10:28:05 2023","The main experiment item","True","Sternberg Task Elizabeth McGibbon .osexp","/Users/izzymcgibbon/Desktop/College/Tarleton State /2023 /Fall /Stats /3.0 ","False","mono","False","18","no","white","no","yes","768","legacy","1","11","/Users/izzymcgibbon/Desktop/College/Tarleton State /2023 /Fall /Stats /3.0 /EWM subject-1.csv","legacy","7 4 2 6 3 5","Melodramatic Milgram","4.0.5","6","y","0","left","right","NA","left","left","664.0","27090","NA","174224","664","2","legacy","6","1024","2","48000","-16","experiment","1","odd","5","288444","3588","NA","90000","286235","3411","278828","286238","285182","104603","287241","290447","291112","30715","290447","New experiment","8","13093.0","14","1024"
"60","60","936","936","#3d3846","experiment","legacy","legacy","legacy","1","undefined","1","left","14","0","0","14","14","0","0","14","14","0","14","14","14","0","14","Thu Oct 12 10:28:05 2023","The main experiment item","True","Sternberg Task Elizabeth McGibbon .osexp","/Users/izzymcgibbon/Desktop/College/Tarleton State /2023 /Fall /Stats /3.0 ","False","mono","False","18","no","white","no","yes","768","legacy","2","11","/Users/izzymcgibbon/Desktop/College/Tarleton State /2023 /Fall /Stats /3.0 /EWM subject-1.csv","legacy","8","Melodramatic Milgram","4.0.5","1","y","0","left","right","NA","left","left","952.0","27090","NA","174224","952","2","legacy","1","1024","2","48000","-16","experiment","1","odd","8","294374","3588","NA","291116","292165","3411","278828","292167","285182","104603","293171","296377","297330","30715","296377","New experiment","9","14045.0","15","1024"
"56","56","1002","1002","#3d3846","experiment","legacy","legacy","legacy","0","undefined","0","right","15","0","0","15","15","0","0","15","15","0","15","15","15","0","15","Thu Oct 12 10:28:05 2023","The main experiment item","True","Sternberg Task Elizabeth McGibbon .osexp","/Users/izzymcgibbon/Desktop/College/Tarleton State /2023 /Fall /Stats /3.0 ","False","mono","False","18","no","white","no","yes","768","legacy","3","11","/Users/izzymcgibbon/Desktop/College/Tarleton State /2023 /Fall /Stats /3.0 /EWM subject-1.csv","legacy","1 4 9 3","Melodramatic Milgram","4.0.5","0","n","0","None","right","NA","left","None","2000.0","27090","NA","174224","2000","2","legacy","4","1024","2","48000","-16","experiment","1","odd","5","300592","3588","NA","297333","298386","3411","278828","298388","285182","104603","299390","302594","304594","30715","302594","New experiment","9","16045.0","16","1024"
"52","52","988","988","#3d3846","experiment","legacy","legacy","legacy","0","undefined","0","right","16","0","0","16","16","0","0","16","16","0","16","16","16","0","16","Thu Oct 12 10:28:05 2023","The main experiment item","True","Sternberg Task Elizabeth McGibbon .osexp","/Users/izzymcgibbon/Desktop/College/Tarleton State /2023 /Fall /Stats /3.0 ","False","mono","False","18","no","white","no","yes","768","legacy","4","11","/Users/izzymcgibbon/Desktop/College/Tarleton State /2023 /Fall /Stats /3.0 /EWM subject-1.csv","legacy","1","Melodramatic Milgram","4.0.5","0","n","0","left","right","NA","left","left","759.0","27090","NA","174224","759","2","legacy","1","1024","2","48000","-16","experiment","1","odd","7","307842","3588","NA","297333","305635","3411","278828","305637","304598","104603","306639","309845","310604","30715","309845","New experiment","9","16804.0","17","1024"
"55","55","951","951","#3d3846","experiment","legacy","legacy","legacy","1","undefined","1","left","17","0","0","17","17","0","0","17","17","0","17","17","17","0","17","Thu Oct 12 10:28:05 2023","The main experiment item","True","Sternberg Task Elizabeth McGibbon .osexp","/Users/izzymcgibbon/Desktop/College/Tarleton State /2023 /Fall /Stats /3.0 ","False","mono","False","18","no","white","no","yes","768","legacy","5","11","/Users/izzymcgibbon/Desktop/College/Tarleton State /2023 /Fall /Stats /3.0 /EWM subject-1.csv","legacy","6 8 9 3 4 9","Melodramatic Milgram","4.0.5","5","y","0","left","right","NA","left","left","327.0","27090","NA","174224","327","2","legacy","6","1024","2","48000","-16","experiment","1","odd","4","313862","3588","NA","297333","311655","3411","278828","311656","310608","104603","312658","315864","316192","30715","315864","New experiment","10","17131.0","18","1024"
"52","52","939","939","#3d3846","experiment","legacy","legacy","legacy","0","undefined","0","right","18","0","0","18","18","0","0","18","18","0","18","18","18","0","18","Thu Oct 12 10:28:05 2023","The main experiment item","True","Sternberg Task Elizabeth McGibbon .osexp","/Users/izzymcgibbon/Desktop/College/Tarleton State /2023 /Fall /Stats /3.0 ","False","mono","False","18","no","white","no","yes","768","legacy","6","11","/Users/izzymcgibbon/Desktop/College/Tarleton State /2023 /Fall /Stats /3.0 /EWM subject-1.csv","legacy","6 7 5 9","Melodramatic Milgram","4.0.5","0","n","0","left","right","NA","left","left","720.0","27090","NA","174224","720","2","legacy","4","1024","2","48000","-16","experiment","1","odd","2","319453","3588","NA","316195","317245","3411","278828","317247","310608","104603","318250","321456","322177","30715","321456","New experiment","10","17851.0","19","1024"
"50","50","904","904","#3d3846","experiment","legacy","legacy","legacy","0","undefined","0","right","19","0","0","19","19","0","0","19","19","0","19","19","19","0","19","Thu Oct 12 10:28:05 2023","The main experiment item","True","Sternberg Task Elizabeth McGibbon .osexp","/Users/izzymcgibbon/Desktop/College/Tarleton State /2023 /Fall /Stats /3.0 ","False","mono","False","18","no","white","no","yes","768","legacy","7","11","/Users/izzymcgibbon/Desktop/College/Tarleton State /2023 /Fall /Stats /3.0 /EWM subject-1.csv","legacy","6 9 4 5 2","Melodramatic Milgram","4.0.5","0","n","0","left","right","NA","left","left","244.0","27090","NA","174224","244","2","legacy","5","1024","2","48000","-16","experiment","1","odd","1","325441","3588","NA","316195","323232","3411","278828","323234","322181","104603","324237","327449","327694","30715","327448","New experiment","10","18095.0","20","1024"
"47","47","875","875","#3d3846","experiment","legacy","legacy","legacy","0","undefined","0","right","20","0","0","20","20","0","0","20","20","0","20","20","20","0","20","Thu Oct 12 10:28:05 2023","The main experiment item","True","Sternberg Task Elizabeth McGibbon .osexp","/Users/izzymcgibbon/Desktop/College/Tarleton State /2023 /Fall /Stats /3.0 ","False","mono","False","18","no","white","no","yes","768","legacy","8","11","/Users/izzymcgibbon/Desktop/College/Tarleton State /2023 /Fall /Stats /3.0 /EWM subject-1.csv","legacy","2 8 6 3 1","Melodramatic Milgram","4.0.5","0","n","0","left","right","NA","left","left","297.0","27090","NA","174224","297","2","legacy","5","1024","2","48000","-16","experiment","1","odd","7","330957","3588","NA","316195","328747","3411","278828","328749","327697","104603","329753","332960","333258","30715","332960","New experiment","10","18392.0","21","1024"
"50","50","891","891","#3d3846","experiment","legacy","legacy","legacy","1","undefined","1","left","21","0","0","21","21","0","0","21","21","0","21","21","21","0","21","Thu Oct 12 10:28:05 2023","The main experiment item","True","Sternberg Task Elizabeth McGibbon .osexp","/Users/izzymcgibbon/Desktop/College/Tarleton State /2023 /Fall /Stats /3.0 ","False","mono","False","18","no","white","no","yes","768","legacy","9","11","/Users/izzymcgibbon/Desktop/College/Tarleton State /2023 /Fall /Stats /3.0 /EWM subject-1.csv","legacy","6 5","Melodramatic Milgram","4.0.5","2","y","0","left","right","NA","left","left","1231.0","27090","NA","174224","1231","2","legacy","2","1024","2","48000","-16","experiment","1","odd","5","336529","3588","NA","316195","334322","3411","278828","334324","333262","104603","335327","338533","339765","30715","338532","New experiment","11","19623.0","22","1024"
"47","47","940","940","#3d3846","experiment","legacy","legacy","legacy","0","undefined","0","right","22","0","0","22","22","0","0","22","22","0","22","22","22","0","22","Thu Oct 12 10:28:05 2023","The main experiment item","True","Sternberg Task Elizabeth McGibbon .osexp","/Users/izzymcgibbon/Desktop/College/Tarleton State /2023 /Fall /Stats /3.0 ","False","mono","False","18","no","white","no","yes","768","legacy","10","11","/Users/izzymcgibbon/Desktop/College/Tarleton State /2023 /Fall /Stats /3.0 /EWM subject-1.csv","legacy","8 6 3 4 7","Melodramatic Milgram","4.0.5","0","n","0","None","right","NA","left","None","2000.0","27090","NA","174224","2000","2","legacy","5","1024","2","48000","-16","experiment","1","odd","1","343016","3588","NA","339769","340810","3411","278828","340812","333262","104603","341814","345018","347018","30715","345018","New experiment","11","21623.0","23","1024"
"45","45","973","973","#3d3846","experiment","legacy","legacy","legacy","0","undefined","0","right","23","0","0","23","23","0","0","23","23","0","23","23","23","0","23","Thu Oct 12 10:28:05 2023","The main experiment item","True","Sternberg Task Elizabeth McGibbon .osexp","/Users/izzymcgibbon/Desktop/College/Tarleton State /2023 /Fall /Stats /3.0 ","False","mono","False","18","no","white","no","yes","768","legacy","11","11","/Users/izzymcgibbon/Desktop/College/Tarleton State /2023 /Fall /Stats /3.0 /EWM subject-1.csv","legacy","2 7 5","Melodramatic Milgram","4.0.5","0","n","0","left","right","NA","left","left","1738.0","27090","NA","174224","1738","2","legacy","3","1024","2","48000","-16","experiment","1","odd","8","350283","3588","NA","339769","348070","3411","278828","348073","347021","104603","349078","352285","354024","30715","352284","New experiment","11","23361.0","24","1024"
"44","44","937","937","#3d3846","experiment","legacy","legacy","legacy","0","undefined","0","left","24","0","0","24","24","0","0","24","24","0","24","24","24","0","24","Thu Oct 12 10:28:05 2023","The main experiment item","True","Sternberg Task Elizabeth McGibbon .osexp","/Users/izzymcgibbon/Desktop/College/Tarleton State /2023 /Fall /Stats /3.0 ","False","mono","False","18","no","white","no","yes","768","legacy","12","11","/Users/izzymcgibbon/Desktop/College/Tarleton State /2023 /Fall /Stats /3.0 /EWM subject-1.csv","legacy","6 7 8 5","Melodramatic Milgram","4.0.5","3","y","0","right","right","NA","left","right","64.0","27090","NA","174224","64","2","legacy","4","1024","2","48000","-16","experiment","1","odd","8","357290","3588","NA","339769","355078","3411","278828","355080","354028","104603","356084","359297","359362","30715","359296","New experiment","11","23425.0","25","1024"
"46","46","902","902","#3d3846","experiment","legacy","legacy","legacy","1","undefined","1","right","25","0","0","25","25","0","0","25","25","0","25","25","25","0","25","Thu Oct 12 10:28:05 2023","The main experiment item","True","Sternberg Task Elizabeth McGibbon .osexp","/Users/izzymcgibbon/Desktop/College/Tarleton State /2023 /Fall /Stats /3.0 ","False","mono","False","18","no","white","no","yes","768","legacy","13","11","/Users/izzymcgibbon/Desktop/College/Tarleton State /2023 /Fall /Stats /3.0 /EWM subject-1.csv","legacy","1 5 3 2 8","Melodramatic Milgram","4.0.5","0","n","0","right","right","NA","left","right","32.0","27090","NA","174224","32","2","legacy","5","1024","2","48000","-16","experiment","1","odd","4","362636","3588","NA","339769","360415","3411","278828","360419","359366","104603","361424","364646","364679","30715","364646","New experiment","12","23457.0","26","1024"
"48","48","869","869","#3d3846","experiment","legacy","legacy","legacy","1","undefined","1","left","26","0","0","26","26","0","0","26","26","0","26","26","26","0","26","Thu Oct 12 10:28:05 2023","The main experiment item","True","Sternberg Task Elizabeth McGibbon .osexp","/Users/izzymcgibbon/Desktop/College/Tarleton State /2023 /Fall /Stats /3.0 ","False","mono","False","18","no","white","no","yes","768","legacy","14","11","/Users/izzymcgibbon/Desktop/College/Tarleton State /2023 /Fall /Stats /3.0 /EWM subject-1.csv","legacy","9 4 2","Melodramatic Milgram","4.0.5","1","y","0","left","right","NA","left","left","23.0","27090","NA","174224","23","2","legacy","3","1024","2","48000","-16","experiment","1","odd","9","367956","3588","NA","364683","365735","3411","278828","365740","359366","104603","366747","369964","369988","30715","369964","New experiment","13","23480.0","27","1024"
"50","50","847","847","#3d3846","experiment","legacy","legacy","legacy","1","undefined","1","left","27","0","0","27","27","0","0","27","27","0","27","27","27","0","27","Thu Oct 12 10:28:05 2023","The main experiment item","True","Sternberg Task Elizabeth McGibbon .osexp","/Users/izzymcgibbon/Desktop/College/Tarleton State /2023 /Fall /Stats /3.0 ","False","mono","False","18","no","white","no","yes","768","legacy","15","11","/Users/izzymcgibbon/Desktop/College/Tarleton State /2023 /Fall /Stats /3.0 /EWM subject-1.csv","legacy","9 3 8 2 1 4","Melodramatic Milgram","4.0.5","3","y","0","left","right","NA","left","left","242.0","27090","NA","174224","242","2","legacy","6","1024","2","48000","-16","experiment","1","odd","8","373284","3588","NA","369992","371069","3411","278828","371073","359366","104603","372078","375291","375534","30715","375290","New experiment","14","23722.0","28","1024"
"48","48","820","820","#3d3846","experiment","legacy","legacy","legacy","0","undefined","0","right","28","0","0","28","28","0","0","28","28","0","28","28","28","0","28","Thu Oct 12 10:28:05 2023","The main experiment item","True","Sternberg Task Elizabeth McGibbon .osexp","/Users/izzymcgibbon/Desktop/College/Tarleton State /2023 /Fall /Stats /3.0 ","False","mono","False","18","no","white","no","yes","768","legacy","16","11","/Users/izzymcgibbon/Desktop/College/Tarleton State /2023 /Fall /Stats /3.0 /EWM subject-1.csv","legacy","6 9 4 5 3 2","Melodramatic Milgram","4.0.5","0","n","0","left","right","NA","left","left","79.0","27090","NA","174224","79","2","legacy","6","1024","2","48000","-16","experiment","1","odd","8","378791","3588","NA","375537","376578","3411","278828","376581","359366","104603","377586","380797","380877","30715","380797","New experiment","14","23801.0","29","1024"
"50","50","795","795","#3d3846","experiment","legacy","legacy","legacy","1","undefined","1","left","29","0","0","29","29","0","0","29","29","0","29","29","29","0","29","Thu Oct 12 10:28:05 2023","The main experiment item","True","Sternberg Task Elizabeth McGibbon .osexp","/Users/izzymcgibbon/Desktop/College/Tarleton State /2023 /Fall /Stats /3.0 ","False","mono","False","18","no","white","no","yes","768","legacy","17","11","/Users/izzymcgibbon/Desktop/College/Tarleton State /2023 /Fall /Stats /3.0 /EWM subject-1.csv","legacy","5 2 6","Melodramatic Milgram","4.0.5","2","y","0","left","right","NA","left","left","60.0","27090","NA","174224","60","2","legacy","3","1024","2","48000","-16","experiment","1","odd","2","384141","3588","NA","375537","381925","3411","278828","381930","380880","104603","382936","386146","386206","30715","386146","New experiment","15","23861.0","30","1024"
"51","51","771","771","#3d3846","experiment","legacy","legacy","legacy","1","undefined","1","left","30","0","0","30","30","0","0","30","30","0","30","30","30","0","30","Thu Oct 12 10:28:05 2023","The main experiment item","True","Sternberg Task Elizabeth McGibbon .osexp","/Users/izzymcgibbon/Desktop/College/Tarleton State /2023 /Fall /Stats /3.0 ","False","mono","False","18","no","white","no","yes","768","legacy","18","11","/Users/izzymcgibbon/Desktop/College/Tarleton State /2023 /Fall /Stats /3.0 /EWM subject-1.csv","legacy","6 2","Melodramatic Milgram","4.0.5","1","y","0","left","right","NA","left","left","65.0","27090","NA","174224","65","2","legacy","2","1024","2","48000","-16","experiment","1","odd","6","389472","3588","NA","386210","387259","3411","278828","387262","380880","104603","388267","391478","391543","30715","391477","New experiment","16","23926.0","31","1024"
"50","50","749","749","#3d3846","experiment","legacy","legacy","legacy","0","undefined","0","right","31","0","0","31","31","0","0","31","31","0","31","31","31","0","31","Thu Oct 12 10:28:05 2023","The main experiment item","True","Sternberg Task Elizabeth McGibbon .osexp","/Users/izzymcgibbon/Desktop/College/Tarleton State /2023 /Fall /Stats /3.0 ","False","mono","False","18","no","white","no","yes","768","legacy","19","11","/Users/izzymcgibbon/Desktop/College/Tarleton State /2023 /Fall /Stats /3.0 /EWM subject-1.csv","legacy","5 9 2 3","Melodramatic Milgram","4.0.5","0","n","0","left","right","NA","left","left","47.0","27090","NA","174224","47","2","legacy","4","1024","2","48000","-16","experiment","1","odd","8","394811","3588","NA","391547","392597","3411","278828","392600","380880","104603","393604","396818","396865","30715","396818","New experiment","16","23973.0","32","1024"
"48","48","732","732","#3d3846","experiment","legacy","legacy","legacy","0","undefined","0","left","32","0","0","32","32","0","0","32","32","0","32","32","32","0","32","Thu Oct 12 10:28:05 2023","The main experiment item","True","Sternberg Task Elizabeth McGibbon .osexp","/Users/izzymcgibbon/Desktop/College/Tarleton State /2023 /Fall /Stats /3.0 ","False","mono","False","18","no","white","no","yes","768","legacy","20","11","/Users/izzymcgibbon/Desktop/College/Tarleton State /2023 /Fall /Stats /3.0 /EWM subject-1.csv","legacy","4 3 2 5 8","Melodramatic Milgram","4.0.5","2","y","0","right","right","NA","left","right","202.0","27090","NA","174224","202","2","legacy","5","1024","2","48000","-16","experiment","1","odd","3","400135","3588","NA","391547","397916","3411","278828","397920","396869","104603","398925","402142","402345","30715","402142","New experiment","16","24175.0","33","1024"
"50","50","712","712","#3d3846","experiment","legacy","legacy","legacy","1","undefined","1","right","33","0","0","33","33","0","0","33","33","0","33","33","33","0","33","Thu Oct 12 10:28:05 2023","The main experiment item","True","Sternberg Task Elizabeth McGibbon .osexp","/Users/izzymcgibbon/Desktop/College/Tarleton State /2023 /Fall /Stats /3.0 ","False","mono","False","18","no","white","no","yes","768","legacy","21","11","/Users/izzymcgibbon/Desktop/College/Tarleton State /2023 /Fall /Stats /3.0 /EWM subject-1.csv","legacy","9 7 4 5 8","Melodramatic Milgram","4.0.5","0","n","0","right","right","NA","left","right","49.0","27090","NA","174224","49","2","legacy","5","1024","2","48000","-16","experiment","1","odd","6","405624","3588","NA","391547","403410","3411","278828","403413","402349","104603","404418","407631","407681","30715","407631","New experiment","17","24224.0","34","1024"
"48","48","695","695","#3d3846","experiment","legacy","legacy","legacy","0","undefined","0","right","34","0","0","34","34","0","0","34","34","0","34","34","34","0","34","Thu Oct 12 10:28:05 2023","The main experiment item","True","Sternberg Task Elizabeth McGibbon .osexp","/Users/izzymcgibbon/Desktop/College/Tarleton State /2023 /Fall /Stats /3.0 ","False","mono","False","18","no","white","no","yes","768","legacy","22","11","/Users/izzymcgibbon/Desktop/College/Tarleton State /2023 /Fall /Stats /3.0 /EWM subject-1.csv","legacy","8 4 3 9","Melodramatic Milgram","4.0.5","0","n","0","left","right","NA","left","left","111.0","27090","NA","174224","111","2","legacy","4","1024","2","48000","-16","experiment","1","odd","5","410943","3588","NA","407684","408725","3411","278828","408729","402349","104603","409734","412949","413060","30715","412949","New experiment","17","24335.0","35","1024"
"47","47","681","681","#3d3846","experiment","legacy","legacy","legacy","0","undefined","0","right","35","0","0","35","35","0","0","35","35","0","35","35","35","0","35","Thu Oct 12 10:28:05 2023","The main experiment item","True","Sternberg Task Elizabeth McGibbon .osexp","/Users/izzymcgibbon/Desktop/College/Tarleton State /2023 /Fall /Stats /3.0 ","False","mono","False","18","no","white","no","yes","768","legacy","23","11","/Users/izzymcgibbon/Desktop/College/Tarleton State /2023 /Fall /Stats /3.0 /EWM subject-1.csv","legacy","8 4 3 5","Melodramatic Milgram","4.0.5","0","n","0","left","right","NA","left","left","196.0","27090","NA","174224","196","2","legacy","4","1024","2","48000","-16","experiment","1","odd","6","416327","3588","NA","407684","414107","3411","278828","414114","413064","104603","415122","418334","418531","30715","418334","New experiment","17","24531.0","36","1024"
"45","45","665","665","#3d3846","experiment","legacy","legacy","legacy","0","undefined","0","right","36","0","0","36","36","0","0","36","36","0","36","36","36","0","36","Thu Oct 12 10:28:05 2023","The main experiment item","True","Sternberg Task Elizabeth McGibbon .osexp","/Users/izzymcgibbon/Desktop/College/Tarleton State /2023 /Fall /Stats /3.0 ","False","mono","False","18","no","white","no","yes","768","legacy","24","11","/Users/izzymcgibbon/Desktop/College/Tarleton State /2023 /Fall /Stats /3.0 /EWM subject-1.csv","legacy","1 6 4 3 9 7","Melodramatic Milgram","4.0.5","0","n","0","left","right","NA","left","left","93.0","27090","NA","174224","93","2","legacy","6","1024","2","48000","-16","experiment","1","odd","8","421796","3588","NA","407684","419583","3411","278828","419587","418534","104603","420592","423801","423895","30715","423801","New experiment","17","24624.0","37","1024"
"47","47","666","666","#3d3846","experiment","legacy","legacy","legacy","1","undefined","1","left","37","0","0","37","37","0","0","37","37","0","37","37","37","0","37","Thu Oct 12 10:28:05 2023","The main experiment item","True","Sternberg Task Elizabeth McGibbon .osexp","/Users/izzymcgibbon/Desktop/College/Tarleton State /2023 /Fall /Stats /3.0 ","False","mono","False","18","no","white","no","yes","768","legacy","25","11","/Users/izzymcgibbon/Desktop/College/Tarleton State /2023 /Fall /Stats /3.0 /EWM subject-1.csv","legacy","2 4 8 5 1 3","Melodramatic Milgram","4.0.5","1","y","0","left","right","NA","left","left","708.0","27090","NA","174224","708","2","legacy","6","1024","2","48000","-16","experiment","1","odd","2","427162","3588","NA","407684","424949","3411","278828","424953","423899","104603","425957","429164","429873","30715","429164","New experiment","18","25332.0","38","1024"
"48","48","675","675","#3d3846","experiment","legacy","legacy","legacy","1","undefined","1","left","38","0","0","38","38","0","0","38","38","0","38","38","38","0","38","Thu Oct 12 10:28:05 2023","The main experiment item","True","Sternberg Task Elizabeth McGibbon .osexp","/Users/izzymcgibbon/Desktop/College/Tarleton State /2023 /Fall /Stats /3.0 ","False","mono","False","18","no","white","no","yes","768","legacy","26","11","/Users/izzymcgibbon/Desktop/College/Tarleton State /2023 /Fall /Stats /3.0 /EWM subject-1.csv","legacy","6 9 3 1","Melodramatic Milgram","4.0.5","4","y","0","left","right","NA","left","left","1028.0","27090","NA","174224","1028","2","legacy","4","1024","2","48000","-16","experiment","1","odd","1","433134","3588","NA","429877","430927","3411","278828","430930","423899","104603","431932","435136","436164","30715","435136","New experiment","19","26360.0","39","1024"
"50","50","680","680","#3d3846","experiment","legacy","legacy","legacy","1","undefined","1","left","39","0","0","39","39","0","0","39","39","0","39","39","39","0","39","Thu Oct 12 10:28:05 2023","The main experiment item","True","Sternberg Task Elizabeth McGibbon .osexp","/Users/izzymcgibbon/Desktop/College/Tarleton State /2023 /Fall /Stats /3.0 ","False","mono","False","18","no","white","no","yes","768","legacy","27","11","/Users/izzymcgibbon/Desktop/College/Tarleton State /2023 /Fall /Stats /3.0 /EWM subject-1.csv","legacy","4 1 8 7 5","Melodramatic Milgram","4.0.5","3","y","0","left","right","NA","left","left","845.0","27090","NA","174224","845","2","legacy","5","1024","2","48000","-16","experiment","1","odd","8","439432","3588","NA","436168","437226","3411","278828","437228","423899","104603","438230","441434","442280","30715","441434","New experiment","20","27205.0","40","1024"
"51","51","676","676","#3d3846","experiment","legacy","legacy","legacy","1","undefined","1","right","40","0","0","40","40","0","0","40","40","0","40","40","40","0","40","Thu Oct 12 10:28:05 2023","The main experiment item","True","Sternberg Task Elizabeth McGibbon .osexp","/Users/izzymcgibbon/Desktop/College/Tarleton State /2023 /Fall /Stats /3.0 ","False","mono","False","18","no","white","no","yes","768","legacy","28","11","/Users/izzymcgibbon/Desktop/College/Tarleton State /2023 /Fall /Stats /3.0 /EWM subject-1.csv","legacy","6 8 4","Melodramatic Milgram","4.0.5","0","n","0","right","right","NA","left","right","542.0","27090","NA","174224","542","2","legacy","3","1024","2","48000","-16","experiment","1","odd","1","445534","3588","NA","442284","443324","3411","278828","443327","423899","104603","444330","447537","448080","30715","447537","New experiment","21","27747.0","41","1024"
"52","52","680","680","#3d3846","experiment","legacy","legacy","legacy","1","undefined","1","right","41","0","0","41","41","0","0","41","41","0","41","41","41","0","41","Thu Oct 12 10:28:05 2023","The main experiment item","True","Sternberg Task Elizabeth McGibbon .osexp","/Users/izzymcgibbon/Desktop/College/Tarleton State /2023 /Fall /Stats /3.0 ","False","mono","False","18","no","white","no","yes","768","legacy","29","11","/Users/izzymcgibbon/Desktop/College/Tarleton State /2023 /Fall /Stats /3.0 /EWM subject-1.csv","legacy","4 2 6 9","Melodramatic Milgram","4.0.5","0","n","0","right","right","NA","left","right","854.0","27090","NA","174224","854","2","legacy","4","1024","2","48000","-16","experiment","1","odd","7","451334","3588","NA","448083","449127","3411","278828","449130","423899","104603","450132","453338","454193","30715","453338","New experiment","22","28601.0","42","1024"
"53","53","680","680","#3d3846","experiment","legacy","legacy","legacy","1","undefined","1","left","42","0","0","42","42","0","0","42","42","0","42","42","42","0","42","Thu Oct 12 10:28:05 2023","The main experiment item","True","Sternberg Task Elizabeth McGibbon .osexp","/Users/izzymcgibbon/Desktop/College/Tarleton State /2023 /Fall /Stats /3.0 ","False","mono","False","18","no","white","no","yes","768","legacy","30","11","/Users/izzymcgibbon/Desktop/College/Tarleton State /2023 /Fall /Stats /3.0 /EWM subject-1.csv","legacy","2 6 1 7 4","Melodramatic Milgram","4.0.5","2","y","0","left","right","NA","left","left","676.0","27090","NA","174224","676","2","legacy","5","1024","2","48000","-16","experiment","1","odd","6","457455","3588","NA","454197","455247","3411","278828","455249","423899","104603","456252","459458","460135","30715","459457","New experiment","23","29277.0","43","1024"
"54","54","685","685","#3d3846","experiment","legacy","legacy","legacy","1","undefined","1","right","43","0","0","43","43","0","0","43","43","0","43","43","43","0","43","Thu Oct 12 10:28:05 2023","The main experiment item","True","Sternberg Task Elizabeth McGibbon .osexp","/Users/izzymcgibbon/Desktop/College/Tarleton State /2023 /Fall /Stats /3.0 ","False","mono","False","18","no","white","no","yes","768","legacy","31","11","/Users/izzymcgibbon/Desktop/College/Tarleton State /2023 /Fall /Stats /3.0 /EWM subject-1.csv","legacy","7 9","Melodramatic Milgram","4.0.5","0","n","0","right","right","NA","left","right","896.0","27090","NA","174224","896","2","legacy","2","1024","2","48000","-16","experiment","1","odd","1","463396","3588","NA","460139","461188","3411","278828","461190","423899","104603","462193","465399","466296","30715","465399","New experiment","24","30173.0","44","1024"
"53","53","692","692","#3d3846","experiment","legacy","legacy","legacy","0","undefined","0","left","44","0","0","44","44","0","0","44","44","0","44","44","44","0","44","Thu Oct 12 10:28:05 2023","The main experiment item","True","Sternberg Task Elizabeth McGibbon .osexp","/Users/izzymcgibbon/Desktop/College/Tarleton State /2023 /Fall /Stats /3.0 ","False","mono","False","18","no","white","no","yes","768","legacy","32","11","/Users/izzymcgibbon/Desktop/College/Tarleton State /2023 /Fall /Stats /3.0 /EWM subject-1.csv","legacy","6 1 2","Melodramatic Milgram","4.0.5","3","y","0","right","right","NA","left","right","996.0","27090","NA","174224","996","2","legacy","3","1024","2","48000","-16","experiment","1","odd","2","469557","3588","NA","466300","467350","3411","278828","467352","423899","104603","468354","471559","472556","30715","471559","New experiment","24","31169.0","45","1024"
"54","54","715","715","#3d3846","experiment","legacy","legacy","legacy","1","undefined","1","right","45","0","0","45","45","0","0","45","45","0","45","45","45","0","45","Thu Oct 12 10:28:05 2023","The main experiment item","True","Sternberg Task Elizabeth McGibbon .osexp","/Users/izzymcgibbon/Desktop/College/Tarleton State /2023 /Fall /Stats /3.0 ","False","mono","False","18","no","white","no","yes","768","legacy","33","11","/Users/izzymcgibbon/Desktop/College/Tarleton State /2023 /Fall /Stats /3.0 /EWM subject-1.csv","legacy","6 2 9 3 8 4","Melodramatic Milgram","4.0.5","0","n","0","right","right","NA","left","right","1755.0","27090","NA","174224","1755","2","legacy","6","1024","2","48000","-16","experiment","1","odd","1","475828","3588","NA","466300","473621","3411","278828","473623","472559","104603","474625","477832","479588","30715","477832","New experiment","25","32924.0","46","1024"
"53","53","702","702","#3d3846","experiment","legacy","legacy","legacy","0","undefined","0","left","46","0","0","46","46","0","0","46","46","0","46","46","46","0","46","Thu Oct 12 10:28:05 2023","The main experiment item","True","Sternberg Task Elizabeth McGibbon .osexp","/Users/izzymcgibbon/Desktop/College/Tarleton State /2023 /Fall /Stats /3.0 ","False","mono","False","18","no","white","no","yes","768","legacy","34","11","/Users/izzymcgibbon/Desktop/College/Tarleton State /2023 /Fall /Stats /3.0 /EWM subject-1.csv","legacy","8 9 6 1","Melodramatic Milgram","4.0.5","2","y","0","right","right","NA","left","right","111.0","27090","NA","174224","111","2","legacy","4","1024","2","48000","-16","experiment","1","odd","9","482840","3588","NA","479591","480631","3411","278828","480634","472559","104603","481637","484845","484957","30715","484844","New experiment","25","33035.0","47","1024"
"52","52","729","729","#3d3846","experiment","legacy","legacy","legacy","0","undefined","0","right","47","0","0","47","47","0","0","47","47","0","47","47","47","0","47","Thu Oct 12 10:28:05 2023","The main experiment item","True","Sternberg Task Elizabeth McGibbon .osexp","/Users/izzymcgibbon/Desktop/College/Tarleton State /2023 /Fall /Stats /3.0 ","False","mono","False","18","no","white","no","yes","768","legacy","35","11","/Users/izzymcgibbon/Desktop/College/Tarleton State /2023 /Fall /Stats /3.0 /EWM subject-1.csv","legacy","4 2 7 6 1 3","Melodramatic Milgram","4.0.5","0","n","0","None","right","NA","left","None","2000.0","27090","NA","174224","2000","2","legacy","6","1024","2","48000","-16","experiment","1","odd","8","488215","3588","NA","479591","486006","3411","278828","486010","484960","104603","487012","490218","492218","30715","490217","New experiment","25","35035.0","48","1024"
"53","53","722","722","#3d3846","experiment","legacy","legacy","legacy","1","undefined","1","left","48","0","0","48","48","0","0","48","48","0","48","48","48","0","48","Thu Oct 12 10:28:05 2023","The main experiment item","True","Sternberg Task Elizabeth McGibbon .osexp","/Users/izzymcgibbon/Desktop/College/Tarleton State /2023 /Fall /Stats /3.0 ","False","mono","False","18","no","white","no","yes","768","legacy","36","11","/Users/izzymcgibbon/Desktop/College/Tarleton State /2023 /Fall /Stats /3.0 /EWM subject-1.csv","legacy","9 1 6 7 8","Melodramatic Milgram","4.0.5","1","y","0","left","right","NA","left","left","366.0","27090","NA","174224","366","2","legacy","5","1024","2","48000","-16","experiment","1","odd","9","495481","3588","NA","479591","493272","3411","278828","493274","492222","104603","494278","497487","497854","30715","497487","New experiment","26","35401.0","49","1024"
"54","54","710","710","#3d3846","experiment","legacy","legacy","legacy","1","undefined","1","left","49","0","0","49","49","0","0","49","49","0","49","49","49","0","49","Thu Oct 12 10:28:05 2023","The main experiment item","True","Sternberg Task Elizabeth McGibbon .osexp","/Users/izzymcgibbon/Desktop/College/Tarleton State /2023 /Fall /Stats /3.0 ","False","mono","False","18","no","white","no","yes","768","legacy","37","11","/Users/izzymcgibbon/Desktop/College/Tarleton State /2023 /Fall /Stats /3.0 /EWM subject-1.csv","legacy","8 5 1 3 9","Melodramatic Milgram","4.0.5","4","y","0","left","right","NA","left","left","140.0","27090","NA","174224","140","2","legacy","5","1024","2","48000","-16","experiment","1","odd","3","501122","3588","NA","497857","498907","3411","278828","498910","492222","104603","499915","503129","503270","30715","503128","New experiment","27","35541.0","50","1024"
"54","54","699","699","#3d3846","experiment","legacy","legacy","legacy","1","undefined","1","left","50","0","0","50","50","0","0","50","50","0","50","50","50","0","50","Thu Oct 12 10:28:05 2023","The main experiment item","True","Sternberg Task Elizabeth McGibbon .osexp","/Users/izzymcgibbon/Desktop/College/Tarleton State /2023 /Fall /Stats /3.0 ","False","mono","False","18","no","white","no","yes","768","legacy","38","11","/Users/izzymcgibbon/Desktop/College/Tarleton State /2023 /Fall /Stats /3.0 /EWM subject-1.csv","legacy","4 9 7 8 5 3","Melodramatic Milgram","4.0.5","4","y","0","left","right","NA","left","left","149.0","27090","NA","174224","149","2","legacy","6","1024","2","48000","-16","experiment","1","odd","8","506539","3588","NA","503274","504325","3411","278828","504329","492222","104603","505333","508546","508696","30715","508546","New experiment","28","35690.0","51","1024"
"53","53","724","724","#3d3846","experiment","legacy","legacy","legacy","0","undefined","0","right","51","0","0","51","51","0","0","51","51","0","51","51","51","0","51","Thu Oct 12 10:28:05 2023","The main experiment item","True","Sternberg Task Elizabeth McGibbon .osexp","/Users/izzymcgibbon/Desktop/College/Tarleton State /2023 /Fall /Stats /3.0 ","False","mono","False","18","no","white","no","yes","768","legacy","39","11","/Users/izzymcgibbon/Desktop/College/Tarleton State /2023 /Fall /Stats /3.0 /EWM subject-1.csv","legacy","2 8 9 4 1","Melodramatic Milgram","4.0.5","0","n","0","None","right","NA","left","None","2000.0","27090","NA","174224","2000","2","legacy","5","1024","2","48000","-16","experiment","1","odd","5","511971","3588","NA","508700","509757","3411","278828","509760","492222","104603","510764","513976","515976","30715","513976","New experiment","28","37690.0","52","1024"
"52","52","748","748","#3d3846","experiment","legacy","legacy","legacy","0","undefined","0","left","52","0","0","52","52","0","0","52","52","0","52","52","52","0","52","Thu Oct 12 10:28:05 2023","The main experiment item","True","Sternberg Task Elizabeth McGibbon .osexp","/Users/izzymcgibbon/Desktop/College/Tarleton State /2023 /Fall /Stats /3.0 ","False","mono","False","18","no","white","no","yes","768","legacy","40","11","/Users/izzymcgibbon/Desktop/College/Tarleton State /2023 /Fall /Stats /3.0 /EWM subject-1.csv","legacy","5 7 8 2 3 8","Melodramatic Milgram","4.0.5","5","y","0","None","right","NA","left","None","2000.0","27090","NA","174224","2000","2","legacy","6","1024","2","48000","-16","experiment","1","odd","3","519229","3588","NA","508700","517021","3411","278828","517024","515980","104603","518027","521232","523232","30715","521232","New experiment","28","39690.0","53","1024"
"51","51","772","772","#3d3846","experiment","legacy","legacy","legacy","0","undefined","0","left","53","0","0","53","53","0","0","53","53","0","53","53","53","0","53","Thu Oct 12 10:28:05 2023","The main experiment item","True","Sternberg Task Elizabeth McGibbon .osexp","/Users/izzymcgibbon/Desktop/College/Tarleton State /2023 /Fall /Stats /3.0 ","False","mono","False","18","no","white","no","yes","768","legacy","41","11","/Users/izzymcgibbon/Desktop/College/Tarleton State /2023 /Fall /Stats /3.0 /EWM subject-1.csv","legacy","5 2 9 6 1 7","Melodramatic Milgram","4.0.5","3","y","0","None","right","NA","left","None","2000.0","27090","NA","174224","2000","2","legacy","6","1024","2","48000","-16","experiment","1","odd","9","526493","3588","NA","508700","524282","3411","278828","524284","523236","104603","525288","528497","530497","30715","528497","New experiment","28","41690.0","54","1024"
"50","50","794","794","#3d3846","experiment","legacy","legacy","legacy","0","undefined","0","right","54","0","0","54","54","0","0","54","54","0","54","54","54","0","54","Thu Oct 12 10:28:05 2023","The main experiment item","True","Sternberg Task Elizabeth McGibbon .osexp","/Users/izzymcgibbon/Desktop/College/Tarleton State /2023 /Fall /Stats /3.0 ","False","mono","False","18","no","white","no","yes","768","legacy","42","11","/Users/izzymcgibbon/Desktop/College/Tarleton State /2023 /Fall /Stats /3.0 /EWM subject-1.csv","legacy","9 5 3 2 8 6","Melodramatic Milgram","4.0.5","0","n","0","None","right","NA","left","None","2000.0","27090","NA","174224","2000","2","legacy","6","1024","2","48000","-16","experiment","1","odd","7","533760","3588","NA","508700","531551","3411","278828","531553","530501","104603","532555","535765","537765","30715","535764","New experiment","28","43690.0","55","1024"
"50","50","786","786","#3d3846","experiment","legacy","legacy","legacy","0","undefined","0","right","55","0","0","55","55","0","0","55","55","0","55","55","55","0","55","Thu Oct 12 10:28:05 2023","The main experiment item","True","Sternberg Task Elizabeth McGibbon .osexp","/Users/izzymcgibbon/Desktop/College/Tarleton State /2023 /Fall /Stats /3.0 ","False","mono","False","18","no","white","no","yes","768","legacy","43","11","/Users/izzymcgibbon/Desktop/College/Tarleton State /2023 /Fall /Stats /3.0 /EWM subject-1.csv","legacy","1 3 2 6 9","Melodramatic Milgram","4.0.5","0","n","0","left","right","NA","left","left","338.0","27090","NA","174224","338","2","legacy","5","1024","2","48000","-16","experiment","1","odd","5","541028","3588","NA","508700","538819","3411","278828","538821","537769","104603","539825","543030","543369","30715","543030","New experiment","28","44028.0","56","1024"
"49","49","807","807","#3d3846","experiment","legacy","legacy","legacy","0","undefined","0","right","56","0","0","56","56","0","0","56","56","0","56","56","56","0","56","Thu Oct 12 10:28:05 2023","The main experiment item","True","Sternberg Task Elizabeth McGibbon .osexp","/Users/izzymcgibbon/Desktop/College/Tarleton State /2023 /Fall /Stats /3.0 ","False","mono","False","18","no","white","no","yes","768","legacy","44","11","/Users/izzymcgibbon/Desktop/College/Tarleton State /2023 /Fall /Stats /3.0 /EWM subject-1.csv","legacy","1 7 8 3 9","Melodramatic Milgram","4.0.5","0","n","0","None","right","NA","left","None","2000.0","27090","NA","174224","2000","2","legacy","5","1024","2","48000","-16","experiment","1","odd","2","546630","3588","NA","508700","544423","3411","278828","544425","543372","104603","545427","548632","550632","30715","548632","New experiment","28","46028.0","57","1024"
"48","48","800","800","#3d3846","experiment","legacy","legacy","legacy","0","undefined","0","right","57","0","0","57","57","0","0","57","57","0","57","57","57","0","57","Thu Oct 12 10:28:05 2023","The main experiment item","True","Sternberg Task Elizabeth McGibbon .osexp","/Users/izzymcgibbon/Desktop/College/Tarleton State /2023 /Fall /Stats /3.0 ","False","mono","False","18","no","white","no","yes","768","legacy","45","11","/Users/izzymcgibbon/Desktop/College/Tarleton State /2023 /Fall /Stats /3.0 /EWM subject-1.csv","legacy","1 7 5 2 9","Melodramatic Milgram","4.0.5","0","n","0","left","right","NA","left","left","410.0","27090","NA","174224","410","2","legacy","5","1024","2","48000","-16","experiment","1","odd","3","553906","3588","NA","508700","551697","3411","278828","551699","550636","104603","552701","555910","556321","30715","555910","New experiment","28","46438.0","58","1024"
"47","47","790","790","#3d3846","experiment","legacy","legacy","legacy","0","undefined","0","right","58","0","0","58","58","0","0","58","58","0","58","58","58","0","58","Thu Oct 12 10:28:05 2023","The main experiment item","True","Sternberg Task Elizabeth McGibbon .osexp","/Users/izzymcgibbon/Desktop/College/Tarleton State /2023 /Fall /Stats /3.0 ","False","mono","False","18","no","white","no","yes","768","legacy","46","11","/Users/izzymcgibbon/Desktop/College/Tarleton State /2023 /Fall /Stats /3.0 /EWM subject-1.csv","legacy","1 4 9 2 5","Melodramatic Milgram","4.0.5","0","n","0","left","right","NA","left","left","212.0","27090","NA","174224","212","2","legacy","5","1024","2","48000","-16","experiment","1","odd","7","559579","3588","NA","508700","557364","3411","278828","557369","556324","104603","558374","561583","561796","30715","561582","New experiment","28","46650.0","59","1024"
"48","48","783","783","#3d3846","experiment","legacy","legacy","legacy","1","undefined","1","left","59","0","0","59","59","0","0","59","59","0","59","59","59","0","59","Thu Oct 12 10:28:05 2023","The main experiment item","True","Sternberg Task Elizabeth McGibbon .osexp","/Users/izzymcgibbon/Desktop/College/Tarleton State /2023 /Fall /Stats /3.0 ","False","mono","False","18","no","white","no","yes","768","legacy","47","11","/Users/izzymcgibbon/Desktop/College/Tarleton State /2023 /Fall /Stats /3.0 /EWM subject-1.csv","legacy","3 5 9 6 2 4","Melodramatic Milgram","4.0.5","1","y","0","left","right","NA","left","left","336.0","27090","NA","174224","336","2","legacy","6","1024","2","48000","-16","experiment","1","odd","3","565057","3588","NA","508700","562845","3411","278828","562847","561799","104603","563852","567061","567398","30715","567061","New experiment","29","46986.0","60","1024"
"49","49","771","771","#3d3846","experiment","legacy","legacy","legacy","1","undefined","1","left","60","0","0","60","60","0","0","60","60","0","60","60","60","0","60","Thu Oct 12 10:28:05 2023","The main experiment item","True","Sternberg Task Elizabeth McGibbon .osexp","/Users/izzymcgibbon/Desktop/College/Tarleton State /2023 /Fall /Stats /3.0 ","False","mono","False","18","no","white","no","yes","768","legacy","48","11","/Users/izzymcgibbon/Desktop/College/Tarleton State /2023 /Fall /Stats /3.0 /EWM subject-1.csv","legacy","8 7 3","Melodramatic Milgram","4.0.5","1","y","0","left","right","NA","left","left","79.0","27090","NA","174224","79","2","legacy","3","1024","2","48000","-16","experiment","1","odd","8","570662","3588","NA","567401","568451","3411","278828","568453","561799","104603","569456","572666","572746","30715","572666","New experiment","30","47065.0","61","1024"
"50","50","760","760","#3d3846","experiment","legacy","legacy","legacy","1","undefined","1","right","61","0","0","61","61","0","0","61","61","0","61","61","61","0","61","Thu Oct 12 10:28:05 2023","The main experiment item","True","Sternberg Task Elizabeth McGibbon .osexp","/Users/izzymcgibbon/Desktop/College/Tarleton State /2023 /Fall /Stats /3.0 ","False","mono","False","18","no","white","no","yes","768","legacy","49","11","/Users/izzymcgibbon/Desktop/College/Tarleton State /2023 /Fall /Stats /3.0 /EWM subject-1.csv","legacy","8 5 4 2 9 6","Melodramatic Milgram","4.0.5","0","n","0","right","right","NA","left","right","105.0","27090","NA","174224","105","2","legacy","6","1024","2","48000","-16","experiment","1","odd","3","576009","3588","NA","572750","573800","3411","278828","573801","561799","104603","574805","578014","578120","30715","578013","New experiment","31","47170.0","62","1024"
"50","50","766","766","#3d3846","experiment","legacy","legacy","legacy","1","undefined","1","right","62","0","0","62","62","0","0","62","62","0","62","62","62","0","62","Thu Oct 12 10:28:05 2023","The main experiment item","True","Sternberg Task Elizabeth McGibbon .osexp","/Users/izzymcgibbon/Desktop/College/Tarleton State /2023 /Fall /Stats /3.0 ","False","mono","False","18","no","white","no","yes","768","legacy","50","11","/Users/izzymcgibbon/Desktop/College/Tarleton State /2023 /Fall /Stats /3.0 /EWM subject-1.csv","legacy","9 8 2 7 4","Melodramatic Milgram","4.0.5","0","n","0","right","right","NA","left","right","1102.0","27090","NA","174224","1102","2","legacy","5","1024","2","48000","-16","experiment","1","odd","5","581387","3588","NA","578124","579173","3411","278828","579177","561799","104603","580181","583392","584495","30715","583392","New experiment","32","48272.0","63","1024"
"50","50","759","759","#3d3846","experiment","legacy","legacy","legacy","0","undefined","0","left","63","0","0","63","63","0","0","63","63","0","63","63","63","0","63","Thu Oct 12 10:28:05 2023","The main experiment item","True","Sternberg Task Elizabeth McGibbon .osexp","/Users/izzymcgibbon/Desktop/College/Tarleton State /2023 /Fall /Stats /3.0 ","False","mono","False","18","no","white","no","yes","768","legacy","51","11","/Users/izzymcgibbon/Desktop/College/Tarleton State /2023 /Fall /Stats /3.0 /EWM subject-1.csv","legacy","4","Melodramatic Milgram","4.0.5","1","y","0","right","right","NA","left","right","322.0","27090","NA","174224","322","2","legacy","1","1024","2","48000","-16","experiment","1","odd","4","587771","3588","NA","584498","585560","3411","278828","585562","561799","104603","586566","589777","590100","30715","589777","New experiment","32","48594.0","64","1024"
"50","50","775","775","#3d3846","experiment","legacy","legacy","legacy","1","undefined","1","left","64","0","0","64","64","0","0","64","64","0","64","64","64","0","64","Thu Oct 12 10:28:05 2023","The main experiment item","True","Sternberg Task Elizabeth McGibbon .osexp","/Users/izzymcgibbon/Desktop/College/Tarleton State /2023 /Fall /Stats /3.0 ","False","mono","False","18","no","white","no","yes","768","legacy","52","11","/Users/izzymcgibbon/Desktop/College/Tarleton State /2023 /Fall /Stats /3.0 /EWM subject-1.csv","legacy","7","Melodramatic Milgram","4.0.5","1","y","0","left","right","NA","left","left","1826.0","27090","NA","174224","1826","2","legacy","1","1024","2","48000","-16","experiment","1","odd","7","593350","3588","NA","584498","591143","3411","278828","591146","590104","104603","592148","595352","597179","30715","595352","New experiment","33","50420.0","65","1024"
"51","51","787","787","#3d3846","experiment","legacy","legacy","legacy","1","undefined","1","left","65","0","0","65","65","0","0","65","65","0","65","65","65","0","65","Thu Oct 12 10:28:05 2023","The main experiment item","True","Sternberg Task Elizabeth McGibbon .osexp","/Users/izzymcgibbon/Desktop/College/Tarleton State /2023 /Fall /Stats /3.0 ","False","mono","False","18","no","white","no","yes","768","legacy","53","11","/Users/izzymcgibbon/Desktop/College/Tarleton State /2023 /Fall /Stats /3.0 /EWM subject-1.csv","legacy","4 1 5","Melodramatic Milgram","4.0.5","2","y","0","left","right","NA","left","left","1576.0","27090","NA","174224","1576","2","legacy","3","1024","2","48000","-16","experiment","1","odd","1","600433","3588","NA","597182","598226","3411","278828","598227","590104","104603","599230","602435","604012","30715","602435","New experiment","34","51996.0","66","1024"
"52","52","794","794","#3d3846","experiment","legacy","legacy","legacy","1","undefined","1","left","66","0","0","66","66","0","0","66","66","0","66","66","66","0","66","Thu Oct 12 10:28:05 2023","The main experiment item","True","Sternberg Task Elizabeth McGibbon .osexp","/Users/izzymcgibbon/Desktop/College/Tarleton State /2023 /Fall /Stats /3.0 ","False","mono","False","18","no","white","no","yes","768","legacy","54","11","/Users/izzymcgibbon/Desktop/College/Tarleton State /2023 /Fall /Stats /3.0 /EWM subject-1.csv","legacy","4 7 6 8 2 3","Melodramatic Milgram","4.0.5","6","y","0","left","right","NA","left","left","1222.0","27090","NA","174224","1222","2","legacy","6","1024","2","48000","-16","experiment","1","odd","3","607273","3588","NA","604015","605065","3411","278828","605067","590104","104603","606069","609276","610499","30715","609276","New experiment","35","53218.0","67","1024"
"52","52","791","791","#3d3846","experiment","legacy","legacy","legacy","1","undefined","1","right","67","0","0","67","67","0","0","67","67","0","67","67","67","0","67","Thu Oct 12 10:28:05 2023","The main experiment item","True","Sternberg Task Elizabeth McGibbon .osexp","/Users/izzymcgibbon/Desktop/College/Tarleton State /2023 /Fall /Stats /3.0 ","False","mono","False","18","no","white","no","yes","768","legacy","55","11","/Users/izzymcgibbon/Desktop/College/Tarleton State /2023 /Fall /Stats /3.0 /EWM subject-1.csv","legacy","6 3 1 7 9 8","Melodramatic Milgram","4.0.5","0","n","0","right","right","NA","left","right","605.0","27090","NA","174224","605","2","legacy","6","1024","2","48000","-16","experiment","1","odd","4","613760","3588","NA","610502","611552","3411","278828","611554","590104","104603","612556","615762","616368","30715","615762","New experiment","36","53823.0","68","1024"
"52","52","793","793","#3d3846","experiment","legacy","legacy","legacy","0","undefined","0","right","68","0","0","68","68","0","0","68","68","0","68","68","68","0","68","Thu Oct 12 10:28:05 2023","The main experiment item","True","Sternberg Task Elizabeth McGibbon .osexp","/Users/izzymcgibbon/Desktop/College/Tarleton State /2023 /Fall /Stats /3.0 ","False","mono","False","18","no","white","no","yes","768","legacy","56","11","/Users/izzymcgibbon/Desktop/College/Tarleton State /2023 /Fall /Stats /3.0 /EWM subject-1.csv","legacy","7 4 2 8 1 9","Melodramatic Milgram","4.0.5","0","n","0","left","right","NA","left","left","923.0","27090","NA","174224","923","2","legacy","6","1024","2","48000","-16","experiment","1","odd","5","619637","3588","NA","616372","617422","3411","278828","617425","590104","104603","618433","621640","622564","30715","621640","New experiment","36","54746.0","69","1024"
"51","51","784","784","#3d3846","experiment","legacy","legacy","legacy","0","undefined","0","right","69","0","0","69","69","0","0","69","69","0","69","69","69","0","69","Thu Oct 12 10:28:05 2023","The main experiment item","True","Sternberg Task Elizabeth McGibbon .osexp","/Users/izzymcgibbon/Desktop/College/Tarleton State /2023 /Fall /Stats /3.0 ","False","mono","False","18","no","white","no","yes","768","legacy","57","11","/Users/izzymcgibbon/Desktop/College/Tarleton State /2023 /Fall /Stats /3.0 /EWM subject-1.csv","legacy","3 9 1","Melodramatic Milgram","4.0.5","0","n","0","left","right","NA","left","left","189.0","27090","NA","174224","189","2","legacy","3","1024","2","48000","-16","experiment","1","odd","7","625831","3588","NA","616372","623623","3411","278828","623626","622567","104603","624628","627838","628028","30715","627837","New experiment","36","54935.0","70","1024"
"52","52","780","780","#3d3846","experiment","legacy","legacy","legacy","1","undefined","1","left","70","0","0","70","70","0","0","70","70","0","70","70","70","0","70","Thu Oct 12 10:28:05 2023","The main experiment item","True","Sternberg Task Elizabeth McGibbon .osexp","/Users/izzymcgibbon/Desktop/College/Tarleton State /2023 /Fall /Stats /3.0 ","False","mono","False","18","no","white","no","yes","768","legacy","58","11","/Users/izzymcgibbon/Desktop/College/Tarleton State /2023 /Fall /Stats /3.0 /EWM subject-1.csv","legacy","3 4","Melodramatic Milgram","4.0.5","1","y","0","left","right","NA","left","left","498.0","27090","NA","174224","498","2","legacy","2","1024","2","48000","-16","experiment","1","odd","3","631284","3588","NA","616372","629071","3411","278828","629076","628031","104603","630080","633287","633786","30715","633286","New experiment","37","55433.0","71","1024"
"52","52","780","780","#3d3846","experiment","legacy","legacy","legacy","1","undefined","1","right","71","0","0","71","71","0","0","71","71","0","71","71","71","0","71","Thu Oct 12 10:28:05 2023","The main experiment item","True","Sternberg Task Elizabeth McGibbon .osexp","/Users/izzymcgibbon/Desktop/College/Tarleton State /2023 /Fall /Stats /3.0 ","False","mono","False","18","no","white","no","yes","768","legacy","59","11","/Users/izzymcgibbon/Desktop/College/Tarleton State /2023 /Fall /Stats /3.0 /EWM subject-1.csv","legacy","5","Melodramatic Milgram","4.0.5","0","n","0","right","right","NA","left","right","755.0","27090","NA","174224","755","2","legacy","1","1024","2","48000","-16","experiment","1","odd","8","637038","3588","NA","633789","634833","3411","278828","634835","628031","104603","635837","639041","639797","30715","639040","New experiment","38","56188.0","72","1024"
"53","53","779","779","#3d3846","experiment","legacy","legacy","legacy","1","undefined","1","right","72","0","0","72","72","0","0","72","72","0","72","72","72","0","72","Thu Oct 12 10:28:05 2023","The main experiment item","True","Sternberg Task Elizabeth McGibbon .osexp","/Users/izzymcgibbon/Desktop/College/Tarleton State /2023 /Fall /Stats /3.0 ","False","mono","False","18","no","white","no","yes","768","legacy","60","11","/Users/izzymcgibbon/Desktop/College/Tarleton State /2023 /Fall /Stats /3.0 /EWM subject-1.csv","legacy","3 4 2","Melodramatic Milgram","4.0.5","0","n","0","right","right","NA","left","right","738.0","27090","NA","174224","738","2","legacy","3","1024","2","48000","-16","experiment","1","odd","5","643064","3588","NA","639801","640856","3411","278828","640858","628031","104603","641861","645066","645805","30715","645066","New experiment","39","56926.0","73","1024"
"54","54","780","780","#3d3846","experiment","legacy","legacy","legacy","1","undefined","1","left","73","0","0","73","73","0","0","73","73","0","73","73","73","0","73","Thu Oct 12 10:28:05 2023","The main experiment item","True","Sternberg Task Elizabeth McGibbon .osexp","/Users/izzymcgibbon/Desktop/College/Tarleton State /2023 /Fall /Stats /3.0 ","False","mono","False","18","no","white","no","yes","768","legacy","61","11","/Users/izzymcgibbon/Desktop/College/Tarleton State /2023 /Fall /Stats /3.0 /EWM subject-1.csv","legacy","7 1 3","Melodramatic Milgram","4.0.5","2","y","0","left","right","NA","left","left","859.0","27090","NA","174224","859","2","legacy","3","1024","2","48000","-16","experiment","1","odd","1","649068","3588","NA","645808","646861","3411","278828","646864","628031","104603","647866","651070","651930","30715","651070","New experiment","40","57785.0","74","1024"
"53","53","782","782","#3d3846","experiment","legacy","legacy","legacy","0","undefined","0","left","74","0","0","74","74","0","0","74","74","0","74","74","74","0","74","Thu Oct 12 10:28:05 2023","The main experiment item","True","Sternberg Task Elizabeth McGibbon .osexp","/Users/izzymcgibbon/Desktop/College/Tarleton State /2023 /Fall /Stats /3.0 ","False","mono","False","18","no","white","no","yes","768","legacy","62","11","/Users/izzymcgibbon/Desktop/College/Tarleton State /2023 /Fall /Stats /3.0 /EWM subject-1.csv","legacy","3 2 1 4 7","Melodramatic Milgram","4.0.5","2","y","0","right","right","NA","left","right","920.0","27090","NA","174224","920","2","legacy","5","1024","2","48000","-16","experiment","1","odd","2","655192","3588","NA","651934","652984","3411","278828","652986","628031","104603","653989","657194","658115","30715","657194","New experiment","40","58705.0","75","1024"
"52","52","784","784","#3d3846","experiment","legacy","legacy","legacy","0","undefined","0","right","75","0","0","75","75","0","0","75","75","0","75","75","75","0","75","Thu Oct 12 10:28:05 2023","The main experiment item","True","Sternberg Task Elizabeth McGibbon .osexp","/Users/izzymcgibbon/Desktop/College/Tarleton State /2023 /Fall /Stats /3.0 ","False","mono","False","18","no","white","no","yes","768","legacy","63","11","/Users/izzymcgibbon/Desktop/College/Tarleton State /2023 /Fall /Stats /3.0 /EWM subject-1.csv","legacy","8 2 1 4 5 9","Melodramatic Milgram","4.0.5","0","n","0","left","right","NA","left","left","913.0","27090","NA","174224","913","2","legacy","6","1024","2","48000","-16","experiment","1","odd","7","661388","3588","NA","651934","659179","3411","278828","659182","658118","104603","660185","663391","664305","30715","663391","New experiment","40","59618.0","76","1024"
"53","53","782","782","#3d3846","experiment","legacy","legacy","legacy","1","undefined","1","right","76","0","0","76","76","0","0","76","76","0","76","76","76","0","76","Thu Oct 12 10:28:05 2023","The main experiment item","True","Sternberg Task Elizabeth McGibbon .osexp","/Users/izzymcgibbon/Desktop/College/Tarleton State /2023 /Fall /Stats /3.0 ","False","mono","False","18","no","white","no","yes","768","legacy","64","11","/Users/izzymcgibbon/Desktop/College/Tarleton State /2023 /Fall /Stats /3.0 /EWM subject-1.csv","legacy","3 4 9 6 7 8","Melodramatic Milgram","4.0.5","0","n","0","right","right","NA","left","right","666.0","27090","NA","174224","666","2","legacy","6","1024","2","48000","-16","experiment","1","odd","2","667556","3588","NA","651934","665349","3411","278828","665352","664308","104603","666354","669559","670227","30715","669558","New experiment","41","60284.0","77","1024"
"52","52","798","798","#3d3846","experiment","legacy","legacy","legacy","0","undefined","0","left","77","0","0","77","77","0","0","77","77","0","77","77","77","0","77","Thu Oct 12 10:28:05 2023","The main experiment item","True","Sternberg Task Elizabeth McGibbon .osexp","/Users/izzymcgibbon/Desktop/College/Tarleton State /2023 /Fall /Stats /3.0 ","False","mono","False","18","no","white","no","yes","768","legacy","65","11","/Users/izzymcgibbon/Desktop/College/Tarleton State /2023 /Fall /Stats /3.0 /EWM subject-1.csv","legacy","9 1 7 2","Melodramatic Milgram","4.0.5","2","y","0","None","right","NA","left","None","2000.0","27090","NA","174224","2000","2","legacy","4","1024","2","48000","-16","experiment","1","odd","1","673484","3588","NA","670230","671277","3411","278828","671279","664308","104603","672281","675486","677486","30715","675486","New experiment","41","62284.0","78","1024"
"51","51","797","797","#3d3846","experiment","legacy","legacy","legacy","0","undefined","0","right","78","0","0","78","78","0","0","78","78","0","78","78","78","0","78","Thu Oct 12 10:28:05 2023","The main experiment item","True","Sternberg Task Elizabeth McGibbon .osexp","/Users/izzymcgibbon/Desktop/College/Tarleton State /2023 /Fall /Stats /3.0 ","False","mono","False","18","no","white","no","yes","768","legacy","66","11","/Users/izzymcgibbon/Desktop/College/Tarleton State /2023 /Fall /Stats /3.0 /EWM subject-1.csv","legacy","8 5 7 3 6","Melodramatic Milgram","4.0.5","0","n","0","left","right","NA","left","left","737.0","27090","NA","174224","737","2","legacy","5","1024","2","48000","-16","experiment","1","odd","9","680747","3588","NA","670230","678540","3411","278828","678542","677490","104603","679544","682750","683488","30715","682749","New experiment","41","63021.0","79","1024"
"52","52","795","795","#3d3846","experiment","legacy","legacy","legacy","1","undefined","1","left","79","0","0","79","79","0","0","79","79","0","79","79","79","0","79","Thu Oct 12 10:28:05 2023","The main experiment item","True","Sternberg Task Elizabeth McGibbon .osexp","/Users/izzymcgibbon/Desktop/College/Tarleton State /2023 /Fall /Stats /3.0 ","False","mono","False","18","no","white","no","yes","768","legacy","67","11","/Users/izzymcgibbon/Desktop/College/Tarleton State /2023 /Fall /Stats /3.0 /EWM subject-1.csv","legacy","3 4 9 6 2 9","Melodramatic Milgram","4.0.5","5","y","0","left","right","NA","left","left","614.0","27090","NA","174224","614","2","legacy","6","1024","2","48000","-16","experiment","1","odd","2","686750","3588","NA","670230","684540","3411","278828","684544","683491","104603","685546","688752","689367","30715","688752","New experiment","42","63635.0","80","1024"
"53","53","794","794","#3d3846","experiment","legacy","legacy","legacy","1","undefined","1","left","80","0","0","80","80","0","0","80","80","0","80","80","80","0","80","Thu Oct 12 10:28:05 2023","The main experiment item","True","Sternberg Task Elizabeth McGibbon .osexp","/Users/izzymcgibbon/Desktop/College/Tarleton State /2023 /Fall /Stats /3.0 ","False","mono","False","18","no","white","no","yes","768","legacy","68","11","/Users/izzymcgibbon/Desktop/College/Tarleton State /2023 /Fall /Stats /3.0 /EWM subject-1.csv","legacy","9 5 3 8 4","Melodramatic Milgram","4.0.5","1","y","0","left","right","NA","left","left","721.0","27090","NA","174224","721","2","legacy","5","1024","2","48000","-16","experiment","1","odd","9","692628","3588","NA","689370","690420","3411","278828","690422","683491","104603","691424","694630","695352","30715","694630","New experiment","43","64356.0","81","1024"
"53","53","794","794","#3d3846","experiment","legacy","legacy","legacy","1","undefined","1","left","81","0","0","81","81","0","0","81","81","0","81","81","81","0","81","Thu Oct 12 10:28:05 2023","The main experiment item","True","Sternberg Task Elizabeth McGibbon .osexp","/Users/izzymcgibbon/Desktop/College/Tarleton State /2023 /Fall /Stats /3.0 ","False","mono","False","18","no","white","no","yes","768","legacy","69","11","/Users/izzymcgibbon/Desktop/College/Tarleton State /2023 /Fall /Stats /3.0 /EWM subject-1.csv","legacy","9 3 1 2 5","Melodramatic Milgram","4.0.5","4","y","0","left","right","NA","left","left","773.0","27090","NA","174224","773","2","legacy","5","1024","2","48000","-16","experiment","1","odd","2","698624","3588","NA","695356","696416","3411","278828","696419","683491","104603","697421","700626","701400","30715","700626","New experiment","44","65129.0","82","1024"
"54","54","794","794","#3d3846","experiment","legacy","legacy","legacy","1","undefined","1","left","82","0","0","82","82","0","0","82","82","0","82","82","82","0","82","Thu Oct 12 10:28:05 2023","The main experiment item","True","Sternberg Task Elizabeth McGibbon .osexp","/Users/izzymcgibbon/Desktop/College/Tarleton State /2023 /Fall /Stats /3.0 ","False","mono","False","18","no","white","no","yes","768","legacy","70","11","/Users/izzymcgibbon/Desktop/College/Tarleton State /2023 /Fall /Stats /3.0 /EWM subject-1.csv","legacy","2 4 6 9","Melodramatic Milgram","4.0.5","3","y","0","left","right","NA","left","left","836.0","27090","NA","174224","836","2","legacy","4","1024","2","48000","-16","experiment","1","odd","6","704651","3588","NA","701404","702444","3411","278828","702447","683491","104603","703449","706653","707490","30715","706653","New experiment","45","65965.0","83","1024"
"54","54","793","793","#3d3846","experiment","legacy","legacy","legacy","1","undefined","1","left","83","0","0","83","83","0","0","83","83","0","83","83","83","0","83","Thu Oct 12 10:28:05 2023","The main experiment item","True","Sternberg Task Elizabeth McGibbon .osexp","/Users/izzymcgibbon/Desktop/College/Tarleton State /2023 /Fall /Stats /3.0 ","False","mono","False","18","no","white","no","yes","768","legacy","71","11","/Users/izzymcgibbon/Desktop/College/Tarleton State /2023 /Fall /Stats /3.0 /EWM subject-1.csv","legacy","8 9 5 6 7","Melodramatic Milgram","4.0.5","1","y","0","left","right","NA","left","left","701.0","27090","NA","174224","701","2","legacy","5","1024","2","48000","-16","experiment","1","odd","8","710746","3588","NA","707494","708537","3411","278828","708542","683491","104603","709544","712748","713450","30715","712748","New experiment","46","66666.0","84","1024"
"55","55","792","792","#3d3846","experiment","legacy","legacy","legacy","1","undefined","1","right","84","0","0","84","84","0","0","84","84","0","84","84","84","0","84","Thu Oct 12 10:28:05 2023","The main experiment item","True","Sternberg Task Elizabeth McGibbon .osexp","/Users/izzymcgibbon/Desktop/College/Tarleton State /2023 /Fall /Stats /3.0 ","False","mono","False","18","no","white","no","yes","768","legacy","72","11","/Users/izzymcgibbon/Desktop/College/Tarleton State /2023 /Fall /Stats /3.0 /EWM subject-1.csv","legacy","7 1","Melodramatic Milgram","4.0.5","0","n","0","right","right","NA","left","right","719.0","27090","NA","174224","719","2","legacy","2","1024","2","48000","-16","experiment","1","odd","8","716708","3588","NA","713453","714500","3411","278828","714502","683491","104603","715504","718710","719430","30715","718710","New experiment","47","67385.0","85","1024"
"54","54","790","790","#3d3846","experiment","legacy","legacy","legacy","0","undefined","0","right","85","0","0","85","85","0","0","85","85","0","85","85","85","0","85","Thu Oct 12 10:28:05 2023","The main experiment item","True","Sternberg Task Elizabeth McGibbon .osexp","/Users/izzymcgibbon/Desktop/College/Tarleton State /2023 /Fall /Stats /3.0 ","False","mono","False","18","no","white","no","yes","768","legacy","73","11","/Users/izzymcgibbon/Desktop/College/Tarleton State /2023 /Fall /Stats /3.0 /EWM subject-1.csv","legacy","9","Melodramatic Milgram","4.0.5","0","n","0","left","right","NA","left","left","558.0","27090","NA","174224","558","2","legacy","1","1024","2","48000","-16","experiment","1","odd","6","722691","3588","NA","719434","720483","3411","278828","720485","683491","104603","721487","724693","725252","30715","724693","New experiment","47","67943.0","86","1024"
"54","54","781","781","#3d3846","experiment","legacy","legacy","legacy","0","undefined","0","right","86","0","0","86","86","0","0","86","86","0","86","86","86","0","86","Thu Oct 12 10:28:05 2023","The main experiment item","True","Sternberg Task Elizabeth McGibbon .osexp","/Users/izzymcgibbon/Desktop/College/Tarleton State /2023 /Fall /Stats /3.0 ","False","mono","False","18","no","white","no","yes","768","legacy","74","11","/Users/izzymcgibbon/Desktop/College/Tarleton State /2023 /Fall /Stats /3.0 /EWM subject-1.csv","legacy","6 9 7 3 8 2","Melodramatic Milgram","4.0.5","0","n","0","left","right","NA","left","left","40.0","27090","NA","174224","40","2","legacy","6","1024","2","48000","-16","experiment","1","odd","5","728515","3588","NA","719434","726306","3411","278828","726308","725256","104603","727310","730520","730561","30715","730520","New experiment","47","67983.0","87","1024"
"53","53","775","775","#3d3846","experiment","legacy","legacy","legacy","0","undefined","0","right","87","0","0","87","87","0","0","87","87","0","87","87","87","0","87","Thu Oct 12 10:28:05 2023","The main experiment item","True","Sternberg Task Elizabeth McGibbon .osexp","/Users/izzymcgibbon/Desktop/College/Tarleton State /2023 /Fall /Stats /3.0 ","False","mono","False","18","no","white","no","yes","768","legacy","75","11","/Users/izzymcgibbon/Desktop/College/Tarleton State /2023 /Fall /Stats /3.0 /EWM subject-1.csv","legacy","7 8 6 1","Melodramatic Milgram","4.0.5","0","n","0","left","right","NA","left","left","258.0","27090","NA","174224","258","2","legacy","4","1024","2","48000","-16","experiment","1","odd","3","733842","3588","NA","719434","731627","3411","278828","731631","730565","104603","732637","735849","736108","30715","735848","New experiment","47","68241.0","88","1024"
"52","52","767","767","#3d3846","experiment","legacy","legacy","legacy","0","undefined","0","left","88","0","0","88","88","0","0","88","88","0","88","88","88","0","88","Thu Oct 12 10:28:05 2023","The main experiment item","True","Sternberg Task Elizabeth McGibbon .osexp","/Users/izzymcgibbon/Desktop/College/Tarleton State /2023 /Fall /Stats /3.0 ","False","mono","False","18","no","white","no","yes","768","legacy","76","11","/Users/izzymcgibbon/Desktop/College/Tarleton State /2023 /Fall /Stats /3.0 /EWM subject-1.csv","legacy","2 3 7 4","Melodramatic Milgram","4.0.5","1","y","0","right","right","NA","left","right","23.0","27090","NA","174224","23","2","legacy","4","1024","2","48000","-16","experiment","1","odd","2","739368","3588","NA","719434","737154","3411","278828","737158","736112","104603","738162","741374","741398","30715","741373","New experiment","47","68264.0","89","1024"
"53","53","758","758","#3d3846","experiment","legacy","legacy","legacy","1","undefined","1","left","89","0","0","89","89","0","0","89","89","0","89","89","89","0","89","Thu Oct 12 10:28:05 2023","The main experiment item","True","Sternberg Task Elizabeth McGibbon .osexp","/Users/izzymcgibbon/Desktop/College/Tarleton State /2023 /Fall /Stats /3.0 ","False","mono","False","18","no","white","no","yes","768","legacy","77","11","/Users/izzymcgibbon/Desktop/College/Tarleton State /2023 /Fall /Stats /3.0 /EWM subject-1.csv","legacy","6 9 7 4 5 1","Melodramatic Milgram","4.0.5","2","y","0","left","right","NA","left","left","21.0","27090","NA","174224","21","2","legacy","6","1024","2","48000","-16","experiment","1","odd","9","744659","3588","NA","719434","742445","3411","278828","742448","741401","104603","743453","746667","746689","30715","746667","New experiment","48","68285.0","90","1024"
"53","53","751","751","#3d3846","experiment","legacy","legacy","legacy","1","undefined","1","right","90","0","0","90","90","0","0","90","90","0","90","90","90","0","90","Thu Oct 12 10:28:05 2023","The main experiment item","True","Sternberg Task Elizabeth McGibbon .osexp","/Users/izzymcgibbon/Desktop/College/Tarleton State /2023 /Fall /Stats /3.0 ","False","mono","False","18","no","white","no","yes","768","legacy","78","11","/Users/izzymcgibbon/Desktop/College/Tarleton State /2023 /Fall /Stats /3.0 /EWM subject-1.csv","legacy","2 3 8 5 6 7","Melodramatic Milgram","4.0.5","0","n","0","right","right","NA","left","right","137.0","27090","NA","174224","137","2","legacy","6","1024","2","48000","-16","experiment","1","odd","1","749956","3588","NA","746692","747742","3411","278828","747746","741401","104603","748750","751963","752102","30715","751963","New experiment","49","68422.0","91","1024"
"54","54","746","746","#3d3846","experiment","legacy","legacy","legacy","1","undefined","1","left","91","0","0","91","91","0","0","91","91","0","91","91","91","0","91","Thu Oct 12 10:28:05 2023","The main experiment item","True","Sternberg Task Elizabeth McGibbon .osexp","/Users/izzymcgibbon/Desktop/College/Tarleton State /2023 /Fall /Stats /3.0 ","False","mono","False","18","no","white","no","yes","768","legacy","79","11","/Users/izzymcgibbon/Desktop/College/Tarleton State /2023 /Fall /Stats /3.0 /EWM subject-1.csv","legacy","8 3","Melodramatic Milgram","4.0.5","2","y","0","left","right","NA","left","left","240.0","27090","NA","174224","240","2","legacy","2","1024","2","48000","-16","experiment","1","odd","3","755371","3588","NA","752105","753154","3411","278828","753158","741401","104603","754164","757379","757620","30715","757379","New experiment","50","68662.0","92","1024"
"53","53","738","738","#3d3846","experiment","legacy","legacy","legacy","0","undefined","0","right","92","0","0","92","92","0","0","92","92","0","92","92","92","0","92","Thu Oct 12 10:28:05 2023","The main experiment item","True","Sternberg Task Elizabeth McGibbon .osexp","/Users/izzymcgibbon/Desktop/College/Tarleton State /2023 /Fall /Stats /3.0 ","False","mono","False","18","no","white","no","yes","768","legacy","80","11","/Users/izzymcgibbon/Desktop/College/Tarleton State /2023 /Fall /Stats /3.0 /EWM subject-1.csv","legacy","5 7 3","Melodramatic Milgram","4.0.5","0","n","0","left","right","NA","left","left","26.0","27090","NA","174224","26","2","legacy","3","1024","2","48000","-16","experiment","1","odd","9","760887","3588","NA","757624","758674","3411","278828","758677","741401","104603","759682","762892","762919","30715","762892","New experiment","50","68688.0","93","1024"
"54","54","737","737","#3d3846","experiment","legacy","legacy","legacy","1","undefined","1","left","93","0","0","93","93","0","0","93","93","0","93","93","93","0","93","Thu Oct 12 10:28:05 2023","The main experiment item","True","Sternberg Task Elizabeth McGibbon .osexp","/Users/izzymcgibbon/Desktop/College/Tarleton State /2023 /Fall /Stats /3.0 ","False","mono","False","18","no","white","no","yes","768","legacy","81","11","/Users/izzymcgibbon/Desktop/College/Tarleton State /2023 /Fall /Stats /3.0 /EWM subject-1.csv","legacy","7 1 8 5 6 2","Melodramatic Milgram","4.0.5","2","y","0","left","right","NA","left","left","659.0","27090","NA","174224","659","2","legacy","6","1024","2","48000","-16","experiment","1","odd","1","766196","3588","NA","757624","763986","3411","278828","763989","762922","104603","764993","768198","768858","30715","768198","New experiment","51","69347.0","94","1024"
"53","53","732","732","#3d3846","experiment","legacy","legacy","legacy","0","undefined","0","right","94","0","0","94","94","0","0","94","94","0","94","94","94","0","94","Thu Oct 12 10:28:05 2023","The main experiment item","True","Sternberg Task Elizabeth McGibbon .osexp","/Users/izzymcgibbon/Desktop/College/Tarleton State /2023 /Fall /Stats /3.0 ","False","mono","False","18","no","white","no","yes","768","legacy","82","11","/Users/izzymcgibbon/Desktop/College/Tarleton State /2023 /Fall /Stats /3.0 /EWM subject-1.csv","legacy","1 4 3 6 5","Melodramatic Milgram","4.0.5","0","n","0","left","right","NA","left","left","260.0","27090","NA","174224","260","2","legacy","5","1024","2","48000","-16","experiment","1","odd","8","772119","3588","NA","768862","769903","3411","278828","769908","762922","104603","770913","774126","774387","30715","774126","New experiment","51","69607.0","95","1024"
"53","53","726","726","#3d3846","experiment","legacy","legacy","legacy","0","undefined","0","left","95","0","0","95","95","0","0","95","95","0","95","95","95","0","95","Thu Oct 12 10:28:05 2023","The main experiment item","True","Sternberg Task Elizabeth McGibbon .osexp","/Users/izzymcgibbon/Desktop/College/Tarleton State /2023 /Fall /Stats /3.0 ","False","mono","False","18","no","white","no","yes","768","legacy","83","11","/Users/izzymcgibbon/Desktop/College/Tarleton State /2023 /Fall /Stats /3.0 /EWM subject-1.csv","legacy","2 3","Melodramatic Milgram","4.0.5","1","y","0","right","right","NA","left","right","141.0","27090","NA","174224","141","2","legacy","2","1024","2","48000","-16","experiment","1","odd","2","777646","3588","NA","768862","775435","3411","278828","775440","774390","104603","776443","779652","779795","30715","779652","New experiment","51","69748.0","96","1024"
"52","52","721","721","#3d3846","experiment","legacy","legacy","legacy","0","undefined","0","right","96","0","0","96","96","0","0","96","96","0","96","96","96","0","96","Thu Oct 12 10:28:05 2023","The main experiment item","True","Sternberg Task Elizabeth McGibbon .osexp","/Users/izzymcgibbon/Desktop/College/Tarleton State /2023 /Fall /Stats /3.0 ","False","mono","False","18","no","white","no","yes","768","legacy","84","11","/Users/izzymcgibbon/Desktop/College/Tarleton State /2023 /Fall /Stats /3.0 /EWM subject-1.csv","legacy","4 1","Melodramatic Milgram","4.0.5","0","n","0","left","right","NA","left","left","195.0","27090","NA","174224","195","2","legacy","2","1024","2","48000","-16","experiment","1","odd","6","783060","3588","NA","768862","780848","3411","278828","780850","779798","104603","781854","785066","785263","30715","785066","New experiment","51","69943.0","97","1024"
"53","53","713","713","#3d3846","experiment","legacy","legacy","legacy","1","undefined","1","left","97","0","0","97","97","0","0","97","97","0","97","97","97","0","97","Thu Oct 12 10:28:05 2023","The main experiment item","True","Sternberg Task Elizabeth McGibbon .osexp","/Users/izzymcgibbon/Desktop/College/Tarleton State /2023 /Fall /Stats /3.0 ","False","mono","False","18","no","white","no","yes","768","legacy","85","11","/Users/izzymcgibbon/Desktop/College/Tarleton State /2023 /Fall /Stats /3.0 /EWM subject-1.csv","legacy","4 6 2 5 1","Melodramatic Milgram","4.0.5","5","y","0","left","right","NA","left","left","6.0","27090","NA","174224","6","2","legacy","5","1024","2","48000","-16","experiment","1","odd","1","788525","3588","NA","768862","786316","3411","278828","786318","785266","104603","787321","790531","790538","30715","790531","New experiment","52","69949.0","98","1024"
"53","53","724","724","#3d3846","experiment","legacy","legacy","legacy","1","undefined","1","right","98","0","0","98","98","0","0","98","98","0","98","98","98","0","98","Thu Oct 12 10:28:05 2023","The main experiment item","True","Sternberg Task Elizabeth McGibbon .osexp","/Users/izzymcgibbon/Desktop/College/Tarleton State /2023 /Fall /Stats /3.0 ","False","mono","False","18","no","white","no","yes","768","legacy","86","11","/Users/izzymcgibbon/Desktop/College/Tarleton State /2023 /Fall /Stats /3.0 /EWM subject-1.csv","legacy","1 6 4","Melodramatic Milgram","4.0.5","0","n","0","right","right","NA","left","right","1770.0","27090","NA","174224","1770","2","legacy","3","1024","2","48000","-16","experiment","1","odd","7","793800","3588","NA","790540","791591","3411","278828","791593","785266","104603","792597","795804","797575","30715","795803","New experiment","53","71719.0","99","1024"
"54","54","720","720","#3d3846","experiment","legacy","legacy","legacy","1","undefined","1","left","99","0","0","99","99","0","0","99","99","0","99","99","99","0","99","Thu Oct 12 10:28:05 2023","The main experiment item","True","Sternberg Task Elizabeth McGibbon .osexp","/Users/izzymcgibbon/Desktop/College/Tarleton State /2023 /Fall /Stats /3.0 ","False","mono","False","18","no","white","no","yes","768","legacy","87","11","/Users/izzymcgibbon/Desktop/College/Tarleton State /2023 /Fall /Stats /3.0 /EWM subject-1.csv","legacy","2 8 5 1","Melodramatic Milgram","4.0.5","4","y","0","left","right","NA","left","left","357.0","27090","NA","174224","357","2","legacy","4","1024","2","48000","-16","experiment","1","odd","1","800879","3588","NA","797578","798673","3411","278828","798674","785266","104603","799678","802881","803239","30715","802881","New experiment","54","72076.0","100","1024"
"53","53","721","721","#3d3846","experiment","legacy","legacy","legacy","0","undefined","0","right","100","0","0","100","100","0","0","100","100","0","100","100","100","0","100","Thu Oct 12 10:28:05 2023","The main experiment item","True","Sternberg Task Elizabeth McGibbon .osexp","/Users/izzymcgibbon/Desktop/College/Tarleton State /2023 /Fall /Stats /3.0 ","False","mono","False","18","no","white","no","yes","768","legacy","88","11","/Users/izzymcgibbon/Desktop/College/Tarleton State /2023 /Fall /Stats /3.0 /EWM subject-1.csv","legacy","5 3 8 7 2 4","Melodramatic Milgram","4.0.5","0","n","0","left","right","NA","left","left","828.0","27090","NA","174224","828","2","legacy","6","1024","2","48000","-16","experiment","1","odd","9","806491","3588","NA","803243","804284","3411","278828","804286","785266","104603","805289","808494","809323","30715","808494","New experiment","54","72904.0","101","1024"
"52","52","718","718","#3d3846","experiment","legacy","legacy","legacy","0","undefined","0","left","101","0","0","101","101","0","0","101","101","0","101","101","101","0","101","Thu Oct 12 10:28:05 2023","The main experiment item","True","Sternberg Task Elizabeth McGibbon .osexp","/Users/izzymcgibbon/Desktop/College/Tarleton State /2023 /Fall /Stats /3.0 ","False","mono","False","18","no","white","no","yes","768","legacy","89","11","/Users/izzymcgibbon/Desktop/College/Tarleton State /2023 /Fall /Stats /3.0 /EWM subject-1.csv","legacy","9 6 2 4 1","Melodramatic Milgram","4.0.5","4","y","0","right","right","NA","left","right","377.0","27090","NA","174224","377","2","legacy","5","1024","2","48000","-16","experiment","1","odd","4","812585","3588","NA","803243","810373","3411","278828","810377","809326","104603","811381","814589","814967","30715","814588","New experiment","54","73281.0","102","1024"
"52","52","712","712","#3d3846","experiment","legacy","legacy","legacy","0","undefined","0","right","102","0","0","102","102","0","0","102","102","0","102","102","102","0","102","Thu Oct 12 10:28:05 2023","The main experiment item","True","Sternberg Task Elizabeth McGibbon .osexp","/Users/izzymcgibbon/Desktop/College/Tarleton State /2023 /Fall /Stats /3.0 ","False","mono","False","18","no","white","no","yes","768","legacy","90","11","/Users/izzymcgibbon/Desktop/College/Tarleton State /2023 /Fall /Stats /3.0 /EWM subject-1.csv","legacy","6 9 5","Melodramatic Milgram","4.0.5","0","n","0","left","right","NA","left","left","156.0","27090","NA","174224","156","2","legacy","3","1024","2","48000","-16","experiment","1","odd","8","818228","3588","NA","803243","816020","3411","278828","816022","814970","104603","817024","820232","820389","30715","820232","New experiment","54","73437.0","103","1024"
"52","52","706","706","#3d3846","experiment","legacy","legacy","legacy","1","undefined","1","right","103","0","0","103","103","0","0","103","103","0","103","103","103","0","103","Thu Oct 12 10:28:05 2023","The main experiment item","True","Sternberg Task Elizabeth McGibbon .osexp","/Users/izzymcgibbon/Desktop/College/Tarleton State /2023 /Fall /Stats /3.0 ","False","mono","False","18","no","white","no","yes","768","legacy","91","11","/Users/izzymcgibbon/Desktop/College/Tarleton State /2023 /Fall /Stats /3.0 /EWM subject-1.csv","legacy","7 3 2 8","Melodramatic Milgram","4.0.5","0","n","0","right","right","NA","left","right","14.0","27090","NA","174224","14","2","legacy","4","1024","2","48000","-16","experiment","1","odd","4","823655","3588","NA","803243","821442","3411","278828","821444","820392","104603","822448","825661","825676","30715","825661","New experiment","55","73451.0","104","1024"
"53","53","700","700","#3d3846","experiment","legacy","legacy","legacy","1","undefined","1","right","104","0","0","104","104","0","0","104","104","0","104","104","104","0","104","Thu Oct 12 10:28:05 2023","The main experiment item","True","Sternberg Task Elizabeth McGibbon .osexp","/Users/izzymcgibbon/Desktop/College/Tarleton State /2023 /Fall /Stats /3.0 ","False","mono","False","18","no","white","no","yes","768","legacy","92","11","/Users/izzymcgibbon/Desktop/College/Tarleton State /2023 /Fall /Stats /3.0 /EWM subject-1.csv","legacy","5 2","Melodramatic Milgram","4.0.5","0","n","0","right","right","NA","left","right","92.0","27090","NA","174224","92","2","legacy","2","1024","2","48000","-16","experiment","1","odd","7","828939","3588","NA","825680","826728","3411","278828","826731","820392","104603","827736","830944","831037","30715","830944","New experiment","56","73543.0","105","1024"
"52","52","712","712","#3d3846","experiment","legacy","legacy","legacy","0","undefined","0","left","105","0","0","105","105","0","0","105","105","0","105","105","105","0","105","Thu Oct 12 10:28:05 2023","The main experiment item","True","Sternberg Task Elizabeth McGibbon .osexp","/Users/izzymcgibbon/Desktop/College/Tarleton State /2023 /Fall /Stats /3.0 ","False","mono","False","18","no","white","no","yes","768","legacy","93","11","/Users/izzymcgibbon/Desktop/College/Tarleton State /2023 /Fall /Stats /3.0 /EWM subject-1.csv","legacy","7 2 3","Melodramatic Milgram","4.0.5","3","y","0","None","right","NA","left","None","2000.0","27090","NA","174224","2000","2","legacy","3","1024","2","48000","-16","experiment","1","odd","3","834311","3588","NA","831041","832097","3411","278828","832101","820392","104603","833105","836313","838313","30715","836313","New experiment","56","75543.0","106","1024"
"52","52","724","724","#3d3846","experiment","legacy","legacy","legacy","0","undefined","0","right","106","0","0","106","106","0","0","106","106","0","106","106","106","0","106","Thu Oct 12 10:28:05 2023","The main experiment item","True","Sternberg Task Elizabeth McGibbon .osexp","/Users/izzymcgibbon/Desktop/College/Tarleton State /2023 /Fall /Stats /3.0 ","False","mono","False","18","no","white","no","yes","768","legacy","94","11","/Users/izzymcgibbon/Desktop/College/Tarleton State /2023 /Fall /Stats /3.0 /EWM subject-1.csv","legacy","2 5 1 4","Melodramatic Milgram","4.0.5","0","n","0","None","right","NA","left","None","2000.0","27090","NA","174224","2000","2","legacy","4","1024","2","48000","-16","experiment","1","odd","6","841563","3588","NA","831041","839357","3411","278828","839359","838316","104603","840361","843565","845565","30715","843565","New experiment","56","77543.0","107","1024"
"51","51","736","736","#3d3846","experiment","legacy","legacy","legacy","0","undefined","0","left","107","0","0","107","107","0","0","107","107","0","107","107","107","0","107","Thu Oct 12 10:28:05 2023","The main experiment item","True","Sternberg Task Elizabeth McGibbon .osexp","/Users/izzymcgibbon/Desktop/College/Tarleton State /2023 /Fall /Stats /3.0 ","False","mono","False","18","no","white","no","yes","768","legacy","95","11","/Users/izzymcgibbon/Desktop/College/Tarleton State /2023 /Fall /Stats /3.0 /EWM subject-1.csv","legacy","5 7 3 6 2","Melodramatic Milgram","4.0.5","5","y","0","None","right","NA","left","None","2000.0","27090","NA","174224","2000","2","legacy","5","1024","2","48000","-16","experiment","1","odd","2","848821","3588","NA","831041","846614","3411","278828","846616","845569","104603","847618","850824","852824","30715","850823","New experiment","56","79543.0","108","1024"
"51","51","748","748","#3d3846","experiment","legacy","legacy","legacy","0","undefined","0","right","108","0","0","108","108","0","0","108","108","0","108","108","108","0","108","Thu Oct 12 10:28:05 2023","The main experiment item","True","Sternberg Task Elizabeth McGibbon .osexp","/Users/izzymcgibbon/Desktop/College/Tarleton State /2023 /Fall /Stats /3.0 ","False","mono","False","18","no","white","no","yes","768","legacy","96","11","/Users/izzymcgibbon/Desktop/College/Tarleton State /2023 /Fall /Stats /3.0 /EWM subject-1.csv","legacy","2 8 9","Melodramatic Milgram","4.0.5","0","n","0","None","right","NA","left","None","2000.0","27090","NA","174224","2000","2","legacy","3","1024","2","48000","-16","experiment","1","odd","6","856081","3588","NA","831041","853874","3411","278828","853877","852827","104603","854879","858083","860083","30715","858083","New experiment","56","81543.0","109","1024"
"50","50","759","759","#3d3846","experiment","legacy","legacy","legacy","0","undefined","0","left","109","0","0","109","109","0","0","109","109","0","109","109","109","0","109","Thu Oct 12 10:28:05 2023","The main experiment item","True","Sternberg Task Elizabeth McGibbon .osexp","/Users/izzymcgibbon/Desktop/College/Tarleton State /2023 /Fall /Stats /3.0 ","False","mono","False","18","no","white","no","yes","768","legacy","97","11","/Users/izzymcgibbon/Desktop/College/Tarleton State /2023 /Fall /Stats /3.0 /EWM subject-1.csv","legacy","8 1 6","Melodramatic Milgram","4.0.5","3","y","0","None","right","NA","left","None","2000.0","27090","NA","174224","2000","2","legacy","3","1024","2","48000","-16","experiment","1","odd","6","864417","3588","NA","831041","862208","3411","278828","862212","861152","104603","863215","866420","868420","30715","866420","New experiment","56","83543.0","110","1024"
