"acc","accuracy","average_response_time","avg_rt","background","block","canvas_backend","clock_backend","color_backend","compensation","coordinates","correct","correct_instruction1","correct_new_keyboard_response","correct_response","count_Fixation","count_ISI","count_correctFeedback","count_expSequence","count_experiment","count_experimentLoop","count_incorrectFeedback","count_instruction1","count_instructions2","count_memorySet","count_new_keyboard_response","count_new_logger","count_practiceLoop","count_probe","count_thankYou","datetime","description","disable_garbage_collection","experiment_file","experiment_path","font_bold","font_family","font_italic","font_size","font_underline","foreground","form_clicks","fullscreen","height","keyboard_backend","live_row","live_row_practiceLoop","logfile","mouse_backend","numberSet","opensesame_codename","opensesame_version","posInSet","present","repeat_cycle","response","response_instruction1","response_instructions2","response_new_keyboard_response","response_thankYou","response_time","response_time_instruction1","response_time_instructions2","response_time_new_keyboard_response","response_time_thankYou","round_decimals","sampler_backend","setSize","sound_buf_size","sound_channels","sound_freq","sound_sample_size","start","subject_nr","subject_parity","target","time_Fixation","time_ISI","time_correctFeedback","time_expSequence","time_experiment","time_experimentLoop","time_incorrectFeedback","time_instruction1","time_instructions2","time_memorySet","time_new_keyboard_response","time_new_logger","time_practiceLoop","time_probe","time_thankYou","title","total_correct","total_response_time","total_responses","uniform_coordinates","width"
"0","0","821","821","black","practice","legacy","legacy","legacy","0","uniform","0","undefined","0","left","0","0","0","0","0","0","0","0","0","0","0","0","0","0","0","Sun Oct 25 17:10:08 2020","The main experiment item","yes","SternbergTask.osexp","/Users/tforestmoore/Desktop/Tarleton/Fall 2020/Math/Lab3","no","mono","no","18","no","white","no","yes","768","legacy","0","0","/Users/tforestmoore/Desktop/Tarleton/Fall 2020/Math/Lab3/AM-subject-2.csv","legacy","2 9 4","Lentiform Loewenfeld","3.3.3","3","y","0","right","right","NA","right","NA","821","13722","NA","821","NA","2","legacy","3","1024","2","48000","-16","experiment","2","even","4","16639","18870","NA","16625","2591","NA","NA","2610","NA","17654","20887","21708","16341","20887","NA","Sternberg Task","0","821","1","yes","1024"
"50","50","1029.5","1029.5","black","practice","legacy","legacy","legacy","0","uniform","1","undefined","1","left","1","1","1","1","0","0","1","0","0","1","1","1","0","1","0","Sun Oct 25 17:10:08 2020","The main experiment item","yes","SternbergTask.osexp","/Users/tforestmoore/Desktop/Tarleton/Fall 2020/Math/Lab3","no","mono","no","18","no","white","no","yes","768","legacy","1","1","/Users/tforestmoore/Desktop/Tarleton/Fall 2020/Math/Lab3/AM-subject-2.csv","legacy","6","Lentiform Loewenfeld","3.3.3","1","y","0","left","right","NA","left","NA","1238","13722","NA","1238","NA","2","legacy","1","1024","2","48000","-16","experiment","2","even","6","22847","25083","NA","22832","2591","NA","21749","2610","NA","23865","27101","28339","16341","27101","NA","Sternberg Task","1","2059","2","yes","1024"
"33.333333333333336","33.333333333333336","893","893","black","practice","legacy","legacy","legacy","0","uniform","0","undefined","0","left","2","2","2","2","0","0","2","0","0","2","2","2","0","2","0","Sun Oct 25 17:10:08 2020","The main experiment item","yes","SternbergTask.osexp","/Users/tforestmoore/Desktop/Tarleton/Fall 2020/Math/Lab3","no","mono","no","18","no","white","no","yes","768","legacy","2","2","/Users/tforestmoore/Desktop/Tarleton/Fall 2020/Math/Lab3/AM-subject-2.csv","legacy","1 7 9 8 5","Lentiform Loewenfeld","3.3.3","4","y","0","right","right","NA","right","NA","620","13722","NA","620","NA","2","legacy","5","1024","2","48000","-16","experiment","2","even","8","29441","31677","28356","29426","2591","NA","21749","2610","NA","30458","33693","34314","16341","33693","NA","Sternberg Task","1","2679","3","yes","1024"
"50","50","852","852","black","practice","legacy","legacy","legacy","0","uniform","1","undefined","1","right","3","3","3","3","0","0","3","0","0","3","3","3","0","3","0","Sun Oct 25 17:10:08 2020","The main experiment item","yes","SternbergTask.osexp","/Users/tforestmoore/Desktop/Tarleton/Fall 2020/Math/Lab3","no","mono","no","18","no","white","no","yes","768","legacy","3","3","/Users/tforestmoore/Desktop/Tarleton/Fall 2020/Math/Lab3/AM-subject-2.csv","legacy","9 6 7 4 5","Lentiform Loewenfeld","3.3.3","0","n","0","right","right","NA","right","NA","729","13722","NA","729","NA","2","legacy","5","1024","2","48000","-16","experiment","2","even","3","35414","37650","28356","35399","2591","NA","34330","2610","NA","36431","39667","40396","16341","39667","NA","Sternberg Task","2","3408","4","yes","1024"
"60","60","787.8","787.8","black","practice","legacy","legacy","legacy","0","uniform","1","undefined","1","right","4","4","4","4","0","0","4","0","0","4","4","4","0","4","0","Sun Oct 25 17:10:08 2020","The main experiment item","yes","SternbergTask.osexp","/Users/tforestmoore/Desktop/Tarleton/Fall 2020/Math/Lab3","no","mono","no","18","no","white","no","yes","768","legacy","4","4","/Users/tforestmoore/Desktop/Tarleton/Fall 2020/Math/Lab3/AM-subject-2.csv","legacy","5","Lentiform Loewenfeld","3.3.3","0","n","0","right","right","NA","right","NA","531","13722","NA","531","NA","2","legacy","1","1024","2","48000","-16","experiment","2","even","3","41489","43721","40413","41475","2591","NA","34330","2610","NA","42507","45737","46268","16341","45737","NA","Sternberg Task","3","3939","5","yes","1024"
"66.66666666666667","66.66666666666667","754.5","754.5","black","practice","legacy","legacy","legacy","0","uniform","1","undefined","1","left","5","5","5","5","0","0","5","0","0","5","5","5","0","5","0","Sun Oct 25 17:10:08 2020","The main experiment item","yes","SternbergTask.osexp","/Users/tforestmoore/Desktop/Tarleton/Fall 2020/Math/Lab3","no","mono","no","18","no","white","no","yes","768","legacy","5","5","/Users/tforestmoore/Desktop/Tarleton/Fall 2020/Math/Lab3/AM-subject-2.csv","legacy","1 5 2 9","Lentiform Loewenfeld","3.3.3","2","y","0","left","right","NA","left","NA","588","13722","NA","588","NA","2","legacy","4","1024","2","48000","-16","experiment","2","even","5","47369","49598","46283","47354","2591","NA","34330","2610","NA","48383","51613","52202","16341","51612","NA","Sternberg Task","4","4527","6","yes","1024"
"71.42857142857143","71.42857142857143","715","715","black","practice","legacy","legacy","legacy","0","uniform","1","undefined","1","right","6","6","6","6","0","0","6","0","0","6","6","6","0","6","0","Sun Oct 25 17:10:08 2020","The main experiment item","yes","SternbergTask.osexp","/Users/tforestmoore/Desktop/Tarleton/Fall 2020/Math/Lab3","no","mono","no","18","no","white","no","yes","768","legacy","6","6","/Users/tforestmoore/Desktop/Tarleton/Fall 2020/Math/Lab3/AM-subject-2.csv","legacy","4 1 5","Lentiform Loewenfeld","3.3.3","0","n","0","right","right","NA","right","NA","478","13722","NA","478","NA","2","legacy","3","1024","2","48000","-16","experiment","2","even","2","53295","55531","52216","53280","2591","NA","34330","2610","NA","54312","57547","58025","16341","57547","NA","Sternberg Task","5","5005","7","yes","1024"
"75","75","684.75","684.75","black","practice","legacy","legacy","legacy","0","uniform","1","undefined","1","right","7","7","7","7","0","0","7","0","0","7","7","7","0","7","0","Sun Oct 25 17:10:08 2020","The main experiment item","yes","SternbergTask.osexp","/Users/tforestmoore/Desktop/Tarleton/Fall 2020/Math/Lab3","no","mono","no","18","no","white","no","yes","768","legacy","7","7","/Users/tforestmoore/Desktop/Tarleton/Fall 2020/Math/Lab3/AM-subject-2.csv","legacy","2 1","Lentiform Loewenfeld","3.3.3","0","n","0","right","right","NA","right","NA","473","13722","NA","473","NA","2","legacy","2","1024","2","48000","-16","experiment","2","even","5","59123","61360","58041","59108","2591","NA","34330","2610","NA","60141","63377","63851","16341","63377","NA","Sternberg Task","6","5478","8","yes","1024"
"66.66666666666667","66.66666666666667","718","718","black","practice","legacy","legacy","legacy","0","uniform","0","undefined","0","left","8","8","8","8","0","0","8","0","0","8","8","8","0","8","0","Sun Oct 25 17:10:08 2020","The main experiment item","yes","SternbergTask.osexp","/Users/tforestmoore/Desktop/Tarleton/Fall 2020/Math/Lab3","no","mono","no","18","no","white","no","yes","768","legacy","8","8","/Users/tforestmoore/Desktop/Tarleton/Fall 2020/Math/Lab3/AM-subject-2.csv","legacy","4 3 1 7 9 8","Lentiform Loewenfeld","3.3.3","1","y","0","right","right","NA","right","NA","984","13722","NA","984","NA","2","legacy","6","1024","2","48000","-16","experiment","2","even","4","64952","67189","63868","64936","2591","NA","34330","2610","NA","65970","69205","70190","16341","69205","NA","Sternberg Task","6","6462","9","yes","1024"
"70","70","718.1","718.1","black","practice","legacy","legacy","legacy","0","uniform","1","undefined","1","right","9","9","9","9","0","0","9","0","0","9","9","9","0","9","0","Sun Oct 25 17:10:08 2020","The main experiment item","yes","SternbergTask.osexp","/Users/tforestmoore/Desktop/Tarleton/Fall 2020/Math/Lab3","no","mono","no","18","no","white","no","yes","768","legacy","9","9","/Users/tforestmoore/Desktop/Tarleton/Fall 2020/Math/Lab3/AM-subject-2.csv","legacy","3 1 9 4","Lentiform Loewenfeld","3.3.3","0","n","0","right","right","NA","right","NA","719","13722","NA","719","NA","2","legacy","4","1024","2","48000","-16","experiment","2","even","6","71289","73525","63868","71274","2591","NA","70206","2610","NA","72306","75542","76262","16341","75542","NA","Sternberg Task","7","7181","10","yes","1024"
"72.72727272727273","72.72727272727273","697.8181818181819","697.8181818181819","black","practice","legacy","legacy","legacy","0","uniform","1","undefined","1","left","10","10","10","10","0","0","10","0","0","10","10","10","0","10","0","Sun Oct 25 17:10:08 2020","The main experiment item","yes","SternbergTask.osexp","/Users/tforestmoore/Desktop/Tarleton/Fall 2020/Math/Lab3","no","mono","no","18","no","white","no","yes","768","legacy","10","10","/Users/tforestmoore/Desktop/Tarleton/Fall 2020/Math/Lab3/AM-subject-2.csv","legacy","4 8","Lentiform Loewenfeld","3.3.3","1","y","0","left","right","NA","left","NA","495","13722","NA","495","NA","2","legacy","2","1024","2","48000","-16","experiment","2","even","4","77362","79596","76277","77346","2591","NA","70206","2610","NA","78379","81613","82108","16341","81613","NA","Sternberg Task","8","7676","11","yes","1024"
"75","75","705","705","black","practice","legacy","legacy","legacy","0","uniform","1","undefined","1","right","11","11","11","11","0","0","11","0","0","11","11","11","0","11","0","Sun Oct 25 17:10:08 2020","The main experiment item","yes","SternbergTask.osexp","/Users/tforestmoore/Desktop/Tarleton/Fall 2020/Math/Lab3","no","mono","no","18","no","white","no","yes","768","legacy","11","11","/Users/tforestmoore/Desktop/Tarleton/Fall 2020/Math/Lab3/AM-subject-2.csv","legacy","5 7 8 4 1 2","Lentiform Loewenfeld","3.3.3","0","n","0","right","right","NA","right","NA","784","13722","NA","784","NA","2","legacy","6","1024","2","48000","-16","experiment","2","even","6","83210","85447","82124","83194","2591","NA","70206","2610","NA","84228","87464","88248","16341","87463","NA","Sternberg Task","9","8460","12","yes","1024"
"76.92307692307692","76.92307692307692","691.5384615384615","691.5384615384615","black","experiment","legacy","legacy","legacy","0","uniform","1","undefined","1","right","12","12","12","12","0","0","12","0","0","12","12","12","0","12","0","Sun Oct 25 17:10:08 2020","The main experiment item","yes","SternbergTask.osexp","/Users/tforestmoore/Desktop/Tarleton/Fall 2020/Math/Lab3","no","mono","no","18","no","white","no","yes","768","legacy","0","11","/Users/tforestmoore/Desktop/Tarleton/Fall 2020/Math/Lab3/AM-subject-2.csv","legacy","9 5 3 2 8 6","Lentiform Loewenfeld","3.3.3","0","n","0","right","right","right","right","NA","530","13722","8791","530","NA","2","legacy","6","1024","2","48000","-16","experiment","2","even","7","98172","100406","88265","98157","2591","98105","70206","2610","89314","99189","102420","102950","16341","102420","NA","Sternberg Task","10","8990","13","yes","1024"
"78.57142857142857","78.57142857142857","701.4285714285714","701.4285714285714","black","experiment","legacy","legacy","legacy","0","uniform","1","undefined","1","left","13","13","13","13","0","0","13","0","0","13","13","13","0","13","0","Sun Oct 25 17:10:08 2020","The main experiment item","yes","SternbergTask.osexp","/Users/tforestmoore/Desktop/Tarleton/Fall 2020/Math/Lab3","no","mono","no","18","no","white","no","yes","768","legacy","1","11","/Users/tforestmoore/Desktop/Tarleton/Fall 2020/Math/Lab3/AM-subject-2.csv","legacy","6 1 2","Lentiform Loewenfeld","3.3.3","3","y","0","left","right","right","left","NA","830","13722","8791","830","NA","2","legacy","3","1024","2","48000","-16","experiment","2","even","2","104040","106275","102966","104026","2591","98105","70206","2610","89314","105055","108291","109122","16341","108291","NA","Sternberg Task","11","9820","14","yes","1024"
"80","80","698.3333333333334","698.3333333333334","black","experiment","legacy","legacy","legacy","0","uniform","1","undefined","1","left","14","14","14","14","0","0","14","0","0","14","14","14","0","14","0","Sun Oct 25 17:10:08 2020","The main experiment item","yes","SternbergTask.osexp","/Users/tforestmoore/Desktop/Tarleton/Fall 2020/Math/Lab3","no","mono","no","18","no","white","no","yes","768","legacy","2","11","/Users/tforestmoore/Desktop/Tarleton/Fall 2020/Math/Lab3/AM-subject-2.csv","legacy","6 5","Lentiform Loewenfeld","3.3.3","2","y","0","left","right","right","left","NA","655","13722","8791","655","NA","2","legacy","2","1024","2","48000","-16","experiment","2","even","5","110212","112449","109138","110198","2591","98105","70206","2610","89314","111234","114463","115119","16341","114463","NA","Sternberg Task","12","10475","15","yes","1024"
"81.25","81.25","688.875","688.875","black","experiment","legacy","legacy","legacy","0","uniform","1","undefined","1","right","15","15","15","15","0","0","15","0","0","15","15","15","0","15","0","Sun Oct 25 17:10:08 2020","The main experiment item","yes","SternbergTask.osexp","/Users/tforestmoore/Desktop/Tarleton/Fall 2020/Math/Lab3","no","mono","no","18","no","white","no","yes","768","legacy","3","11","/Users/tforestmoore/Desktop/Tarleton/Fall 2020/Math/Lab3/AM-subject-2.csv","legacy","8 4 3 5","Lentiform Loewenfeld","3.3.3","0","n","0","right","right","right","right","NA","547","13722","8791","547","NA","2","legacy","4","1024","2","48000","-16","experiment","2","even","6","116219","118452","115136","116203","2591","98105","70206","2610","89314","117233","120470","121018","16341","120470","NA","Sternberg Task","13","11022","16","yes","1024"
"82.3529411764706","82.3529411764706","676.3529411764706","676.3529411764706","black","experiment","legacy","legacy","legacy","0","uniform","1","undefined","1","right","16","16","16","16","0","0","16","0","0","16","16","16","0","16","0","Sun Oct 25 17:10:08 2020","The main experiment item","yes","SternbergTask.osexp","/Users/tforestmoore/Desktop/Tarleton/Fall 2020/Math/Lab3","no","mono","no","18","no","white","no","yes","768","legacy","4","11","/Users/tforestmoore/Desktop/Tarleton/Fall 2020/Math/Lab3/AM-subject-2.csv","legacy","6 8 4","Lentiform Loewenfeld","3.3.3","0","n","0","right","right","right","right","NA","476","13722","8791","476","NA","2","legacy","3","1024","2","48000","-16","experiment","2","even","1","122111","124347","121036","122097","2591","98105","70206","2610","89314","123127","126361","126838","16341","126361","NA","Sternberg Task","14","11498","17","yes","1024"
"83.33333333333333","83.33333333333333","668.7222222222222","668.7222222222222","black","experiment","legacy","legacy","legacy","0","uniform","1","undefined","1","right","17","17","17","17","0","0","17","0","0","17","17","17","0","17","0","Sun Oct 25 17:10:08 2020","The main experiment item","yes","SternbergTask.osexp","/Users/tforestmoore/Desktop/Tarleton/Fall 2020/Math/Lab3","no","mono","no","18","no","white","no","yes","768","legacy","5","11","/Users/tforestmoore/Desktop/Tarleton/Fall 2020/Math/Lab3/AM-subject-2.csv","legacy","1 4 9 3","Lentiform Loewenfeld","3.3.3","0","n","0","right","right","right","right","NA","539","13722","8791","539","NA","2","legacy","4","1024","2","48000","-16","experiment","2","even","5","127928","130161","126855","127914","2591","98105","70206","2610","89314","128942","132179","132719","16341","132179","NA","Sternberg Task","15","12037","18","yes","1024"
"84.21052631578948","84.21052631578948","685.6842105263158","685.6842105263158","black","experiment","legacy","legacy","legacy","0","uniform","1","undefined","1","left","18","18","18","18","0","0","18","0","0","18","18","18","0","18","0","Sun Oct 25 17:10:08 2020","The main experiment item","yes","SternbergTask.osexp","/Users/tforestmoore/Desktop/Tarleton/Fall 2020/Math/Lab3","no","mono","no","18","no","white","no","yes","768","legacy","6","11","/Users/tforestmoore/Desktop/Tarleton/Fall 2020/Math/Lab3/AM-subject-2.csv","legacy","4 7 6 8 2 3","Lentiform Loewenfeld","3.3.3","6","y","0","left","right","right","left","NA","991","13722","8791","991","NA","2","legacy","6","1024","2","48000","-16","experiment","2","even","3","133822","136058","132736","133806","2591","98105","70206","2610","89314","134839","138075","139067","16341","138074","NA","Sternberg Task","16","13028","19","yes","1024"
"85","85","678.8","678.8","black","experiment","legacy","legacy","legacy","0","uniform","1","undefined","1","right","19","19","19","19","0","0","19","0","0","19","19","19","0","19","0","Sun Oct 25 17:10:08 2020","The main experiment item","yes","SternbergTask.osexp","/Users/tforestmoore/Desktop/Tarleton/Fall 2020/Math/Lab3","no","mono","no","18","no","white","no","yes","768","legacy","7","11","/Users/tforestmoore/Desktop/Tarleton/Fall 2020/Math/Lab3/AM-subject-2.csv","legacy","1 3 2 6 9","Lentiform Loewenfeld","3.3.3","0","n","0","right","right","right","right","NA","548","13722","8791","548","NA","2","legacy","5","1024","2","48000","-16","experiment","2","even","5","140168","142402","139083","140151","2591","98105","70206","2610","89314","141184","144419","144967","16341","144419","NA","Sternberg Task","17","13576","20","yes","1024"
"85.71428571428571","85.71428571428571","674.8095238095239","674.8095238095239","black","experiment","legacy","legacy","legacy","0","uniform","1","undefined","1","left","20","20","20","20","0","0","20","0","0","20","20","20","0","20","0","Sun Oct 25 17:10:08 2020","The main experiment item","yes","SternbergTask.osexp","/Users/tforestmoore/Desktop/Tarleton/Fall 2020/Math/Lab3","no","mono","no","18","no","white","no","yes","768","legacy","8","11","/Users/tforestmoore/Desktop/Tarleton/Fall 2020/Math/Lab3/AM-subject-2.csv","legacy","1 4 9 3 2 5","Lentiform Loewenfeld","3.3.3","3","y","0","left","right","right","left","NA","595","13722","8791","595","NA","2","legacy","6","1024","2","48000","-16","experiment","2","even","9","146067","148304","144984","146051","2591","98105","70206","2610","89314","147084","150321","150917","16341","150321","NA","Sternberg Task","18","14171","21","yes","1024"
"86.36363636363636","86.36363636363636","666","666","black","experiment","legacy","legacy","legacy","0","uniform","1","undefined","1","left","21","21","21","21","0","0","21","0","0","21","21","21","0","21","0","Sun Oct 25 17:10:08 2020","The main experiment item","yes","SternbergTask.osexp","/Users/tforestmoore/Desktop/Tarleton/Fall 2020/Math/Lab3","no","mono","no","18","no","white","no","yes","768","legacy","9","11","/Users/tforestmoore/Desktop/Tarleton/Fall 2020/Math/Lab3/AM-subject-2.csv","legacy","3 5 4 7","Lentiform Loewenfeld","3.3.3","1","y","0","left","right","right","left","NA","481","13722","8791","481","NA","2","legacy","4","1024","2","48000","-16","experiment","2","even","3","152017","154254","150933","152001","2591","98105","70206","2610","89314","153034","156271","156753","16341","156271","NA","Sternberg Task","19","14652","22","yes","1024"
"86.95652173913044","86.95652173913044","658.1304347826087","658.1304347826087","black","experiment","legacy","legacy","legacy","0","uniform","1","undefined","1","left","22","22","22","22","0","0","22","0","0","22","22","22","0","22","0","Sun Oct 25 17:10:08 2020","The main experiment item","yes","SternbergTask.osexp","/Users/tforestmoore/Desktop/Tarleton/Fall 2020/Math/Lab3","no","mono","no","18","no","white","no","yes","768","legacy","10","11","/Users/tforestmoore/Desktop/Tarleton/Fall 2020/Math/Lab3/AM-subject-2.csv","legacy","4 3 2 5 8","Lentiform Loewenfeld","3.3.3","2","y","0","left","right","right","left","NA","485","13722","8791","485","NA","2","legacy","5","1024","2","48000","-16","experiment","2","even","3","157856","160092","156769","157839","2591","98105","70206","2610","89314","158873","162108","162594","16341","162108","NA","Sternberg Task","20","15137","23","yes","1024"
"87.5","87.5","650.2083333333334","650.2083333333334","black","experiment","legacy","legacy","legacy","0","uniform","1","undefined","1","right","23","23","23","23","0","0","23","0","0","23","23","23","0","23","0","Sun Oct 25 17:10:08 2020","The main experiment item","yes","SternbergTask.osexp","/Users/tforestmoore/Desktop/Tarleton/Fall 2020/Math/Lab3","no","mono","no","18","no","white","no","yes","768","legacy","11","11","/Users/tforestmoore/Desktop/Tarleton/Fall 2020/Math/Lab3/AM-subject-2.csv","legacy","1 8 7","Lentiform Loewenfeld","3.3.3","0","n","0","right","right","right","right","NA","468","13722","8791","468","NA","2","legacy","3","1024","2","48000","-16","experiment","2","even","4","163697","165933","162610","163680","2591","98105","70206","2610","89314","164714","167950","168419","16341","167950","NA","Sternberg Task","21","15605","24","yes","1024"
"88","88","650.96","650.96","black","experiment","legacy","legacy","legacy","0","uniform","1","undefined","1","left","24","24","24","24","0","0","24","0","0","24","24","24","0","24","0","Sun Oct 25 17:10:08 2020","The main experiment item","yes","SternbergTask.osexp","/Users/tforestmoore/Desktop/Tarleton/Fall 2020/Math/Lab3","no","mono","no","18","no","white","no","yes","768","legacy","12","11","/Users/tforestmoore/Desktop/Tarleton/Fall 2020/Math/Lab3/AM-subject-2.csv","legacy","5 2 9 6 1 7","Lentiform Loewenfeld","3.3.3","3","y","0","left","right","right","left","NA","669","13722","8791","669","NA","2","legacy","6","1024","2","48000","-16","experiment","2","even","9","169521","171758","168436","169505","2591","98105","70206","2610","89314","170539","173775","174445","16341","173774","NA","Sternberg Task","22","16274","25","yes","1024"
"88.46153846153847","88.46153846153847","645.6538461538462","645.6538461538462","black","experiment","legacy","legacy","legacy","0","uniform","1","undefined","1","left","25","25","25","25","0","0","25","0","0","25","25","25","0","25","0","Sun Oct 25 17:10:08 2020","The main experiment item","yes","SternbergTask.osexp","/Users/tforestmoore/Desktop/Tarleton/Fall 2020/Math/Lab3","no","mono","no","18","no","white","no","yes","768","legacy","13","11","/Users/tforestmoore/Desktop/Tarleton/Fall 2020/Math/Lab3/AM-subject-2.csv","legacy","8 9 5 7 1 6","Lentiform Loewenfeld","3.3.3","4","y","0","left","right","right","left","NA","513","13722","8791","513","NA","2","legacy","6","1024","2","48000","-16","experiment","2","even","7","175547","177781","174461","175531","2591","98105","70206","2610","89314","176562","179798","180311","16341","179798","NA","Sternberg Task","23","16787","26","yes","1024"
"88.88888888888889","88.88888888888889","644.4444444444445","644.4444444444445","black","experiment","legacy","legacy","legacy","0","uniform","1","undefined","1","left","26","26","26","26","0","0","26","0","0","26","26","26","0","26","0","Sun Oct 25 17:10:08 2020","The main experiment item","yes","SternbergTask.osexp","/Users/tforestmoore/Desktop/Tarleton/Fall 2020/Math/Lab3","no","mono","no","18","no","white","no","yes","768","legacy","14","11","/Users/tforestmoore/Desktop/Tarleton/Fall 2020/Math/Lab3/AM-subject-2.csv","legacy","8 5 4 7 3 1","Lentiform Loewenfeld","3.3.3","2","y","0","left","right","right","left","NA","613","13722","8791","613","NA","2","legacy","6","1024","2","48000","-16","experiment","2","even","5","181411","183647","180327","181396","2591","98105","70206","2610","89314","182428","185664","186277","16341","185664","NA","Sternberg Task","24","17400","27","yes","1024"
"89.28571428571429","89.28571428571429","638.0357142857143","638.0357142857143","black","experiment","legacy","legacy","legacy","0","uniform","1","undefined","1","right","27","27","27","27","0","0","27","0","0","27","27","27","0","27","0","Sun Oct 25 17:10:08 2020","The main experiment item","yes","SternbergTask.osexp","/Users/tforestmoore/Desktop/Tarleton/Fall 2020/Math/Lab3","no","mono","no","18","no","white","no","yes","768","legacy","15","11","/Users/tforestmoore/Desktop/Tarleton/Fall 2020/Math/Lab3/AM-subject-2.csv","legacy","7 1 5 6 3","Lentiform Loewenfeld","3.3.3","0","n","0","right","right","right","right","NA","465","13722","8791","465","NA","2","legacy","5","1024","2","48000","-16","experiment","2","even","8","187380","189615","186293","187364","2591","98105","70206","2610","89314","188398","191632","192098","16341","191632","NA","Sternberg Task","25","17865","28","yes","1024"
"89.65517241379311","89.65517241379311","641.551724137931","641.551724137931","black","experiment","legacy","legacy","legacy","0","uniform","1","undefined","1","right","28","28","28","28","0","0","28","0","0","28","28","28","0","28","0","Sun Oct 25 17:10:08 2020","The main experiment item","yes","SternbergTask.osexp","/Users/tforestmoore/Desktop/Tarleton/Fall 2020/Math/Lab3","no","mono","no","18","no","white","no","yes","768","legacy","16","11","/Users/tforestmoore/Desktop/Tarleton/Fall 2020/Math/Lab3/AM-subject-2.csv","legacy","1 7 5 2","Lentiform Loewenfeld","3.3.3","0","n","0","right","right","right","right","NA","740","13722","8791","740","NA","2","legacy","4","1024","2","48000","-16","experiment","2","even","3","193201","195437","192114","193185","2591","98105","70206","2610","89314","194218","197454","198195","16341","197454","NA","Sternberg Task","26","18605","29","yes","1024"
"90","90","641.7333333333333","641.7333333333333","black","experiment","legacy","legacy","legacy","0","uniform","1","undefined","1","right","29","29","29","29","0","0","29","0","0","29","29","29","0","29","0","Sun Oct 25 17:10:08 2020","The main experiment item","yes","SternbergTask.osexp","/Users/tforestmoore/Desktop/Tarleton/Fall 2020/Math/Lab3","no","mono","no","18","no","white","no","yes","768","legacy","17","11","/Users/tforestmoore/Desktop/Tarleton/Fall 2020/Math/Lab3/AM-subject-2.csv","legacy","6 9 4 5 3 2","Lentiform Loewenfeld","3.3.3","0","n","0","right","right","right","right","NA","647","13722","8791","647","NA","2","legacy","6","1024","2","48000","-16","experiment","2","even","8","199292","201527","198211","199277","2591","98105","70206","2610","89314","200308","203544","204192","16341","203544","NA","Sternberg Task","27","19252","30","yes","1024"
"87.09677419354838","87.09677419354838","642.2258064516129","642.2258064516129","black","experiment","legacy","legacy","legacy","0","uniform","0","undefined","0","left","30","30","30","30","0","0","30","0","0","30","30","30","0","30","0","Sun Oct 25 17:10:08 2020","The main experiment item","yes","SternbergTask.osexp","/Users/tforestmoore/Desktop/Tarleton/Fall 2020/Math/Lab3","no","mono","no","18","no","white","no","yes","768","legacy","18","11","/Users/tforestmoore/Desktop/Tarleton/Fall 2020/Math/Lab3/AM-subject-2.csv","legacy","6 9 3 1","Lentiform Loewenfeld","3.3.3","4","y","0","right","right","right","right","NA","657","13722","8791","657","NA","2","legacy","4","1024","2","48000","-16","experiment","2","even","1","205293","207529","204208","205277","2591","98105","70206","2610","89314","206310","209545","210203","16341","209545","NA","Sternberg Task","27","19909","31","yes","1024"
"87.5","87.5","638.1875","638.1875","black","experiment","legacy","legacy","legacy","0","uniform","1","undefined","1","left","31","31","31","31","0","0","31","0","0","31","31","31","0","31","0","Sun Oct 25 17:10:08 2020","The main experiment item","yes","SternbergTask.osexp","/Users/tforestmoore/Desktop/Tarleton/Fall 2020/Math/Lab3","no","mono","no","18","no","white","no","yes","768","legacy","19","11","/Users/tforestmoore/Desktop/Tarleton/Fall 2020/Math/Lab3/AM-subject-2.csv","legacy","8 3","Lentiform Loewenfeld","3.3.3","2","y","0","left","right","right","left","NA","513","13722","8791","513","NA","2","legacy","2","1024","2","48000","-16","experiment","2","even","3","211303","213539","204208","211287","2591","98105","210219","2610","89314","212320","215556","216070","16341","215556","NA","Sternberg Task","28","20422","32","yes","1024"
"87.87878787878788","87.87878787878788","633.2424242424242","633.2424242424242","black","experiment","legacy","legacy","legacy","0","uniform","1","undefined","1","left","32","32","32","32","0","0","32","0","0","32","32","32","0","32","0","Sun Oct 25 17:10:08 2020","The main experiment item","yes","SternbergTask.osexp","/Users/tforestmoore/Desktop/Tarleton/Fall 2020/Math/Lab3","no","mono","no","18","no","white","no","yes","768","legacy","20","11","/Users/tforestmoore/Desktop/Tarleton/Fall 2020/Math/Lab3/AM-subject-2.csv","legacy","8","Lentiform Loewenfeld","3.3.3","1","y","0","left","right","right","left","NA","475","13722","8791","475","NA","2","legacy","1","1024","2","48000","-16","experiment","2","even","8","217171","219407","216086","217154","2591","98105","210219","2610","89314","218188","221424","221899","16341","221424","NA","Sternberg Task","29","20897","33","yes","1024"
"88.23529411764706","88.23529411764706","635.5882352941177","635.5882352941177","black","experiment","legacy","legacy","legacy","0","uniform","1","undefined","1","right","33","33","33","33","0","0","33","0","0","33","33","33","0","33","0","Sun Oct 25 17:10:08 2020","The main experiment item","yes","SternbergTask.osexp","/Users/tforestmoore/Desktop/Tarleton/Fall 2020/Math/Lab3","no","mono","no","18","no","white","no","yes","768","legacy","21","11","/Users/tforestmoore/Desktop/Tarleton/Fall 2020/Math/Lab3/AM-subject-2.csv","legacy","4 8 1 2","Lentiform Loewenfeld","3.3.3","0","n","0","right","right","right","right","NA","713","13722","8791","713","NA","2","legacy","4","1024","2","48000","-16","experiment","2","even","7","223002","225239","221916","222987","2591","98105","210219","2610","89314","224019","227256","227970","16341","227256","NA","Sternberg Task","30","21610","34","yes","1024"
"85.71428571428571","85.71428571428571","643.8","643.8","black","experiment","legacy","legacy","legacy","0","uniform","0","undefined","0","left","34","34","34","34","0","0","34","0","0","34","34","34","0","34","0","Sun Oct 25 17:10:08 2020","The main experiment item","yes","SternbergTask.osexp","/Users/tforestmoore/Desktop/Tarleton/Fall 2020/Math/Lab3","no","mono","no","18","no","white","no","yes","768","legacy","22","11","/Users/tforestmoore/Desktop/Tarleton/Fall 2020/Math/Lab3/AM-subject-2.csv","legacy","7 1 8 5 6 2","Lentiform Loewenfeld","3.3.3","2","y","0","right","right","right","right","NA","923","13722","8791","923","NA","2","legacy","6","1024","2","48000","-16","experiment","2","even","1","229073","231310","227986","229057","2591","98105","210219","2610","89314","230090","233327","234251","16341","233326","NA","Sternberg Task","30","22533","35","yes","1024"
"86.11111111111111","86.11111111111111","643.0277777777778","643.0277777777778","black","experiment","legacy","legacy","legacy","0","uniform","1","undefined","1","right","35","35","35","35","0","0","35","0","0","35","35","35","0","35","0","Sun Oct 25 17:10:08 2020","The main experiment item","yes","SternbergTask.osexp","/Users/tforestmoore/Desktop/Tarleton/Fall 2020/Math/Lab3","no","mono","no","18","no","white","no","yes","768","legacy","23","11","/Users/tforestmoore/Desktop/Tarleton/Fall 2020/Math/Lab3/AM-subject-2.csv","legacy","2 8 9","Lentiform Loewenfeld","3.3.3","0","n","0","right","right","right","right","NA","616","13722","8791","616","NA","2","legacy","3","1024","2","48000","-16","experiment","2","even","6","235352","237588","227986","235336","2591","98105","234267","2610","89314","236369","239605","240222","16341","239605","NA","Sternberg Task","31","23149","36","yes","1024"
"86.48648648648648","86.48648648648648","639.2432432432432","639.2432432432432","black","experiment","legacy","legacy","legacy","0","uniform","1","undefined","1","left","36","36","36","36","0","0","36","0","0","36","36","36","0","36","0","Sun Oct 25 17:10:08 2020","The main experiment item","yes","SternbergTask.osexp","/Users/tforestmoore/Desktop/Tarleton/Fall 2020/Math/Lab3","no","mono","no","18","no","white","no","yes","768","legacy","24","11","/Users/tforestmoore/Desktop/Tarleton/Fall 2020/Math/Lab3/AM-subject-2.csv","legacy","9 8 4","Lentiform Loewenfeld","3.3.3","1","y","0","left","right","right","left","NA","503","13722","8791","503","NA","2","legacy","3","1024","2","48000","-16","experiment","2","even","9","241321","243557","240238","241305","2591","98105","234267","2610","89314","242338","245573","246076","16341","245573","NA","Sternberg Task","32","23652","37","yes","1024"
"86.84210526315789","86.84210526315789","633.6842105263158","633.6842105263158","black","experiment","legacy","legacy","legacy","0","uniform","1","undefined","1","left","37","37","37","37","0","0","37","0","0","37","37","37","0","37","0","Sun Oct 25 17:10:08 2020","The main experiment item","yes","SternbergTask.osexp","/Users/tforestmoore/Desktop/Tarleton/Fall 2020/Math/Lab3","no","mono","no","18","no","white","no","yes","768","legacy","25","11","/Users/tforestmoore/Desktop/Tarleton/Fall 2020/Math/Lab3/AM-subject-2.csv","legacy","4 6 2 5 1","Lentiform Loewenfeld","3.3.3","5","y","0","left","right","right","left","NA","428","13722","8791","428","NA","2","legacy","5","1024","2","48000","-16","experiment","2","even","1","247180","249416","246093","247162","2591","98105","234267","2610","89314","248197","251433","251861","16341","251433","NA","Sternberg Task","33","24080","38","yes","1024"
"87.17948717948718","87.17948717948718","641.3333333333334","641.3333333333334","black","experiment","legacy","legacy","legacy","0","uniform","1","undefined","1","right","38","38","38","38","0","0","38","0","0","38","38","38","0","38","0","Sun Oct 25 17:10:08 2020","The main experiment item","yes","SternbergTask.osexp","/Users/tforestmoore/Desktop/Tarleton/Fall 2020/Math/Lab3","no","mono","no","18","no","white","no","yes","768","legacy","26","11","/Users/tforestmoore/Desktop/Tarleton/Fall 2020/Math/Lab3/AM-subject-2.csv","legacy","9 7 4 5 8","Lentiform Loewenfeld","3.3.3","0","n","0","right","right","right","right","NA","932","13722","8791","932","NA","2","legacy","5","1024","2","48000","-16","experiment","2","even","6","252963","255199","251877","252947","2591","98105","234267","2610","89314","253980","257215","258148","16341","257215","NA","Sternberg Task","34","25012","39","yes","1024"
"87.5","87.5","640.725","640.725","black","experiment","legacy","legacy","legacy","0","uniform","1","undefined","1","right","39","39","39","39","0","0","39","0","0","39","39","39","0","39","0","Sun Oct 25 17:10:08 2020","The main experiment item","yes","SternbergTask.osexp","/Users/tforestmoore/Desktop/Tarleton/Fall 2020/Math/Lab3","no","mono","no","18","no","white","no","yes","768","legacy","27","11","/Users/tforestmoore/Desktop/Tarleton/Fall 2020/Math/Lab3/AM-subject-2.csv","legacy","8 5 4 2 9 6","Lentiform Loewenfeld","3.3.3","0","n","0","right","right","right","right","NA","617","13722","8791","617","NA","2","legacy","6","1024","2","48000","-16","experiment","2","even","3","259250","261482","258166","259235","2591","98105","234267","2610","89314","260266","263497","264116","16341","263497","NA","Sternberg Task","35","25629","40","yes","1024"
"87.8048780487805","87.8048780487805","635.9756097560976","635.9756097560976","black","experiment","legacy","legacy","legacy","0","uniform","1","undefined","1","left","40","40","40","40","0","0","40","0","0","40","40","40","0","40","0","Sun Oct 25 17:10:08 2020","The main experiment item","yes","SternbergTask.osexp","/Users/tforestmoore/Desktop/Tarleton/Fall 2020/Math/Lab3","no","mono","no","18","no","white","no","yes","768","legacy","28","11","/Users/tforestmoore/Desktop/Tarleton/Fall 2020/Math/Lab3/AM-subject-2.csv","legacy","9 1 7 2","Lentiform Loewenfeld","3.3.3","2","y","0","left","right","right","left","NA","446","13722","8791","446","NA","2","legacy","4","1024","2","48000","-16","experiment","2","even","1","265217","267454","264132","265201","2591","98105","234267","2610","89314","266235","269471","269918","16341","269471","NA","Sternberg Task","36","26075","41","yes","1024"
"88.0952380952381","88.0952380952381","635.9047619047619","635.9047619047619","black","experiment","legacy","legacy","legacy","0","uniform","1","undefined","1","left","41","41","41","41","0","0","41","0","0","41","41","41","0","41","0","Sun Oct 25 17:10:08 2020","The main experiment item","yes","SternbergTask.osexp","/Users/tforestmoore/Desktop/Tarleton/Fall 2020/Math/Lab3","no","mono","no","18","no","white","no","yes","768","legacy","29","11","/Users/tforestmoore/Desktop/Tarleton/Fall 2020/Math/Lab3/AM-subject-2.csv","legacy","6 7 8 5","Lentiform Loewenfeld","3.3.3","3","y","0","left","right","right","left","NA","633","13722","8791","633","NA","2","legacy","4","1024","2","48000","-16","experiment","2","even","8","271019","273256","269935","271003","2591","98105","234267","2610","89314","272036","275273","275907","16341","275273","NA","Sternberg Task","37","26708","42","yes","1024"
"88.37209302325581","88.37209302325581","632.5348837209302","632.5348837209302","black","experiment","legacy","legacy","legacy","0","uniform","1","undefined","1","left","42","42","42","42","0","0","42","0","0","42","42","42","0","42","0","Sun Oct 25 17:10:08 2020","The main experiment item","yes","SternbergTask.osexp","/Users/tforestmoore/Desktop/Tarleton/Fall 2020/Math/Lab3","no","mono","no","18","no","white","no","yes","768","legacy","30","11","/Users/tforestmoore/Desktop/Tarleton/Fall 2020/Math/Lab3/AM-subject-2.csv","legacy","9 4 2","Lentiform Loewenfeld","3.3.3","1","y","0","left","right","right","left","NA","491","13722","8791","491","NA","2","legacy","3","1024","2","48000","-16","experiment","2","even","9","277007","279243","275923","276992","2591","98105","234267","2610","89314","278024","281259","281751","16341","281259","NA","Sternberg Task","38","27199","43","yes","1024"
"88.63636363636364","88.63636363636364","632.0909090909091","632.0909090909091","black","experiment","legacy","legacy","legacy","0","uniform","1","undefined","1","right","43","43","43","43","0","0","43","0","0","43","43","43","0","43","0","Sun Oct 25 17:10:08 2020","The main experiment item","yes","SternbergTask.osexp","/Users/tforestmoore/Desktop/Tarleton/Fall 2020/Math/Lab3","no","mono","no","18","no","white","no","yes","768","legacy","31","11","/Users/tforestmoore/Desktop/Tarleton/Fall 2020/Math/Lab3/AM-subject-2.csv","legacy","7 9","Lentiform Loewenfeld","3.3.3","0","n","0","right","right","right","right","NA","613","13722","8791","613","NA","2","legacy","2","1024","2","48000","-16","experiment","2","even","1","282855","285090","281767","282838","2591","98105","234267","2610","89314","283872","287107","287721","16341","287107","NA","Sternberg Task","39","27812","44","yes","1024"
"88.88888888888889","88.88888888888889","632.6666666666666","632.6666666666666","black","experiment","legacy","legacy","legacy","0","uniform","1","undefined","1","left","44","44","44","44","0","0","44","0","0","44","44","44","0","44","0","Sun Oct 25 17:10:08 2020","The main experiment item","yes","SternbergTask.osexp","/Users/tforestmoore/Desktop/Tarleton/Fall 2020/Math/Lab3","no","mono","no","18","no","white","no","yes","768","legacy","32","11","/Users/tforestmoore/Desktop/Tarleton/Fall 2020/Math/Lab3/AM-subject-2.csv","legacy","9 3 8 2 1 4","Lentiform Loewenfeld","3.3.3","3","y","0","left","right","right","left","NA","658","13722","8791","658","NA","2","legacy","6","1024","2","48000","-16","experiment","2","even","8","288821","291056","287737","288805","2591","98105","234267","2610","89314","289838","293073","293732","16341","293072","NA","Sternberg Task","40","28470","45","yes","1024"
"89.1304347826087","89.1304347826087","628.6086956521739","628.6086956521739","black","experiment","legacy","legacy","legacy","0","uniform","1","undefined","1","left","45","45","45","45","0","0","45","0","0","45","45","45","0","45","0","Sun Oct 25 17:10:08 2020","The main experiment item","yes","SternbergTask.osexp","/Users/tforestmoore/Desktop/Tarleton/Fall 2020/Math/Lab3","no","mono","no","18","no","white","no","yes","768","legacy","33","11","/Users/tforestmoore/Desktop/Tarleton/Fall 2020/Math/Lab3/AM-subject-2.csv","legacy","8 7 3","Lentiform Loewenfeld","3.3.3","1","y","0","left","right","right","left","NA","446","13722","8791","446","NA","2","legacy","3","1024","2","48000","-16","experiment","2","even","8","294833","297068","293748","294817","2591","98105","234267","2610","89314","295850","299085","299532","16341","299085","NA","Sternberg Task","41","28916","46","yes","1024"
"89.36170212765957","89.36170212765957","637.9787234042553","637.9787234042553","black","experiment","legacy","legacy","legacy","0","uniform","1","undefined","1","left","46","46","46","46","0","0","46","0","0","46","46","46","0","46","0","Sun Oct 25 17:10:08 2020","The main experiment item","yes","SternbergTask.osexp","/Users/tforestmoore/Desktop/Tarleton/Fall 2020/Math/Lab3","no","mono","no","18","no","white","no","yes","768","legacy","34","11","/Users/tforestmoore/Desktop/Tarleton/Fall 2020/Math/Lab3/AM-subject-2.csv","legacy","2 6 1 7 4","Lentiform Loewenfeld","3.3.3","2","y","0","left","right","right","left","NA","1069","13722","8791","1069","NA","2","legacy","5","1024","2","48000","-16","experiment","2","even","6","300633","302869","299548","300617","2591","98105","234267","2610","89314","301650","304886","305956","16341","304886","NA","Sternberg Task","42","29985","47","yes","1024"
"89.58333333333333","89.58333333333333","637.0833333333334","637.0833333333334","black","experiment","legacy","legacy","legacy","0","uniform","1","undefined","1","right","47","47","47","47","0","0","47","0","0","47","47","47","0","47","0","Sun Oct 25 17:10:08 2020","The main experiment item","yes","SternbergTask.osexp","/Users/tforestmoore/Desktop/Tarleton/Fall 2020/Math/Lab3","no","mono","no","18","no","white","no","yes","768","legacy","35","11","/Users/tforestmoore/Desktop/Tarleton/Fall 2020/Math/Lab3/AM-subject-2.csv","legacy","4 1","Lentiform Loewenfeld","3.3.3","0","n","0","right","right","right","right","NA","595","13722","8791","595","NA","2","legacy","2","1024","2","48000","-16","experiment","2","even","6","307052","309290","305973","307037","2591","98105","234267","2610","89314","308070","311307","311903","16341","311307","NA","Sternberg Task","43","30580","48","yes","1024"
"89.79591836734694","89.79591836734694","639.3469387755102","639.3469387755102","black","experiment","legacy","legacy","legacy","0","uniform","1","undefined","1","left","48","48","48","48","0","0","48","0","0","48","48","48","0","48","0","Sun Oct 25 17:10:08 2020","The main experiment item","yes","SternbergTask.osexp","/Users/tforestmoore/Desktop/Tarleton/Fall 2020/Math/Lab3","no","mono","no","18","no","white","no","yes","768","legacy","36","11","/Users/tforestmoore/Desktop/Tarleton/Fall 2020/Math/Lab3/AM-subject-2.csv","legacy","5 2 6","Lentiform Loewenfeld","3.3.3","2","y","0","left","right","right","left","NA","748","13722","8791","748","NA","2","legacy","3","1024","2","48000","-16","experiment","2","even","2","313002","315238","311919","312987","2591","98105","234267","2610","89314","314019","317254","318002","16341","317254","NA","Sternberg Task","44","31328","49","yes","1024"
"90","90","636","636","black","experiment","legacy","legacy","legacy","0","uniform","1","undefined","1","left","49","49","49","49","0","0","49","0","0","49","49","49","0","49","0","Sun Oct 25 17:10:08 2020","The main experiment item","yes","SternbergTask.osexp","/Users/tforestmoore/Desktop/Tarleton/Fall 2020/Math/Lab3","no","mono","no","18","no","white","no","yes","768","legacy","37","11","/Users/tforestmoore/Desktop/Tarleton/Fall 2020/Math/Lab3/AM-subject-2.csv","legacy","3 9 6 2","Lentiform Loewenfeld","3.3.3","4","y","0","left","right","right","left","NA","472","13722","8791","472","NA","2","legacy","4","1024","2","48000","-16","experiment","2","even","2","319104","321335","318019","319088","2591","98105","234267","2610","89314","320119","323352","323825","16341","323352","NA","Sternberg Task","45","31800","50","yes","1024"
"90.19607843137256","90.19607843137256","634.2156862745098","634.2156862745098","black","experiment","legacy","legacy","legacy","0","uniform","1","undefined","1","left","50","50","50","50","0","0","50","0","0","50","50","50","0","50","0","Sun Oct 25 17:10:08 2020","The main experiment item","yes","SternbergTask.osexp","/Users/tforestmoore/Desktop/Tarleton/Fall 2020/Math/Lab3","no","mono","no","18","no","white","no","yes","768","legacy","38","11","/Users/tforestmoore/Desktop/Tarleton/Fall 2020/Math/Lab3/AM-subject-2.csv","legacy","9 6 2 4 1","Lentiform Loewenfeld","3.3.3","4","y","0","left","right","right","left","NA","545","13722","8791","545","NA","2","legacy","5","1024","2","48000","-16","experiment","2","even","4","324926","327161","323842","324910","2591","98105","234267","2610","89314","325943","329179","329724","16341","329178","NA","Sternberg Task","46","32345","51","yes","1024"
"90.38461538461539","90.38461538461539","630.6538461538462","630.6538461538462","black","experiment","legacy","legacy","legacy","0","uniform","1","undefined","1","left","51","51","51","51","0","0","51","0","0","51","51","51","0","51","0","Sun Oct 25 17:10:08 2020","The main experiment item","yes","SternbergTask.osexp","/Users/tforestmoore/Desktop/Tarleton/Fall 2020/Math/Lab3","no","mono","no","18","no","white","no","yes","768","legacy","39","11","/Users/tforestmoore/Desktop/Tarleton/Fall 2020/Math/Lab3/AM-subject-2.csv","legacy","3 2 1 4 7","Lentiform Loewenfeld","3.3.3","2","y","0","left","right","right","left","NA","449","13722","8791","449","NA","2","legacy","5","1024","2","48000","-16","experiment","2","even","2","330826","333061","329740","330810","2591","98105","234267","2610","89314","331843","335078","335528","16341","335078","NA","Sternberg Task","47","32794","52","yes","1024"
"90.56603773584905","90.56603773584905","632.3207547169811","632.3207547169811","black","experiment","legacy","legacy","legacy","0","uniform","1","undefined","1","right","52","52","52","52","0","0","52","0","0","52","52","52","0","52","0","Sun Oct 25 17:10:08 2020","The main experiment item","yes","SternbergTask.osexp","/Users/tforestmoore/Desktop/Tarleton/Fall 2020/Math/Lab3","no","mono","no","18","no","white","no","yes","768","legacy","40","11","/Users/tforestmoore/Desktop/Tarleton/Fall 2020/Math/Lab3/AM-subject-2.csv","legacy","7 9 1 6","Lentiform Loewenfeld","3.3.3","0","n","0","right","right","right","right","NA","719","13722","8791","719","NA","2","legacy","4","1024","2","48000","-16","experiment","2","even","4","336628","338864","335544","336612","2591","98105","234267","2610","89314","337645","340880","341600","16341","340880","NA","Sternberg Task","48","33513","53","yes","1024"
"90.74074074074075","90.74074074074075","629.7037037037037","629.7037037037037","black","experiment","legacy","legacy","legacy","0","uniform","1","undefined","1","right","53","53","53","53","0","0","53","0","0","53","53","53","0","53","0","Sun Oct 25 17:10:08 2020","The main experiment item","yes","SternbergTask.osexp","/Users/tforestmoore/Desktop/Tarleton/Fall 2020/Math/Lab3","no","mono","no","18","no","white","no","yes","768","legacy","41","11","/Users/tforestmoore/Desktop/Tarleton/Fall 2020/Math/Lab3/AM-subject-2.csv","legacy","7 1","Lentiform Loewenfeld","3.3.3","0","n","0","right","right","right","right","NA","491","13722","8791","491","NA","2","legacy","2","1024","2","48000","-16","experiment","2","even","8","342700","344938","341616","342684","2591","98105","234267","2610","89314","343718","346953","347445","16341","346953","NA","Sternberg Task","49","34004","54","yes","1024"
"90.9090909090909","90.9090909090909","632.3454545454546","632.3454545454546","black","experiment","legacy","legacy","legacy","0","uniform","1","undefined","1","right","54","54","54","54","0","0","54","0","0","54","54","54","0","54","0","Sun Oct 25 17:10:08 2020","The main experiment item","yes","SternbergTask.osexp","/Users/tforestmoore/Desktop/Tarleton/Fall 2020/Math/Lab3","no","mono","no","18","no","white","no","yes","768","legacy","42","11","/Users/tforestmoore/Desktop/Tarleton/Fall 2020/Math/Lab3/AM-subject-2.csv","legacy","8 4 3 9","Lentiform Loewenfeld","3.3.3","0","n","0","right","right","right","right","NA","775","13722","8791","775","NA","2","legacy","4","1024","2","48000","-16","experiment","2","even","5","348547","350783","347461","348531","2591","98105","234267","2610","89314","349564","352800","353576","16341","352799","NA","Sternberg Task","50","34779","55","yes","1024"
"91.07142857142857","91.07142857142857","631.8392857142857","631.8392857142857","black","experiment","legacy","legacy","legacy","0","uniform","1","undefined","1","left","55","55","55","55","0","0","55","0","0","55","55","55","0","55","0","Sun Oct 25 17:10:08 2020","The main experiment item","yes","SternbergTask.osexp","/Users/tforestmoore/Desktop/Tarleton/Fall 2020/Math/Lab3","no","mono","no","18","no","white","no","yes","768","legacy","43","11","/Users/tforestmoore/Desktop/Tarleton/Fall 2020/Math/Lab3/AM-subject-2.csv","legacy","4 9 7 8 5 3","Lentiform Loewenfeld","3.3.3","4","y","0","left","right","right","left","NA","604","13722","8791","604","NA","2","legacy","6","1024","2","48000","-16","experiment","2","even","8","354676","356909","353592","354660","2591","98105","234267","2610","89314","355693","358926","359531","16341","358926","NA","Sternberg Task","51","35383","56","yes","1024"
"91.2280701754386","91.2280701754386","630.3508771929825","630.3508771929825","black","experiment","legacy","legacy","legacy","0","uniform","1","undefined","1","left","56","56","56","56","0","0","56","0","0","56","56","56","0","56","0","Sun Oct 25 17:10:08 2020","The main experiment item","yes","SternbergTask.osexp","/Users/tforestmoore/Desktop/Tarleton/Fall 2020/Math/Lab3","no","mono","no","18","no","white","no","yes","768","legacy","44","11","/Users/tforestmoore/Desktop/Tarleton/Fall 2020/Math/Lab3/AM-subject-2.csv","legacy","9 1 6 7 8","Lentiform Loewenfeld","3.3.3","1","y","0","left","right","right","left","NA","547","13722","8791","547","NA","2","legacy","5","1024","2","48000","-16","experiment","2","even","9","360636","362872","359548","360620","2591","98105","234267","2610","89314","361653","364889","365436","16341","364888","NA","Sternberg Task","52","35930","57","yes","1024"
"91.37931034482759","91.37931034482759","631.8275862068965","631.8275862068965","black","experiment","legacy","legacy","legacy","0","uniform","1","undefined","1","right","57","57","57","57","0","0","57","0","0","57","57","57","0","57","0","Sun Oct 25 17:10:08 2020","The main experiment item","yes","SternbergTask.osexp","/Users/tforestmoore/Desktop/Tarleton/Fall 2020/Math/Lab3","no","mono","no","18","no","white","no","yes","768","legacy","45","11","/Users/tforestmoore/Desktop/Tarleton/Fall 2020/Math/Lab3/AM-subject-2.csv","legacy","2 5 1 4","Lentiform Loewenfeld","3.3.3","0","n","0","right","right","right","right","NA","716","13722","8791","716","NA","2","legacy","4","1024","2","48000","-16","experiment","2","even","6","366537","368773","365453","366521","2591","98105","234267","2610","89314","367554","370790","371507","16341","370790","NA","Sternberg Task","53","36646","58","yes","1024"
"89.83050847457628","89.83050847457628","633.1186440677966","633.1186440677966","black","experiment","legacy","legacy","legacy","0","uniform","0","undefined","0","right","58","58","58","58","0","0","58","0","0","58","58","58","0","58","0","Sun Oct 25 17:10:08 2020","The main experiment item","yes","SternbergTask.osexp","/Users/tforestmoore/Desktop/Tarleton/Fall 2020/Math/Lab3","no","mono","no","18","no","white","no","yes","768","legacy","46","11","/Users/tforestmoore/Desktop/Tarleton/Fall 2020/Math/Lab3/AM-subject-2.csv","legacy","8 5 7 3 6","Lentiform Loewenfeld","3.3.3","0","n","0","left","right","right","left","NA","708","13722","8791","708","NA","2","legacy","5","1024","2","48000","-16","experiment","2","even","9","372607","374843","371523","372591","2591","98105","234267","2610","89314","373624","376860","377569","16341","376860","NA","Sternberg Task","53","37354","59","yes","1024"
"90","90","632.3666666666667","632.3666666666667","black","experiment","legacy","legacy","legacy","0","uniform","1","undefined","1","right","59","59","59","59","0","0","59","0","0","59","59","59","0","59","0","Sun Oct 25 17:10:08 2020","The main experiment item","yes","SternbergTask.osexp","/Users/tforestmoore/Desktop/Tarleton/Fall 2020/Math/Lab3","no","mono","no","18","no","white","no","yes","768","legacy","47","11","/Users/tforestmoore/Desktop/Tarleton/Fall 2020/Math/Lab3/AM-subject-2.csv","legacy","6 8","Lentiform Loewenfeld","3.3.3","0","n","0","right","right","right","right","NA","588","13722","8791","588","NA","2","legacy","2","1024","2","48000","-16","experiment","2","even","9","378669","380903","371523","378652","2591","98105","377585","2610","89314","379686","382920","383509","16341","382919","NA","Sternberg Task","54","37942","60","yes","1024"
"90.1639344262295","90.1639344262295","630.8852459016393","630.8852459016393","black","experiment","legacy","legacy","legacy","0","uniform","1","undefined","1","right","60","60","60","60","0","0","60","0","0","60","60","60","0","60","0","Sun Oct 25 17:10:08 2020","The main experiment item","yes","SternbergTask.osexp","/Users/tforestmoore/Desktop/Tarleton/Fall 2020/Math/Lab3","no","mono","no","18","no","white","no","yes","768","legacy","48","11","/Users/tforestmoore/Desktop/Tarleton/Fall 2020/Math/Lab3/AM-subject-2.csv","legacy","1 6 4 3 9 7","Lentiform Loewenfeld","3.3.3","0","n","0","right","right","right","right","NA","542","13722","8791","542","NA","2","legacy","6","1024","2","48000","-16","experiment","2","even","8","384611","386847","383525","384595","2591","98105","377585","2610","89314","385628","388864","389407","16341","388864","NA","Sternberg Task","55","38484","61","yes","1024"
"90.3225806451613","90.3225806451613","629.741935483871","629.741935483871","black","experiment","legacy","legacy","legacy","0","uniform","1","undefined","1","left","61","61","61","61","0","0","61","0","0","61","61","61","0","61","0","Sun Oct 25 17:10:08 2020","The main experiment item","yes","SternbergTask.osexp","/Users/tforestmoore/Desktop/Tarleton/Fall 2020/Math/Lab3","no","mono","no","18","no","white","no","yes","768","legacy","49","11","/Users/tforestmoore/Desktop/Tarleton/Fall 2020/Math/Lab3/AM-subject-2.csv","legacy","8 1 6","Lentiform Loewenfeld","3.3.3","3","y","0","left","right","right","left","NA","560","13722","8791","560","NA","2","legacy","3","1024","2","48000","-16","experiment","2","even","6","390502","392739","389423","390487","2591","98105","377585","2610","89314","391519","394756","395317","16341","394756","NA","Sternberg Task","56","39044","62","yes","1024"
"90.47619047619048","90.47619047619048","628.2380952380952","628.2380952380952","black","experiment","legacy","legacy","legacy","0","uniform","1","undefined","1","right","62","62","62","62","0","0","62","0","0","62","62","62","0","62","0","Sun Oct 25 17:10:08 2020","The main experiment item","yes","SternbergTask.osexp","/Users/tforestmoore/Desktop/Tarleton/Fall 2020/Math/Lab3","no","mono","no","18","no","white","no","yes","768","legacy","50","11","/Users/tforestmoore/Desktop/Tarleton/Fall 2020/Math/Lab3/AM-subject-2.csv","legacy","9 8 2 7 4","Lentiform Loewenfeld","3.3.3","0","n","0","right","right","right","right","NA","535","13722","8791","535","NA","2","legacy","5","1024","2","48000","-16","experiment","2","even","5","396417","398653","395333","396401","2591","98105","377585","2610","89314","397434","400670","401205","16341","400670","NA","Sternberg Task","57","39579","63","yes","1024"
"90.625","90.625","628.125","628.125","black","experiment","legacy","legacy","legacy","0","uniform","1","undefined","1","left","63","63","63","63","0","0","63","0","0","63","63","63","0","63","0","Sun Oct 25 17:10:08 2020","The main experiment item","yes","SternbergTask.osexp","/Users/tforestmoore/Desktop/Tarleton/Fall 2020/Math/Lab3","no","mono","no","18","no","white","no","yes","768","legacy","51","11","/Users/tforestmoore/Desktop/Tarleton/Fall 2020/Math/Lab3/AM-subject-2.csv","legacy","7 8 6 3 1","Lentiform Loewenfeld","3.3.3","5","y","0","left","right","right","left","NA","621","13722","8791","621","NA","2","legacy","5","1024","2","48000","-16","experiment","2","even","1","402305","404542","401222","402290","2591","98105","377585","2610","89314","403323","406559","407181","16341","406559","NA","Sternberg Task","58","40200","64","yes","1024"
"89.23076923076923","89.23076923076923","634.3692307692307","634.3692307692307","black","experiment","legacy","legacy","legacy","0","uniform","0","undefined","0","right","64","64","64","64","0","0","64","0","0","64","64","64","0","64","0","Sun Oct 25 17:10:08 2020","The main experiment item","yes","SternbergTask.osexp","/Users/tforestmoore/Desktop/Tarleton/Fall 2020/Math/Lab3","no","mono","no","18","no","white","no","yes","768","legacy","52","11","/Users/tforestmoore/Desktop/Tarleton/Fall 2020/Math/Lab3/AM-subject-2.csv","legacy","5 7 3","Lentiform Loewenfeld","3.3.3","0","n","0","left","right","right","left","NA","1034","13722","8791","1034","NA","2","legacy","3","1024","2","48000","-16","experiment","2","even","9","408281","410521","407197","408265","2591","98105","377585","2610","89314","409298","412536","413571","16341","412536","NA","Sternberg Task","58","41234","65","yes","1024"
"89.39393939393939","89.39393939393939","631.3939393939394","631.3939393939394","black","experiment","legacy","legacy","legacy","0","uniform","1","undefined","1","left","65","65","65","65","0","0","65","0","0","65","65","65","0","65","0","Sun Oct 25 17:10:08 2020","The main experiment item","yes","SternbergTask.osexp","/Users/tforestmoore/Desktop/Tarleton/Fall 2020/Math/Lab3","no","mono","no","18","no","white","no","yes","768","legacy","53","11","/Users/tforestmoore/Desktop/Tarleton/Fall 2020/Math/Lab3/AM-subject-2.csv","legacy","3 4 9 6 2 9","Lentiform Loewenfeld","3.3.3","5","y","0","left","right","right","left","NA","438","13722","8791","438","NA","2","legacy","6","1024","2","48000","-16","experiment","2","even","2","414671","416907","407197","414655","2591","98105","413586","2610","89314","415688","418924","419363","16341","418924","NA","Sternberg Task","59","41672","66","yes","1024"
"89.55223880597015","89.55223880597015","631.3432835820895","631.3432835820895","black","experiment","legacy","legacy","legacy","0","uniform","1","undefined","1","right","66","66","66","66","0","0","66","0","0","66","66","66","0","66","0","Sun Oct 25 17:10:08 2020","The main experiment item","yes","SternbergTask.osexp","/Users/tforestmoore/Desktop/Tarleton/Fall 2020/Math/Lab3","no","mono","no","18","no","white","no","yes","768","legacy","54","11","/Users/tforestmoore/Desktop/Tarleton/Fall 2020/Math/Lab3/AM-subject-2.csv","legacy","6 9 4 5 2","Lentiform Loewenfeld","3.3.3","0","n","0","right","right","right","right","NA","628","13722","8791","628","NA","2","legacy","5","1024","2","48000","-16","experiment","2","even","1","420468","422705","419380","420452","2591","98105","413586","2610","89314","421485","424722","425351","16341","424722","NA","Sternberg Task","60","42300","67","yes","1024"
"89.70588235294117","89.70588235294117","628.1176470588235","628.1176470588235","black","experiment","legacy","legacy","legacy","0","uniform","1","undefined","1","left","67","67","67","67","0","0","67","0","0","67","67","67","0","67","0","Sun Oct 25 17:10:08 2020","The main experiment item","yes","SternbergTask.osexp","/Users/tforestmoore/Desktop/Tarleton/Fall 2020/Math/Lab3","no","mono","no","18","no","white","no","yes","768","legacy","55","11","/Users/tforestmoore/Desktop/Tarleton/Fall 2020/Math/Lab3/AM-subject-2.csv","legacy","4","Lentiform Loewenfeld","3.3.3","1","y","0","left","right","right","left","NA","412","13722","8791","412","NA","2","legacy","1","1024","2","48000","-16","experiment","2","even","4","426451","428687","425367","426435","2591","98105","413586","2610","89314","427468","430704","431118","16341","430703","NA","Sternberg Task","61","42712","68","yes","1024"
"89.85507246376811","89.85507246376811","626.5797101449275","626.5797101449275","black","experiment","legacy","legacy","legacy","0","uniform","1","undefined","1","right","68","68","68","68","0","0","68","0","0","68","68","68","0","68","0","Sun Oct 25 17:10:08 2020","The main experiment item","yes","SternbergTask.osexp","/Users/tforestmoore/Desktop/Tarleton/Fall 2020/Math/Lab3","no","mono","no","18","no","white","no","yes","768","legacy","56","11","/Users/tforestmoore/Desktop/Tarleton/Fall 2020/Math/Lab3/AM-subject-2.csv","legacy","7 4 2 8 1 9","Lentiform Loewenfeld","3.3.3","0","n","0","right","right","right","right","NA","522","13722","8791","522","NA","2","legacy","6","1024","2","48000","-16","experiment","2","even","5","432221","434457","431134","432205","2591","98105","413586","2610","89314","433238","436474","436997","16341","436473","NA","Sternberg Task","62","43234","69","yes","1024"
"90","90","624.6571428571428","624.6571428571428","black","experiment","legacy","legacy","legacy","0","uniform","1","undefined","1","left","69","69","69","69","0","0","69","0","0","69","69","69","0","69","0","Sun Oct 25 17:10:08 2020","The main experiment item","yes","SternbergTask.osexp","/Users/tforestmoore/Desktop/Tarleton/Fall 2020/Math/Lab3","no","mono","no","18","no","white","no","yes","768","legacy","57","11","/Users/tforestmoore/Desktop/Tarleton/Fall 2020/Math/Lab3/AM-subject-2.csv","legacy","6 2","Lentiform Loewenfeld","3.3.3","1","y","0","left","right","right","left","NA","492","13722","8791","492","NA","2","legacy","2","1024","2","48000","-16","experiment","2","even","6","438101","440338","437014","438085","2591","98105","413586","2610","89314","439118","442355","442848","16341","442354","NA","Sternberg Task","63","43726","70","yes","1024"
"90.14084507042253","90.14084507042253","623.5633802816901","623.5633802816901","black","experiment","legacy","legacy","legacy","0","uniform","1","undefined","1","right","70","70","70","70","0","0","70","0","0","70","70","70","0","70","0","Sun Oct 25 17:10:08 2020","The main experiment item","yes","SternbergTask.osexp","/Users/tforestmoore/Desktop/Tarleton/Fall 2020/Math/Lab3","no","mono","no","18","no","white","no","yes","768","legacy","58","11","/Users/tforestmoore/Desktop/Tarleton/Fall 2020/Math/Lab3/AM-subject-2.csv","legacy","3 9 1","Lentiform Loewenfeld","3.3.3","0","n","0","right","right","right","right","NA","547","13722","8791","547","NA","2","legacy","3","1024","2","48000","-16","experiment","2","even","7","443948","446185","442864","443932","2591","98105","413586","2610","89314","444965","448202","448750","16341","448202","NA","Sternberg Task","64","44273","71","yes","1024"
"90.27777777777777","90.27777777777777","623.6388888888889","623.6388888888889","black","experiment","legacy","legacy","legacy","0","uniform","1","undefined","1","left","71","71","71","71","0","0","71","0","0","71","71","71","0","71","0","Sun Oct 25 17:10:08 2020","The main experiment item","yes","SternbergTask.osexp","/Users/tforestmoore/Desktop/Tarleton/Fall 2020/Math/Lab3","no","mono","no","18","no","white","no","yes","768","legacy","59","11","/Users/tforestmoore/Desktop/Tarleton/Fall 2020/Math/Lab3/AM-subject-2.csv","legacy","8 5 1 3 9","Lentiform Loewenfeld","3.3.3","4","y","0","left","right","right","left","NA","629","13722","8791","629","NA","2","legacy","5","1024","2","48000","-16","experiment","2","even","3","449853","452088","448766","449837","2591","98105","413586","2610","89314","450869","454105","454735","16341","454105","NA","Sternberg Task","65","44902","72","yes","1024"
"90.41095890410959","90.41095890410959","620.9589041095891","620.9589041095891","black","experiment","legacy","legacy","legacy","0","uniform","1","undefined","1","right","72","72","72","72","0","0","72","0","0","72","72","72","0","72","0","Sun Oct 25 17:10:08 2020","The main experiment item","yes","SternbergTask.osexp","/Users/tforestmoore/Desktop/Tarleton/Fall 2020/Math/Lab3","no","mono","no","18","no","white","no","yes","768","legacy","60","11","/Users/tforestmoore/Desktop/Tarleton/Fall 2020/Math/Lab3/AM-subject-2.csv","legacy","2 7 5","Lentiform Loewenfeld","3.3.3","0","n","0","right","right","right","right","NA","428","13722","8791","428","NA","2","legacy","3","1024","2","48000","-16","experiment","2","even","8","455836","458072","454752","455820","2591","98105","413586","2610","89314","456853","460089","460518","16341","460089","NA","Sternberg Task","66","45330","73","yes","1024"
"90.54054054054055","90.54054054054055","619.1756756756756","619.1756756756756","black","experiment","legacy","legacy","legacy","0","uniform","1","undefined","1","left","73","73","73","73","0","0","73","0","0","73","73","73","0","73","0","Sun Oct 25 17:10:08 2020","The main experiment item","yes","SternbergTask.osexp","/Users/tforestmoore/Desktop/Tarleton/Fall 2020/Math/Lab3","no","mono","no","18","no","white","no","yes","768","legacy","61","11","/Users/tforestmoore/Desktop/Tarleton/Fall 2020/Math/Lab3/AM-subject-2.csv","legacy","5 7 8 2 3 8","Lentiform Loewenfeld","3.3.3","5","y","0","left","right","right","left","NA","489","13722","8791","489","NA","2","legacy","6","1024","2","48000","-16","experiment","2","even","3","461620","463858","460535","461604","2591","98105","413586","2610","89314","462638","465875","466365","16341","465875","NA","Sternberg Task","67","45819","74","yes","1024"
"90.66666666666667","90.66666666666667","617.9066666666666","617.9066666666666","black","experiment","legacy","legacy","legacy","0","uniform","1","undefined","1","right","74","74","74","74","0","0","74","0","0","74","74","74","0","74","0","Sun Oct 25 17:10:08 2020","The main experiment item","yes","SternbergTask.osexp","/Users/tforestmoore/Desktop/Tarleton/Fall 2020/Math/Lab3","no","mono","no","18","no","white","no","yes","768","legacy","62","11","/Users/tforestmoore/Desktop/Tarleton/Fall 2020/Math/Lab3/AM-subject-2.csv","legacy","4 2 7 6 1 3","Lentiform Loewenfeld","3.3.3","0","n","0","right","right","right","right","NA","524","13722","8791","524","NA","2","legacy","6","1024","2","48000","-16","experiment","2","even","8","467466","469702","466381","467450","2591","98105","413586","2610","89314","468483","471719","472244","16341","471718","NA","Sternberg Task","68","46343","75","yes","1024"
"90.78947368421052","90.78947368421052","616.0657894736842","616.0657894736842","black","experiment","legacy","legacy","legacy","0","uniform","1","undefined","1","left","75","75","75","75","0","0","75","0","0","75","75","75","0","75","0","Sun Oct 25 17:10:08 2020","The main experiment item","yes","SternbergTask.osexp","/Users/tforestmoore/Desktop/Tarleton/Fall 2020/Math/Lab3","no","mono","no","18","no","white","no","yes","768","legacy","63","11","/Users/tforestmoore/Desktop/Tarleton/Fall 2020/Math/Lab3/AM-subject-2.csv","legacy","9 5 3 8 4","Lentiform Loewenfeld","3.3.3","1","y","0","left","right","right","left","NA","478","13722","8791","478","NA","2","legacy","5","1024","2","48000","-16","experiment","2","even","9","473341","475577","472262","473326","2591","98105","413586","2610","89314","474358","477594","478073","16341","477594","NA","Sternberg Task","69","46821","76","yes","1024"
"90.9090909090909","90.9090909090909","613.5324675324675","613.5324675324675","black","experiment","legacy","legacy","legacy","0","uniform","1","undefined","1","left","76","76","76","76","0","0","76","0","0","76","76","76","0","76","0","Sun Oct 25 17:10:08 2020","The main experiment item","yes","SternbergTask.osexp","/Users/tforestmoore/Desktop/Tarleton/Fall 2020/Math/Lab3","no","mono","no","18","no","white","no","yes","768","legacy","64","11","/Users/tforestmoore/Desktop/Tarleton/Fall 2020/Math/Lab3/AM-subject-2.csv","legacy","3 9 7 6 4","Lentiform Loewenfeld","3.3.3","3","y","0","left","right","right","left","NA","421","13722","8791","421","NA","2","legacy","5","1024","2","48000","-16","experiment","2","even","7","479174","481404","478090","479158","2591","98105","413586","2610","89314","480188","483420","483842","16341","483420","NA","Sternberg Task","70","47242","77","yes","1024"
"91.02564102564102","91.02564102564102","615.6025641025641","615.6025641025641","black","experiment","legacy","legacy","legacy","0","uniform","1","undefined","1","left","77","77","77","77","0","0","77","0","0","77","77","77","0","77","0","Sun Oct 25 17:10:08 2020","The main experiment item","yes","SternbergTask.osexp","/Users/tforestmoore/Desktop/Tarleton/Fall 2020/Math/Lab3","no","mono","no","18","no","white","no","yes","768","legacy","65","11","/Users/tforestmoore/Desktop/Tarleton/Fall 2020/Math/Lab3/AM-subject-2.csv","legacy","2 4 8 5 1 3","Lentiform Loewenfeld","3.3.3","1","y","0","left","right","right","left","NA","775","13722","8791","775","NA","2","legacy","6","1024","2","48000","-16","experiment","2","even","2","484943","487176","483859","484927","2591","98105","413586","2610","89314","485960","489193","489969","16341","489193","NA","Sternberg Task","71","48017","78","yes","1024"
"91.13924050632912","91.13924050632912","616.1518987341772","616.1518987341772","black","experiment","legacy","legacy","legacy","0","uniform","1","undefined","1","left","78","78","78","78","0","0","78","0","0","78","78","78","0","78","0","Sun Oct 25 17:10:08 2020","The main experiment item","yes","SternbergTask.osexp","/Users/tforestmoore/Desktop/Tarleton/Fall 2020/Math/Lab3","no","mono","no","18","no","white","no","yes","768","legacy","66","11","/Users/tforestmoore/Desktop/Tarleton/Fall 2020/Math/Lab3/AM-subject-2.csv","legacy","5 7 3 6 2","Lentiform Loewenfeld","3.3.3","5","y","0","left","right","right","left","NA","659","13722","8791","659","NA","2","legacy","5","1024","2","48000","-16","experiment","2","even","2","491068","493305","489986","491052","2591","98105","413586","2610","89314","492085","495322","495982","16341","495322","NA","Sternberg Task","72","48676","79","yes","1024"
"91.25","91.25","615.075","615.075","black","experiment","legacy","legacy","legacy","0","uniform","1","undefined","1","right","79","79","79","79","0","0","79","0","0","79","79","79","0","79","0","Sun Oct 25 17:10:08 2020","The main experiment item","yes","SternbergTask.osexp","/Users/tforestmoore/Desktop/Tarleton/Fall 2020/Math/Lab3","no","mono","no","18","no","white","no","yes","768","legacy","67","11","/Users/tforestmoore/Desktop/Tarleton/Fall 2020/Math/Lab3/AM-subject-2.csv","legacy","5 9 2 3","Lentiform Loewenfeld","3.3.3","0","n","0","right","right","right","right","NA","530","13722","8791","530","NA","2","legacy","4","1024","2","48000","-16","experiment","2","even","8","497086","499324","495999","497070","2591","98105","413586","2610","89314","498103","501340","501871","16341","501340","NA","Sternberg Task","73","49206","80","yes","1024"
"91.35802469135803","91.35802469135803","613.2962962962963","613.2962962962963","black","experiment","legacy","legacy","legacy","0","uniform","1","undefined","1","left","80","80","80","80","0","0","80","0","0","80","80","80","0","80","0","Sun Oct 25 17:10:08 2020","The main experiment item","yes","SternbergTask.osexp","/Users/tforestmoore/Desktop/Tarleton/Fall 2020/Math/Lab3","no","mono","no","18","no","white","no","yes","768","legacy","68","11","/Users/tforestmoore/Desktop/Tarleton/Fall 2020/Math/Lab3/AM-subject-2.csv","legacy","6 7 9 3 1 2","Lentiform Loewenfeld","3.3.3","1","y","0","left","right","right","left","NA","471","13722","8791","471","NA","2","legacy","6","1024","2","48000","-16","experiment","2","even","6","502970","505206","501888","502954","2591","98105","413586","2610","89314","503987","507220","507692","16341","507220","NA","Sternberg Task","74","49677","81","yes","1024"
"91.46341463414635","91.46341463414635","611.5243902439024","611.5243902439024","black","experiment","legacy","legacy","legacy","0","uniform","1","undefined","1","right","81","81","81","81","0","0","81","0","0","81","81","81","0","81","0","Sun Oct 25 17:10:08 2020","The main experiment item","yes","SternbergTask.osexp","/Users/tforestmoore/Desktop/Tarleton/Fall 2020/Math/Lab3","no","mono","no","18","no","white","no","yes","768","legacy","69","11","/Users/tforestmoore/Desktop/Tarleton/Fall 2020/Math/Lab3/AM-subject-2.csv","legacy","1 4 3 6 5","Lentiform Loewenfeld","3.3.3","0","n","0","right","right","right","right","NA","468","13722","8791","468","NA","2","legacy","5","1024","2","48000","-16","experiment","2","even","8","508793","511024","507708","508776","2591","98105","413586","2610","89314","509810","513042","513511","16341","513042","NA","Sternberg Task","75","50145","82","yes","1024"
"91.56626506024097","91.56626506024097","610","610","black","experiment","legacy","legacy","legacy","0","uniform","1","undefined","1","right","82","82","82","82","0","0","82","0","0","82","82","82","0","82","0","Sun Oct 25 17:10:08 2020","The main experiment item","yes","SternbergTask.osexp","/Users/tforestmoore/Desktop/Tarleton/Fall 2020/Math/Lab3","no","mono","no","18","no","white","no","yes","768","legacy","70","11","/Users/tforestmoore/Desktop/Tarleton/Fall 2020/Math/Lab3/AM-subject-2.csv","legacy","6 2 9 3 8 4","Lentiform Loewenfeld","3.3.3","0","n","0","right","right","right","right","NA","485","13722","8791","485","NA","2","legacy","6","1024","2","48000","-16","experiment","2","even","1","514612","516848","513527","514596","2591","98105","413586","2610","89314","515629","518865","519351","16341","518865","NA","Sternberg Task","76","50630","83","yes","1024"
"91.66666666666667","91.66666666666667","609.8690476190476","609.8690476190476","black","experiment","legacy","legacy","legacy","0","uniform","1","undefined","1","left","83","83","83","83","0","0","83","0","0","83","83","83","0","83","0","Sun Oct 25 17:10:08 2020","The main experiment item","yes","SternbergTask.osexp","/Users/tforestmoore/Desktop/Tarleton/Fall 2020/Math/Lab3","no","mono","no","18","no","white","no","yes","768","legacy","71","11","/Users/tforestmoore/Desktop/Tarleton/Fall 2020/Math/Lab3/AM-subject-2.csv","legacy","8 5 3 7 4 6","Lentiform Loewenfeld","3.3.3","6","y","0","left","right","right","left","NA","599","13722","8791","599","NA","2","legacy","6","1024","2","48000","-16","experiment","2","even","6","520454","522690","519367","520438","2591","98105","413586","2610","89314","521471","524707","525307","16341","524706","NA","Sternberg Task","77","51229","84","yes","1024"
"91.76470588235294","91.76470588235294","614.5411764705882","614.5411764705882","black","experiment","legacy","legacy","legacy","0","uniform","1","undefined","1","right","84","84","84","84","0","0","84","0","0","84","84","84","0","84","0","Sun Oct 25 17:10:08 2020","The main experiment item","yes","SternbergTask.osexp","/Users/tforestmoore/Desktop/Tarleton/Fall 2020/Math/Lab3","no","mono","no","18","no","white","no","yes","768","legacy","72","11","/Users/tforestmoore/Desktop/Tarleton/Fall 2020/Math/Lab3/AM-subject-2.csv","legacy","7 6 4 8 1 2","Lentiform Loewenfeld","3.3.3","0","n","0","right","right","right","right","NA","1007","13722","8791","1007","NA","2","legacy","6","1024","2","48000","-16","experiment","2","even","9","526411","528644","525323","526395","2591","98105","413586","2610","89314","527425","530661","531669","16341","530661","NA","Sternberg Task","78","52236","85","yes","1024"
"91.86046511627907","91.86046511627907","614.6279069767442","614.6279069767442","black","experiment","legacy","legacy","legacy","0","uniform","1","undefined","1","left","85","85","85","85","0","0","85","0","0","85","85","85","0","85","0","Sun Oct 25 17:10:08 2020","The main experiment item","yes","SternbergTask.osexp","/Users/tforestmoore/Desktop/Tarleton/Fall 2020/Math/Lab3","no","mono","no","18","no","white","no","yes","768","legacy","73","11","/Users/tforestmoore/Desktop/Tarleton/Fall 2020/Math/Lab3/AM-subject-2.csv","legacy","6 9 7 4 5 1","Lentiform Loewenfeld","3.3.3","2","y","0","left","right","right","left","NA","622","13722","8791","622","NA","2","legacy","6","1024","2","48000","-16","experiment","2","even","9","532770","535005","531686","532754","2591","98105","413586","2610","89314","533787","537022","537645","16341","537022","NA","Sternberg Task","79","52858","86","yes","1024"
"91.95402298850574","91.95402298850574","615.8390804597701","615.8390804597701","black","experiment","legacy","legacy","legacy","0","uniform","1","undefined","1","right","86","86","86","86","0","0","86","0","0","86","86","86","0","86","0","Sun Oct 25 17:10:08 2020","The main experiment item","yes","SternbergTask.osexp","/Users/tforestmoore/Desktop/Tarleton/Fall 2020/Math/Lab3","no","mono","no","18","no","white","no","yes","768","legacy","74","11","/Users/tforestmoore/Desktop/Tarleton/Fall 2020/Math/Lab3/AM-subject-2.csv","legacy","3 4 2","Lentiform Loewenfeld","3.3.3","0","n","0","right","right","right","right","NA","720","13722","8791","720","NA","2","legacy","3","1024","2","48000","-16","experiment","2","even","5","538747","540983","537662","538731","2591","98105","413586","2610","89314","539764","543000","543721","16341","543000","NA","Sternberg Task","80","53578","87","yes","1024"
"92.04545454545455","92.04545454545455","614.3409090909091","614.3409090909091","black","experiment","legacy","legacy","legacy","0","uniform","1","undefined","1","right","87","87","87","87","0","0","87","0","0","87","87","87","0","87","0","Sun Oct 25 17:10:08 2020","The main experiment item","yes","SternbergTask.osexp","/Users/tforestmoore/Desktop/Tarleton/Fall 2020/Math/Lab3","no","mono","no","18","no","white","no","yes","768","legacy","75","11","/Users/tforestmoore/Desktop/Tarleton/Fall 2020/Math/Lab3/AM-subject-2.csv","legacy","5","Lentiform Loewenfeld","3.3.3","0","n","0","right","right","right","right","NA","484","13722","8791","484","NA","2","legacy","1","1024","2","48000","-16","experiment","2","even","8","544822","547057","543738","544806","2591","98105","413586","2610","89314","545839","549074","549559","16341","549074","NA","Sternberg Task","81","54062","88","yes","1024"
"92.13483146067416","92.13483146067416","612.370786516854","612.370786516854","black","experiment","legacy","legacy","legacy","0","uniform","1","undefined","1","left","88","88","88","88","0","0","88","0","0","88","88","88","0","88","0","Sun Oct 25 17:10:08 2020","The main experiment item","yes","SternbergTask.osexp","/Users/tforestmoore/Desktop/Tarleton/Fall 2020/Math/Lab3","no","mono","no","18","no","white","no","yes","768","legacy","76","11","/Users/tforestmoore/Desktop/Tarleton/Fall 2020/Math/Lab3/AM-subject-2.csv","legacy","2 3 7 4","Lentiform Loewenfeld","3.3.3","1","y","0","left","right","right","left","NA","439","13722","8791","439","NA","2","legacy","4","1024","2","48000","-16","experiment","2","even","2","550659","552894","549575","550643","2591","98105","413586","2610","89314","551676","554911","555351","16341","554911","NA","Sternberg Task","82","54501","89","yes","1024"
"92.22222222222223","92.22222222222223","611.3","611.3","black","experiment","legacy","legacy","legacy","0","uniform","1","undefined","1","right","89","89","89","89","0","0","89","0","0","89","89","89","0","89","0","Sun Oct 25 17:10:08 2020","The main experiment item","yes","SternbergTask.osexp","/Users/tforestmoore/Desktop/Tarleton/Fall 2020/Math/Lab3","no","mono","no","18","no","white","no","yes","768","legacy","77","11","/Users/tforestmoore/Desktop/Tarleton/Fall 2020/Math/Lab3/AM-subject-2.csv","legacy","1 4 9 2 5","Lentiform Loewenfeld","3.3.3","0","n","0","right","right","right","right","NA","516","13722","8791","516","NA","2","legacy","5","1024","2","48000","-16","experiment","2","even","7","556454","558687","555368","556438","2591","98105","413586","2610","89314","557468","560704","561221","16341","560704","NA","Sternberg Task","83","55017","90","yes","1024"
"92.3076923076923","92.3076923076923","609.2747252747253","609.2747252747253","black","experiment","legacy","legacy","legacy","0","uniform","1","undefined","1","right","90","90","90","90","0","0","90","0","0","90","90","90","0","90","0","Sun Oct 25 17:10:08 2020","The main experiment item","yes","SternbergTask.osexp","/Users/tforestmoore/Desktop/Tarleton/Fall 2020/Math/Lab3","no","mono","no","18","no","white","no","yes","768","legacy","78","11","/Users/tforestmoore/Desktop/Tarleton/Fall 2020/Math/Lab3/AM-subject-2.csv","legacy","6 7 5 9","Lentiform Loewenfeld","3.3.3","0","n","0","right","right","right","right","NA","427","13722","8791","427","NA","2","legacy","4","1024","2","48000","-16","experiment","2","even","2","562309","564541","561237","562295","2591","98105","413586","2610","89314","563324","566555","566983","16341","566555","NA","Sternberg Task","84","55444","91","yes","1024"
"92.3913043478261","92.3913043478261","607.6195652173913","607.6195652173913","black","experiment","legacy","legacy","legacy","0","uniform","1","undefined","1","right","91","91","91","91","0","0","91","0","0","91","91","91","0","91","0","Sun Oct 25 17:10:08 2020","The main experiment item","yes","SternbergTask.osexp","/Users/tforestmoore/Desktop/Tarleton/Fall 2020/Math/Lab3","no","mono","no","18","no","white","no","yes","768","legacy","79","11","/Users/tforestmoore/Desktop/Tarleton/Fall 2020/Math/Lab3/AM-subject-2.csv","legacy","1 6 4","Lentiform Loewenfeld","3.3.3","0","n","0","right","right","right","right","NA","457","13722","8791","457","NA","2","legacy","3","1024","2","48000","-16","experiment","2","even","7","568071","570303","567000","568057","2591","98105","413586","2610","89314","569086","572321","572779","16341","572321","NA","Sternberg Task","85","55901","92","yes","1024"
"92.47311827956989","92.47311827956989","607.0322580645161","607.0322580645161","black","experiment","legacy","legacy","legacy","0","uniform","1","undefined","1","right","92","92","92","92","0","0","92","0","0","92","92","92","0","92","0","Sun Oct 25 17:10:08 2020","The main experiment item","yes","SternbergTask.osexp","/Users/tforestmoore/Desktop/Tarleton/Fall 2020/Math/Lab3","no","mono","no","18","no","white","no","yes","768","legacy","80","11","/Users/tforestmoore/Desktop/Tarleton/Fall 2020/Math/Lab3/AM-subject-2.csv","legacy","9","Lentiform Loewenfeld","3.3.3","0","n","0","right","right","right","right","NA","553","13722","8791","553","NA","2","legacy","1","1024","2","48000","-16","experiment","2","even","6","573880","576116","572796","573864","2591","98105","413586","2610","89314","574897","578133","578687","16341","578132","NA","Sternberg Task","86","56454","93","yes","1024"
"91.48936170212765","91.48936170212765","609.1914893617021","609.1914893617021","black","experiment","legacy","legacy","legacy","0","uniform","0","undefined","0","right","93","93","93","93","0","0","93","0","0","93","93","93","0","93","0","Sun Oct 25 17:10:08 2020","The main experiment item","yes","SternbergTask.osexp","/Users/tforestmoore/Desktop/Tarleton/Fall 2020/Math/Lab3","no","mono","no","18","no","white","no","yes","768","legacy","81","11","/Users/tforestmoore/Desktop/Tarleton/Fall 2020/Math/Lab3/AM-subject-2.csv","legacy","5 3 8 7 2 4","Lentiform Loewenfeld","3.3.3","0","n","0","left","right","right","left","NA","810","13722","8791","810","NA","2","legacy","6","1024","2","48000","-16","experiment","2","even","9","579789","582025","578704","579773","2591","98105","413586","2610","89314","580806","584042","584853","16341","584042","NA","Sternberg Task","86","57264","94","yes","1024"
"90.52631578947368","90.52631578947368","607.1894736842105","607.1894736842105","black","experiment","legacy","legacy","legacy","0","uniform","0","undefined","0","left","94","94","94","94","0","0","94","0","0","94","94","94","0","94","0","Sun Oct 25 17:10:08 2020","The main experiment item","yes","SternbergTask.osexp","/Users/tforestmoore/Desktop/Tarleton/Fall 2020/Math/Lab3","no","mono","no","18","no","white","no","yes","768","legacy","82","11","/Users/tforestmoore/Desktop/Tarleton/Fall 2020/Math/Lab3/AM-subject-2.csv","legacy","9 3 1 2 5","Lentiform Loewenfeld","3.3.3","4","y","0","right","right","right","right","NA","419","13722","8791","419","NA","2","legacy","5","1024","2","48000","-16","experiment","2","even","2","585953","588189","578704","585937","2591","98105","584869","2610","89314","586970","590206","590626","16341","590206","NA","Sternberg Task","86","57683","95","yes","1024"
"90.625","90.625","610.0208333333334","610.0208333333334","black","experiment","legacy","legacy","legacy","0","uniform","1","undefined","1","right","95","95","95","95","0","0","95","0","0","95","95","95","0","95","0","Sun Oct 25 17:10:08 2020","The main experiment item","yes","SternbergTask.osexp","/Users/tforestmoore/Desktop/Tarleton/Fall 2020/Math/Lab3","no","mono","no","18","no","white","no","yes","768","legacy","83","11","/Users/tforestmoore/Desktop/Tarleton/Fall 2020/Math/Lab3/AM-subject-2.csv","legacy","2 8 6 3 1","Lentiform Loewenfeld","3.3.3","0","n","0","right","right","right","right","NA","879","13722","8791","879","NA","2","legacy","5","1024","2","48000","-16","experiment","2","even","7","591728","593966","578704","591712","2591","98105","590642","2610","89314","592745","595984","596864","16341","595984","NA","Sternberg Task","87","58562","96","yes","1024"
"90.72164948453609","90.72164948453609","608.7628865979382","608.7628865979382","black","experiment","legacy","legacy","legacy","0","uniform","1","undefined","1","right","96","96","96","96","0","0","96","0","0","96","96","96","0","96","0","Sun Oct 25 17:10:08 2020","The main experiment item","yes","SternbergTask.osexp","/Users/tforestmoore/Desktop/Tarleton/Fall 2020/Math/Lab3","no","mono","no","18","no","white","no","yes","768","legacy","84","11","/Users/tforestmoore/Desktop/Tarleton/Fall 2020/Math/Lab3/AM-subject-2.csv","legacy","2 3 8 5 6 7","Lentiform Loewenfeld","3.3.3","0","n","0","right","right","right","right","NA","488","13722","8791","488","NA","2","legacy","6","1024","2","48000","-16","experiment","2","even","1","597965","600202","596880","597950","2591","98105","590642","2610","89314","598982","602219","602708","16341","602219","NA","Sternberg Task","88","59050","97","yes","1024"
"90.81632653061224","90.81632653061224","608.1734693877551","608.1734693877551","black","experiment","legacy","legacy","legacy","0","uniform","1","undefined","1","right","97","97","97","97","0","0","97","0","0","97","97","97","0","97","0","Sun Oct 25 17:10:08 2020","The main experiment item","yes","SternbergTask.osexp","/Users/tforestmoore/Desktop/Tarleton/Fall 2020/Math/Lab3","no","mono","no","18","no","white","no","yes","768","legacy","85","11","/Users/tforestmoore/Desktop/Tarleton/Fall 2020/Math/Lab3/AM-subject-2.csv","legacy","8 9","Lentiform Loewenfeld","3.3.3","0","n","0","right","right","right","right","NA","551","13722","8791","551","NA","2","legacy","2","1024","2","48000","-16","experiment","2","even","5","603809","606046","602725","603793","2591","98105","590642","2610","89314","604827","608063","608615","16341","608063","NA","Sternberg Task","89","59601","98","yes","1024"
"90.9090909090909","90.9090909090909","610.4949494949495","610.4949494949495","black","experiment","legacy","legacy","legacy","0","uniform","1","undefined","1","left","98","98","98","98","0","0","98","0","0","98","98","98","0","98","0","Sun Oct 25 17:10:08 2020","The main experiment item","yes","SternbergTask.osexp","/Users/tforestmoore/Desktop/Tarleton/Fall 2020/Math/Lab3","no","mono","no","18","no","white","no","yes","768","legacy","86","11","/Users/tforestmoore/Desktop/Tarleton/Fall 2020/Math/Lab3/AM-subject-2.csv","legacy","7 1 3","Lentiform Loewenfeld","3.3.3","2","y","0","left","right","right","left","NA","838","13722","8791","838","NA","2","legacy","3","1024","2","48000","-16","experiment","2","even","1","609716","611953","608631","609700","2591","98105","590642","2610","89314","610734","613970","614809","16341","613970","NA","Sternberg Task","90","60439","99","yes","1024"
"91","91","611.69","611.69","black","experiment","legacy","legacy","legacy","0","uniform","1","undefined","1","left","99","99","99","99","0","0","99","0","0","99","99","99","0","99","0","Sun Oct 25 17:10:08 2020","The main experiment item","yes","SternbergTask.osexp","/Users/tforestmoore/Desktop/Tarleton/Fall 2020/Math/Lab3","no","mono","no","18","no","white","no","yes","768","legacy","87","11","/Users/tforestmoore/Desktop/Tarleton/Fall 2020/Math/Lab3/AM-subject-2.csv","legacy","6 8 9 3 4 9","Lentiform Loewenfeld","3.3.3","5","y","0","left","right","right","left","NA","730","13722","8791","730","NA","2","legacy","6","1024","2","48000","-16","experiment","2","even","4","615910","618146","614826","615894","2591","98105","590642","2610","89314","616927","620164","620895","16341","620164","NA","Sternberg Task","91","61169","100","yes","1024"
"91.08910891089108","91.08910891089108","612.1782178217821","612.1782178217821","black","experiment","legacy","legacy","legacy","0","uniform","1","undefined","1","left","100","100","100","100","0","0","100","0","0","100","100","100","0","100","0","Sun Oct 25 17:10:08 2020","The main experiment item","yes","SternbergTask.osexp","/Users/tforestmoore/Desktop/Tarleton/Fall 2020/Math/Lab3","no","mono","no","18","no","white","no","yes","768","legacy","88","11","/Users/tforestmoore/Desktop/Tarleton/Fall 2020/Math/Lab3/AM-subject-2.csv","legacy","7 8 4 6 9 5","Lentiform Loewenfeld","3.3.3","4","y","0","left","right","right","left","NA","661","13722","8791","661","NA","2","legacy","6","1024","2","48000","-16","experiment","2","even","6","621985","624217","620911","621971","2591","98105","590642","2610","89314","623000","626231","626893","16341","626231","NA","Sternberg Task","92","61830","101","yes","1024"
"91.17647058823529","91.17647058823529","610.8039215686274","610.8039215686274","black","experiment","legacy","legacy","legacy","0","uniform","1","undefined","1","left","101","101","101","101","0","0","101","0","0","101","101","101","0","101","0","Sun Oct 25 17:10:08 2020","The main experiment item","yes","SternbergTask.osexp","/Users/tforestmoore/Desktop/Tarleton/Fall 2020/Math/Lab3","no","mono","no","18","no","white","no","yes","768","legacy","89","11","/Users/tforestmoore/Desktop/Tarleton/Fall 2020/Math/Lab3/AM-subject-2.csv","legacy","7 6","Lentiform Loewenfeld","3.3.3","2","y","0","left","right","right","left","NA","472","13722","8791","472","NA","2","legacy","2","1024","2","48000","-16","experiment","2","even","6","627980","630212","626909","627966","2591","98105","590642","2610","89314","628995","632228","632701","16341","632228","NA","Sternberg Task","93","62302","102","yes","1024"
"91.2621359223301","91.2621359223301","610.0097087378641","610.0097087378641","black","experiment","legacy","legacy","legacy","0","uniform","1","undefined","1","left","102","102","102","102","0","0","102","0","0","102","102","102","0","102","0","Sun Oct 25 17:10:08 2020","The main experiment item","yes","SternbergTask.osexp","/Users/tforestmoore/Desktop/Tarleton/Fall 2020/Math/Lab3","no","mono","no","18","no","white","no","yes","768","legacy","90","11","/Users/tforestmoore/Desktop/Tarleton/Fall 2020/Math/Lab3/AM-subject-2.csv","legacy","4 1 5","Lentiform Loewenfeld","3.3.3","2","y","0","left","right","right","left","NA","529","13722","8791","529","NA","2","legacy","3","1024","2","48000","-16","experiment","2","even","1","633792","636023","632717","633776","2591","98105","590642","2610","89314","634807","638037","638567","16341","638037","NA","Sternberg Task","94","62831","103","yes","1024"
"91.34615384615384","91.34615384615384","608.8653846153846","608.8653846153846","black","experiment","legacy","legacy","legacy","0","uniform","1","undefined","1","left","103","103","103","103","0","0","103","0","0","103","103","103","0","103","0","Sun Oct 25 17:10:08 2020","The main experiment item","yes","SternbergTask.osexp","/Users/tforestmoore/Desktop/Tarleton/Fall 2020/Math/Lab3","no","mono","no","18","no","white","no","yes","768","legacy","91","11","/Users/tforestmoore/Desktop/Tarleton/Fall 2020/Math/Lab3/AM-subject-2.csv","legacy","3 5 7 1","Lentiform Loewenfeld","3.3.3","3","y","0","left","right","right","left","NA","491","13722","8791","491","NA","2","legacy","4","1024","2","48000","-16","experiment","2","even","7","639654","641887","638584","639640","2591","98105","590642","2610","89314","640669","643901","644394","16341","643901","NA","Sternberg Task","95","63322","104","yes","1024"
"91.42857142857143","91.42857142857143","612.3619047619047","612.3619047619047","black","experiment","legacy","legacy","legacy","0","uniform","1","undefined","1","right","104","104","104","104","0","0","104","0","0","104","104","104","0","104","0","Sun Oct 25 17:10:08 2020","The main experiment item","yes","SternbergTask.osexp","/Users/tforestmoore/Desktop/Tarleton/Fall 2020/Math/Lab3","no","mono","no","18","no","white","no","yes","768","legacy","92","11","/Users/tforestmoore/Desktop/Tarleton/Fall 2020/Math/Lab3/AM-subject-2.csv","legacy","7 1 8 4 9 3","Lentiform Loewenfeld","3.3.3","0","n","0","right","right","right","right","NA","976","13722","8791","976","NA","2","legacy","6","1024","2","48000","-16","experiment","2","even","6","645482","647715","644410","645468","2591","98105","590642","2610","89314","646497","649729","650707","16341","649729","NA","Sternberg Task","96","64298","105","yes","1024"
"90.56603773584905","90.56603773584905","612.3018867924528","612.3018867924528","black","experiment","legacy","legacy","legacy","0","uniform","0","undefined","0","right","105","105","105","105","0","0","105","0","0","105","105","105","0","105","0","Sun Oct 25 17:10:08 2020","The main experiment item","yes","SternbergTask.osexp","/Users/tforestmoore/Desktop/Tarleton/Fall 2020/Math/Lab3","no","mono","no","18","no","white","no","yes","768","legacy","93","11","/Users/tforestmoore/Desktop/Tarleton/Fall 2020/Math/Lab3/AM-subject-2.csv","legacy","2 8 7 9 5 3","Lentiform Loewenfeld","3.3.3","0","n","0","left","right","right","left","NA","606","13722","8791","606","NA","2","legacy","6","1024","2","48000","-16","experiment","2","even","6","651794","654025","650723","651780","2591","98105","590642","2610","89314","652809","656039","656646","16341","656039","NA","Sternberg Task","96","64904","106","yes","1024"
"90.65420560747664","90.65420560747664","611.1869158878504","611.1869158878504","black","experiment","legacy","legacy","legacy","0","uniform","1","undefined","1","right","106","106","106","106","0","0","106","0","0","106","106","106","0","106","0","Sun Oct 25 17:10:08 2020","The main experiment item","yes","SternbergTask.osexp","/Users/tforestmoore/Desktop/Tarleton/Fall 2020/Math/Lab3","no","mono","no","18","no","white","no","yes","768","legacy","94","11","/Users/tforestmoore/Desktop/Tarleton/Fall 2020/Math/Lab3/AM-subject-2.csv","legacy","1","Lentiform Loewenfeld","3.3.3","0","n","0","right","right","right","right","NA","493","13722","8791","493","NA","2","legacy","1","1024","2","48000","-16","experiment","2","even","7","657733","659964","650723","657719","2591","98105","656662","2610","89314","658747","661979","662473","16341","661979","NA","Sternberg Task","97","65397","107","yes","1024"
"90.74074074074075","90.74074074074075","610.3055555555555","610.3055555555555","black","experiment","legacy","legacy","legacy","0","uniform","1","undefined","1","left","107","107","107","107","0","0","107","0","0","107","107","107","0","107","0","Sun Oct 25 17:10:08 2020","The main experiment item","yes","SternbergTask.osexp","/Users/tforestmoore/Desktop/Tarleton/Fall 2020/Math/Lab3","no","mono","no","18","no","white","no","yes","768","legacy","95","11","/Users/tforestmoore/Desktop/Tarleton/Fall 2020/Math/Lab3/AM-subject-2.csv","legacy","2 5 4 8 7","Lentiform Loewenfeld","3.3.3","3","y","0","left","right","right","left","NA","516","13722","8791","516","NA","2","legacy","5","1024","2","48000","-16","experiment","2","even","4","663560","665792","662490","663547","2591","98105","656662","2610","89314","664575","667806","668323","16341","667806","NA","Sternberg Task","98","65913","108","yes","1024"
"89.90825688073394","89.90825688073394","611.7981651376147","611.7981651376147","black","experiment","legacy","legacy","legacy","0","uniform","0","undefined","0","right","108","108","108","108","0","0","108","0","0","108","108","108","0","108","0","Sun Oct 25 17:10:08 2020","The main experiment item","yes","SternbergTask.osexp","/Users/tforestmoore/Desktop/Tarleton/Fall 2020/Math/Lab3","no","mono","no","18","no","white","no","yes","768","legacy","96","11","/Users/tforestmoore/Desktop/Tarleton/Fall 2020/Math/Lab3/AM-subject-2.csv","legacy","5 3 2 6 9 8","Lentiform Loewenfeld","3.3.3","0","n","0","left","right","right","left","NA","773","13722","8791","773","NA","2","legacy","6","1024","2","48000","-16","experiment","2","even","4","669409","671641","668339","669395","2591","98105","656662","2610","89314","670424","673655","674429","16341","673655","NA","Sternberg Task","98","66686","109","yes","1024"
"90","90","612.1090909090909","612.1090909090909","black","experiment","legacy","legacy","legacy","0","uniform","1","undefined","1","left","109","109","109","109","0","0","109","0","0","109","109","109","0","109","0","Sun Oct 25 17:10:08 2020","The main experiment item","yes","SternbergTask.osexp","/Users/tforestmoore/Desktop/Tarleton/Fall 2020/Math/Lab3","no","mono","no","18","no","white","no","yes","768","legacy","97","11","/Users/tforestmoore/Desktop/Tarleton/Fall 2020/Math/Lab3/AM-subject-2.csv","legacy","7 2 3","Lentiform Loewenfeld","3.3.3","3","y","0","left","right","right","left","NA","646","13722","8791","646","NA","2","legacy","3","1024","2","48000","-16","experiment","2","even","3","675516","677748","668339","675502","2591","98105","674446","2610","89314","676531","679762","680409","16341","679762","NA","Sternberg Task","99","67332","110","yes","1024"
"90.09009009009009","90.09009009009009","613.1531531531532","613.1531531531532","black","experiment","legacy","legacy","legacy","0","uniform","1","undefined","1","left","110","110","110","110","0","0","110","0","0","110","110","110","0","110","0","Sun Oct 25 17:10:08 2020","The main experiment item","yes","SternbergTask.osexp","/Users/tforestmoore/Desktop/Tarleton/Fall 2020/Math/Lab3","no","mono","no","18","no","white","no","yes","768","legacy","98","11","/Users/tforestmoore/Desktop/Tarleton/Fall 2020/Math/Lab3/AM-subject-2.csv","legacy","7 4 2 6 3 5","Lentiform Loewenfeld","3.3.3","6","y","0","left","right","right","left","NA","728","13722","8791","728","NA","2","legacy","6","1024","2","48000","-16","experiment","2","even","5","681497","683727","680425","681483","2591","98105","674446","2610","89314","682511","685741","686470","16341","685741","NA","Sternberg Task","100","68060","111","yes","1024"
