"acc","accuracy","average_response_time","avg_rt","background","block","canvas_backend","clock_backend","color_backend","compensation","coordinates","correct","correct_instruction1","correct_keyboard_response","correct_response","count_ISI","count_correctFeedback","count_expSequence","count_experiment","count_experimentLoop","count_fixation","count_incorrectFeedback","count_instruction1","count_instructions2","count_keyboard_response","count_logger","count_memorySet","count_practiceLoop","count_probe","count_thankYou","datetime","description","disable_garbage_collection","experiment_file","experiment_path","font_bold","font_family","font_italic","font_size","font_underline","foreground","form_clicks","fullscreen","height","keyboard_backend","live_row","live_row_practiceLoop","logfile","mouse_backend","numberSet","opensesame_codename","opensesame_version","posInSet","present","repeat_cycle","response","response_instruction1","response_instructions2","response_keyboard_response","response_thankYou","response_time","response_time_instruction1","response_time_instructions2","response_time_keyboard_response","response_time_thankYou","round_decimals","sampler_backend","setSize","sound_buf_size","sound_channels","sound_freq","sound_sample_size","start","subject_nr","subject_parity","target","time_ISI","time_correctFeedback","time_expSequence","time_experiment","time_experimentLoop","time_fixation","time_incorrectFeedback","time_instruction1","time_instructions2","time_keyboard_response","time_logger","time_memorySet","time_practiceLoop","time_probe","time_thankYou","title","total_correct","total_response_time","total_responses","uniform_coordinates","width"
"0","0","740","740","black","practice","legacy","legacy","legacy","0","uniform","0","undefined","0","left","0","0","0","0","0","0","0","0","0","0","0","0","0","0","0","Sun Oct 24 20:32:48 2021","The main experiment item","yes","Sternbergtask.osexp","C:\Users\19565\Desktop","no","mono","no","18","no","white","no","yes","768","legacy","0","0","C:/Users/19565/Desktop/Lab 3/MR-subject-2.csv","legacy","2 9 4","Lentiform Loewenfeld","3.3.9","3","y","0","right","right","NA","right","NA","740","45396","NA","740","NA","2","legacy","3","1024","2","48000","-16","experiment","2","even","4","52553","NA","50346","3687","NA","50349","NA","3693","NA","54557","55298","51351","49091","54557","NA","Sternberg task","0","740","1","yes","1024"
"50","50","698.5","698.5","black","practice","legacy","legacy","legacy","0","uniform","1","undefined","1","left","1","1","1","0","0","1","1","0","0","1","1","1","0","1","0","Sun Oct 24 20:32:48 2021","The main experiment item","yes","Sternbergtask.osexp","C:\Users\19565\Desktop","no","mono","no","18","no","white","no","yes","768","legacy","1","1","C:/Users/19565/Desktop/Lab 3/MR-subject-2.csv","legacy","1 5 2 9","Lentiform Loewenfeld","3.3.9","2","y","0","left","right","NA","left","NA","657","45396","NA","657","NA","2","legacy","4","1024","2","48000","-16","experiment","2","even","5","58721","NA","56513","3687","NA","56517","55362","3693","NA","60724","61381","57519","49091","60724","NA","Sternberg task","1","1397","2","yes","1024"
"66.66666666666667","66.66666666666667","734","734","black","practice","legacy","legacy","legacy","0","uniform","1","undefined","1","right","2","2","2","0","0","2","2","0","0","2","2","2","0","2","0","Sun Oct 24 20:32:48 2021","The main experiment item","yes","Sternbergtask.osexp","C:\Users\19565\Desktop","no","mono","no","18","no","white","no","yes","768","legacy","2","2","C:/Users/19565/Desktop/Lab 3/MR-subject-2.csv","legacy","5 7 8 4 1 2","Lentiform Loewenfeld","3.3.9","0","n","0","right","right","NA","right","NA","805","45396","NA","805","NA","2","legacy","6","1024","2","48000","-16","experiment","2","even","6","64776","61386","62568","3687","NA","62570","55362","3693","NA","66779","67584","63573","49091","66779","NA","Sternberg task","2","2202","3","yes","1024"
"50","50","907.25","907.25","black","practice","legacy","legacy","legacy","0","uniform","0","undefined","0","right","3","3","3","0","0","3","3","0","0","3","3","3","0","3","0","Sun Oct 24 20:32:48 2021","The main experiment item","yes","Sternbergtask.osexp","C:\Users\19565\Desktop","no","mono","no","18","no","white","no","yes","768","legacy","3","3","C:/Users/19565/Desktop/Lab 3/MR-subject-2.csv","legacy","3 1 9 4","Lentiform Loewenfeld","3.3.9","0","n","0","left","right","NA","left","NA","1427","45396","NA","1427","NA","2","legacy","4","1024","2","48000","-16","experiment","2","even","6","70928","67590","68719","3687","NA","68722","55362","3693","NA","72930","74358","69725","49091","72930","NA","Sternberg task","2","3629","4","yes","1024"
"40","40","1125.8","1125.8","black","practice","legacy","legacy","legacy","0","uniform","0","undefined","0","right","4","4","4","0","0","4","4","0","0","4","4","4","0","4","0","Sun Oct 24 20:32:48 2021","The main experiment item","yes","Sternbergtask.osexp","C:\Users\19565\Desktop","no","mono","no","18","no","white","no","yes","768","legacy","4","4","C:/Users/19565/Desktop/Lab 3/MR-subject-2.csv","legacy","5","Lentiform Loewenfeld","3.3.9","0","n","0","None","right","NA","None","NA","2000","45396","NA","2000","NA","2","legacy","1","1024","2","48000","-16","experiment","2","even","3","77706","67590","75498","3687","NA","75500","74364","3693","NA","79708","81708","76503","49091","79708","NA","Sternberg task","2","5629","5","yes","1024"
"33.333333333333336","33.333333333333336","1203.3333333333333","1203.3333333333333","black","practice","legacy","legacy","legacy","0","uniform","0","undefined","0","left","5","5","5","0","0","5","5","0","0","5","5","5","0","5","0","Sun Oct 24 20:32:48 2021","The main experiment item","yes","Sternbergtask.osexp","C:\Users\19565\Desktop","no","mono","no","18","no","white","no","yes","768","legacy","5","5","C:/Users/19565/Desktop/Lab 3/MR-subject-2.csv","legacy","4 3 1 7 9 8","Lentiform Loewenfeld","3.3.9","1","y","0","right","right","NA","right","NA","1591","45396","NA","1591","NA","2","legacy","6","1024","2","48000","-16","experiment","2","even","4","85060","67590","82853","3687","NA","82855","81713","3693","NA","87063","88654","83857","49091","87062","NA","Sternberg task","2","7220","6","yes","1024"
"42.857142857142854","42.857142857142854","1110.857142857143","1110.857142857143","black","practice","legacy","legacy","legacy","0","uniform","1","undefined","1","left","6","6","6","0","0","6","6","0","0","6","6","6","0","6","0","Sun Oct 24 20:32:48 2021","The main experiment item","yes","Sternbergtask.osexp","C:\Users\19565\Desktop","no","mono","no","18","no","white","no","yes","768","legacy","6","6","C:/Users/19565/Desktop/Lab 3/MR-subject-2.csv","legacy","6","Lentiform Loewenfeld","3.3.9","1","y","0","left","right","NA","left","NA","556","45396","NA","556","NA","2","legacy","1","1024","2","48000","-16","experiment","2","even","6","91996","67590","89790","3687","NA","89792","88659","3693","NA","93999","94556","90794","49091","93999","NA","Sternberg task","3","7776","7","yes","1024"
"50","50","1081.875","1081.875","black","practice","legacy","legacy","legacy","0","uniform","1","undefined","1","right","7","7","7","0","0","7","7","0","0","7","7","7","0","7","0","Sun Oct 24 20:32:48 2021","The main experiment item","yes","Sternbergtask.osexp","C:\Users\19565\Desktop","no","mono","no","18","no","white","no","yes","768","legacy","7","7","C:/Users/19565/Desktop/Lab 3/MR-subject-2.csv","legacy","2 1","Lentiform Loewenfeld","3.3.9","0","n","0","right","right","NA","right","NA","879","45396","NA","879","NA","2","legacy","2","1024","2","48000","-16","experiment","2","even","5","97922","94567","95715","3687","NA","95716","88659","3693","NA","99928","100808","96720","49091","99927","NA","Sternberg task","4","8655","8","yes","1024"
"55.55555555555556","55.55555555555556","1027.5555555555557","1027.5555555555557","black","practice","legacy","legacy","legacy","0","uniform","1","undefined","1","left","8","8","8","0","0","8","8","0","0","8","8","8","0","8","0","Sun Oct 24 20:32:48 2021","The main experiment item","yes","Sternbergtask.osexp","C:\Users\19565\Desktop","no","mono","no","18","no","white","no","yes","768","legacy","8","8","C:/Users/19565/Desktop/Lab 3/MR-subject-2.csv","legacy","4 8","Lentiform Loewenfeld","3.3.9","1","y","0","left","right","NA","left","NA","593","45396","NA","593","NA","2","legacy","2","1024","2","48000","-16","experiment","2","even","4","104153","100813","101941","3687","NA","101944","88659","3693","NA","106160","106753","102948","49091","106159","NA","Sternberg task","5","9248","9","yes","1024"
"60","60","1009.6","1009.6","black","practice","legacy","legacy","legacy","0","uniform","1","undefined","1","right","9","9","9","0","0","9","9","0","0","9","9","9","0","9","0","Sun Oct 24 20:32:48 2021","The main experiment item","yes","Sternbergtask.osexp","C:\Users\19565\Desktop","no","mono","no","18","no","white","no","yes","768","legacy","9","9","C:/Users/19565/Desktop/Lab 3/MR-subject-2.csv","legacy","4 1 5","Lentiform Loewenfeld","3.3.9","0","n","0","right","right","NA","right","NA","848","45396","NA","848","NA","2","legacy","3","1024","2","48000","-16","experiment","2","even","2","110111","106759","107901","3687","NA","107904","88659","3693","NA","112113","112962","108907","49091","112113","NA","Sternberg task","6","10096","10","yes","1024"
"63.63636363636363","63.63636363636363","1002.5454545454545","1002.5454545454545","black","practice","legacy","legacy","legacy","0","uniform","1","undefined","1","right","10","10","10","0","0","10","10","0","0","10","10","10","0","10","0","Sun Oct 24 20:32:48 2021","The main experiment item","yes","Sternbergtask.osexp","C:\Users\19565\Desktop","no","mono","no","18","no","white","no","yes","768","legacy","10","10","C:/Users/19565/Desktop/Lab 3/MR-subject-2.csv","legacy","9 6 7 4 5","Lentiform Loewenfeld","3.3.9","0","n","0","right","right","NA","right","NA","932","45396","NA","932","NA","2","legacy","5","1024","2","48000","-16","experiment","2","even","3","116333","112978","114124","3687","NA","114127","88659","3693","NA","118335","119267","115130","49091","118335","NA","Sternberg task","7","11028","11","yes","1024"
"66.66666666666667","66.66666666666667","1007.9166666666666","1007.9166666666666","black","practice","legacy","legacy","legacy","0","uniform","1","undefined","1","left","11","11","11","0","0","11","11","0","0","11","11","11","0","11","0","Sun Oct 24 20:32:48 2021","The main experiment item","yes","Sternbergtask.osexp","C:\Users\19565\Desktop","no","mono","no","18","no","white","no","yes","768","legacy","11","11","C:/Users/19565/Desktop/Lab 3/MR-subject-2.csv","legacy","1 7 9 8 5","Lentiform Loewenfeld","3.3.9","4","y","0","left","right","NA","left","NA","1067","45396","NA","1067","NA","2","legacy","5","1024","2","48000","-16","experiment","2","even","8","122609","119275","120403","3687","NA","120406","88659","3693","NA","124611","125678","121407","49091","124611","NA","Sternberg task","8","12095","12","yes","1024"
"69.23076923076923","69.23076923076923","1020.6923076923077","1020.6923076923077","black","experiment","legacy","legacy","legacy","0","uniform","1","undefined","1","right","12","12","12","0","0","12","12","0","0","12","12","12","0","12","0","Sun Oct 24 20:32:48 2021","The main experiment item","yes","Sternbergtask.osexp","C:\Users\19565\Desktop","no","mono","no","18","no","white","no","yes","768","legacy","0","11","C:/Users/19565/Desktop/Lab 3/MR-subject-2.csv","legacy","1 8 7","Lentiform Loewenfeld","3.3.9","0","n","0","right","right","right","right","NA","1174","45396","6350","1174","NA","2","legacy","3","1024","2","48000","-16","experiment","2","even","4","135423","125683","133215","3687","133088","133217","88659","3693","126737","137429","138604","134219","49091","137429","NA","Sternberg task","9","13269","13","yes","1024"
"71.42857142857143","71.42857142857143","1008.5714285714286","1008.5714285714286","black","experiment","legacy","legacy","legacy","0","uniform","1","undefined","1","right","13","13","13","0","0","13","13","0","0","13","13","13","0","13","0","Sun Oct 24 20:32:48 2021","The main experiment item","yes","Sternbergtask.osexp","C:\Users\19565\Desktop","no","mono","no","18","no","white","no","yes","768","legacy","1","11","C:/Users/19565/Desktop/Lab 3/MR-subject-2.csv","legacy","5","Lentiform Loewenfeld","3.3.9","0","n","0","right","right","right","right","NA","851","45396","6350","851","NA","2","legacy","1","1024","2","48000","-16","experiment","2","even","8","141955","138610","139743","3687","133088","139745","88659","3693","126737","143957","144809","140750","49091","143957","NA","Sternberg task","10","14120","14","yes","1024"
"73.33333333333333","73.33333333333333","1016.4666666666667","1016.4666666666667","black","experiment","legacy","legacy","legacy","0","uniform","1","undefined","1","left","14","14","14","0","0","14","14","0","0","14","14","14","0","14","0","Sun Oct 24 20:32:48 2021","The main experiment item","yes","Sternbergtask.osexp","C:\Users\19565\Desktop","no","mono","no","18","no","white","no","yes","768","legacy","2","11","C:/Users/19565/Desktop/Lab 3/MR-subject-2.csv","legacy","8 1 6","Lentiform Loewenfeld","3.3.9","3","y","0","left","right","right","left","NA","1127","45396","6350","1127","NA","2","legacy","3","1024","2","48000","-16","experiment","2","even","6","148270","144815","146058","3687","133088","146062","88659","3693","126737","150273","151400","147065","49091","150273","NA","Sternberg task","11","15247","15","yes","1024"
"75","75","997.875","997.875","black","experiment","legacy","legacy","legacy","0","uniform","1","undefined","1","left","15","15","15","0","0","15","15","0","0","15","15","15","0","15","0","Sun Oct 24 20:32:48 2021","The main experiment item","yes","Sternbergtask.osexp","C:\Users\19565\Desktop","no","mono","no","18","no","white","no","yes","768","legacy","3","11","C:/Users/19565/Desktop/Lab 3/MR-subject-2.csv","legacy","3 4","Lentiform Loewenfeld","3.3.9","1","y","0","left","right","right","left","NA","719","45396","6350","719","NA","2","legacy","2","1024","2","48000","-16","experiment","2","even","3","154835","151409","152623","3687","133088","152625","88659","3693","126737","156839","157558","153629","49091","156839","NA","Sternberg task","12","15966","16","yes","1024"
"76.47058823529412","76.47058823529412","1014.7058823529412","1014.7058823529412","black","experiment","legacy","legacy","legacy","0","uniform","1","undefined","1","right","16","16","16","0","0","16","16","0","0","16","16","16","0","16","0","Sun Oct 24 20:32:48 2021","The main experiment item","yes","Sternbergtask.osexp","C:\Users\19565\Desktop","no","mono","no","18","no","white","no","yes","768","legacy","4","11","C:/Users/19565/Desktop/Lab 3/MR-subject-2.csv","legacy","4 2 6 9","Lentiform Loewenfeld","3.3.9","0","n","0","right","right","right","right","NA","1284","45396","6350","1284","NA","2","legacy","4","1024","2","48000","-16","experiment","2","even","7","160924","157566","158712","3687","133088","158714","88659","3693","126737","162929","164213","159719","49091","162928","NA","Sternberg task","13","17250","17","yes","1024"
"77.77777777777777","77.77777777777777","1008.7222222222222","1008.7222222222222","black","experiment","legacy","legacy","legacy","0","uniform","1","undefined","1","left","17","17","17","0","0","17","17","0","0","17","17","17","0","17","0","Sun Oct 24 20:32:48 2021","The main experiment item","yes","Sternbergtask.osexp","C:\Users\19565\Desktop","no","mono","no","18","no","white","no","yes","768","legacy","5","11","C:/Users/19565/Desktop/Lab 3/MR-subject-2.csv","legacy","5 7 3 6 2","Lentiform Loewenfeld","3.3.9","5","y","0","left","right","right","left","NA","907","45396","6350","907","NA","2","legacy","5","1024","2","48000","-16","experiment","2","even","2","167658","164221","165446","3687","133088","165449","88659","3693","126737","169662","170570","166453","49091","169662","NA","Sternberg task","14","18157","18","yes","1024"
"78.94736842105263","78.94736842105263","1010","1010","black","experiment","legacy","legacy","legacy","0","uniform","1","undefined","1","left","18","18","18","0","0","18","18","0","0","18","18","18","0","18","0","Sun Oct 24 20:32:48 2021","The main experiment item","yes","Sternbergtask.osexp","C:\Users\19565\Desktop","no","mono","no","18","no","white","no","yes","768","legacy","6","11","C:/Users/19565/Desktop/Lab 3/MR-subject-2.csv","legacy","3 9 6 2","Lentiform Loewenfeld","3.3.9","4","y","0","left","right","right","left","NA","1033","45396","6350","1033","NA","2","legacy","4","1024","2","48000","-16","experiment","2","even","2","173975","170579","171763","3687","133088","171765","88659","3693","126737","175979","177013","172769","49091","175979","NA","Sternberg task","15","19190","19","yes","1024"
"80","80","993.35","993.35","black","experiment","legacy","legacy","legacy","0","uniform","1","undefined","1","right","19","19","19","0","0","19","19","0","0","19","19","19","0","19","0","Sun Oct 24 20:32:48 2021","The main experiment item","yes","Sternbergtask.osexp","C:\Users\19565\Desktop","no","mono","no","18","no","white","no","yes","768","legacy","7","11","C:/Users/19565/Desktop/Lab 3/MR-subject-2.csv","legacy","9","Lentiform Loewenfeld","3.3.9","0","n","0","right","right","right","right","NA","677","45396","6350","677","NA","2","legacy","1","1024","2","48000","-16","experiment","2","even","6","180398","177022","178184","3687","133088","178188","88659","3693","126737","182402","183080","179193","49091","182402","NA","Sternberg task","16","19867","20","yes","1024"
"80.95238095238095","80.95238095238095","1018.952380952381","1018.952380952381","black","experiment","legacy","legacy","legacy","0","uniform","1","undefined","1","right","20","20","20","0","0","20","20","0","0","20","20","20","0","20","0","Sun Oct 24 20:32:48 2021","The main experiment item","yes","Sternbergtask.osexp","C:\Users\19565\Desktop","no","mono","no","18","no","white","no","yes","768","legacy","8","11","C:/Users/19565/Desktop/Lab 3/MR-subject-2.csv","legacy","8 4 3 9","Lentiform Loewenfeld","3.3.9","0","n","0","right","right","right","right","NA","1531","45396","6350","1531","NA","2","legacy","4","1024","2","48000","-16","experiment","2","even","5","186474","183087","184263","3687","133088","184265","88659","3693","126737","188478","190010","185269","49091","188478","NA","Sternberg task","17","21398","21","yes","1024"
"81.81818181818181","81.81818181818181","1016.9545454545455","1016.9545454545455","black","experiment","legacy","legacy","legacy","0","uniform","1","undefined","1","right","21","21","21","0","0","21","21","0","0","21","21","21","0","21","0","Sun Oct 24 20:32:48 2021","The main experiment item","yes","Sternbergtask.osexp","C:\Users\19565\Desktop","no","mono","no","18","no","white","no","yes","768","legacy","9","11","C:/Users/19565/Desktop/Lab 3/MR-subject-2.csv","legacy","7 9","Lentiform Loewenfeld","3.3.9","0","n","0","right","right","right","right","NA","975","45396","6350","975","NA","2","legacy","2","1024","2","48000","-16","experiment","2","even","1","193373","190015","191160","3687","133088","191165","88659","3693","126737","195378","196353","192169","49091","195378","NA","Sternberg task","18","22373","22","yes","1024"
"78.26086956521739","78.26086956521739","1039.0434782608695","1039.0434782608695","black","experiment","legacy","legacy","legacy","0","uniform","0","undefined","0","left","22","22","22","0","0","22","22","0","0","22","22","22","0","22","0","Sun Oct 24 20:32:48 2021","The main experiment item","yes","Sternbergtask.osexp","C:\Users\19565\Desktop","no","mono","no","18","no","white","no","yes","768","legacy","10","11","C:/Users/19565/Desktop/Lab 3/MR-subject-2.csv","legacy","1 4 9 3 2 5","Lentiform Loewenfeld","3.3.9","3","y","0","right","right","right","right","NA","1525","45396","6350","1525","NA","2","legacy","6","1024","2","48000","-16","experiment","2","even","9","199800","196360","197589","3687","133088","197591","88659","3693","126737","201804","203330","198596","49091","201804","NA","Sternberg task","18","23898","23","yes","1024"
"79.16666666666667","79.16666666666667","1032.4166666666667","1032.4166666666667","black","experiment","legacy","legacy","legacy","0","uniform","1","undefined","1","right","23","23","23","0","0","23","23","0","0","23","23","23","0","23","0","Sun Oct 24 20:32:48 2021","The main experiment item","yes","Sternbergtask.osexp","C:\Users\19565\Desktop","no","mono","no","18","no","white","no","yes","768","legacy","11","11","C:/Users/19565/Desktop/Lab 3/MR-subject-2.csv","legacy","1 4 9 2 5","Lentiform Loewenfeld","3.3.9","0","n","0","right","right","right","right","NA","880","45396","6350","880","NA","2","legacy","5","1024","2","48000","-16","experiment","2","even","7","206779","196360","204567","3687","133088","204571","203338","3693","126737","208784","209664","205575","49091","208784","NA","Sternberg task","19","24778","24","yes","1024"
"80","80","1032.04","1032.04","black","experiment","legacy","legacy","legacy","0","uniform","1","undefined","1","right","24","24","24","0","0","24","24","0","0","24","24","24","0","24","0","Sun Oct 24 20:32:48 2021","The main experiment item","yes","Sternbergtask.osexp","C:\Users\19565\Desktop","no","mono","no","18","no","white","no","yes","768","legacy","12","11","C:/Users/19565/Desktop/Lab 3/MR-subject-2.csv","legacy","3 4 2","Lentiform Loewenfeld","3.3.9","0","n","0","right","right","right","right","NA","1023","45396","6350","1023","NA","2","legacy","3","1024","2","48000","-16","experiment","2","even","5","213017","209674","210804","3687","133088","210806","203338","3693","126737","215022","216046","211811","49091","215021","NA","Sternberg task","20","25801","25","yes","1024"
"80.76923076923077","80.76923076923077","1038.9615384615386","1038.9615384615386","black","experiment","legacy","legacy","legacy","0","uniform","1","undefined","1","left","25","25","25","0","0","25","25","0","0","25","25","25","0","25","0","Sun Oct 24 20:32:48 2021","The main experiment item","yes","Sternbergtask.osexp","C:\Users\19565\Desktop","no","mono","no","18","no","white","no","yes","768","legacy","13","11","C:/Users/19565/Desktop/Lab 3/MR-subject-2.csv","legacy","9 3 8 2 1 4","Lentiform Loewenfeld","3.3.9","3","y","0","left","right","right","left","NA","1212","45396","6350","1212","NA","2","legacy","6","1024","2","48000","-16","experiment","2","even","8","219507","216071","217293","3687","133088","217296","203338","3693","126737","221511","222725","218302","49091","221511","NA","Sternberg task","21","27013","26","yes","1024"
"81.48148148148148","81.48148148148148","1036.037037037037","1036.037037037037","black","experiment","legacy","legacy","legacy","0","uniform","1","undefined","1","left","26","26","26","0","0","26","26","0","0","26","26","26","0","26","0","Sun Oct 24 20:32:48 2021","The main experiment item","yes","Sternbergtask.osexp","C:\Users\19565\Desktop","no","mono","no","18","no","white","no","yes","768","legacy","14","11","C:/Users/19565/Desktop/Lab 3/MR-subject-2.csv","legacy","8 7 3","Lentiform Loewenfeld","3.3.9","1","y","0","left","right","right","left","NA","960","45396","6350","960","NA","2","legacy","3","1024","2","48000","-16","experiment","2","even","8","226149","222734","223938","3687","133088","223940","203338","3693","126737","228153","229114","224944","49091","228153","NA","Sternberg task","22","27973","27","yes","1024"
"82.14285714285714","82.14285714285714","1040.0714285714287","1040.0714285714287","black","experiment","legacy","legacy","legacy","0","uniform","1","undefined","1","right","27","27","27","0","0","27","27","0","0","27","27","27","0","27","0","Sun Oct 24 20:32:48 2021","The main experiment item","yes","Sternbergtask.osexp","C:\Users\19565\Desktop","no","mono","no","18","no","white","no","yes","768","legacy","15","11","C:/Users/19565/Desktop/Lab 3/MR-subject-2.csv","legacy","7 1","Lentiform Loewenfeld","3.3.9","0","n","0","right","right","right","right","NA","1149","45396","6350","1149","NA","2","legacy","2","1024","2","48000","-16","experiment","2","even","8","232570","229123","230358","3687","133088","230360","203338","3693","126737","234575","235725","231364","49091","234574","NA","Sternberg task","23","29122","28","yes","1024"
"82.75862068965517","82.75862068965517","1045.103448275862","1045.103448275862","black","experiment","legacy","legacy","legacy","0","uniform","1","undefined","1","right","28","28","28","0","0","28","28","0","0","28","28","28","0","28","0","Sun Oct 24 20:32:48 2021","The main experiment item","yes","Sternbergtask.osexp","C:\Users\19565\Desktop","no","mono","no","18","no","white","no","yes","768","legacy","16","11","C:/Users/19565/Desktop/Lab 3/MR-subject-2.csv","legacy","3 9 8 1 6 4","Lentiform Loewenfeld","3.3.9","0","n","0","right","right","right","right","NA","1186","45396","6350","1186","NA","2","legacy","6","1024","2","48000","-16","experiment","2","even","7","239102","235750","236890","3687","133088","236893","203338","3693","126737","241107","242293","237897","49091","241106","NA","Sternberg task","24","30308","29","yes","1024"
"83.33333333333333","83.33333333333333","1048.9333333333334","1048.9333333333334","black","experiment","legacy","legacy","legacy","0","uniform","1","undefined","1","left","29","29","29","0","0","29","29","0","0","29","29","29","0","29","0","Sun Oct 24 20:32:48 2021","The main experiment item","yes","Sternbergtask.osexp","C:\Users\19565\Desktop","no","mono","no","18","no","white","no","yes","768","legacy","17","11","C:/Users/19565/Desktop/Lab 3/MR-subject-2.csv","legacy","9 1 6 7 8","Lentiform Loewenfeld","3.3.9","1","y","0","left","right","right","left","NA","1160","45396","6350","1160","NA","2","legacy","5","1024","2","48000","-16","experiment","2","even","9","245717","242299","243505","3687","133088","243508","203338","3693","126737","247721","248882","244512","49091","247721","NA","Sternberg task","25","31468","30","yes","1024"
"83.87096774193549","83.87096774193549","1052.7096774193549","1052.7096774193549","black","experiment","legacy","legacy","legacy","0","uniform","1","undefined","1","right","30","30","30","0","0","30","30","0","0","30","30","30","0","30","0","Sun Oct 24 20:32:48 2021","The main experiment item","yes","Sternbergtask.osexp","C:\Users\19565\Desktop","no","mono","no","18","no","white","no","yes","768","legacy","18","11","C:/Users/19565/Desktop/Lab 3/MR-subject-2.csv","legacy","2 3 8 5 6 7","Lentiform Loewenfeld","3.3.9","0","n","0","right","right","right","right","NA","1166","45396","6350","1166","NA","2","legacy","6","1024","2","48000","-16","experiment","2","even","1","252350","248889","250142","3687","133088","250145","203338","3693","126737","254354","255520","251148","49091","254354","NA","Sternberg task","26","32634","31","yes","1024"
"84.375","84.375","1047.125","1047.125","black","experiment","legacy","legacy","legacy","0","uniform","1","undefined","1","right","31","31","31","0","0","31","31","0","0","31","31","31","0","31","0","Sun Oct 24 20:32:48 2021","The main experiment item","yes","Sternbergtask.osexp","C:\Users\19565\Desktop","no","mono","no","18","no","white","no","yes","768","legacy","19","11","C:/Users/19565/Desktop/Lab 3/MR-subject-2.csv","legacy","7 6 4 8 1 2","Lentiform Loewenfeld","3.3.9","0","n","0","right","right","right","right","NA","874","45396","6350","874","NA","2","legacy","6","1024","2","48000","-16","experiment","2","even","9","258891","255528","256681","3687","133088","256684","203338","3693","126737","260894","261769","257688","49091","260894","NA","Sternberg task","27","33508","32","yes","1024"
"81.81818181818181","81.81818181818181","1047.2424242424242","1047.2424242424242","black","experiment","legacy","legacy","legacy","0","uniform","0","undefined","0","left","32","32","32","0","0","32","32","0","0","32","32","32","0","32","0","Sun Oct 24 20:32:48 2021","The main experiment item","yes","Sternbergtask.osexp","C:\Users\19565\Desktop","no","mono","no","18","no","white","no","yes","768","legacy","20","11","C:/Users/19565/Desktop/Lab 3/MR-subject-2.csv","legacy","7 8 4 6 9 5","Lentiform Loewenfeld","3.3.9","4","y","0","right","right","right","right","NA","1051","45396","6350","1051","NA","2","legacy","6","1024","2","48000","-16","experiment","2","even","6","265107","261774","262899","3687","133088","262901","203338","3693","126737","267110","268161","263904","49091","267110","NA","Sternberg task","27","34559","33","yes","1024"
"82.3529411764706","82.3529411764706","1031.4411764705883","1031.4411764705883","black","experiment","legacy","legacy","legacy","0","uniform","1","undefined","1","left","33","33","33","0","0","33","33","0","0","33","33","33","0","33","0","Sun Oct 24 20:32:48 2021","The main experiment item","yes","Sternbergtask.osexp","C:\Users\19565\Desktop","no","mono","no","18","no","white","no","yes","768","legacy","21","11","C:/Users/19565/Desktop/Lab 3/MR-subject-2.csv","legacy","4","Lentiform Loewenfeld","3.3.9","1","y","0","left","right","right","left","NA","510","45396","6350","510","NA","2","legacy","1","1024","2","48000","-16","experiment","2","even","4","271530","261774","269322","3687","133088","269324","268167","3693","126737","273533","274044","270328","49091","273533","NA","Sternberg task","28","35069","34","yes","1024"
"82.85714285714286","82.85714285714286","1026.8","1026.8","black","experiment","legacy","legacy","legacy","0","uniform","1","undefined","1","left","34","34","34","0","0","34","34","0","0","34","34","34","0","34","0","Sun Oct 24 20:32:48 2021","The main experiment item","yes","Sternbergtask.osexp","C:\Users\19565\Desktop","no","mono","no","18","no","white","no","yes","768","legacy","22","11","C:/Users/19565/Desktop/Lab 3/MR-subject-2.csv","legacy","2 6 1 7 4","Lentiform Loewenfeld","3.3.9","2","y","0","left","right","right","left","NA","869","45396","6350","869","NA","2","legacy","5","1024","2","48000","-16","experiment","2","even","6","277406","274049","275197","3687","133088","275199","268167","3693","126737","279410","280280","276202","49091","279410","NA","Sternberg task","29","35938","35","yes","1024"
"80.55555555555556","80.55555555555556","1020.7222222222222","1020.7222222222222","black","experiment","legacy","legacy","legacy","0","uniform","0","undefined","0","left","35","35","35","0","0","35","35","0","0","35","35","35","0","35","0","Sun Oct 24 20:32:48 2021","The main experiment item","yes","Sternbergtask.osexp","C:\Users\19565\Desktop","no","mono","no","18","no","white","no","yes","768","legacy","23","11","C:/Users/19565/Desktop/Lab 3/MR-subject-2.csv","legacy","4 7 6 8 2 3","Lentiform Loewenfeld","3.3.9","6","y","0","right","right","right","right","NA","808","45396","6350","808","NA","2","legacy","6","1024","2","48000","-16","experiment","2","even","3","283646","280286","281434","3687","133088","281436","268167","3693","126737","285649","286458","282440","49091","285649","NA","Sternberg task","29","36746","36","yes","1024"
"78.37837837837837","78.37837837837837","1015.5135135135135","1015.5135135135135","black","experiment","legacy","legacy","legacy","0","uniform","0","undefined","0","right","36","36","36","0","0","36","36","0","0","36","36","36","0","36","0","Sun Oct 24 20:32:48 2021","The main experiment item","yes","Sternbergtask.osexp","C:\Users\19565\Desktop","no","mono","no","18","no","white","no","yes","768","legacy","24","11","C:/Users/19565/Desktop/Lab 3/MR-subject-2.csv","legacy","1 3 2 6 9","Lentiform Loewenfeld","3.3.9","0","n","0","left","right","right","left","NA","828","45396","6350","828","NA","2","legacy","5","1024","2","48000","-16","experiment","2","even","5","289831","280286","287618","3687","133088","287621","286463","3693","126737","291836","292664","288625","49091","291836","NA","Sternberg task","29","37574","37","yes","1024"
"78.94736842105263","78.94736842105263","1017.5","1017.5","black","experiment","legacy","legacy","legacy","0","uniform","1","undefined","1","right","37","37","37","0","0","37","37","0","0","37","37","37","0","37","0","Sun Oct 24 20:32:48 2021","The main experiment item","yes","Sternbergtask.osexp","C:\Users\19565\Desktop","no","mono","no","18","no","white","no","yes","768","legacy","25","11","C:/Users/19565/Desktop/Lab 3/MR-subject-2.csv","legacy","5 2","Lentiform Loewenfeld","3.3.9","0","n","0","right","right","right","right","NA","1091","45396","6350","1091","NA","2","legacy","2","1024","2","48000","-16","experiment","2","even","7","296002","280286","293791","3687","133088","293794","292670","3693","126737","298004","299096","294798","49091","298004","NA","Sternberg task","30","38665","38","yes","1024"
"79.48717948717949","79.48717948717949","1019.5384615384615","1019.5384615384615","black","experiment","legacy","legacy","legacy","0","uniform","1","undefined","1","left","38","38","38","0","0","38","38","0","0","38","38","38","0","38","0","Sun Oct 24 20:32:48 2021","The main experiment item","yes","Sternbergtask.osexp","C:\Users\19565\Desktop","no","mono","no","18","no","white","no","yes","768","legacy","26","11","C:/Users/19565/Desktop/Lab 3/MR-subject-2.csv","legacy","5 7 8 2 3 8","Lentiform Loewenfeld","3.3.9","5","y","0","left","right","right","left","NA","1097","45396","6350","1097","NA","2","legacy","6","1024","2","48000","-16","experiment","2","even","3","302533","299102","300319","3687","133088","300323","292670","3693","126737","304538","305636","301328","49091","304537","NA","Sternberg task","31","39762","39","yes","1024"
"80","80","1024.4","1024.4","black","experiment","legacy","legacy","legacy","0","uniform","1","undefined","1","left","39","39","39","0","0","39","39","0","0","39","39","39","0","39","0","Sun Oct 24 20:32:48 2021","The main experiment item","yes","Sternbergtask.osexp","C:\Users\19565\Desktop","no","mono","no","18","no","white","no","yes","768","legacy","27","11","C:/Users/19565/Desktop/Lab 3/MR-subject-2.csv","legacy","5 2 6","Lentiform Loewenfeld","3.3.9","2","y","0","left","right","right","left","NA","1214","45396","6350","1214","NA","2","legacy","3","1024","2","48000","-16","experiment","2","even","2","309022","305643","306810","3687","133088","306812","292670","3693","126737","311026","312242","307816","49091","311026","NA","Sternberg task","32","40976","40","yes","1024"
"80.48780487804878","80.48780487804878","1019.1951219512196","1019.1951219512196","black","experiment","legacy","legacy","legacy","0","uniform","1","undefined","1","right","40","40","40","0","0","40","40","0","0","40","40","40","0","40","0","Sun Oct 24 20:32:48 2021","The main experiment item","yes","Sternbergtask.osexp","C:\Users\19565\Desktop","no","mono","no","18","no","white","no","yes","768","legacy","28","11","C:/Users/19565/Desktop/Lab 3/MR-subject-2.csv","legacy","6 9 7 3 8 2","Lentiform Loewenfeld","3.3.9","0","n","0","right","right","right","right","NA","811","45396","6350","811","NA","2","legacy","6","1024","2","48000","-16","experiment","2","even","5","315616","312252","313401","3687","133088","313406","292670","3693","126737","317621","318434","314410","49091","317621","NA","Sternberg task","33","41787","41","yes","1024"
"80.95238095238095","80.95238095238095","1017.7380952380952","1017.7380952380952","black","experiment","legacy","legacy","legacy","0","uniform","1","undefined","1","left","41","41","41","0","0","41","41","0","0","41","41","41","0","41","0","Sun Oct 24 20:32:48 2021","The main experiment item","yes","Sternbergtask.osexp","C:\Users\19565\Desktop","no","mono","no","18","no","white","no","yes","768","legacy","29","11","C:/Users/19565/Desktop/Lab 3/MR-subject-2.csv","legacy","3 5 9 6 2 4","Lentiform Loewenfeld","3.3.9","1","y","0","left","right","right","left","NA","958","45396","6350","958","NA","2","legacy","6","1024","2","48000","-16","experiment","2","even","3","321837","318441","319622","3687","133088","319626","292670","3693","126737","323842","324801","320631","49091","323842","NA","Sternberg task","34","42745","42","yes","1024"
"81.3953488372093","81.3953488372093","1009.4418604651163","1009.4418604651163","black","experiment","legacy","legacy","legacy","0","uniform","1","undefined","1","right","42","42","42","0","0","42","42","0","0","42","42","42","0","42","0","Sun Oct 24 20:32:48 2021","The main experiment item","yes","Sternbergtask.osexp","C:\Users\19565\Desktop","no","mono","no","18","no","white","no","yes","768","legacy","30","11","C:/Users/19565/Desktop/Lab 3/MR-subject-2.csv","legacy","9 8 2 7 4","Lentiform Loewenfeld","3.3.9","0","n","0","right","right","right","right","NA","661","45396","6350","661","NA","2","legacy","5","1024","2","48000","-16","experiment","2","even","5","328169","324806","325955","3687","133088","325960","292670","3693","126737","330174","330837","326964","49091","330173","NA","Sternberg task","35","43406","43","yes","1024"
"79.54545454545455","79.54545454545455","1010.2954545454545","1010.2954545454545","black","experiment","legacy","legacy","legacy","0","uniform","0","undefined","0","right","43","43","43","0","0","43","43","0","0","43","43","43","0","43","0","Sun Oct 24 20:32:48 2021","The main experiment item","yes","Sternbergtask.osexp","C:\Users\19565\Desktop","no","mono","no","18","no","white","no","yes","768","legacy","31","11","C:/Users/19565/Desktop/Lab 3/MR-subject-2.csv","legacy","8 4 3 5","Lentiform Loewenfeld","3.3.9","0","n","0","left","right","right","left","NA","1047","45396","6350","1047","NA","2","legacy","4","1024","2","48000","-16","experiment","2","even","6","334216","330846","332004","3687","133088","332006","292670","3693","126737","336221","337269","333011","49091","336221","NA","Sternberg task","35","44453","44","yes","1024"
"80","80","1010.8444444444444","1010.8444444444444","black","experiment","legacy","legacy","legacy","0","uniform","1","undefined","1","left","44","44","44","0","0","44","44","0","0","44","44","44","0","44","0","Sun Oct 24 20:32:48 2021","The main experiment item","yes","Sternbergtask.osexp","C:\Users\19565\Desktop","no","mono","no","18","no","white","no","yes","768","legacy","32","11","C:/Users/19565/Desktop/Lab 3/MR-subject-2.csv","legacy","7 1 3","Lentiform Loewenfeld","3.3.9","2","y","0","left","right","right","left","NA","1035","45396","6350","1035","NA","2","legacy","3","1024","2","48000","-16","experiment","2","even","1","340665","330846","338453","3687","133088","338456","337293","3693","126737","342670","343707","339461","49091","342670","NA","Sternberg task","36","45488","45","yes","1024"
"80.43478260869566","80.43478260869566","1004.9130434782609","1004.9130434782609","black","experiment","legacy","legacy","legacy","0","uniform","1","undefined","1","right","45","45","45","0","0","45","45","0","0","45","45","45","0","45","0","Sun Oct 24 20:32:48 2021","The main experiment item","yes","Sternbergtask.osexp","C:\Users\19565\Desktop","no","mono","no","18","no","white","no","yes","768","legacy","33","11","C:/Users/19565/Desktop/Lab 3/MR-subject-2.csv","legacy","1 4 9 3","Lentiform Loewenfeld","3.3.9","0","n","0","right","right","right","right","NA","738","45396","6350","738","NA","2","legacy","4","1024","2","48000","-16","experiment","2","even","5","347090","343715","344878","3687","133088","344881","337293","3693","126737","349096","349834","345885","49091","349095","NA","Sternberg task","37","46226","46","yes","1024"
"78.72340425531915","78.72340425531915","1015.4255319148937","1015.4255319148937","black","experiment","legacy","legacy","legacy","0","uniform","0","undefined","0","right","46","46","46","0","0","46","46","0","0","46","46","46","0","46","0","Sun Oct 24 20:32:48 2021","The main experiment item","yes","Sternbergtask.osexp","C:\Users\19565\Desktop","no","mono","no","18","no","white","no","yes","768","legacy","34","11","C:/Users/19565/Desktop/Lab 3/MR-subject-2.csv","legacy","1 7 5 2","Lentiform Loewenfeld","3.3.9","0","n","0","left","right","right","left","NA","1499","45396","6350","1499","NA","2","legacy","4","1024","2","48000","-16","experiment","2","even","3","353203","349840","350993","3687","133088","350994","337293","3693","126737","355207","356708","351998","49091","355206","NA","Sternberg task","37","47725","47","yes","1024"
"79.16666666666667","79.16666666666667","1028.1458333333333","1028.1458333333333","black","experiment","legacy","legacy","legacy","0","uniform","1","undefined","1","right","47","47","47","0","0","47","47","0","0","47","47","47","0","47","0","Sun Oct 24 20:32:48 2021","The main experiment item","yes","Sternbergtask.osexp","C:\Users\19565\Desktop","no","mono","no","18","no","white","no","yes","768","legacy","35","11","C:/Users/19565/Desktop/Lab 3/MR-subject-2.csv","legacy","1 7 8 3 9","Lentiform Loewenfeld","3.3.9","0","n","0","right","right","right","right","NA","1626","45396","6350","1626","NA","2","legacy","5","1024","2","48000","-16","experiment","2","even","2","360091","349840","357879","3687","133088","357883","356732","3693","126737","362095","363722","358887","49091","362095","NA","Sternberg task","38","49351","48","yes","1024"
"79.59183673469387","79.59183673469387","1019.4897959183673","1019.4897959183673","black","experiment","legacy","legacy","legacy","0","uniform","1","undefined","1","left","48","48","48","0","0","48","48","0","0","48","48","48","0","48","0","Sun Oct 24 20:32:48 2021","The main experiment item","yes","Sternbergtask.osexp","C:\Users\19565\Desktop","no","mono","no","18","no","white","no","yes","768","legacy","36","11","C:/Users/19565/Desktop/Lab 3/MR-subject-2.csv","legacy","2 3","Lentiform Loewenfeld","3.3.9","1","y","0","left","right","right","left","NA","604","45396","6350","604","NA","2","legacy","2","1024","2","48000","-16","experiment","2","even","2","367152","363731","364938","3687","133088","364942","356732","3693","126737","369157","369762","365947","49091","369157","NA","Sternberg task","39","49955","49","yes","1024"
"80","80","1014.68","1014.68","black","experiment","legacy","legacy","legacy","0","uniform","1","undefined","1","left","49","49","49","0","0","49","49","0","0","49","49","49","0","49","0","Sun Oct 24 20:32:48 2021","The main experiment item","yes","Sternbergtask.osexp","C:\Users\19565\Desktop","no","mono","no","18","no","white","no","yes","768","legacy","37","11","C:/Users/19565/Desktop/Lab 3/MR-subject-2.csv","legacy","8 9 5 6 7","Lentiform Loewenfeld","3.3.9","1","y","0","left","right","right","left","NA","779","45396","6350","779","NA","2","legacy","5","1024","2","48000","-16","experiment","2","even","8","373126","369769","370915","3687","133088","370917","356732","3693","126737","375131","375912","371922","49091","375130","NA","Sternberg task","40","50734","50","yes","1024"
"80.3921568627451","80.3921568627451","1012.9607843137255","1012.9607843137255","black","experiment","legacy","legacy","legacy","0","uniform","1","undefined","1","left","50","50","50","0","0","50","50","0","0","50","50","50","0","50","0","Sun Oct 24 20:32:48 2021","The main experiment item","yes","Sternbergtask.osexp","C:\Users\19565\Desktop","no","mono","no","18","no","white","no","yes","768","legacy","38","11","C:/Users/19565/Desktop/Lab 3/MR-subject-2.csv","legacy","3 4 9 6 2 9","Lentiform Loewenfeld","3.3.9","5","y","0","left","right","right","left","NA","927","45396","6350","927","NA","2","legacy","6","1024","2","48000","-16","experiment","2","even","2","379344","375921","377134","3687","133088","377136","356732","3693","126737","381348","382277","378139","49091","381348","NA","Sternberg task","41","51661","51","yes","1024"
"80.76923076923077","80.76923076923077","1006.5","1006.5","black","experiment","legacy","legacy","legacy","0","uniform","1","undefined","1","right","51","51","51","0","0","51","51","0","0","51","51","51","0","51","0","Sun Oct 24 20:32:48 2021","The main experiment item","yes","Sternbergtask.osexp","C:\Users\19565\Desktop","no","mono","no","18","no","white","no","yes","768","legacy","39","11","C:/Users/19565/Desktop/Lab 3/MR-subject-2.csv","legacy","2 8 9 4 1","Lentiform Loewenfeld","3.3.9","0","n","0","right","right","right","right","NA","677","45396","6350","677","NA","2","legacy","5","1024","2","48000","-16","experiment","2","even","5","385718","382286","383506","3687","133088","383509","356732","3693","126737","387723","388402","384513","49091","387722","NA","Sternberg task","42","52338","52","yes","1024"
"81.13207547169812","81.13207547169812","1002.3207547169811","1002.3207547169811","black","experiment","legacy","legacy","legacy","0","uniform","1","undefined","1","right","52","52","52","0","0","52","52","0","0","52","52","52","0","52","0","Sun Oct 24 20:32:48 2021","The main experiment item","yes","Sternbergtask.osexp","C:\Users\19565\Desktop","no","mono","no","18","no","white","no","yes","768","legacy","40","11","C:/Users/19565/Desktop/Lab 3/MR-subject-2.csv","legacy","6 9 4 5 2","Lentiform Loewenfeld","3.3.9","0","n","0","right","right","right","right","NA","785","45396","6350","785","NA","2","legacy","5","1024","2","48000","-16","experiment","2","even","1","391823","388411","389611","3687","133088","389613","356732","3693","126737","393827","394613","390618","49091","393827","NA","Sternberg task","43","53123","53","yes","1024"
"81.48148148148148","81.48148148148148","1020.0555555555555","1020.0555555555555","black","experiment","legacy","legacy","legacy","0","uniform","1","undefined","1","left","53","53","53","0","0","53","53","0","0","53","53","53","0","53","0","Sun Oct 24 20:32:48 2021","The main experiment item","yes","Sternbergtask.osexp","C:\Users\19565\Desktop","no","mono","no","18","no","white","no","yes","768","legacy","41","11","C:/Users/19565/Desktop/Lab 3/MR-subject-2.csv","legacy","6 9 7 4 5 1","Lentiform Loewenfeld","3.3.9","2","y","0","left","right","right","left","NA","1960","45396","6350","1960","NA","2","legacy","6","1024","2","48000","-16","experiment","2","even","9","398071","394620","395857","3687","133088","395861","356732","3693","126737","400075","402036","396866","49091","400075","NA","Sternberg task","44","55083","54","yes","1024"
"81.81818181818181","81.81818181818181","1016.4363636363636","1016.4363636363636","black","experiment","legacy","legacy","legacy","0","uniform","1","undefined","1","right","54","54","54","0","0","54","54","0","0","54","54","54","0","54","0","Sun Oct 24 20:32:48 2021","The main experiment item","yes","Sternbergtask.osexp","C:\Users\19565\Desktop","no","mono","no","18","no","white","no","yes","768","legacy","42","11","C:/Users/19565/Desktop/Lab 3/MR-subject-2.csv","legacy","2 7 5","Lentiform Loewenfeld","3.3.9","0","n","0","right","right","right","right","NA","821","45396","6350","821","NA","2","legacy","3","1024","2","48000","-16","experiment","2","even","8","405449","402041","403238","3687","133088","403241","356732","3693","126737","407454","408277","404245","49091","407453","NA","Sternberg task","45","55904","55","yes","1024"
"82.14285714285714","82.14285714285714","1008.6071428571429","1008.6071428571429","black","experiment","legacy","legacy","legacy","0","uniform","1","undefined","1","left","55","55","55","0","0","55","55","0","0","55","55","55","0","55","0","Sun Oct 24 20:32:48 2021","The main experiment item","yes","Sternbergtask.osexp","C:\Users\19565\Desktop","no","mono","no","18","no","white","no","yes","768","legacy","43","11","C:/Users/19565/Desktop/Lab 3/MR-subject-2.csv","legacy","7 1 8 5 6 2","Lentiform Loewenfeld","3.3.9","2","y","0","left","right","right","left","NA","578","45396","6350","578","NA","2","legacy","6","1024","2","48000","-16","experiment","2","even","1","411699","408285","409488","3687","133088","409490","356732","3693","126737","413705","414284","410495","49091","413705","NA","Sternberg task","46","56482","56","yes","1024"
"82.45614035087719","82.45614035087719","1002.8947368421053","1002.8947368421053","black","experiment","legacy","legacy","legacy","0","uniform","1","undefined","1","left","56","56","56","0","0","56","56","0","0","56","56","56","0","56","0","Sun Oct 24 20:32:48 2021","The main experiment item","yes","Sternbergtask.osexp","C:\Users\19565\Desktop","no","mono","no","18","no","white","no","yes","768","legacy","44","11","C:/Users/19565/Desktop/Lab 3/MR-subject-2.csv","legacy","9 5 8 1","Lentiform Loewenfeld","3.3.9","2","y","0","left","right","right","left","NA","683","45396","6350","683","NA","2","legacy","4","1024","2","48000","-16","experiment","2","even","5","417742","414295","415527","3687","133088","415531","356732","3693","126737","419747","420431","416536","49091","419747","NA","Sternberg task","47","57165","57","yes","1024"
"82.75862068965517","82.75862068965517","998.2758620689655","998.2758620689655","black","experiment","legacy","legacy","legacy","0","uniform","1","undefined","1","left","57","57","57","0","0","57","57","0","0","57","57","57","0","57","0","Sun Oct 24 20:32:48 2021","The main experiment item","yes","Sternbergtask.osexp","C:\Users\19565\Desktop","no","mono","no","18","no","white","no","yes","768","legacy","45","11","C:/Users/19565/Desktop/Lab 3/MR-subject-2.csv","legacy","8 5 1 3 9","Lentiform Loewenfeld","3.3.9","4","y","0","left","right","right","left","NA","735","45396","6350","735","NA","2","legacy","5","1024","2","48000","-16","experiment","2","even","3","423791","420438","421580","3687","133088","421583","356732","3693","126737","425796","426533","422586","49091","425796","NA","Sternberg task","48","57900","58","yes","1024"
"83.05084745762711","83.05084745762711","993.7118644067797","993.7118644067797","black","experiment","legacy","legacy","legacy","0","uniform","1","undefined","1","left","58","58","58","0","0","58","58","0","0","58","58","58","0","58","0","Sun Oct 24 20:32:48 2021","The main experiment item","yes","Sternbergtask.osexp","C:\Users\19565\Desktop","no","mono","no","18","no","white","no","yes","768","legacy","46","11","C:/Users/19565/Desktop/Lab 3/MR-subject-2.csv","legacy","6 8 9 3 4 9","Lentiform Loewenfeld","3.3.9","5","y","0","left","right","right","left","NA","729","45396","6350","729","NA","2","legacy","6","1024","2","48000","-16","experiment","2","even","4","429885","426543","427672","3687","133088","427675","356732","3693","126737","431891","432621","428679","49091","431891","NA","Sternberg task","49","58629","59","yes","1024"
"81.66666666666667","81.66666666666667","994.3","994.3","black","experiment","legacy","legacy","legacy","0","uniform","0","undefined","0","right","59","59","59","0","0","59","59","0","0","59","59","59","0","59","0","Sun Oct 24 20:32:48 2021","The main experiment item","yes","Sternbergtask.osexp","C:\Users\19565\Desktop","no","mono","no","18","no","white","no","yes","768","legacy","47","11","C:/Users/19565/Desktop/Lab 3/MR-subject-2.csv","legacy","3 4 9 6 7 8","Lentiform Loewenfeld","3.3.9","0","n","0","left","right","right","left","NA","1029","45396","6350","1029","NA","2","legacy","6","1024","2","48000","-16","experiment","2","even","2","435970","432627","433758","3687","133088","433761","356732","3693","126737","437975","439005","434764","49091","437974","NA","Sternberg task","49","59658","60","yes","1024"
"81.9672131147541","81.9672131147541","990.1803278688525","990.1803278688525","black","experiment","legacy","legacy","legacy","0","uniform","1","undefined","1","right","60","60","60","0","0","60","60","0","0","60","60","60","0","60","0","Sun Oct 24 20:32:48 2021","The main experiment item","yes","Sternbergtask.osexp","C:\Users\19565\Desktop","no","mono","no","18","no","white","no","yes","768","legacy","48","11","C:/Users/19565/Desktop/Lab 3/MR-subject-2.csv","legacy","8 2 1 4 5 9","Lentiform Loewenfeld","3.3.9","0","n","0","right","right","right","right","NA","743","45396","6350","743","NA","2","legacy","6","1024","2","48000","-16","experiment","2","even","7","442405","432627","440191","3687","133088","440195","439012","3693","126737","444409","445154","441200","49091","444409","NA","Sternberg task","50","60401","61","yes","1024"
"82.25806451612904","82.25806451612904","985.5","985.5","black","experiment","legacy","legacy","legacy","0","uniform","1","undefined","1","left","61","61","61","0","0","61","61","0","0","61","61","61","0","61","0","Sun Oct 24 20:32:48 2021","The main experiment item","yes","Sternbergtask.osexp","C:\Users\19565\Desktop","no","mono","no","18","no","white","no","yes","768","legacy","49","11","C:/Users/19565/Desktop/Lab 3/MR-subject-2.csv","legacy","6 7 9 3 1 2","Lentiform Loewenfeld","3.3.9","1","y","0","left","right","right","left","NA","700","45396","6350","700","NA","2","legacy","6","1024","2","48000","-16","experiment","2","even","6","448563","445161","446352","3687","133088","446354","439012","3693","126737","450567","451268","447358","49091","450567","NA","Sternberg task","51","61101","62","yes","1024"
"82.53968253968254","82.53968253968254","979.063492063492","979.063492063492","black","experiment","legacy","legacy","legacy","0","uniform","1","undefined","1","left","62","62","62","0","0","62","62","0","0","62","62","62","0","62","0","Sun Oct 24 20:32:48 2021","The main experiment item","yes","Sternbergtask.osexp","C:\Users\19565\Desktop","no","mono","no","18","no","white","no","yes","768","legacy","50","11","C:/Users/19565/Desktop/Lab 3/MR-subject-2.csv","legacy","3 5 4 7","Lentiform Loewenfeld","3.3.9","1","y","0","left","right","right","left","NA","580","45396","6350","580","NA","2","legacy","4","1024","2","48000","-16","experiment","2","even","3","454685","451274","452473","3687","133088","452476","439012","3693","126737","456690","457272","453481","49091","456690","NA","Sternberg task","52","61681","63","yes","1024"
"82.8125","82.8125","973.8125","973.8125","black","experiment","legacy","legacy","legacy","0","uniform","1","undefined","1","left","63","63","63","0","0","63","63","0","0","63","63","63","0","63","0","Sun Oct 24 20:32:48 2021","The main experiment item","yes","Sternbergtask.osexp","C:\Users\19565\Desktop","no","mono","no","18","no","white","no","yes","768","legacy","51","11","C:/Users/19565/Desktop/Lab 3/MR-subject-2.csv","legacy","4 9 7 8 5 3","Lentiform Loewenfeld","3.3.9","4","y","0","left","right","right","left","NA","643","45396","6350","643","NA","2","legacy","6","1024","2","48000","-16","experiment","2","even","8","460739","457297","458526","3687","133088","458529","439012","3693","126737","462744","463389","459533","49091","462744","NA","Sternberg task","53","62324","64","yes","1024"
"83.07692307692308","83.07692307692308","976.876923076923","976.876923076923","black","experiment","legacy","legacy","legacy","0","uniform","1","undefined","1","left","64","64","64","0","0","64","64","0","0","64","64","64","0","64","0","Sun Oct 24 20:32:48 2021","The main experiment item","yes","Sternbergtask.osexp","C:\Users\19565\Desktop","no","mono","no","18","no","white","no","yes","768","legacy","52","11","C:/Users/19565/Desktop/Lab 3/MR-subject-2.csv","legacy","8","Lentiform Loewenfeld","3.3.9","1","y","0","left","right","right","left","NA","1173","45396","6350","1173","NA","2","legacy","1","1024","2","48000","-16","experiment","2","even","8","466863","463413","464650","3687","133088","464653","439012","3693","126737","468868","470042","465658","49091","468868","NA","Sternberg task","54","63497","65","yes","1024"
"83.33333333333333","83.33333333333333","974.1818181818181","974.1818181818181","black","experiment","legacy","legacy","legacy","0","uniform","1","undefined","1","right","65","65","65","0","0","65","65","0","0","65","65","65","0","65","0","Sun Oct 24 20:32:48 2021","The main experiment item","yes","Sternbergtask.osexp","C:\Users\19565\Desktop","no","mono","no","18","no","white","no","yes","768","legacy","53","11","C:/Users/19565/Desktop/Lab 3/MR-subject-2.csv","legacy","8 9","Lentiform Loewenfeld","3.3.9","0","n","0","right","right","right","right","NA","799","45396","6350","799","NA","2","legacy","2","1024","2","48000","-16","experiment","2","even","5","473436","470049","471226","3687","133088","471228","439012","3693","126737","475442","476242","472232","49091","475442","NA","Sternberg task","55","64296","66","yes","1024"
"83.58208955223881","83.58208955223881","966.6119402985074","966.6119402985074","black","experiment","legacy","legacy","legacy","0","uniform","1","undefined","1","left","66","66","66","0","0","66","66","0","0","66","66","66","0","66","0","Sun Oct 24 20:32:48 2021","The main experiment item","yes","Sternbergtask.osexp","C:\Users\19565\Desktop","no","mono","no","18","no","white","no","yes","768","legacy","54","11","C:/Users/19565/Desktop/Lab 3/MR-subject-2.csv","legacy","7","Lentiform Loewenfeld","3.3.9","1","y","0","left","right","right","left","NA","467","45396","6350","467","NA","2","legacy","1","1024","2","48000","-16","experiment","2","even","7","479668","476247","477457","3687","133088","477460","439012","3693","126737","481673","482141","478464","49091","481673","NA","Sternberg task","56","64763","67","yes","1024"
"83.82352941176471","83.82352941176471","963.8676470588235","963.8676470588235","black","experiment","legacy","legacy","legacy","0","uniform","1","undefined","1","left","67","67","67","0","0","67","67","0","0","67","67","67","0","67","0","Sun Oct 24 20:32:48 2021","The main experiment item","yes","Sternbergtask.osexp","C:\Users\19565\Desktop","no","mono","no","18","no","white","no","yes","768","legacy","55","11","C:/Users/19565/Desktop/Lab 3/MR-subject-2.csv","legacy","6 5","Lentiform Loewenfeld","3.3.9","2","y","0","left","right","right","left","NA","780","45396","6350","780","NA","2","legacy","2","1024","2","48000","-16","experiment","2","even","5","485565","482148","483354","3687","133088","483357","439012","3693","126737","487569","488350","484361","49091","487569","NA","Sternberg task","57","65543","68","yes","1024"
"84.05797101449275","84.05797101449275","959.9565217391304","959.9565217391304","black","experiment","legacy","legacy","legacy","0","uniform","1","undefined","1","right","68","68","68","0","0","68","68","0","0","68","68","68","0","68","0","Sun Oct 24 20:32:48 2021","The main experiment item","yes","Sternbergtask.osexp","C:\Users\19565\Desktop","no","mono","no","18","no","white","no","yes","768","legacy","56","11","C:/Users/19565/Desktop/Lab 3/MR-subject-2.csv","legacy","1","Lentiform Loewenfeld","3.3.9","0","n","0","right","right","right","right","NA","694","45396","6350","694","NA","2","legacy","1","1024","2","48000","-16","experiment","2","even","7","491708","488356","489499","3687","133088","489501","439012","3693","126737","493713","494409","490505","49091","493713","NA","Sternberg task","58","66237","69","yes","1024"
"84.28571428571429","84.28571428571429","957.0428571428571","957.0428571428571","black","experiment","legacy","legacy","legacy","0","uniform","1","undefined","1","right","69","69","69","0","0","69","69","0","0","69","69","69","0","69","0","Sun Oct 24 20:32:48 2021","The main experiment item","yes","Sternbergtask.osexp","C:\Users\19565\Desktop","no","mono","no","18","no","white","no","yes","768","legacy","57","11","C:/Users/19565/Desktop/Lab 3/MR-subject-2.csv","legacy","7 1 8 4 9 3","Lentiform Loewenfeld","3.3.9","0","n","0","right","right","right","right","NA","756","45396","6350","756","NA","2","legacy","6","1024","2","48000","-16","experiment","2","even","6","497836","494419","495624","3687","133088","495627","439012","3693","126737","499842","500601","496632","49091","499842","NA","Sternberg task","59","66993","70","yes","1024"
"84.50704225352112","84.50704225352112","963.6338028169014","963.6338028169014","black","experiment","legacy","legacy","legacy","0","uniform","1","undefined","1","right","70","70","70","0","0","70","70","0","0","70","70","70","0","70","0","Sun Oct 24 20:32:48 2021","The main experiment item","yes","Sternbergtask.osexp","C:\Users\19565\Desktop","no","mono","no","18","no","white","no","yes","768","legacy","58","11","C:/Users/19565/Desktop/Lab 3/MR-subject-2.csv","legacy","6 3 1 7 9 8","Lentiform Loewenfeld","3.3.9","0","n","0","right","right","right","right","NA","1425","45396","6350","1425","NA","2","legacy","6","1024","2","48000","-16","experiment","2","even","4","504035","500610","501823","3687","133088","501827","439012","3693","126737","506040","507465","502831","49091","506039","NA","Sternberg task","60","68418","71","yes","1024"
"84.72222222222223","84.72222222222223","957.0416666666666","957.0416666666666","black","experiment","legacy","legacy","legacy","0","uniform","1","undefined","1","left","71","71","71","0","0","71","71","0","0","71","71","71","0","71","0","Sun Oct 24 20:32:48 2021","The main experiment item","yes","Sternbergtask.osexp","C:\Users\19565\Desktop","no","mono","no","18","no","white","no","yes","768","legacy","59","11","C:/Users/19565/Desktop/Lab 3/MR-subject-2.csv","legacy","4 1 5","Lentiform Loewenfeld","3.3.9","2","y","0","left","right","right","left","NA","489","45396","6350","489","NA","2","legacy","3","1024","2","48000","-16","experiment","2","even","1","510829","507472","508615","3687","133088","508618","439012","3693","126737","512833","513325","509624","49091","512833","NA","Sternberg task","61","68907","72","yes","1024"
"83.56164383561644","83.56164383561644","953.013698630137","953.013698630137","black","experiment","legacy","legacy","legacy","0","uniform","0","undefined","0","right","72","72","72","0","0","72","72","0","0","72","72","72","0","72","0","Sun Oct 24 20:32:48 2021","The main experiment item","yes","Sternbergtask.osexp","C:\Users\19565\Desktop","no","mono","no","18","no","white","no","yes","768","legacy","60","11","C:/Users/19565/Desktop/Lab 3/MR-subject-2.csv","legacy","1 5 3 2 8","Lentiform Loewenfeld","3.3.9","0","n","0","left","right","right","left","NA","663","45396","6350","663","NA","2","legacy","5","1024","2","48000","-16","experiment","2","even","4","516744","513334","514532","3687","133088","514534","439012","3693","126737","518748","519412","515539","49091","518748","NA","Sternberg task","61","69570","73","yes","1024"
"83.78378378378379","83.78378378378379","950.4054054054054","950.4054054054054","black","experiment","legacy","legacy","legacy","0","uniform","1","undefined","1","right","73","73","73","0","0","73","73","0","0","73","73","73","0","73","0","Sun Oct 24 20:32:48 2021","The main experiment item","yes","Sternbergtask.osexp","C:\Users\19565\Desktop","no","mono","no","18","no","white","no","yes","768","legacy","61","11","C:/Users/19565/Desktop/Lab 3/MR-subject-2.csv","legacy","2 8 9","Lentiform Loewenfeld","3.3.9","0","n","0","right","right","right","right","NA","760","45396","6350","760","NA","2","legacy","3","1024","2","48000","-16","experiment","2","even","6","522785","513334","520575","3687","133088","520577","519418","3693","126737","524789","525552","521581","49091","524789","NA","Sternberg task","62","70330","74","yes","1024"
"82.66666666666667","82.66666666666667","951.56","951.56","black","experiment","legacy","legacy","legacy","0","uniform","0","undefined","0","right","74","74","74","0","0","74","74","0","0","74","74","74","0","74","0","Sun Oct 24 20:32:48 2021","The main experiment item","yes","Sternbergtask.osexp","C:\Users\19565\Desktop","no","mono","no","18","no","white","no","yes","768","legacy","62","11","C:/Users/19565/Desktop/Lab 3/MR-subject-2.csv","legacy","7 9 1 6","Lentiform Loewenfeld","3.3.9","0","n","0","left","right","right","left","NA","1037","45396","6350","1037","NA","2","legacy","4","1024","2","48000","-16","experiment","2","even","4","528960","525561","526748","3687","133088","526750","519418","3693","126737","530965","532005","527754","49091","530964","NA","Sternberg task","62","71367","75","yes","1024"
"82.89473684210526","82.89473684210526","948.2631578947369","948.2631578947369","black","experiment","legacy","legacy","legacy","0","uniform","1","undefined","1","right","75","75","75","0","0","75","75","0","0","75","75","75","0","75","0","Sun Oct 24 20:32:48 2021","The main experiment item","yes","Sternbergtask.osexp","C:\Users\19565\Desktop","no","mono","no","18","no","white","no","yes","768","legacy","63","11","C:/Users/19565/Desktop/Lab 3/MR-subject-2.csv","legacy","6 8 4","Lentiform Loewenfeld","3.3.9","0","n","0","right","right","right","right","NA","701","45396","6350","701","NA","2","legacy","3","1024","2","48000","-16","experiment","2","even","1","535434","525561","533224","3687","133088","533226","532014","3693","126737","537438","538141","534230","49091","537438","NA","Sternberg task","63","72068","76","yes","1024"
"83.11688311688312","83.11688311688312","947.6753246753246","947.6753246753246","black","experiment","legacy","legacy","legacy","0","uniform","1","undefined","1","left","76","76","76","0","0","76","76","0","0","76","76","76","0","76","0","Sun Oct 24 20:32:48 2021","The main experiment item","yes","Sternbergtask.osexp","C:\Users\19565\Desktop","no","mono","no","18","no","white","no","yes","768","legacy","64","11","C:/Users/19565/Desktop/Lab 3/MR-subject-2.csv","legacy","4 3 2 5 8","Lentiform Loewenfeld","3.3.9","2","y","0","left","right","right","left","NA","903","45396","6350","903","NA","2","legacy","5","1024","2","48000","-16","experiment","2","even","3","541506","538162","539299","3687","133088","539302","532014","3693","126737","543509","544414","540304","49091","543509","NA","Sternberg task","64","72971","77","yes","1024"
"82.05128205128206","82.05128205128206","948.9487179487179","948.9487179487179","black","experiment","legacy","legacy","legacy","0","uniform","0","undefined","0","left","77","77","77","0","0","77","77","0","0","77","77","77","0","77","0","Sun Oct 24 20:32:48 2021","The main experiment item","yes","Sternbergtask.osexp","C:\Users\19565\Desktop","no","mono","no","18","no","white","no","yes","768","legacy","65","11","C:/Users/19565/Desktop/Lab 3/MR-subject-2.csv","legacy","2 4 6 9","Lentiform Loewenfeld","3.3.9","3","y","0","right","right","right","right","NA","1047","45396","6350","1047","NA","2","legacy","4","1024","2","48000","-16","experiment","2","even","6","547821","544421","545611","3687","133088","545614","532014","3693","126737","549828","550878","546618","49091","549828","NA","Sternberg task","64","74018","78","yes","1024"
"82.27848101265823","82.27848101265823","953.0253164556962","953.0253164556962","black","experiment","legacy","legacy","legacy","0","uniform","1","undefined","1","left","78","78","78","0","0","78","78","0","0","78","78","78","0","78","0","Sun Oct 24 20:32:48 2021","The main experiment item","yes","Sternbergtask.osexp","C:\Users\19565\Desktop","no","mono","no","18","no","white","no","yes","768","legacy","66","11","C:/Users/19565/Desktop/Lab 3/MR-subject-2.csv","legacy","3 9 7 6 4","Lentiform Loewenfeld","3.3.9","3","y","0","left","right","right","left","NA","1271","45396","6350","1271","NA","2","legacy","5","1024","2","48000","-16","experiment","2","even","7","554281","544421","552073","3687","133088","552075","550888","3693","126737","556285","557558","553077","49091","556284","NA","Sternberg task","65","75289","79","yes","1024"
"82.5","82.5","952.625","952.625","black","experiment","legacy","legacy","legacy","0","uniform","1","undefined","1","left","79","79","79","0","0","79","79","0","0","79","79","79","0","79","0","Sun Oct 24 20:32:48 2021","The main experiment item","yes","Sternbergtask.osexp","C:\Users\19565\Desktop","no","mono","no","18","no","white","no","yes","768","legacy","67","11","C:/Users/19565/Desktop/Lab 3/MR-subject-2.csv","legacy","8 3","Lentiform Loewenfeld","3.3.9","2","y","0","left","right","right","left","NA","921","45396","6350","921","NA","2","legacy","2","1024","2","48000","-16","experiment","2","even","3","560894","557564","558684","3687","133088","558687","550888","3693","126737","562897","563820","559690","49091","562896","NA","Sternberg task","66","76210","80","yes","1024"
"82.71604938271605","82.71604938271605","950.1728395061729","950.1728395061729","black","experiment","legacy","legacy","legacy","0","uniform","1","undefined","1","right","80","80","80","0","0","80","80","0","0","80","80","80","0","80","0","Sun Oct 24 20:32:48 2021","The main experiment item","yes","Sternbergtask.osexp","C:\Users\19565\Desktop","no","mono","no","18","no","white","no","yes","768","legacy","68","11","C:/Users/19565/Desktop/Lab 3/MR-subject-2.csv","legacy","2 6 4 3 9","Lentiform Loewenfeld","3.3.9","0","n","0","right","right","right","right","NA","754","45396","6350","754","NA","2","legacy","5","1024","2","48000","-16","experiment","2","even","1","567153","563824","564945","3687","133088","564948","550888","3693","126737","569155","569909","565950","49091","569155","NA","Sternberg task","67","76964","81","yes","1024"
"81.70731707317073","81.70731707317073","959.170731707317","959.170731707317","black","experiment","legacy","legacy","legacy","0","uniform","0","undefined","0","right","81","81","81","0","0","81","81","0","0","81","81","81","0","81","0","Sun Oct 24 20:32:48 2021","The main experiment item","yes","Sternbergtask.osexp","C:\Users\19565\Desktop","no","mono","no","18","no","white","no","yes","768","legacy","69","11","C:/Users/19565/Desktop/Lab 3/MR-subject-2.csv","legacy","4 1","Lentiform Loewenfeld","3.3.9","0","n","0","left","right","right","left","NA","1688","45396","6350","1688","NA","2","legacy","2","1024","2","48000","-16","experiment","2","even","6","573242","569916","571036","3687","133088","571038","550888","3693","126737","575245","576934","572040","49091","575245","NA","Sternberg task","67","78652","82","yes","1024"
"81.92771084337349","81.92771084337349","953.6385542168674","953.6385542168674","black","experiment","legacy","legacy","legacy","0","uniform","1","undefined","1","left","82","82","82","0","0","82","82","0","0","82","82","82","0","82","0","Sun Oct 24 20:32:48 2021","The main experiment item","yes","Sternbergtask.osexp","C:\Users\19565\Desktop","no","mono","no","18","no","white","no","yes","768","legacy","70","11","C:/Users/19565/Desktop/Lab 3/MR-subject-2.csv","legacy","4 6 5 8","Lentiform Loewenfeld","3.3.9","1","y","0","left","right","right","left","NA","500","45396","6350","500","NA","2","legacy","4","1024","2","48000","-16","experiment","2","even","4","580269","569916","578061","3687","133088","578063","576940","3693","126737","582272","582774","579065","49091","582272","NA","Sternberg task","68","79152","83","yes","1024"
"82.14285714285714","82.14285714285714","949.25","949.25","black","experiment","legacy","legacy","legacy","0","uniform","1","undefined","1","left","83","83","83","0","0","83","83","0","0","83","83","83","0","83","0","Sun Oct 24 20:32:48 2021","The main experiment item","yes","Sternbergtask.osexp","C:\Users\19565\Desktop","no","mono","no","18","no","white","no","yes","768","legacy","71","11","C:/Users/19565/Desktop/Lab 3/MR-subject-2.csv","legacy","8 5 4 7 3 1","Lentiform Loewenfeld","3.3.9","2","y","0","left","right","right","left","NA","585","45396","6350","585","NA","2","legacy","6","1024","2","48000","-16","experiment","2","even","5","586149","582779","583942","3687","133088","583944","576940","3693","126737","588152","588739","584946","49091","588151","NA","Sternberg task","69","79737","84","yes","1024"
"82.3529411764706","82.3529411764706","946.3058823529411","946.3058823529411","black","experiment","legacy","legacy","legacy","0","uniform","1","undefined","1","left","84","84","84","0","0","84","84","0","0","84","84","84","0","84","0","Sun Oct 24 20:32:48 2021","The main experiment item","yes","Sternbergtask.osexp","C:\Users\19565\Desktop","no","mono","no","18","no","white","no","yes","768","legacy","72","11","C:/Users/19565/Desktop/Lab 3/MR-subject-2.csv","legacy","8 9 5 7 1 6","Lentiform Loewenfeld","3.3.9","4","y","0","left","right","right","left","NA","699","45396","6350","699","NA","2","legacy","6","1024","2","48000","-16","experiment","2","even","7","592090","588744","589884","3687","133088","589886","576940","3693","126737","594093","594793","590888","49091","594093","NA","Sternberg task","70","80436","85","yes","1024"
"82.55813953488372","82.55813953488372","945.7906976744187","945.7906976744187","black","experiment","legacy","legacy","legacy","0","uniform","1","undefined","1","right","85","85","85","0","0","85","85","0","0","85","85","85","0","85","0","Sun Oct 24 20:32:48 2021","The main experiment item","yes","Sternbergtask.osexp","C:\Users\19565\Desktop","no","mono","no","18","no","white","no","yes","768","legacy","73","11","C:/Users/19565/Desktop/Lab 3/MR-subject-2.csv","legacy","7 4 2 8 1 9","Lentiform Loewenfeld","3.3.9","0","n","0","right","right","right","right","NA","902","45396","6350","902","NA","2","legacy","6","1024","2","48000","-16","experiment","2","even","5","598179","594799","595970","3687","133088","595972","576940","3693","126737","600182","601086","596976","49091","600182","NA","Sternberg task","71","81338","86","yes","1024"
"81.60919540229885","81.60919540229885","944.9655172413793","944.9655172413793","black","experiment","legacy","legacy","legacy","0","uniform","0","undefined","0","right","86","86","86","0","0","86","86","0","0","86","86","86","0","86","0","Sun Oct 24 20:32:48 2021","The main experiment item","yes","Sternbergtask.osexp","C:\Users\19565\Desktop","no","mono","no","18","no","white","no","yes","768","legacy","74","11","C:/Users/19565/Desktop/Lab 3/MR-subject-2.csv","legacy","2 8 7 9 5 3","Lentiform Loewenfeld","3.3.9","0","n","0","left","right","right","left","NA","874","45396","6350","874","NA","2","legacy","6","1024","2","48000","-16","experiment","2","even","6","604451","601092","602243","3687","133088","602246","576940","3693","126737","606453","607330","603248","49091","606453","NA","Sternberg task","71","82212","87","yes","1024"
"81.81818181818181","81.81818181818181","939.9545454545455","939.9545454545455","black","experiment","legacy","legacy","legacy","0","uniform","1","undefined","1","left","87","87","87","0","0","87","87","0","0","87","87","87","0","87","0","Sun Oct 24 20:32:48 2021","The main experiment item","yes","Sternbergtask.osexp","C:\Users\19565\Desktop","no","mono","no","18","no","white","no","yes","768","legacy","75","11","C:/Users/19565/Desktop/Lab 3/MR-subject-2.csv","legacy","9 1 7 2","Lentiform Loewenfeld","3.3.9","2","y","0","left","right","right","left","NA","504","45396","6350","504","NA","2","legacy","4","1024","2","48000","-16","experiment","2","even","1","610667","601092","608458","3687","133088","608461","607336","3693","126737","612669","613175","609464","49091","612669","NA","Sternberg task","72","82716","88","yes","1024"
"82.02247191011236","82.02247191011236","938.561797752809","938.561797752809","black","experiment","legacy","legacy","legacy","0","uniform","1","undefined","1","right","88","88","88","0","0","88","88","0","0","88","88","88","0","88","0","Sun Oct 24 20:32:48 2021","The main experiment item","yes","Sternbergtask.osexp","C:\Users\19565\Desktop","no","mono","no","18","no","white","no","yes","768","legacy","76","11","C:/Users/19565/Desktop/Lab 3/MR-subject-2.csv","legacy","7 3 2 8","Lentiform Loewenfeld","3.3.9","0","n","0","right","right","right","right","NA","816","45396","6350","816","NA","2","legacy","4","1024","2","48000","-16","experiment","2","even","4","616507","613180","614300","3687","133088","614303","607336","3693","126737","618509","619327","615305","49091","618509","NA","Sternberg task","73","83532","89","yes","1024"
"82.22222222222223","82.22222222222223","935.6333333333333","935.6333333333333","black","experiment","legacy","legacy","legacy","0","uniform","1","undefined","1","left","89","89","89","0","0","89","89","0","0","89","89","89","0","89","0","Sun Oct 24 20:32:48 2021","The main experiment item","yes","Sternbergtask.osexp","C:\Users\19565\Desktop","no","mono","no","18","no","white","no","yes","768","legacy","77","11","C:/Users/19565/Desktop/Lab 3/MR-subject-2.csv","legacy","2 5 4 8 7","Lentiform Loewenfeld","3.3.9","3","y","0","left","right","right","left","NA","675","45396","6350","675","NA","2","legacy","5","1024","2","48000","-16","experiment","2","even","4","622683","619348","620477","3687","133088","620479","607336","3693","126737","624686","625362","621481","49091","624686","NA","Sternberg task","74","84207","90","yes","1024"
"81.31868131868131","81.31868131868131","934.6703296703297","934.6703296703297","black","experiment","legacy","legacy","legacy","0","uniform","0","undefined","0","left","90","90","90","0","0","90","90","0","0","90","90","90","0","90","0","Sun Oct 24 20:32:48 2021","The main experiment item","yes","Sternbergtask.osexp","C:\Users\19565\Desktop","no","mono","no","18","no","white","no","yes","768","legacy","78","11","C:/Users/19565/Desktop/Lab 3/MR-subject-2.csv","legacy","9 8 4","Lentiform Loewenfeld","3.3.9","1","y","0","right","right","right","right","NA","848","45396","6350","848","NA","2","legacy","3","1024","2","48000","-16","experiment","2","even","9","628700","625367","626492","3687","133088","626494","607336","3693","126737","630705","631556","627497","49091","630705","NA","Sternberg task","74","85055","91","yes","1024"
"81.52173913043478","81.52173913043478","933.4130434782609","933.4130434782609","black","experiment","legacy","legacy","legacy","0","uniform","1","undefined","1","right","91","91","91","0","0","91","91","0","0","91","91","91","0","91","0","Sun Oct 24 20:32:48 2021","The main experiment item","yes","Sternbergtask.osexp","C:\Users\19565\Desktop","no","mono","no","18","no","white","no","yes","768","legacy","79","11","C:/Users/19565/Desktop/Lab 3/MR-subject-2.csv","legacy","2 8 6 3 1","Lentiform Loewenfeld","3.3.9","0","n","0","right","right","right","right","NA","819","45396","6350","819","NA","2","legacy","5","1024","2","48000","-16","experiment","2","even","7","634943","625367","632734","3687","133088","632737","631561","3693","126737","636947","637768","633739","49091","636947","NA","Sternberg task","75","85874","92","yes","1024"
"80.64516129032258","80.64516129032258","933.2795698924731","933.2795698924731","black","experiment","legacy","legacy","legacy","0","uniform","0","undefined","0","left","92","92","92","0","0","92","92","0","0","92","92","92","0","92","0","Sun Oct 24 20:32:48 2021","The main experiment item","yes","Sternbergtask.osexp","C:\Users\19565\Desktop","no","mono","no","18","no","white","no","yes","768","legacy","80","11","C:/Users/19565/Desktop/Lab 3/MR-subject-2.csv","legacy","4 1 8 7 5","Lentiform Loewenfeld","3.3.9","3","y","0","right","right","right","right","NA","921","45396","6350","921","NA","2","legacy","5","1024","2","48000","-16","experiment","2","even","8","641227","637774","639013","3687","133088","639018","631561","3693","126737","643231","644155","640022","49091","643231","NA","Sternberg task","75","86795","93","yes","1024"
"79.7872340425532","79.7872340425532","936.6702127659574","936.6702127659574","black","experiment","legacy","legacy","legacy","0","uniform","0","undefined","0","right","93","93","93","0","0","93","93","0","0","93","93","93","0","93","0","Sun Oct 24 20:32:48 2021","The main experiment item","yes","Sternbergtask.osexp","C:\Users\19565\Desktop","no","mono","no","18","no","white","no","yes","768","legacy","81","11","C:/Users/19565/Desktop/Lab 3/MR-subject-2.csv","legacy","8 5 4 2 9 6","Lentiform Loewenfeld","3.3.9","0","n","0","left","right","right","left","NA","1252","45396","6350","1252","NA","2","legacy","6","1024","2","48000","-16","experiment","2","even","3","647519","637774","645307","3687","133088","645309","644163","3693","126737","649523","650777","646313","49091","649523","NA","Sternberg task","75","88047","94","yes","1024"
"80","80","936.4842105263158","936.4842105263158","black","experiment","legacy","legacy","legacy","0","uniform","1","undefined","1","left","94","94","94","0","0","94","94","0","0","94","94","94","0","94","0","Sun Oct 24 20:32:48 2021","The main experiment item","yes","Sternbergtask.osexp","C:\Users\19565\Desktop","no","mono","no","18","no","white","no","yes","768","legacy","82","11","C:/Users/19565/Desktop/Lab 3/MR-subject-2.csv","legacy","7 2 3","Lentiform Loewenfeld","3.3.9","3","y","0","left","right","right","left","NA","919","45396","6350","919","NA","2","legacy","3","1024","2","48000","-16","experiment","2","even","3","654187","637774","651973","3687","133088","651978","650786","3693","126737","656189","657111","652983","49091","656189","NA","Sternberg task","76","88966","95","yes","1024"
"80.20833333333333","80.20833333333333","935.4479166666666","935.4479166666666","black","experiment","legacy","legacy","legacy","0","uniform","1","undefined","1","left","95","95","95","0","0","95","95","0","0","95","95","95","0","95","0","Sun Oct 24 20:32:48 2021","The main experiment item","yes","Sternbergtask.osexp","C:\Users\19565\Desktop","no","mono","no","18","no","white","no","yes","768","legacy","83","11","C:/Users/19565/Desktop/Lab 3/MR-subject-2.csv","legacy","5 2 9 6 1 7","Lentiform Loewenfeld","3.3.9","3","y","0","left","right","right","left","NA","837","45396","6350","837","NA","2","legacy","6","1024","2","48000","-16","experiment","2","even","9","660471","657117","658259","3687","133088","658263","650786","3693","126737","662477","663315","659267","49091","662476","NA","Sternberg task","77","89803","96","yes","1024"
"79.38144329896907","79.38144329896907","939.7010309278351","939.7010309278351","black","experiment","legacy","legacy","legacy","0","uniform","0","undefined","0","right","96","96","96","0","0","96","96","0","0","96","96","96","0","96","0","Sun Oct 24 20:32:48 2021","The main experiment item","yes","Sternbergtask.osexp","C:\Users\19565\Desktop","no","mono","no","18","no","white","no","yes","768","legacy","84","11","C:/Users/19565/Desktop/Lab 3/MR-subject-2.csv","legacy","6 9 5","Lentiform Loewenfeld","3.3.9","0","n","0","left","right","right","left","NA","1348","45396","6350","1348","NA","2","legacy","3","1024","2","48000","-16","experiment","2","even","8","666715","663322","664506","3687","133088","664508","650786","3693","126737","668720","670071","665510","49091","668719","NA","Sternberg task","77","91151","97","yes","1024"
"79.59183673469387","79.59183673469387","941.1020408163265","941.1020408163265","black","experiment","legacy","legacy","legacy","0","uniform","1","undefined","1","right","97","97","97","0","0","97","97","0","0","97","97","97","0","97","0","Sun Oct 24 20:32:48 2021","The main experiment item","yes","Sternbergtask.osexp","C:\Users\19565\Desktop","no","mono","no","18","no","white","no","yes","768","legacy","85","11","C:/Users/19565/Desktop/Lab 3/MR-subject-2.csv","legacy","3 9 1","Lentiform Loewenfeld","3.3.9","0","n","0","right","right","right","right","NA","1077","45396","6350","1077","NA","2","legacy","3","1024","2","48000","-16","experiment","2","even","7","673503","663322","671292","3687","133088","671294","670080","3693","126737","675508","676587","672298","49091","675508","NA","Sternberg task","78","92228","98","yes","1024"
"78.78787878787878","78.78787878787878","943.4848484848485","943.4848484848485","black","experiment","legacy","legacy","legacy","0","uniform","0","undefined","0","left","98","98","98","0","0","98","98","0","0","98","98","98","0","98","0","Sun Oct 24 20:32:48 2021","The main experiment item","yes","Sternbergtask.osexp","C:\Users\19565\Desktop","no","mono","no","18","no","white","no","yes","768","legacy","86","11","C:/Users/19565/Desktop/Lab 3/MR-subject-2.csv","legacy","3 2 1 4 7","Lentiform Loewenfeld","3.3.9","2","y","0","right","right","right","right","NA","1177","45396","6350","1177","NA","2","legacy","5","1024","2","48000","-16","experiment","2","even","2","679938","676594","677726","3687","133088","677729","670080","3693","126737","681944","683124","678733","49091","681943","NA","Sternberg task","78","93405","99","yes","1024"
"79","79","943.23","943.23","black","experiment","legacy","legacy","legacy","0","uniform","1","undefined","1","right","99","99","99","0","0","99","99","0","0","99","99","99","0","99","0","Sun Oct 24 20:32:48 2021","The main experiment item","yes","Sternbergtask.osexp","C:\Users\19565\Desktop","no","mono","no","18","no","white","no","yes","768","legacy","87","11","C:/Users/19565/Desktop/Lab 3/MR-subject-2.csv","legacy","2 5 1 4","Lentiform Loewenfeld","3.3.9","0","n","0","right","right","right","right","NA","918","45396","6350","918","NA","2","legacy","4","1024","2","48000","-16","experiment","2","even","6","686532","676594","684319","3687","133088","684321","683132","3693","126737","688537","689457","685326","49091","688536","NA","Sternberg task","79","94323","100","yes","1024"
"79.20792079207921","79.20792079207921","941.8613861386139","941.8613861386139","black","experiment","legacy","legacy","legacy","0","uniform","1","undefined","1","left","100","100","100","0","0","100","100","0","0","100","100","100","0","100","0","Sun Oct 24 20:32:48 2021","The main experiment item","yes","Sternbergtask.osexp","C:\Users\19565\Desktop","no","mono","no","18","no","white","no","yes","768","legacy","88","11","C:/Users/19565/Desktop/Lab 3/MR-subject-2.csv","legacy","6 7 8 5","Lentiform Loewenfeld","3.3.9","3","y","0","left","right","right","left","NA","805","45396","6350","805","NA","2","legacy","4","1024","2","48000","-16","experiment","2","even","8","692901","689462","690690","3687","133088","690693","683132","3693","126737","694906","695715","691697","49091","694905","NA","Sternberg task","80","95128","101","yes","1024"
"78.43137254901961","78.43137254901961","942.8725490196078","942.8725490196078","black","experiment","legacy","legacy","legacy","0","uniform","0","undefined","0","right","101","101","101","0","0","101","101","0","0","101","101","101","0","101","0","Sun Oct 24 20:32:48 2021","The main experiment item","yes","Sternbergtask.osexp","C:\Users\19565\Desktop","no","mono","no","18","no","white","no","yes","768","legacy","89","11","C:/Users/19565/Desktop/Lab 3/MR-subject-2.csv","legacy","5 7 3","Lentiform Loewenfeld","3.3.9","0","n","0","left","right","right","left","NA","1045","45396","6350","1045","NA","2","legacy","3","1024","2","48000","-16","experiment","2","even","9","699119","695725","696905","3687","133088","696909","683132","3693","126737","701124","702171","697914","49091","701123","NA","Sternberg task","80","96173","102","yes","1024"
"77.66990291262135","77.66990291262135","941.6310679611651","941.6310679611651","black","experiment","legacy","legacy","legacy","0","uniform","0","undefined","0","left","102","102","102","0","0","102","102","0","0","102","102","102","0","102","0","Sun Oct 24 20:32:48 2021","The main experiment item","yes","Sternbergtask.osexp","C:\Users\19565\Desktop","no","mono","no","18","no","white","no","yes","768","legacy","90","11","C:/Users/19565/Desktop/Lab 3/MR-subject-2.csv","legacy","7 8 6 3 1","Lentiform Loewenfeld","3.3.9","5","y","0","right","right","right","right","NA","815","45396","6350","815","NA","2","legacy","5","1024","2","48000","-16","experiment","2","even","1","705589","695725","703376","3687","133088","703379","702177","3693","126737","707594","708411","704384","49091","707593","NA","Sternberg task","80","96988","103","yes","1024"
"77.88461538461539","77.88461538461539","939.1923076923077","939.1923076923077","black","experiment","legacy","legacy","legacy","0","uniform","1","undefined","1","left","103","103","103","0","0","103","103","0","0","103","103","103","0","103","0","Sun Oct 24 20:32:48 2021","The main experiment item","yes","Sternbergtask.osexp","C:\Users\19565\Desktop","no","mono","no","18","no","white","no","yes","768","legacy","91","11","C:/Users/19565/Desktop/Lab 3/MR-subject-2.csv","legacy","6 2","Lentiform Loewenfeld","3.3.9","1","y","0","left","right","right","left","NA","688","45396","6350","688","NA","2","legacy","2","1024","2","48000","-16","experiment","2","even","6","711837","695725","709628","3687","133088","709631","708435","3693","126737","713842","714533","710635","49091","713841","NA","Sternberg task","81","97676","104","yes","1024"
"78.0952380952381","78.0952380952381","936.8761904761905","936.8761904761905","black","experiment","legacy","legacy","legacy","0","uniform","1","undefined","1","left","104","104","104","0","0","104","104","0","0","104","104","104","0","104","0","Sun Oct 24 20:32:48 2021","The main experiment item","yes","Sternbergtask.osexp","C:\Users\19565\Desktop","no","mono","no","18","no","white","no","yes","768","legacy","92","11","C:/Users/19565/Desktop/Lab 3/MR-subject-2.csv","legacy","7 6","Lentiform Loewenfeld","3.3.9","2","y","0","left","right","right","left","NA","696","45396","6350","696","NA","2","legacy","2","1024","2","48000","-16","experiment","2","even","6","717969","714542","715756","3687","133088","715758","708435","3693","126737","719974","720673","716763","49091","719973","NA","Sternberg task","82","98372","105","yes","1024"
"77.35849056603773","77.35849056603773","941.5377358490566","941.5377358490566","black","experiment","legacy","legacy","legacy","0","uniform","0","undefined","0","right","105","105","105","0","0","105","105","0","0","105","105","105","0","105","0","Sun Oct 24 20:32:48 2021","The main experiment item","yes","Sternbergtask.osexp","C:\Users\19565\Desktop","no","mono","no","18","no","white","no","yes","768","legacy","93","11","C:/Users/19565/Desktop/Lab 3/MR-subject-2.csv","legacy","7 8 6 1","Lentiform Loewenfeld","3.3.9","0","n","0","left","right","right","left","NA","1431","45396","6350","1431","NA","2","legacy","4","1024","2","48000","-16","experiment","2","even","3","724125","720681","721912","3687","133088","721915","708435","3693","126737","726131","727564","722920","49091","726130","NA","Sternberg task","82","99803","106","yes","1024"
"77.57009345794393","77.57009345794393","942.6542056074767","942.6542056074767","black","experiment","legacy","legacy","legacy","0","uniform","1","undefined","1","left","106","106","106","0","0","106","106","0","0","106","106","106","0","106","0","Sun Oct 24 20:32:48 2021","The main experiment item","yes","Sternbergtask.osexp","C:\Users\19565\Desktop","no","mono","no","18","no","white","no","yes","768","legacy","94","11","C:/Users/19565/Desktop/Lab 3/MR-subject-2.csv","legacy","2 8 5 1","Lentiform Loewenfeld","3.3.9","4","y","0","left","right","right","left","NA","1061","45396","6350","1061","NA","2","legacy","4","1024","2","48000","-16","experiment","2","even","1","731027","720681","728814","3687","133088","728818","727570","3693","126737","733032","734096","729822","49091","733032","NA","Sternberg task","83","100864","107","yes","1024"
"76.85185185185185","76.85185185185185","941.5462962962963","941.5462962962963","black","experiment","legacy","legacy","legacy","0","uniform","0","undefined","0","left","107","107","107","0","0","107","107","0","0","107","107","107","0","107","0","Sun Oct 24 20:32:48 2021","The main experiment item","yes","Sternbergtask.osexp","C:\Users\19565\Desktop","no","mono","no","18","no","white","no","yes","768","legacy","95","11","C:/Users/19565/Desktop/Lab 3/MR-subject-2.csv","legacy","8 5 3 7 4 6","Lentiform Loewenfeld","3.3.9","6","y","0","right","right","right","right","NA","823","45396","6350","823","NA","2","legacy","6","1024","2","48000","-16","experiment","2","even","6","737529","734103","735316","3687","133088","735319","727570","3693","126737","739534","740360","736323","49091","739533","NA","Sternberg task","83","101687","108","yes","1024"
"76.14678899082568","76.14678899082568","938.5963302752293","938.5963302752293","black","experiment","legacy","legacy","legacy","0","uniform","0","undefined","0","right","108","108","108","0","0","108","108","0","0","108","108","108","0","108","0","Sun Oct 24 20:32:48 2021","The main experiment item","yes","Sternbergtask.osexp","C:\Users\19565\Desktop","no","mono","no","18","no","white","no","yes","768","legacy","96","11","C:/Users/19565/Desktop/Lab 3/MR-subject-2.csv","legacy","5 9 2 3","Lentiform Loewenfeld","3.3.9","0","n","0","left","right","right","left","NA","620","45396","6350","620","NA","2","legacy","4","1024","2","48000","-16","experiment","2","even","8","743786","734103","741573","3687","133088","741577","740369","3693","126737","745790","746414","742582","49091","745789","NA","Sternberg task","83","102307","109","yes","1024"
"75.45454545454545","75.45454545454545","939.0090909090909","939.0090909090909","black","experiment","legacy","legacy","legacy","0","uniform","0","undefined","0","right","109","109","109","0","0","109","109","0","0","109","109","109","0","109","0","Sun Oct 24 20:32:48 2021","The main experiment item","yes","Sternbergtask.osexp","C:\Users\19565\Desktop","no","mono","no","18","no","white","no","yes","768","legacy","97","11","C:/Users/19565/Desktop/Lab 3/MR-subject-2.csv","legacy","1 4 3 6 5","Lentiform Loewenfeld","3.3.9","0","n","0","left","right","right","left","NA","984","45396","6350","984","NA","2","legacy","5","1024","2","48000","-16","experiment","2","even","8","749897","734103","747685","3687","133088","747689","746424","3693","126737","751902","752890","748693","49091","751901","NA","Sternberg task","83","103291","110","yes","1024"
"75.67567567567568","75.67567567567568","937.4594594594595","937.4594594594595","black","experiment","legacy","legacy","legacy","0","uniform","1","undefined","1","left","110","110","110","0","0","110","110","0","0","110","110","110","0","110","0","Sun Oct 24 20:32:48 2021","The main experiment item","yes","Sternbergtask.osexp","C:\Users\19565\Desktop","no","mono","no","18","no","white","no","yes","768","legacy","98","11","C:/Users/19565/Desktop/Lab 3/MR-subject-2.csv","legacy","6 9 3 1","Lentiform Loewenfeld","3.3.9","4","y","0","left","right","right","left","NA","767","45396","6350","767","NA","2","legacy","4","1024","2","48000","-16","experiment","2","even","1","756320","734103","754107","3687","133088","754109","752899","3693","126737","758324","759094","755115","49091","758324","NA","Sternberg task","84","104058","111","yes","1024"
"75.89285714285714","75.89285714285714","938.4732142857143","938.4732142857143","black","experiment","legacy","legacy","legacy","0","uniform","1","undefined","1","left","111","111","111","0","0","111","111","0","0","111","111","111","0","111","0","Sun Oct 24 20:32:48 2021","The main experiment item","yes","Sternbergtask.osexp","C:\Users\19565\Desktop","no","mono","no","18","no","white","no","yes","768","legacy","99","11","C:/Users/19565/Desktop/Lab 3/MR-subject-2.csv","legacy","4 6 2 5 1","Lentiform Loewenfeld","3.3.9","5","y","0","left","right","right","left","NA","1051","45396","6350","1051","NA","2","legacy","5","1024","2","48000","-16","experiment","2","even","1","762469","759103","760258","3687","133088","760261","752899","3693","126737","764474","765532","761265","49091","764473","NA","Sternberg task","85","105109","112","yes","1024"
"76.10619469026548","76.10619469026548","939.1681415929204","939.1681415929204","black","experiment","legacy","legacy","legacy","0","uniform","1","undefined","1","left","112","112","112","0","0","112","112","0","0","112","112","112","0","112","0","Sun Oct 24 20:32:48 2021","The main experiment item","yes","Sternbergtask.osexp","C:\Users\19565\Desktop","no","mono","no","18","no","white","no","yes","768","legacy","100","11","C:/Users/19565/Desktop/Lab 3/MR-subject-2.csv","legacy","9 4 2","Lentiform Loewenfeld","3.3.9","1","y","0","left","right","right","left","NA","1017","45396","6350","1017","NA","2","legacy","3","1024","2","48000","-16","experiment","2","even","9","768891","765541","766680","3687","133088","766682","752899","3693","126737","770898","771917","767687","49091","770897","NA","Sternberg task","86","106126","113","yes","1024"
"75.43859649122807","75.43859649122807","939.7982456140351","939.7982456140351","black","experiment","legacy","legacy","legacy","0","uniform","0","undefined","0","right","113","113","113","0","0","113","113","0","0","113","113","113","0","113","0","Sun Oct 24 20:32:48 2021","The main experiment item","yes","Sternbergtask.osexp","C:\Users\19565\Desktop","no","mono","no","18","no","white","no","yes","768","legacy","101","11","C:/Users/19565/Desktop/Lab 3/MR-subject-2.csv","legacy","6 9 4 5 3 2","Lentiform Loewenfeld","3.3.9","0","n","0","left","right","right","left","NA","1011","45396","6350","1011","NA","2","legacy","6","1024","2","48000","-16","experiment","2","even","8","775323","771928","773111","3687","133088","773114","752899","3693","126737","777329","778343","774119","49091","777328","NA","Sternberg task","86","107137","114","yes","1024"
"75.65217391304348","75.65217391304348","938.8695652173913","938.8695652173913","black","experiment","legacy","legacy","legacy","0","uniform","1","undefined","1","right","114","114","114","0","0","114","114","0","0","114","114","114","0","114","0","Sun Oct 24 20:32:48 2021","The main experiment item","yes","Sternbergtask.osexp","C:\Users\19565\Desktop","no","mono","no","18","no","white","no","yes","768","legacy","102","11","C:/Users/19565/Desktop/Lab 3/MR-subject-2.csv","legacy","1 7 5 2 9","Lentiform Loewenfeld","3.3.9","0","n","0","right","right","right","right","NA","833","45396","6350","833","NA","2","legacy","5","1024","2","48000","-16","experiment","2","even","3","781723","771928","779510","3687","133088","779513","778351","3693","126737","783728","784564","780517","49091","783728","NA","Sternberg task","87","107970","115","yes","1024"
"75.86206896551724","75.86206896551724","940.3534482758621","940.3534482758621","black","experiment","legacy","legacy","legacy","0","uniform","1","undefined","1","right","115","115","115","0","0","115","115","0","0","115","115","115","0","115","0","Sun Oct 24 20:32:48 2021","The main experiment item","yes","Sternbergtask.osexp","C:\Users\19565\Desktop","no","mono","no","18","no","white","no","yes","768","legacy","103","11","C:/Users/19565/Desktop/Lab 3/MR-subject-2.csv","legacy","1 6 4 3 9 7","Lentiform Loewenfeld","3.3.9","0","n","0","right","right","right","right","NA","1111","45396","6350","1111","NA","2","legacy","6","1024","2","48000","-16","experiment","2","even","8","787947","784588","785735","3687","133088","785737","778351","3693","126737","789952","791065","786742","49091","789952","NA","Sternberg task","88","109081","116","yes","1024"
"75.21367521367522","75.21367521367522","938.0854700854701","938.0854700854701","black","experiment","legacy","legacy","legacy","0","uniform","0","undefined","0","right","116","116","116","0","0","116","116","0","0","116","116","116","0","116","0","Sun Oct 24 20:32:48 2021","The main experiment item","yes","Sternbergtask.osexp","C:\Users\19565\Desktop","no","mono","no","18","no","white","no","yes","768","legacy","104","11","C:/Users/19565/Desktop/Lab 3/MR-subject-2.csv","legacy","5 3 2 6 9 8","Lentiform Loewenfeld","3.3.9","0","n","0","left","right","right","left","NA","675","45396","6350","675","NA","2","legacy","6","1024","2","48000","-16","experiment","2","even","4","794522","791070","792310","3687","133088","792314","778351","3693","126737","796526","797204","793318","49091","796525","NA","Sternberg task","88","109756","117","yes","1024"
"74.57627118644068","74.57627118644068","937.2372881355932","937.2372881355932","black","experiment","legacy","legacy","legacy","0","uniform","0","undefined","0","left","117","117","117","0","0","117","117","0","0","117","117","117","0","117","0","Sun Oct 24 20:32:48 2021","The main experiment item","yes","Sternbergtask.osexp","C:\Users\19565\Desktop","no","mono","no","18","no","white","no","yes","768","legacy","105","11","C:/Users/19565/Desktop/Lab 3/MR-subject-2.csv","legacy","7 4 2 6 3 5","Lentiform Loewenfeld","3.3.9","6","y","0","right","right","right","right","NA","838","45396","6350","838","NA","2","legacy","6","1024","2","48000","-16","experiment","2","even","5","800641","791070","798427","3687","133088","798431","797214","3693","126737","802646","803486","799435","49091","802645","NA","Sternberg task","88","110594","118","yes","1024"
