"acc","accuracy","average_response_time","avg_rt","background","block","canvas_backend","clock_backend","color_backend","correct","correct_instruction1","correct_keyboard_response","correct_response","count_ISI","count_PracticeLoop","count_correctFeedback","count_exSequence","count_experiment","count_experimentLoop","count_fixation","count_incorrectFeedback","count_instruction1","count_instructions2","count_keyboard_response","count_logger","count_memorySet","count_probe","count_thankYou","datetime","description","disable_garbage_collection","experiment_file","experiment_path","font_bold","font_family","font_italic","font_size","font_underline","foreground","form_clicks","fullscreen","height","keyboard_backend","live_row","live_row_PracticeLoop","logfile","mouse_backend","numberSet","opensesame_codename","opensesame_version","posInSet","present","repeat_cycle","response","response_instruction1","response_instructions2","response_keyboard_response","response_thankYou","response_time","response_time_instruction1","response_time_instructions2","response_time_keyboard_response","response_time_thankYou","round_decimals","sampler_backend","setSize","sound_buf_size","sound_channels","sound_freq","sound_sample_size","start","subject_nr","subject_parity","target","time_ISI","time_PracticeLoop","time_correctFeedback","time_exSequence","time_experiment","time_experimentLoop","time_fixation","time_incorrectFeedback","time_instruction1","time_instructions2","time_keyboard_response","time_logger","time_memorySet","time_probe","time_thankYou","title","total_correct","total_response_time","total_responses","width"
"0","0","2000","2000","black","practice","legacy","legacy","legacy","0","undefined","0","left","0","0","0","0","0","0","0","0","0","0","0","0","0","0","0","Mon Oct  9 13:21:36 2023","The main experiment item","True","SternbergTask.osexp","/Users/baileymcwhirter","False","mono","False","18","no","white","no","yes","768","legacy","0","0","/Users/baileymcwhirter/subject-1.csv","legacy","1 7 9 8 5","Melodramatic Milgram","4.0.5","4","y","0","None","left","NA","None","NA","2000.0","7087","NA","2000","NA","2","legacy","5","1024","2","48000","-16","experiment","1","odd","8","10619","8233","NA","8404","1081","NA","8408","NA","1127","NA","12621","14621","9413","12621","NA","Sternberg Task","0","2000.0","1","1024"
"50","50","1520","1520","black","practice","legacy","legacy","legacy","1","undefined","1","left","1","0","1","1","0","0","1","1","0","0","1","1","1","1","0","Mon Oct  9 13:21:36 2023","The main experiment item","True","SternbergTask.osexp","/Users/baileymcwhirter","False","mono","False","18","no","white","no","yes","768","legacy","1","1","/Users/baileymcwhirter/subject-1.csv","legacy","6","Melodramatic Milgram","4.0.5","1","y","0","left","left","NA","left","NA","1041.0","7087","NA","1041","NA","2","legacy","1","1024","2","48000","-16","experiment","1","odd","6","17907","8233","NA","15686","1081","NA","15693","14647","1127","NA","19912","20953","16700","19912","NA","Sternberg Task","1","3041.0","2","1024"
"66","66","1200","1200","black","practice","legacy","legacy","legacy","1","undefined","1","right","2","0","2","2","0","0","2","2","0","0","2","2","2","2","0","Mon Oct  9 13:21:36 2023","The main experiment item","True","SternbergTask.osexp","/Users/baileymcwhirter","False","mono","False","18","no","white","no","yes","768","legacy","2","2","/Users/baileymcwhirter/subject-1.csv","legacy","4 1 5","Melodramatic Milgram","4.0.5","0","n","0","right","left","NA","right","NA","559.0","7087","NA","559","NA","2","legacy","3","1024","2","48000","-16","experiment","1","odd","2","24210","8233","20956","21997","1081","NA","21999","14647","1127","NA","26213","26773","23004","26213","NA","Sternberg Task","2","3600.0","3","1024"
"50","50","1192","1192","black","practice","legacy","legacy","legacy","0","undefined","0","right","3","0","3","3","0","0","3","3","0","0","3","3","3","3","0","Mon Oct  9 13:21:36 2023","The main experiment item","True","SternbergTask.osexp","/Users/baileymcwhirter","False","mono","False","18","no","white","no","yes","768","legacy","3","3","/Users/baileymcwhirter/subject-1.csv","legacy","9 6 7 4 5","Melodramatic Milgram","4.0.5","0","n","0","left","left","NA","left","NA","1169.0","7087","NA","1169","NA","2","legacy","5","1024","2","48000","-16","experiment","1","odd","3","30030","8233","26775","27816","1081","NA","27818","14647","1127","NA","32033","33203","28821","32033","NA","Sternberg Task","2","4769.0","4","1024"
"60","60","1234","1234","black","practice","legacy","legacy","legacy","1","undefined","1","left","4","0","4","4","0","0","4","4","0","0","4","4","4","4","0","Mon Oct  9 13:21:36 2023","The main experiment item","True","SternbergTask.osexp","/Users/baileymcwhirter","False","mono","False","18","no","white","no","yes","768","legacy","4","4","/Users/baileymcwhirter/subject-1.csv","legacy","4 8","Melodramatic Milgram","4.0.5","1","y","0","left","left","NA","left","NA","1401.0","7087","NA","1401","NA","2","legacy","2","1024","2","48000","-16","experiment","1","odd","4","36461","8233","26775","34245","1081","NA","34248","33205","1127","NA","38464","39866","35253","38464","NA","Sternberg Task","3","6170.0","5","1024"
"66","66","1253","1253","black","practice","legacy","legacy","legacy","1","undefined","1","right","5","0","5","5","0","0","5","5","0","0","5","5","5","5","0","Mon Oct  9 13:21:36 2023","The main experiment item","True","SternbergTask.osexp","/Users/baileymcwhirter","False","mono","False","18","no","white","no","yes","768","legacy","5","5","/Users/baileymcwhirter/subject-1.csv","legacy","5 7 8 4 1 2","Melodramatic Milgram","4.0.5","0","n","0","right","left","NA","right","NA","1353.0","7087","NA","1353","NA","2","legacy","6","1024","2","48000","-16","experiment","1","odd","6","43111","8233","39869","40900","1081","NA","40902","33205","1127","NA","45114","46468","41905","45114","NA","Sternberg Task","4","7523.0","6","1024"
"57","57","1360","1360","black","practice","legacy","legacy","legacy","0","undefined","0","right","6","0","6","6","0","0","6","6","0","0","6","6","6","6","0","Mon Oct  9 13:21:36 2023","The main experiment item","True","SternbergTask.osexp","/Users/baileymcwhirter","False","mono","False","18","no","white","no","yes","768","legacy","6","6","/Users/baileymcwhirter/subject-1.csv","legacy","5","Melodramatic Milgram","4.0.5","0","n","0","None","left","NA","None","NA","2000.0","7087","NA","2000","NA","2","legacy","1","1024","2","48000","-16","experiment","1","odd","3","49713","8233","46471","47502","1081","NA","47504","33205","1127","NA","51718","53718","48507","51718","NA","Sternberg Task","4","9523.0","7","1024"
"62","62","1344","1344","black","practice","legacy","legacy","legacy","1","undefined","1","left","7","0","7","7","0","0","7","7","0","0","7","7","7","7","0","Mon Oct  9 13:21:36 2023","The main experiment item","True","SternbergTask.osexp","/Users/baileymcwhirter","False","mono","False","18","no","white","no","yes","768","legacy","7","7","/Users/baileymcwhirter/subject-1.csv","legacy","2 9 4","Melodramatic Milgram","4.0.5","3","y","0","left","left","NA","left","NA","1231.0","7087","NA","1231","NA","2","legacy","3","1024","2","48000","-16","experiment","1","odd","4","56980","8233","46471","54768","1081","NA","54770","53720","1127","NA","58984","60215","55773","58984","NA","Sternberg Task","5","10754.0","8","1024"
"66","66","1260","1260","black","practice","legacy","legacy","legacy","1","undefined","1","right","8","0","8","8","0","0","8","8","0","0","8","8","8","8","0","Mon Oct  9 13:21:36 2023","The main experiment item","True","SternbergTask.osexp","/Users/baileymcwhirter","False","mono","False","18","no","white","no","yes","768","legacy","8","8","/Users/baileymcwhirter/subject-1.csv","legacy","2 1","Melodramatic Milgram","4.0.5","0","n","0","right","left","NA","right","NA","593.0","7087","NA","593","NA","2","legacy","2","1024","2","48000","-16","experiment","1","odd","5","63481","8233","60219","61263","1081","NA","61266","53720","1127","NA","65484","66077","62273","65484","NA","Sternberg Task","6","11347.0","9","1024"
"70","70","1318","1318","black","practice","legacy","legacy","legacy","1","undefined","1","left","9","0","9","9","0","0","9","9","0","0","9","9","9","9","0","Mon Oct  9 13:21:36 2023","The main experiment item","True","SternbergTask.osexp","/Users/baileymcwhirter","False","mono","False","18","no","white","no","yes","768","legacy","9","9","/Users/baileymcwhirter/subject-1.csv","legacy","4 3 1 7 9 8","Melodramatic Milgram","4.0.5","1","y","0","left","left","NA","left","NA","1841.0","7087","NA","1841","NA","2","legacy","6","1024","2","48000","-16","experiment","1","odd","4","69338","8233","66080","67125","1081","NA","67127","53720","1127","NA","71341","73183","68132","71341","NA","Sternberg Task","7","13188.0","10","1024"
"72","72","1363","1363","black","practice","legacy","legacy","legacy","1","undefined","1","right","10","0","10","10","0","0","10","10","0","0","10","10","10","10","0","Mon Oct  9 13:21:36 2023","The main experiment item","True","SternbergTask.osexp","/Users/baileymcwhirter","False","mono","False","18","no","white","no","yes","768","legacy","10","10","/Users/baileymcwhirter/subject-1.csv","legacy","3 1 9 4","Melodramatic Milgram","4.0.5","0","n","0","right","left","NA","right","NA","1810.0","7087","NA","1810","NA","2","legacy","4","1024","2","48000","-16","experiment","1","odd","6","76447","8233","73186","74230","1081","NA","74233","53720","1127","NA","78449","80260","75241","78449","NA","Sternberg Task","8","14998.0","11","1024"
"75","75","1363","1363","black","practice","legacy","legacy","legacy","1","undefined","1","left","11","0","11","11","0","0","11","11","0","0","11","11","11","11","0","Mon Oct  9 13:21:36 2023","The main experiment item","True","SternbergTask.osexp","/Users/baileymcwhirter","False","mono","False","18","no","white","no","yes","768","legacy","11","11","/Users/baileymcwhirter/subject-1.csv","legacy","1 5 2 9","Melodramatic Milgram","4.0.5","2","y","0","left","left","NA","left","NA","1365.0","7087","NA","1365","NA","2","legacy","4","1024","2","48000","-16","experiment","1","odd","5","83512","8233","80263","81302","1081","NA","81305","53720","1127","NA","85514","86880","82308","85514","NA","Sternberg Task","9","16363.0","12","1024"
"76","76","1336","1336","black","experiment","legacy","legacy","legacy","1","undefined","1","left","12","0","12","12","0","0","12","12","0","0","12","12","12","12","0","Mon Oct  9 13:21:36 2023","The main experiment item","True","SternbergTask.osexp","/Users/baileymcwhirter","False","mono","False","18","no","white","no","yes","768","legacy","0","11","/Users/baileymcwhirter/subject-1.csv","legacy","6 7 9 3 1 2","Melodramatic Milgram","4.0.5","1","y","0","left","left","right","left","NA","1014.0","7087","12419","1014","NA","2","legacy","6","1024","2","48000","-16","experiment","1","odd","6","102577","8233","86882","100363","1081","100312","100365","53720","1127","87892","104579","105594","101369","104579","NA","Sternberg Task","10","17377.0","13","1024"
"78","78","1295","1295","black","experiment","legacy","legacy","legacy","1","undefined","1","right","13","0","13","13","0","0","13","13","0","0","13","13","13","13","0","Mon Oct  9 13:21:36 2023","The main experiment item","True","SternbergTask.osexp","/Users/baileymcwhirter","False","mono","False","18","no","white","no","yes","768","legacy","1","11","/Users/baileymcwhirter/subject-1.csv","legacy","1 6 4","Melodramatic Milgram","4.0.5","0","n","0","right","left","right","right","NA","754.0","7087","12419","754","NA","2","legacy","3","1024","2","48000","-16","experiment","1","odd","7","108842","8233","105597","106632","1081","100312","106634","53720","1127","87892","110845","111600","107638","110845","NA","Sternberg Task","11","18131.0","14","1024"
"80","80","1267","1267","black","experiment","legacy","legacy","legacy","1","undefined","1","left","14","0","14","14","0","0","14","14","0","0","14","14","14","14","0","Mon Oct  9 13:21:36 2023","The main experiment item","True","SternbergTask.osexp","/Users/baileymcwhirter","False","mono","False","18","no","white","no","yes","768","legacy","2","11","/Users/baileymcwhirter/subject-1.csv","legacy","4 6 2 5 1","Melodramatic Milgram","4.0.5","5","y","0","left","left","right","left","NA","875.0","7087","12419","875","NA","2","legacy","5","1024","2","48000","-16","experiment","1","odd","1","114860","8233","111602","112645","1081","100312","112647","53720","1127","87892","116863","117738","113653","116863","NA","Sternberg Task","12","19006.0","15","1024"
"81","81","1235","1235","black","experiment","legacy","legacy","legacy","1","undefined","1","right","15","0","15","15","0","0","15","15","0","0","15","15","15","15","0","Mon Oct  9 13:21:36 2023","The main experiment item","True","SternbergTask.osexp","/Users/baileymcwhirter","False","mono","False","18","no","white","no","yes","768","legacy","3","11","/Users/baileymcwhirter/subject-1.csv","legacy","2 8 9 4 1","Melodramatic Milgram","4.0.5","0","n","0","right","left","right","right","NA","756.0","7087","12419","756","NA","2","legacy","5","1024","2","48000","-16","experiment","1","odd","5","120996","8233","117742","118782","1081","100312","118784","53720","1127","87892","122998","123755","119790","122998","NA","Sternberg Task","13","19762.0","16","1024"
"82","82","1229","1229","black","experiment","legacy","legacy","legacy","1","undefined","1","right","16","0","16","16","0","0","16","16","0","0","16","16","16","16","0","Mon Oct  9 13:21:36 2023","The main experiment item","True","SternbergTask.osexp","/Users/baileymcwhirter","False","mono","False","18","no","white","no","yes","768","legacy","4","11","/Users/baileymcwhirter/subject-1.csv","legacy","2 8 7 9 5 3","Melodramatic Milgram","4.0.5","0","n","0","right","left","right","right","NA","1133.0","7087","12419","1133","NA","2","legacy","6","1024","2","48000","-16","experiment","1","odd","6","126999","8233","123757","124788","1081","100312","124790","53720","1127","87892","129002","130135","125794","129002","NA","Sternberg Task","14","20895.0","17","1024"
"83","83","1210","1210","black","experiment","legacy","legacy","legacy","1","undefined","1","right","17","0","17","17","0","0","17","17","0","0","17","17","17","17","0","Mon Oct  9 13:21:36 2023","The main experiment item","True","SternbergTask.osexp","/Users/baileymcwhirter","False","mono","False","18","no","white","no","yes","768","legacy","5","11","/Users/baileymcwhirter/subject-1.csv","legacy","7 3 2 8","Melodramatic Milgram","4.0.5","0","n","0","right","left","right","right","NA","893.0","7087","12419","893","NA","2","legacy","4","1024","2","48000","-16","experiment","1","odd","4","133385","8233","130138","131174","1081","100312","131176","53720","1127","87892","135386","136280","132180","135386","NA","Sternberg Task","15","21788.0","18","1024"
"84","84","1177","1177","black","experiment","legacy","legacy","legacy","1","undefined","1","left","18","0","18","18","0","0","18","18","0","0","18","18","18","18","0","Mon Oct  9 13:21:36 2023","The main experiment item","True","SternbergTask.osexp","/Users/baileymcwhirter","False","mono","False","18","no","white","no","yes","768","legacy","6","11","/Users/baileymcwhirter/subject-1.csv","legacy","4","Melodramatic Milgram","4.0.5","1","y","0","left","left","right","left","NA","582.0","7087","12419","582","NA","2","legacy","1","1024","2","48000","-16","experiment","1","odd","4","139525","8233","136282","137315","1081","100312","137318","53720","1127","87892","141527","142110","138320","141527","NA","Sternberg Task","16","22370.0","19","1024"
"85","85","1190","1190","black","experiment","legacy","legacy","legacy","1","undefined","1","left","19","0","19","19","0","0","19","19","0","0","19","19","19","19","0","Mon Oct  9 13:21:36 2023","The main experiment item","True","SternbergTask.osexp","/Users/baileymcwhirter","False","mono","False","18","no","white","no","yes","768","legacy","7","11","/Users/baileymcwhirter/subject-1.csv","legacy","3 5 4 7","Melodramatic Milgram","4.0.5","1","y","0","left","left","right","left","NA","1438.0","7087","12419","1438","NA","2","legacy","4","1024","2","48000","-16","experiment","1","odd","3","145360","8233","142113","143148","1081","100312","143151","53720","1127","87892","147363","148802","144154","147363","NA","Sternberg Task","17","23808.0","20","1024"
"85","85","1181","1181","black","experiment","legacy","legacy","legacy","1","undefined","1","right","20","0","20","20","0","0","20","20","0","0","20","20","20","20","0","Mon Oct  9 13:21:36 2023","The main experiment item","True","SternbergTask.osexp","/Users/baileymcwhirter","False","mono","False","18","no","white","no","yes","768","legacy","8","11","/Users/baileymcwhirter/subject-1.csv","legacy","7 1 8 4 9 3","Melodramatic Milgram","4.0.5","0","n","0","right","left","right","right","NA","1008.0","7087","12419","1008","NA","2","legacy","6","1024","2","48000","-16","experiment","1","odd","6","152048","8233","148805","149837","1081","100312","149839","53720","1127","87892","154050","155059","150842","154050","NA","Sternberg Task","18","24816.0","21","1024"
"86","86","1209","1209","black","experiment","legacy","legacy","legacy","1","undefined","1","right","21","0","21","21","0","0","21","21","0","0","21","21","21","21","0","Mon Oct  9 13:21:36 2023","The main experiment item","True","SternbergTask.osexp","/Users/baileymcwhirter","False","mono","False","18","no","white","no","yes","768","legacy","9","11","/Users/baileymcwhirter/subject-1.csv","legacy","8 6 3 4 7","Melodramatic Milgram","4.0.5","0","n","0","right","left","right","right","NA","1792.0","7087","12419","1792","NA","2","legacy","5","1024","2","48000","-16","experiment","1","odd","1","158308","8233","155061","156100","1081","100312","156102","53720","1127","87892","160312","162105","157104","160312","NA","Sternberg Task","19","26608.0","22","1024"
"86","86","1192","1192","black","experiment","legacy","legacy","legacy","1","undefined","1","left","22","0","22","22","0","0","22","22","0","0","22","22","22","22","0","Mon Oct  9 13:21:36 2023","The main experiment item","True","SternbergTask.osexp","/Users/baileymcwhirter","False","mono","False","18","no","white","no","yes","768","legacy","10","11","/Users/baileymcwhirter/subject-1.csv","legacy","7","Melodramatic Milgram","4.0.5","1","y","0","left","left","right","left","NA","809.0","7087","12419","809","NA","2","legacy","1","1024","2","48000","-16","experiment","1","odd","7","165353","8233","162107","163142","1081","100312","163144","53720","1127","87892","167354","168163","164148","167354","NA","Sternberg Task","20","27417.0","23","1024"
"87","87","1187","1187","black","experiment","legacy","legacy","legacy","1","undefined","1","right","23","0","23","23","0","0","23","23","0","0","23","23","23","23","0","Mon Oct  9 13:21:36 2023","The main experiment item","True","SternbergTask.osexp","/Users/baileymcwhirter","False","mono","False","18","no","white","no","yes","768","legacy","11","11","/Users/baileymcwhirter/subject-1.csv","legacy","6 9 5","Melodramatic Milgram","4.0.5","0","n","0","right","left","right","right","NA","1084.0","7087","12419","1084","NA","2","legacy","3","1024","2","48000","-16","experiment","1","odd","8","171416","8233","168166","169207","1081","100312","169209","53720","1127","87892","173418","174503","170211","173418","NA","Sternberg Task","21","28501.0","24","1024"
"88","88","1172","1172","black","experiment","legacy","legacy","legacy","1","undefined","1","left","24","0","24","24","0","0","24","24","0","0","24","24","24","24","0","Mon Oct  9 13:21:36 2023","The main experiment item","True","SternbergTask.osexp","/Users/baileymcwhirter","False","mono","False","18","no","white","no","yes","768","legacy","12","11","/Users/baileymcwhirter/subject-1.csv","legacy","9 3 8 2 1 4","Melodramatic Milgram","4.0.5","3","y","0","left","left","right","left","NA","799.0","7087","12419","799","NA","2","legacy","6","1024","2","48000","-16","experiment","1","odd","8","177748","8233","174506","175538","1081","100312","175540","53720","1127","87892","179750","180549","176543","179750","NA","Sternberg Task","22","29300.0","25","1024"
"88","88","1178","1178","black","experiment","legacy","legacy","legacy","1","undefined","1","right","25","0","25","25","0","0","25","25","0","0","25","25","25","25","0","Mon Oct  9 13:21:36 2023","The main experiment item","True","SternbergTask.osexp","/Users/baileymcwhirter","False","mono","False","18","no","white","no","yes","768","legacy","13","11","/Users/baileymcwhirter/subject-1.csv","legacy","2 5 1 4","Melodramatic Milgram","4.0.5","0","n","0","right","left","right","right","NA","1349.0","7087","12419","1349","NA","2","legacy","4","1024","2","48000","-16","experiment","1","odd","6","183798","8233","180552","181586","1081","100312","181588","53720","1127","87892","185800","187150","182593","185800","NA","Sternberg Task","23","30649.0","26","1024"
"88","88","1177","1177","black","experiment","legacy","legacy","legacy","1","undefined","1","left","26","0","26","26","0","0","26","26","0","0","26","26","26","26","0","Mon Oct  9 13:21:36 2023","The main experiment item","True","SternbergTask.osexp","/Users/baileymcwhirter","False","mono","False","18","no","white","no","yes","768","legacy","14","11","/Users/baileymcwhirter/subject-1.csv","legacy","2 6 1 7 4","Melodramatic Milgram","4.0.5","2","y","0","left","left","right","left","NA","1137.0","7087","12419","1137","NA","2","legacy","5","1024","2","48000","-16","experiment","1","odd","6","190393","8233","187153","188183","1081","100312","188185","53720","1127","87892","192396","193534","189189","192396","NA","Sternberg Task","24","31786.0","27","1024"
"89","89","1165","1165","black","experiment","legacy","legacy","legacy","1","undefined","1","left","27","0","27","27","0","0","27","27","0","0","27","27","27","27","0","Mon Oct  9 13:21:36 2023","The main experiment item","True","SternbergTask.osexp","/Users/baileymcwhirter","False","mono","False","18","no","white","no","yes","768","legacy","15","11","/Users/baileymcwhirter/subject-1.csv","legacy","3 2 1 4 7","Melodramatic Milgram","4.0.5","2","y","0","left","left","right","left","NA","843.0","7087","12419","843","NA","2","legacy","5","1024","2","48000","-16","experiment","1","odd","2","196795","8233","193537","194585","1081","100312","194587","53720","1127","87892","198797","199641","195589","198797","NA","Sternberg Task","25","32629.0","28","1024"
"89","89","1150","1150","black","experiment","legacy","legacy","legacy","1","undefined","1","left","28","0","28","28","0","0","28","28","0","0","28","28","28","28","0","Mon Oct  9 13:21:36 2023","The main experiment item","True","SternbergTask.osexp","/Users/baileymcwhirter","False","mono","False","18","no","white","no","yes","768","legacy","16","11","/Users/baileymcwhirter/subject-1.csv","legacy","5 7 3 6 2","Melodramatic Milgram","4.0.5","5","y","0","left","left","right","left","NA","726.0","7087","12419","726","NA","2","legacy","5","1024","2","48000","-16","experiment","1","odd","2","202894","8233","199644","200683","1081","100312","200685","53720","1127","87892","204896","205623","201689","204896","NA","Sternberg Task","26","33355.0","29","1024"
"90","90","1131","1131","black","experiment","legacy","legacy","legacy","1","undefined","1","left","29","0","29","29","0","0","29","29","0","0","29","29","29","29","0","Mon Oct  9 13:21:36 2023","The main experiment item","True","SternbergTask.osexp","/Users/baileymcwhirter","False","mono","False","18","no","white","no","yes","768","legacy","17","11","/Users/baileymcwhirter/subject-1.csv","legacy","4 6 5 8","Melodramatic Milgram","4.0.5","1","y","0","left","left","right","left","NA","580.0","7087","12419","580","NA","2","legacy","4","1024","2","48000","-16","experiment","1","odd","4","208872","8233","205625","206661","1081","100312","206663","53720","1127","87892","210874","211455","207666","210874","NA","Sternberg Task","27","33935.0","30","1024"
"90","90","1118","1118","black","experiment","legacy","legacy","legacy","1","undefined","1","right","30","0","30","30","0","0","30","30","0","0","30","30","30","30","0","Mon Oct  9 13:21:36 2023","The main experiment item","True","SternbergTask.osexp","/Users/baileymcwhirter","False","mono","False","18","no","white","no","yes","768","legacy","18","11","/Users/baileymcwhirter/subject-1.csv","legacy","8 4 3 9","Melodramatic Milgram","4.0.5","0","n","0","right","left","right","right","NA","740.0","7087","12419","740","NA","2","legacy","4","1024","2","48000","-16","experiment","1","odd","5","214701","8233","211457","212490","1081","100312","212492","53720","1127","87892","216703","217443","213495","216703","NA","Sternberg Task","28","34675.0","31","1024"
"90","90","1112","1112","black","experiment","legacy","legacy","legacy","1","undefined","1","right","31","0","31","31","0","0","31","31","0","0","31","31","31","31","0","Mon Oct  9 13:21:36 2023","The main experiment item","True","SternbergTask.osexp","/Users/baileymcwhirter","False","mono","False","18","no","white","no","yes","768","legacy","19","11","/Users/baileymcwhirter/subject-1.csv","legacy","8 2 1 4 5 9","Melodramatic Milgram","4.0.5","0","n","0","right","left","right","right","NA","934.0","7087","12419","934","NA","2","legacy","6","1024","2","48000","-16","experiment","1","odd","7","220693","8233","217446","218480","1081","100312","218482","53720","1127","87892","222694","223628","219487","222694","NA","Sternberg Task","29","35609.0","32","1024"
"90","90","1132","1132","black","experiment","legacy","legacy","legacy","1","undefined","1","right","32","0","32","32","0","0","32","32","0","0","32","32","32","32","0","Mon Oct  9 13:21:36 2023","The main experiment item","True","SternbergTask.osexp","/Users/baileymcwhirter","False","mono","False","18","no","white","no","yes","768","legacy","20","11","/Users/baileymcwhirter/subject-1.csv","legacy","1 6 4 3 9 7","Melodramatic Milgram","4.0.5","0","n","0","right","left","right","right","NA","1749.0","7087","12419","1749","NA","2","legacy","6","1024","2","48000","-16","experiment","1","odd","8","226873","8233","223631","224662","1081","100312","224664","53720","1127","87892","228875","230625","225668","228875","NA","Sternberg Task","30","37358.0","33","1024"
"91","91","1119","1119","black","experiment","legacy","legacy","legacy","1","undefined","1","right","33","0","33","33","0","0","33","33","0","0","33","33","33","33","0","Mon Oct  9 13:21:36 2023","The main experiment item","True","SternbergTask.osexp","/Users/baileymcwhirter","False","mono","False","18","no","white","no","yes","768","legacy","21","11","/Users/baileymcwhirter/subject-1.csv","legacy","4 2 7 6 1 3","Melodramatic Milgram","4.0.5","0","n","0","right","left","right","right","NA","716.0","7087","12419","716","NA","2","legacy","6","1024","2","48000","-16","experiment","1","odd","8","233870","8233","230627","231658","1081","100312","231660","53720","1127","87892","235872","236589","232665","235872","NA","Sternberg Task","31","38074.0","34","1024"
"91","91","1121","1121","black","experiment","legacy","legacy","legacy","1","undefined","1","right","34","0","34","34","0","0","34","34","0","0","34","34","34","34","0","Mon Oct  9 13:21:36 2023","The main experiment item","True","SternbergTask.osexp","/Users/baileymcwhirter","False","mono","False","18","no","white","no","yes","768","legacy","22","11","/Users/baileymcwhirter/subject-1.csv","legacy","7 8 6 1","Melodramatic Milgram","4.0.5","0","n","0","right","left","right","right","NA","1167.0","7087","12419","1167","NA","2","legacy","4","1024","2","48000","-16","experiment","1","odd","3","239838","8233","236591","237628","1081","100312","237630","53720","1127","87892","241839","243007","238632","241839","NA","Sternberg Task","32","39241.0","35","1024"
"91","91","1125","1125","black","experiment","legacy","legacy","legacy","1","undefined","1","left","35","0","35","35","0","0","35","35","0","0","35","35","35","35","0","Mon Oct  9 13:21:36 2023","The main experiment item","True","SternbergTask.osexp","/Users/baileymcwhirter","False","mono","False","18","no","white","no","yes","768","legacy","23","11","/Users/baileymcwhirter/subject-1.csv","legacy","3 9 6 2","Melodramatic Milgram","4.0.5","4","y","0","left","left","right","left","NA","1273.0","7087","12419","1273","NA","2","legacy","4","1024","2","48000","-16","experiment","1","odd","2","246260","8233","243009","244050","1081","100312","244052","53720","1127","87892","248262","249536","245056","248262","NA","Sternberg Task","33","40514.0","36","1024"
"91","91","1112","1112","black","experiment","legacy","legacy","legacy","1","undefined","1","left","36","0","36","36","0","0","36","36","0","0","36","36","36","36","0","Mon Oct  9 13:21:36 2023","The main experiment item","True","SternbergTask.osexp","/Users/baileymcwhirter","False","mono","False","18","no","white","no","yes","768","legacy","24","11","/Users/baileymcwhirter/subject-1.csv","legacy","8 1 6","Melodramatic Milgram","4.0.5","3","y","0","left","left","right","left","NA","665.0","7087","12419","665","NA","2","legacy","3","1024","2","48000","-16","experiment","1","odd","6","252780","8233","249538","250567","1081","100312","250570","53720","1127","87892","254784","255450","251575","254784","NA","Sternberg Task","34","41179.0","37","1024"
"92","92","1113","1113","black","experiment","legacy","legacy","legacy","1","undefined","1","left","37","0","37","37","0","0","37","37","0","0","37","37","37","37","0","Mon Oct  9 13:21:36 2023","The main experiment item","True","SternbergTask.osexp","/Users/baileymcwhirter","False","mono","False","18","no","white","no","yes","768","legacy","25","11","/Users/baileymcwhirter/subject-1.csv","legacy","7 1 3","Melodramatic Milgram","4.0.5","2","y","0","left","left","right","left","NA","1130.0","7087","12419","1130","NA","2","legacy","3","1024","2","48000","-16","experiment","1","odd","1","258694","8233","255453","256484","1081","100312","256487","53720","1127","87892","260695","261826","257489","260695","NA","Sternberg Task","35","42309.0","38","1024"
"92","92","1112","1112","black","experiment","legacy","legacy","legacy","1","undefined","1","left","38","0","38","38","0","0","38","38","0","0","38","38","38","38","0","Mon Oct  9 13:21:36 2023","The main experiment item","True","SternbergTask.osexp","/Users/baileymcwhirter","False","mono","False","18","no","white","no","yes","768","legacy","26","11","/Users/baileymcwhirter/subject-1.csv","legacy","4 7 6 8 2 3","Melodramatic Milgram","4.0.5","6","y","0","left","left","right","left","NA","1096.0","7087","12419","1096","NA","2","legacy","6","1024","2","48000","-16","experiment","1","odd","3","265072","8233","261829","262861","1081","100312","262864","53720","1127","87892","267075","268171","263866","267075","NA","Sternberg Task","36","43405.0","39","1024"
"92","92","1107","1107","black","experiment","legacy","legacy","legacy","1","undefined","1","right","39","0","39","39","0","0","39","39","0","0","39","39","39","39","0","Mon Oct  9 13:21:36 2023","The main experiment item","True","SternbergTask.osexp","/Users/baileymcwhirter","False","mono","False","18","no","white","no","yes","768","legacy","27","11","/Users/baileymcwhirter/subject-1.csv","legacy","5 7 3","Melodramatic Milgram","4.0.5","0","n","0","right","left","right","right","NA","875.0","7087","12419","875","NA","2","legacy","3","1024","2","48000","-16","experiment","1","odd","9","271424","8233","268174","269212","1081","100312","269214","53720","1127","87892","273426","274301","270218","273426","NA","Sternberg Task","37","44280.0","40","1024"
"92","92","1103","1103","black","experiment","legacy","legacy","legacy","1","undefined","1","left","40","0","40","40","0","0","40","40","0","0","40","40","40","40","0","Mon Oct  9 13:21:36 2023","The main experiment item","True","SternbergTask.osexp","/Users/baileymcwhirter","False","mono","False","18","no","white","no","yes","768","legacy","28","11","/Users/baileymcwhirter/subject-1.csv","legacy","3 9 7 6 4","Melodramatic Milgram","4.0.5","3","y","0","left","left","right","left","NA","979.0","7087","12419","979","NA","2","legacy","5","1024","2","48000","-16","experiment","1","odd","7","277546","8233","274304","275335","1081","100312","275337","53720","1127","87892","279551","280531","276341","279550","NA","Sternberg Task","38","45259.0","41","1024"
"92","92","1089","1089","black","experiment","legacy","legacy","legacy","1","undefined","1","right","41","0","41","41","0","0","41","41","0","0","41","41","41","41","0","Mon Oct  9 13:21:36 2023","The main experiment item","True","SternbergTask.osexp","/Users/baileymcwhirter","False","mono","False","18","no","white","no","yes","768","legacy","29","11","/Users/baileymcwhirter/subject-1.csv","legacy","1 4 9 3","Melodramatic Milgram","4.0.5","0","n","0","right","left","right","right","NA","506.0","7087","12419","506","NA","2","legacy","4","1024","2","48000","-16","experiment","1","odd","5","283776","8233","280533","281565","1081","100312","281567","53720","1127","87892","285779","286286","282570","285779","NA","Sternberg Task","39","45765.0","42","1024"
"93","93","1097","1097","black","experiment","legacy","legacy","legacy","1","undefined","1","left","42","0","42","42","0","0","42","42","0","0","42","42","42","42","0","Mon Oct  9 13:21:36 2023","The main experiment item","True","SternbergTask.osexp","/Users/baileymcwhirter","False","mono","False","18","no","white","no","yes","768","legacy","30","11","/Users/baileymcwhirter/subject-1.csv","legacy","9 6 2 4 1","Melodramatic Milgram","4.0.5","4","y","0","left","left","right","left","NA","1422.0","7087","12419","1422","NA","2","legacy","5","1024","2","48000","-16","experiment","1","odd","4","289533","8233","286289","287320","1081","100312","287322","53720","1127","87892","291535","292958","288326","291535","NA","Sternberg Task","40","47187.0","43","1024"
"93","93","1085","1085","black","experiment","legacy","legacy","legacy","1","undefined","1","left","43","0","43","43","0","0","43","43","0","0","43","43","43","43","0","Mon Oct  9 13:21:36 2023","The main experiment item","True","SternbergTask.osexp","/Users/baileymcwhirter","False","mono","False","18","no","white","no","yes","768","legacy","31","11","/Users/baileymcwhirter/subject-1.csv","legacy","9 4 2","Melodramatic Milgram","4.0.5","1","y","0","left","left","right","left","NA","564.0","7087","12419","564","NA","2","legacy","3","1024","2","48000","-16","experiment","1","odd","9","296206","8233","292960","293994","1081","100312","293996","53720","1127","87892","298208","298773","295000","298208","NA","Sternberg Task","41","47751.0","44","1024"
"93","93","1077","1077","black","experiment","legacy","legacy","legacy","1","undefined","1","right","44","0","44","44","0","0","44","44","0","0","44","44","44","44","0","Mon Oct  9 13:21:36 2023","The main experiment item","True","SternbergTask.osexp","/Users/baileymcwhirter","False","mono","False","18","no","white","no","yes","768","legacy","32","11","/Users/baileymcwhirter/subject-1.csv","legacy","9 5 3 2 8 6","Melodramatic Milgram","4.0.5","0","n","0","right","left","right","right","NA","728.0","7087","12419","728","NA","2","legacy","6","1024","2","48000","-16","experiment","1","odd","7","302017","8233","298776","299805","1081","100312","299808","53720","1127","87892","304019","304748","300812","304019","NA","Sternberg Task","42","48479.0","45","1024"
"91","91","1068","1068","black","experiment","legacy","legacy","legacy","0","undefined","0","right","45","0","45","45","0","0","45","45","0","0","45","45","45","45","0","Mon Oct  9 13:21:36 2023","The main experiment item","True","SternbergTask.osexp","/Users/baileymcwhirter","False","mono","False","18","no","white","no","yes","768","legacy","33","11","/Users/baileymcwhirter/subject-1.csv","legacy","1 8 7","Melodramatic Milgram","4.0.5","0","n","0","left","left","right","left","NA","667.0","7087","12419","667","NA","2","legacy","3","1024","2","48000","-16","experiment","1","odd","4","307992","8233","304751","305781","1081","100312","305783","53720","1127","87892","309994","310662","306787","309994","NA","Sternberg Task","42","49146.0","46","1024"
"89","89","1071","1071","black","experiment","legacy","legacy","legacy","0","undefined","0","left","46","0","46","46","0","0","46","46","0","0","46","46","46","46","0","Mon Oct  9 13:21:36 2023","The main experiment item","True","SternbergTask.osexp","/Users/baileymcwhirter","False","mono","False","18","no","white","no","yes","768","legacy","34","11","/Users/baileymcwhirter/subject-1.csv","legacy","6 8 9 3 4 9","Melodramatic Milgram","4.0.5","5","y","0","right","left","right","right","NA","1198.0","7087","12419","1198","NA","2","legacy","6","1024","2","48000","-16","experiment","1","odd","4","313911","8233","304751","311698","1081","100312","311701","310664","1127","87892","315914","317113","312706","315913","NA","Sternberg Task","42","50344.0","47","1024"
"89","89","1069","1069","black","experiment","legacy","legacy","legacy","1","undefined","1","left","47","0","47","47","0","0","47","47","0","0","47","47","47","47","0","Mon Oct  9 13:21:36 2023","The main experiment item","True","SternbergTask.osexp","/Users/baileymcwhirter","False","mono","False","18","no","white","no","yes","768","legacy","35","11","/Users/baileymcwhirter/subject-1.csv","legacy","6 5","Melodramatic Milgram","4.0.5","2","y","0","left","left","right","left","NA","1006.0","7087","12419","1006","NA","2","legacy","2","1024","2","48000","-16","experiment","1","odd","5","320360","8233","304751","318148","1081","100312","318150","317117","1127","87892","322362","323369","319154","322362","NA","Sternberg Task","43","51350.0","48","1024"
"89","89","1072","1072","black","experiment","legacy","legacy","legacy","1","undefined","1","left","48","0","48","48","0","0","48","48","0","0","48","48","48","48","0","Mon Oct  9 13:21:36 2023","The main experiment item","True","SternbergTask.osexp","/Users/baileymcwhirter","False","mono","False","18","no","white","no","yes","768","legacy","36","11","/Users/baileymcwhirter/subject-1.csv","legacy","5 7 8 2 3 8","Melodramatic Milgram","4.0.5","5","y","0","left","left","right","left","NA","1221.0","7087","12419","1221","NA","2","legacy","6","1024","2","48000","-16","experiment","1","odd","3","326614","8233","323371","324403","1081","100312","324405","317117","1127","87892","328616","329838","325408","328616","NA","Sternberg Task","44","52571.0","49","1024"
"90","90","1062","1062","black","experiment","legacy","legacy","legacy","1","undefined","1","left","49","0","49","49","0","0","49","49","0","0","49","49","49","49","0","Mon Oct  9 13:21:36 2023","The main experiment item","True","SternbergTask.osexp","/Users/baileymcwhirter","False","mono","False","18","no","white","no","yes","768","legacy","37","11","/Users/baileymcwhirter/subject-1.csv","legacy","6 2","Melodramatic Milgram","4.0.5","1","y","0","left","left","right","left","NA","540.0","7087","12419","540","NA","2","legacy","2","1024","2","48000","-16","experiment","1","odd","6","333081","8233","329841","330871","1081","100312","330873","317117","1127","87892","335083","335624","331876","335083","NA","Sternberg Task","45","53111.0","50","1024"
"90","90","1056","1056","black","experiment","legacy","legacy","legacy","1","undefined","1","left","50","0","50","50","0","0","50","50","0","0","50","50","50","50","0","Mon Oct  9 13:21:36 2023","The main experiment item","True","SternbergTask.osexp","/Users/baileymcwhirter","False","mono","False","18","no","white","no","yes","768","legacy","38","11","/Users/baileymcwhirter/subject-1.csv","legacy","8 9 5 7 1 6","Melodramatic Milgram","4.0.5","4","y","0","left","left","right","left","NA","772.0","7087","12419","772","NA","2","legacy","6","1024","2","48000","-16","experiment","1","odd","7","338869","8233","335626","336656","1081","100312","336658","317117","1127","87892","340871","341644","337662","340871","NA","Sternberg Task","46","53883.0","51","1024"
"90","90","1056","1056","black","experiment","legacy","legacy","legacy","1","undefined","1","left","51","0","51","51","0","0","51","51","0","0","51","51","51","51","0","Mon Oct  9 13:21:36 2023","The main experiment item","True","SternbergTask.osexp","/Users/baileymcwhirter","False","mono","False","18","no","white","no","yes","768","legacy","39","11","/Users/baileymcwhirter/subject-1.csv","legacy","7 8 4 6 9 5","Melodramatic Milgram","4.0.5","4","y","0","left","left","right","left","NA","1059.0","7087","12419","1059","NA","2","legacy","6","1024","2","48000","-16","experiment","1","odd","6","344897","8233","341646","342683","1081","100312","342686","317117","1127","87892","346899","347958","343689","346899","NA","Sternberg Task","47","54942.0","52","1024"
"90","90","1060","1060","black","experiment","legacy","legacy","legacy","1","undefined","1","left","52","0","52","52","0","0","52","52","0","0","52","52","52","52","0","Mon Oct  9 13:21:36 2023","The main experiment item","True","SternbergTask.osexp","/Users/baileymcwhirter","False","mono","False","18","no","white","no","yes","768","legacy","40","11","/Users/baileymcwhirter/subject-1.csv","legacy","7 4 2 6 3 5","Melodramatic Milgram","4.0.5","6","y","0","left","left","right","left","NA","1262.0","7087","12419","1262","NA","2","legacy","6","1024","2","48000","-16","experiment","1","odd","5","351207","8233","347961","348993","1081","100312","348995","317117","1127","87892","353213","354476","350001","353213","NA","Sternberg Task","48","56204.0","53","1024"
"90","90","1058","1058","black","experiment","legacy","legacy","legacy","1","undefined","1","right","53","0","53","53","0","0","53","53","0","0","53","53","53","53","0","Mon Oct  9 13:21:36 2023","The main experiment item","True","SternbergTask.osexp","/Users/baileymcwhirter","False","mono","False","18","no","white","no","yes","768","legacy","41","11","/Users/baileymcwhirter/subject-1.csv","legacy","2 3 8 5 6 7","Melodramatic Milgram","4.0.5","0","n","0","right","left","right","right","NA","962.0","7087","12419","962","NA","2","legacy","6","1024","2","48000","-16","experiment","1","odd","1","357726","8233","354479","355513","1081","100312","355516","317117","1127","87892","359728","360690","356521","359728","NA","Sternberg Task","49","57166.0","54","1024"
"90","90","1056","1056","black","experiment","legacy","legacy","legacy","1","undefined","1","right","54","0","54","54","0","0","54","54","0","0","54","54","54","54","0","Mon Oct  9 13:21:36 2023","The main experiment item","True","SternbergTask.osexp","/Users/baileymcwhirter","False","mono","False","18","no","white","no","yes","768","legacy","42","11","/Users/baileymcwhirter/subject-1.csv","legacy","2 7 5","Melodramatic Milgram","4.0.5","0","n","0","right","left","right","right","NA","952.0","7087","12419","952","NA","2","legacy","3","1024","2","48000","-16","experiment","1","odd","8","363942","8233","360693","361732","1081","100312","361734","317117","1127","87892","365947","366900","362737","365947","NA","Sternberg Task","50","58118.0","55","1024"
"89","89","1073","1073","black","experiment","legacy","legacy","legacy","0","undefined","0","left","55","0","55","55","0","0","55","55","0","0","55","55","55","55","0","Mon Oct  9 13:21:36 2023","The main experiment item","True","SternbergTask.osexp","/Users/baileymcwhirter","False","mono","False","18","no","white","no","yes","768","legacy","43","11","/Users/baileymcwhirter/subject-1.csv","legacy","7 6","Melodramatic Milgram","4.0.5","2","y","0","None","left","right","None","NA","2000.0","7087","12419","2000","NA","2","legacy","2","1024","2","48000","-16","experiment","1","odd","6","370149","8233","366903","367938","1081","100312","367940","317117","1127","87892","372154","374154","368944","372154","NA","Sternberg Task","50","60118.0","56","1024"
"89","89","1079","1079","black","experiment","legacy","legacy","legacy","1","undefined","1","right","56","0","56","56","0","0","56","56","0","0","56","56","56","56","0","Mon Oct  9 13:21:36 2023","The main experiment item","True","SternbergTask.osexp","/Users/baileymcwhirter","False","mono","False","18","no","white","no","yes","768","legacy","44","11","/Users/baileymcwhirter/subject-1.csv","legacy","8 4 3 5","Melodramatic Milgram","4.0.5","0","n","0","right","left","right","right","NA","1426.0","7087","12419","1426","NA","2","legacy","4","1024","2","48000","-16","experiment","1","odd","6","377400","8233","366903","375189","1081","100312","375191","374157","1127","87892","379402","380829","376195","379402","NA","Sternberg Task","51","61544.0","57","1024"
"89","89","1084","1084","black","experiment","legacy","legacy","legacy","1","undefined","1","left","57","0","57","57","0","0","57","57","0","0","57","57","57","57","0","Mon Oct  9 13:21:36 2023","The main experiment item","True","SternbergTask.osexp","/Users/baileymcwhirter","False","mono","False","18","no","white","no","yes","768","legacy","45","11","/Users/baileymcwhirter/subject-1.csv","legacy","6 9 7 4 5 1","Melodramatic Milgram","4.0.5","2","y","0","left","left","right","left","NA","1366.0","7087","12419","1366","NA","2","legacy","6","1024","2","48000","-16","experiment","1","odd","9","384080","8233","380832","381871","1081","100312","381873","374157","1127","87892","386082","387449","382875","386082","NA","Sternberg Task","52","62910.0","58","1024"
"89","89","1095","1095","black","experiment","legacy","legacy","legacy","1","undefined","1","right","58","0","58","58","0","0","58","58","0","0","58","58","58","58","0","Mon Oct  9 13:21:36 2023","The main experiment item","True","SternbergTask.osexp","/Users/baileymcwhirter","False","mono","False","18","no","white","no","yes","768","legacy","46","11","/Users/baileymcwhirter/subject-1.csv","legacy","2 6 4 3 9","Melodramatic Milgram","4.0.5","0","n","0","right","left","right","right","NA","1710.0","7087","12419","1710","NA","2","legacy","5","1024","2","48000","-16","experiment","1","odd","1","390693","8233","387451","388484","1081","100312","388486","374157","1127","87892","392695","394405","389488","392695","NA","Sternberg Task","53","64620.0","59","1024"
"90","90","1091","1091","black","experiment","legacy","legacy","legacy","1","undefined","1","left","59","0","59","59","0","0","59","59","0","0","59","59","59","59","0","Mon Oct  9 13:21:36 2023","The main experiment item","True","SternbergTask.osexp","/Users/baileymcwhirter","False","mono","False","18","no","white","no","yes","768","legacy","47","11","/Users/baileymcwhirter/subject-1.csv","legacy","8 5 1 3 9","Melodramatic Milgram","4.0.5","4","y","0","left","left","right","left","NA","844.0","7087","12419","844","NA","2","legacy","5","1024","2","48000","-16","experiment","1","odd","3","397648","8233","394408","395437","1081","100312","395440","374157","1127","87892","399651","400496","396443","399651","NA","Sternberg Task","54","65464.0","60","1024"
"90","90","1089","1089","black","experiment","legacy","legacy","legacy","1","undefined","1","right","60","0","60","60","0","0","60","60","0","0","60","60","60","60","0","Mon Oct  9 13:21:36 2023","The main experiment item","True","SternbergTask.osexp","/Users/baileymcwhirter","False","mono","False","18","no","white","no","yes","768","legacy","48","11","/Users/baileymcwhirter/subject-1.csv","legacy","2 8 9","Melodramatic Milgram","4.0.5","0","n","0","right","left","right","right","NA","968.0","7087","12419","968","NA","2","legacy","3","1024","2","48000","-16","experiment","1","odd","6","403748","8233","400498","401536","1081","100312","401538","374157","1127","87892","405752","406721","402542","405752","NA","Sternberg Task","55","66432.0","61","1024"
"90","90","1093","1093","black","experiment","legacy","legacy","legacy","1","undefined","1","left","61","0","61","61","0","0","61","61","0","0","61","61","61","61","0","Mon Oct  9 13:21:36 2023","The main experiment item","True","SternbergTask.osexp","/Users/baileymcwhirter","False","mono","False","18","no","white","no","yes","768","legacy","49","11","/Users/baileymcwhirter/subject-1.csv","legacy","5 2 6","Melodramatic Milgram","4.0.5","2","y","0","left","left","right","left","NA","1373.0","7087","12419","1373","NA","2","legacy","3","1024","2","48000","-16","experiment","1","odd","2","409969","8233","406723","407757","1081","100312","407759","374157","1127","87892","411975","413348","408764","411975","NA","Sternberg Task","56","67805.0","62","1024"
"90","90","1091","1091","black","experiment","legacy","legacy","legacy","1","undefined","1","right","62","0","62","62","0","0","62","62","0","0","62","62","62","62","0","Mon Oct  9 13:21:36 2023","The main experiment item","True","SternbergTask.osexp","/Users/baileymcwhirter","False","mono","False","18","no","white","no","yes","768","legacy","50","11","/Users/baileymcwhirter/subject-1.csv","legacy","1 3 2 6 9","Melodramatic Milgram","4.0.5","0","n","0","right","left","right","right","NA","949.0","7087","12419","949","NA","2","legacy","5","1024","2","48000","-16","experiment","1","odd","5","416602","8233","413351","414388","1081","100312","414390","374157","1127","87892","418604","419554","415396","418604","NA","Sternberg Task","57","68754.0","63","1024"
"90","90","1095","1095","black","experiment","legacy","legacy","legacy","1","undefined","1","left","63","0","63","63","0","0","63","63","0","0","63","63","63","63","0","Mon Oct  9 13:21:36 2023","The main experiment item","True","SternbergTask.osexp","/Users/baileymcwhirter","False","mono","False","18","no","white","no","yes","768","legacy","51","11","/Users/baileymcwhirter/subject-1.csv","legacy","9 5 8 1","Melodramatic Milgram","4.0.5","2","y","0","left","left","right","left","NA","1342.0","7087","12419","1342","NA","2","legacy","4","1024","2","48000","-16","experiment","1","odd","5","422805","8233","419556","420593","1081","100312","420595","374157","1127","87892","424806","426149","421598","424806","NA","Sternberg Task","58","70096.0","64","1024"
"90","90","1092","1092","black","experiment","legacy","legacy","legacy","1","undefined","1","left","64","0","64","64","0","0","64","64","0","0","64","64","64","64","0","Mon Oct  9 13:21:36 2023","The main experiment item","True","SternbergTask.osexp","/Users/baileymcwhirter","False","mono","False","18","no","white","no","yes","768","legacy","52","11","/Users/baileymcwhirter/subject-1.csv","legacy","8 9 5 6 7","Melodramatic Milgram","4.0.5","1","y","0","left","left","right","left","NA","909.0","7087","12419","909","NA","2","legacy","5","1024","2","48000","-16","experiment","1","odd","8","429394","8233","426152","427182","1081","100312","427184","374157","1127","87892","431395","432304","428188","431395","NA","Sternberg Task","59","71005.0","65","1024"
"90","90","1084","1084","black","experiment","legacy","legacy","legacy","1","undefined","1","left","65","0","65","65","0","0","65","65","0","0","65","65","65","65","0","Mon Oct  9 13:21:36 2023","The main experiment item","True","SternbergTask.osexp","/Users/baileymcwhirter","False","mono","False","18","no","white","no","yes","768","legacy","53","11","/Users/baileymcwhirter/subject-1.csv","legacy","3 4","Melodramatic Milgram","4.0.5","1","y","0","left","left","right","left","NA","571.0","7087","12419","571","NA","2","legacy","2","1024","2","48000","-16","experiment","1","odd","3","435553","8233","432307","433338","1081","100312","433341","374157","1127","87892","437555","438127","434346","437555","NA","Sternberg Task","60","71576.0","66","1024"
"89","89","1080","1080","black","experiment","legacy","legacy","legacy","0","undefined","0","left","66","0","66","66","0","0","66","66","0","0","66","66","66","66","0","Mon Oct  9 13:21:36 2023","The main experiment item","True","SternbergTask.osexp","/Users/baileymcwhirter","False","mono","False","18","no","white","no","yes","768","legacy","54","11","/Users/baileymcwhirter/subject-1.csv","legacy","2 8 5 1","Melodramatic Milgram","4.0.5","4","y","0","right","left","right","right","NA","831.0","7087","12419","831","NA","2","legacy","4","1024","2","48000","-16","experiment","1","odd","1","441380","8233","438130","439168","1081","100312","439170","374157","1127","87892","443384","444216","440174","443384","NA","Sternberg Task","60","72407.0","67","1024"
"89","89","1084","1084","black","experiment","legacy","legacy","legacy","1","undefined","1","right","67","0","67","67","0","0","67","67","0","0","67","67","67","67","0","Mon Oct  9 13:21:36 2023","The main experiment item","True","SternbergTask.osexp","/Users/baileymcwhirter","False","mono","False","18","no","white","no","yes","768","legacy","55","11","/Users/baileymcwhirter/subject-1.csv","legacy","7 9 1 6","Melodramatic Milgram","4.0.5","0","n","0","right","left","right","right","NA","1322.0","7087","12419","1322","NA","2","legacy","4","1024","2","48000","-16","experiment","1","odd","4","447470","8233","438130","445258","1081","100312","445260","444219","1127","87892","449474","450797","446263","449474","NA","Sternberg Task","61","73729.0","68","1024"
"89","89","1079","1079","black","experiment","legacy","legacy","legacy","1","undefined","1","left","68","0","68","68","0","0","68","68","0","0","68","68","68","68","0","Mon Oct  9 13:21:36 2023","The main experiment item","True","SternbergTask.osexp","/Users/baileymcwhirter","False","mono","False","18","no","white","no","yes","768","legacy","56","11","/Users/baileymcwhirter/subject-1.csv","legacy","2 5 4 8 7","Melodramatic Milgram","4.0.5","3","y","0","left","left","right","left","NA","772.0","7087","12419","772","NA","2","legacy","5","1024","2","48000","-16","experiment","1","odd","4","454058","8233","450799","451846","1081","100312","451848","444219","1127","87892","456061","456834","452852","456060","NA","Sternberg Task","62","74501.0","69","1024"
"90","90","1075","1075","black","experiment","legacy","legacy","legacy","1","undefined","1","right","69","0","69","69","0","0","69","69","0","0","69","69","69","69","0","Mon Oct  9 13:21:36 2023","The main experiment item","True","SternbergTask.osexp","/Users/baileymcwhirter","False","mono","False","18","no","white","no","yes","768","legacy","57","11","/Users/baileymcwhirter/subject-1.csv","legacy","7 6 4 8 1 2","Melodramatic Milgram","4.0.5","0","n","0","right","left","right","right","NA","798.0","7087","12419","798","NA","2","legacy","6","1024","2","48000","-16","experiment","1","odd","9","460087","8233","456838","457876","1081","100312","457879","444219","1127","87892","462090","462889","458882","462090","NA","Sternberg Task","63","75299.0","70","1024"
"90","90","1070","1070","black","experiment","legacy","legacy","legacy","1","undefined","1","right","70","0","70","70","0","0","70","70","0","0","70","70","70","70","0","Mon Oct  9 13:21:36 2023","The main experiment item","True","SternbergTask.osexp","/Users/baileymcwhirter","False","mono","False","18","no","white","no","yes","768","legacy","58","11","/Users/baileymcwhirter/subject-1.csv","legacy","1 7 5 2 9","Melodramatic Milgram","4.0.5","0","n","0","right","left","right","right","NA","675.0","7087","12419","675","NA","2","legacy","5","1024","2","48000","-16","experiment","1","odd","3","466135","8233","462892","463923","1081","100312","463925","444219","1127","87892","468137","468813","464929","468137","NA","Sternberg Task","64","75974.0","71","1024"
"90","90","1063","1063","black","experiment","legacy","legacy","legacy","1","undefined","1","right","71","0","71","71","0","0","71","71","0","0","71","71","71","71","0","Mon Oct  9 13:21:36 2023","The main experiment item","True","SternbergTask.osexp","/Users/baileymcwhirter","False","mono","False","18","no","white","no","yes","768","legacy","59","11","/Users/baileymcwhirter/subject-1.csv","legacy","3 4 2","Melodramatic Milgram","4.0.5","0","n","0","right","left","right","right","NA","610.0","7087","12419","610","NA","2","legacy","3","1024","2","48000","-16","experiment","1","odd","5","472065","8233","468816","469853","1081","100312","469855","444219","1127","87892","474068","474678","470860","474068","NA","Sternberg Task","65","76584.0","72","1024"
"90","90","1060","1060","black","experiment","legacy","legacy","legacy","1","undefined","1","left","72","0","72","72","0","0","72","72","0","0","72","72","72","72","0","Mon Oct  9 13:21:36 2023","The main experiment item","True","SternbergTask.osexp","/Users/baileymcwhirter","False","mono","False","18","no","white","no","yes","768","legacy","60","11","/Users/baileymcwhirter/subject-1.csv","legacy","4 1 8 7 5","Melodramatic Milgram","4.0.5","3","y","0","left","left","right","left","NA","798.0","7087","12419","798","NA","2","legacy","5","1024","2","48000","-16","experiment","1","odd","8","477923","8233","474681","475712","1081","100312","475714","444219","1127","87892","479925","480724","476718","479925","NA","Sternberg Task","66","77382.0","73","1024"
"90","90","1056","1056","black","experiment","legacy","legacy","legacy","1","undefined","1","left","73","0","73","73","0","0","73","73","0","0","73","73","73","73","0","Mon Oct  9 13:21:36 2023","The main experiment item","True","SternbergTask.osexp","/Users/baileymcwhirter","False","mono","False","18","no","white","no","yes","768","legacy","61","11","/Users/baileymcwhirter/subject-1.csv","legacy","7 2 3","Melodramatic Milgram","4.0.5","3","y","0","left","left","right","left","NA","817.0","7087","12419","817","NA","2","legacy","3","1024","2","48000","-16","experiment","1","odd","3","483971","8233","480726","481758","1081","100312","481761","444219","1127","87892","485973","486791","482765","485973","NA","Sternberg Task","67","78199.0","74","1024"
"90","90","1059","1059","black","experiment","legacy","legacy","legacy","1","undefined","1","left","74","0","74","74","0","0","74","74","0","0","74","74","74","74","0","Mon Oct  9 13:21:36 2023","The main experiment item","True","SternbergTask.osexp","/Users/baileymcwhirter","False","mono","False","18","no","white","no","yes","768","legacy","62","11","/Users/baileymcwhirter/subject-1.csv","legacy","5 2 9 6 1 7","Melodramatic Milgram","4.0.5","3","y","0","left","left","right","left","NA","1258.0","7087","12419","1258","NA","2","legacy","6","1024","2","48000","-16","experiment","1","odd","9","490034","8233","486794","487825","1081","100312","487827","444219","1127","87892","492036","493295","488829","492036","NA","Sternberg Task","68","79457.0","75","1024"
"90","90","1057","1057","black","experiment","legacy","legacy","legacy","1","undefined","1","left","75","0","75","75","0","0","75","75","0","0","75","75","75","75","0","Mon Oct  9 13:21:36 2023","The main experiment item","True","SternbergTask.osexp","/Users/baileymcwhirter","False","mono","False","18","no","white","no","yes","768","legacy","63","11","/Users/baileymcwhirter/subject-1.csv","legacy","4 3 2 5 8","Melodramatic Milgram","4.0.5","2","y","0","left","left","right","left","NA","924.0","7087","12419","924","NA","2","legacy","5","1024","2","48000","-16","experiment","1","odd","3","496547","8233","493298","494336","1081","100312","494339","444219","1127","87892","498552","499477","495342","498552","NA","Sternberg Task","69","80381.0","76","1024"
"89","89","1053","1053","black","experiment","legacy","legacy","legacy","0","undefined","0","right","76","0","76","76","0","0","76","76","0","0","76","76","76","76","0","Mon Oct  9 13:21:36 2023","The main experiment item","True","SternbergTask.osexp","/Users/baileymcwhirter","False","mono","False","18","no","white","no","yes","768","legacy","64","11","/Users/baileymcwhirter/subject-1.csv","legacy","1 5 3 2 8","Melodramatic Milgram","4.0.5","0","n","0","left","left","right","left","NA","708.0","7087","12419","708","NA","2","legacy","5","1024","2","48000","-16","experiment","1","odd","4","502722","8233","499480","500510","1081","100312","500512","444219","1127","87892","504724","505433","501517","504724","NA","Sternberg Task","69","81089.0","77","1024"
"89","89","1049","1049","black","experiment","legacy","legacy","legacy","1","undefined","1","left","77","0","77","77","0","0","77","77","0","0","77","77","77","77","0","Mon Oct  9 13:21:36 2023","The main experiment item","True","SternbergTask.osexp","/Users/baileymcwhirter","False","mono","False","18","no","white","no","yes","768","legacy","65","11","/Users/baileymcwhirter/subject-1.csv","legacy","2 3","Melodramatic Milgram","4.0.5","1","y","0","left","left","right","left","NA","804.0","7087","12419","804","NA","2","legacy","2","1024","2","48000","-16","experiment","1","odd","2","508689","8233","499480","506474","1081","100312","506476","505436","1127","87892","510696","511501","507482","510696","NA","Sternberg Task","70","81893.0","78","1024"
"89","89","1045","1045","black","experiment","legacy","legacy","legacy","1","undefined","1","right","78","0","78","78","0","0","78","78","0","0","78","78","78","78","0","Mon Oct  9 13:21:36 2023","The main experiment item","True","SternbergTask.osexp","/Users/baileymcwhirter","False","mono","False","18","no","white","no","yes","768","legacy","66","11","/Users/baileymcwhirter/subject-1.csv","legacy","7 9","Melodramatic Milgram","4.0.5","0","n","0","right","left","right","right","NA","728.0","7087","12419","728","NA","2","legacy","2","1024","2","48000","-16","experiment","1","odd","1","514755","8233","511503","512542","1081","100312","512545","505436","1127","87892","516757","517486","513550","516757","NA","Sternberg Task","71","82621.0","79","1024"
"90","90","1047","1047","black","experiment","legacy","legacy","legacy","1","undefined","1","left","79","0","79","79","0","0","79","79","0","0","79","79","79","79","0","Mon Oct  9 13:21:36 2023","The main experiment item","True","SternbergTask.osexp","/Users/baileymcwhirter","False","mono","False","18","no","white","no","yes","768","legacy","67","11","/Users/baileymcwhirter/subject-1.csv","legacy","9 1 7 2","Melodramatic Milgram","4.0.5","2","y","0","left","left","right","left","NA","1150.0","7087","12419","1150","NA","2","legacy","4","1024","2","48000","-16","experiment","1","odd","1","520739","8233","517489","518529","1081","100312","518531","505436","1127","87892","522744","523895","519534","522744","NA","Sternberg Task","72","83771.0","80","1024"
"90","90","1053","1053","black","experiment","legacy","legacy","legacy","1","undefined","1","right","80","0","80","80","0","0","80","80","0","0","80","80","80","80","0","Mon Oct  9 13:21:36 2023","The main experiment item","True","SternbergTask.osexp","/Users/baileymcwhirter","False","mono","False","18","no","white","no","yes","768","legacy","68","11","/Users/baileymcwhirter/subject-1.csv","legacy","6 9 4 5 2","Melodramatic Milgram","4.0.5","0","n","0","right","left","right","right","NA","1553.0","7087","12419","1553","NA","2","legacy","5","1024","2","48000","-16","experiment","1","odd","1","527149","8233","523898","524940","1081","100312","524942","505436","1127","87892","529153","530707","525944","529153","NA","Sternberg Task","73","85324.0","81","1024"
"90","90","1052","1052","black","experiment","legacy","legacy","legacy","1","undefined","1","left","81","0","81","81","0","0","81","81","0","0","81","81","81","81","0","Mon Oct  9 13:21:36 2023","The main experiment item","True","SternbergTask.osexp","/Users/baileymcwhirter","False","mono","False","18","no","white","no","yes","768","legacy","69","11","/Users/baileymcwhirter/subject-1.csv","legacy","6 9 3 1","Melodramatic Milgram","4.0.5","4","y","0","left","left","right","left","NA","965.0","7087","12419","965","NA","2","legacy","4","1024","2","48000","-16","experiment","1","odd","1","533966","8233","530710","531756","1081","100312","531758","505436","1127","87892","535969","536935","532761","535969","NA","Sternberg Task","74","86289.0","82","1024"
"90","90","1048","1048","black","experiment","legacy","legacy","legacy","1","undefined","1","left","82","0","82","82","0","0","82","82","0","0","82","82","82","82","0","Mon Oct  9 13:21:36 2023","The main experiment item","True","SternbergTask.osexp","/Users/baileymcwhirter","False","mono","False","18","no","white","no","yes","768","legacy","70","11","/Users/baileymcwhirter/subject-1.csv","legacy","2 4 8 5 1 3","Melodramatic Milgram","4.0.5","1","y","0","left","left","right","left","NA","697.0","7087","12419","697","NA","2","legacy","6","1024","2","48000","-16","experiment","1","odd","2","540182","8233","536938","537970","1081","100312","537972","505436","1127","87892","542185","542883","538977","542185","NA","Sternberg Task","75","86986.0","83","1024"
"90","90","1047","1047","black","experiment","legacy","legacy","legacy","1","undefined","1","right","83","0","83","83","0","0","83","83","0","0","83","83","83","83","0","Mon Oct  9 13:21:36 2023","The main experiment item","True","SternbergTask.osexp","/Users/baileymcwhirter","False","mono","False","18","no","white","no","yes","768","legacy","71","11","/Users/baileymcwhirter/subject-1.csv","legacy","6 7 5 9","Melodramatic Milgram","4.0.5","0","n","0","right","left","right","right","NA","1024.0","7087","12419","1024","NA","2","legacy","4","1024","2","48000","-16","experiment","1","odd","2","546130","8233","542886","543918","1081","100312","543920","505436","1127","87892","548132","549157","544925","548132","NA","Sternberg Task","76","88010.0","84","1024"
"90","90","1044","1044","black","experiment","legacy","legacy","legacy","1","undefined","1","right","84","0","84","84","0","0","84","84","0","0","84","84","84","84","0","Mon Oct  9 13:21:36 2023","The main experiment item","True","SternbergTask.osexp","/Users/baileymcwhirter","False","mono","False","18","no","white","no","yes","768","legacy","72","11","/Users/baileymcwhirter/subject-1.csv","legacy","9 8 2 7 4","Melodramatic Milgram","4.0.5","0","n","0","right","left","right","right","NA","778.0","7087","12419","778","NA","2","legacy","5","1024","2","48000","-16","experiment","1","odd","5","552402","8233","549160","550190","1081","100312","550192","505436","1127","87892","554403","555182","551197","554403","NA","Sternberg Task","77","88788.0","85","1024"
"90","90","1046","1046","black","experiment","legacy","legacy","legacy","1","undefined","1","left","85","0","85","85","0","0","85","85","0","0","85","85","85","85","0","Mon Oct  9 13:21:36 2023","The main experiment item","True","SternbergTask.osexp","/Users/baileymcwhirter","False","mono","False","18","no","white","no","yes","768","legacy","73","11","/Users/baileymcwhirter/subject-1.csv","legacy","4 1 5","Melodramatic Milgram","4.0.5","2","y","0","left","left","right","left","NA","1174.0","7087","12419","1174","NA","2","legacy","3","1024","2","48000","-16","experiment","1","odd","1","558436","8233","555185","556223","1081","100312","556225","505436","1127","87892","560440","561615","557229","560440","NA","Sternberg Task","78","89962.0","86","1024"
"90","90","1044","1044","black","experiment","legacy","legacy","legacy","1","undefined","1","left","86","0","86","86","0","0","86","86","0","0","86","86","86","86","0","Mon Oct  9 13:21:36 2023","The main experiment item","True","SternbergTask.osexp","/Users/baileymcwhirter","False","mono","False","18","no","white","no","yes","768","legacy","74","11","/Users/baileymcwhirter/subject-1.csv","legacy","1 4 9 3 2 5","Melodramatic Milgram","4.0.5","3","y","0","left","left","right","left","NA","885.0","7087","12419","885","NA","2","legacy","6","1024","2","48000","-16","experiment","1","odd","9","564869","8233","561618","562653","1081","100312","562656","505436","1127","87892","566871","567757","563662","566871","NA","Sternberg Task","79","90847.0","87","1024"
"89","89","1040","1040","black","experiment","legacy","legacy","legacy","0","undefined","0","right","87","0","87","87","0","0","87","87","0","0","87","87","87","87","0","Mon Oct  9 13:21:36 2023","The main experiment item","True","SternbergTask.osexp","/Users/baileymcwhirter","False","mono","False","18","no","white","no","yes","768","legacy","75","11","/Users/baileymcwhirter/subject-1.csv","legacy","5 3 8 7 2 4","Melodramatic Milgram","4.0.5","0","n","0","left","left","right","left","NA","734.0","7087","12419","734","NA","2","legacy","6","1024","2","48000","-16","experiment","1","odd","9","571002","8233","567759","568790","1081","100312","568793","505436","1127","87892","573005","573740","569795","573005","NA","Sternberg Task","79","91581.0","88","1024"
"89","89","1044","1044","black","experiment","legacy","legacy","legacy","1","undefined","1","right","88","0","88","88","0","0","88","88","0","0","88","88","88","88","0","Mon Oct  9 13:21:36 2023","The main experiment item","True","SternbergTask.osexp","/Users/baileymcwhirter","False","mono","False","18","no","white","no","yes","768","legacy","76","11","/Users/baileymcwhirter/subject-1.csv","legacy","3 9 1","Melodramatic Milgram","4.0.5","0","n","0","right","left","right","right","NA","1409.0","7087","12419","1409","NA","2","legacy","3","1024","2","48000","-16","experiment","1","odd","7","576993","8233","567759","574783","1081","100312","574785","573743","1127","87892","578995","580405","575788","578995","NA","Sternberg Task","80","92990.0","89","1024"
"90","90","1043","1043","black","experiment","legacy","legacy","legacy","1","undefined","1","right","89","0","89","89","0","0","89","89","0","0","89","89","89","89","0","Mon Oct  9 13:21:36 2023","The main experiment item","True","SternbergTask.osexp","/Users/baileymcwhirter","False","mono","False","18","no","white","no","yes","768","legacy","77","11","/Users/baileymcwhirter/subject-1.csv","legacy","7 4 2 8 1 9","Melodramatic Milgram","4.0.5","0","n","0","right","left","right","right","NA","962.0","7087","12419","962","NA","2","legacy","6","1024","2","48000","-16","experiment","1","odd","5","583648","8233","580408","581438","1081","100312","581440","573743","1127","87892","585651","586614","582443","585651","NA","Sternberg Task","81","93952.0","90","1024"
"90","90","1039","1039","black","experiment","legacy","legacy","legacy","1","undefined","1","right","90","0","90","90","0","0","90","90","0","0","90","90","90","90","0","Mon Oct  9 13:21:36 2023","The main experiment item","True","SternbergTask.osexp","/Users/baileymcwhirter","False","mono","False","18","no","white","no","yes","768","legacy","78","11","/Users/baileymcwhirter/subject-1.csv","legacy","1 7 8 3 9","Melodramatic Milgram","4.0.5","0","n","0","right","left","right","right","NA","650.0","7087","12419","650","NA","2","legacy","5","1024","2","48000","-16","experiment","1","odd","2","589862","8233","586616","587652","1081","100312","587654","573743","1127","87892","591864","592515","588657","591864","NA","Sternberg Task","82","94602.0","91","1024"
"90","90","1034","1034","black","experiment","legacy","legacy","legacy","1","undefined","1","right","91","0","91","91","0","0","91","91","0","0","91","91","91","91","0","Mon Oct  9 13:21:36 2023","The main experiment item","True","SternbergTask.osexp","/Users/baileymcwhirter","False","mono","False","18","no","white","no","yes","768","legacy","79","11","/Users/baileymcwhirter/subject-1.csv","legacy","8 9","Melodramatic Milgram","4.0.5","0","n","0","right","left","right","right","NA","554.0","7087","12419","554","NA","2","legacy","2","1024","2","48000","-16","experiment","1","odd","5","595759","8233","592518","593550","1081","100312","593552","573743","1127","87892","597762","598317","594554","597762","NA","Sternberg Task","83","95156.0","92","1024"
"90","90","1034","1034","black","experiment","legacy","legacy","legacy","1","undefined","1","left","92","0","92","92","0","0","92","92","0","0","92","92","92","92","0","Mon Oct  9 13:21:36 2023","The main experiment item","True","SternbergTask.osexp","/Users/baileymcwhirter","False","mono","False","18","no","white","no","yes","768","legacy","80","11","/Users/baileymcwhirter/subject-1.csv","legacy","6 7 8 5","Melodramatic Milgram","4.0.5","3","y","0","left","left","right","left","NA","1031.0","7087","12419","1031","NA","2","legacy","4","1024","2","48000","-16","experiment","1","odd","8","601564","8233","598320","599351","1081","100312","599353","573743","1127","87892","603566","604598","600358","603566","NA","Sternberg Task","84","96187.0","93","1024"
"90","90","1035","1035","black","experiment","legacy","legacy","legacy","1","undefined","1","right","93","0","93","93","0","0","93","93","0","0","93","93","93","93","0","Mon Oct  9 13:21:36 2023","The main experiment item","True","SternbergTask.osexp","/Users/baileymcwhirter","False","mono","False","18","no","white","no","yes","768","legacy","81","11","/Users/baileymcwhirter/subject-1.csv","legacy","6 8 4","Melodramatic Milgram","4.0.5","0","n","0","right","left","right","right","NA","1123.0","7087","12419","1123","NA","2","legacy","3","1024","2","48000","-16","experiment","1","odd","1","607842","8233","604600","605632","1081","100312","605634","573743","1127","87892","609844","610968","606637","609844","NA","Sternberg Task","85","97310.0","94","1024"
"90","90","1035","1035","black","experiment","legacy","legacy","legacy","1","undefined","1","right","94","0","94","94","0","0","94","94","0","0","94","94","94","94","0","Mon Oct  9 13:21:36 2023","The main experiment item","True","SternbergTask.osexp","/Users/baileymcwhirter","False","mono","False","18","no","white","no","yes","768","legacy","82","11","/Users/baileymcwhirter/subject-1.csv","legacy","6 9 4 5 3 2","Melodramatic Milgram","4.0.5","0","n","0","right","left","right","right","NA","1106.0","7087","12419","1106","NA","2","legacy","6","1024","2","48000","-16","experiment","1","odd","8","614217","8233","610970","612005","1081","100312","612007","573743","1127","87892","616220","617327","613011","616220","NA","Sternberg Task","86","98416.0","95","1024"
"90","90","1035","1035","black","experiment","legacy","legacy","legacy","1","undefined","1","right","95","0","95","95","0","0","95","95","0","0","95","95","95","95","0","Mon Oct  9 13:21:36 2023","The main experiment item","True","SternbergTask.osexp","/Users/baileymcwhirter","False","mono","False","18","no","white","no","yes","768","legacy","83","11","/Users/baileymcwhirter/subject-1.csv","legacy","3 4 9 6 7 8","Melodramatic Milgram","4.0.5","0","n","0","right","left","right","right","NA","978.0","7087","12419","978","NA","2","legacy","6","1024","2","48000","-16","experiment","1","odd","2","620574","8233","617329","618363","1081","100312","618365","573743","1127","87892","622577","623556","619368","622577","NA","Sternberg Task","87","99394.0","96","1024"
"90","90","1031","1031","black","experiment","legacy","legacy","legacy","1","undefined","1","right","96","0","96","96","0","0","96","96","0","0","96","96","96","96","0","Mon Oct  9 13:21:36 2023","The main experiment item","True","SternbergTask.osexp","/Users/baileymcwhirter","False","mono","False","18","no","white","no","yes","768","legacy","84","11","/Users/baileymcwhirter/subject-1.csv","legacy","7 1","Melodramatic Milgram","4.0.5","0","n","0","right","left","right","right","NA","705.0","7087","12419","705","NA","2","legacy","2","1024","2","48000","-16","experiment","1","odd","8","626804","8233","623559","624593","1081","100312","624596","573743","1127","87892","628807","629513","625598","628807","NA","Sternberg Task","88","100099.0","97","1024"
"90","90","1035","1035","black","experiment","legacy","legacy","legacy","1","undefined","1","right","97","0","97","97","0","0","97","97","0","0","97","97","97","97","0","Mon Oct  9 13:21:36 2023","The main experiment item","True","SternbergTask.osexp","/Users/baileymcwhirter","False","mono","False","18","no","white","no","yes","768","legacy","85","11","/Users/baileymcwhirter/subject-1.csv","legacy","9","Melodramatic Milgram","4.0.5","0","n","0","right","left","right","right","NA","1414.0","7087","12419","1414","NA","2","legacy","1","1024","2","48000","-16","experiment","1","odd","6","632757","8233","629515","630544","1081","100312","630546","573743","1127","87892","634760","636175","631550","634760","NA","Sternberg Task","89","101513.0","98","1024"
"90","90","1034","1034","black","experiment","legacy","legacy","legacy","1","undefined","1","left","98","0","98","98","0","0","98","98","0","0","98","98","98","98","0","Mon Oct  9 13:21:36 2023","The main experiment item","True","SternbergTask.osexp","/Users/baileymcwhirter","False","mono","False","18","no","white","no","yes","768","legacy","86","11","/Users/baileymcwhirter/subject-1.csv","legacy","3 4 9 6 2 9","Melodramatic Milgram","4.0.5","5","y","0","left","left","right","left","NA","943.0","7087","12419","943","NA","2","legacy","6","1024","2","48000","-16","experiment","1","odd","2","639418","8233","636178","637209","1081","100312","637211","573743","1127","87892","641423","642367","638214","641423","NA","Sternberg Task","90","102456.0","99","1024"
"91","91","1030","1030","black","experiment","legacy","legacy","legacy","1","undefined","1","left","99","0","99","99","0","0","99","99","0","0","99","99","99","99","0","Mon Oct  9 13:21:36 2023","The main experiment item","True","SternbergTask.osexp","/Users/baileymcwhirter","False","mono","False","18","no","white","no","yes","768","legacy","87","11","/Users/baileymcwhirter/subject-1.csv","legacy","8 5 4 7 3 1","Melodramatic Milgram","4.0.5","2","y","0","left","left","right","left","NA","587.0","7087","12419","587","NA","2","legacy","6","1024","2","48000","-16","experiment","1","odd","5","645623","8233","642370","643413","1081","100312","643415","573743","1127","87892","647626","648214","644418","647626","NA","Sternberg Task","91","103043.0","100","1024"
"91","91","1027","1027","black","experiment","legacy","legacy","legacy","1","undefined","1","left","100","0","100","100","0","0","100","100","0","0","100","100","100","100","0","Mon Oct  9 13:21:36 2023","The main experiment item","True","SternbergTask.osexp","/Users/baileymcwhirter","False","mono","False","18","no","white","no","yes","768","legacy","88","11","/Users/baileymcwhirter/subject-1.csv","legacy","7 1 8 5 6 2","Melodramatic Milgram","4.0.5","2","y","0","left","left","right","left","NA","783.0","7087","12419","783","NA","2","legacy","6","1024","2","48000","-16","experiment","1","odd","1","651471","8233","648216","649260","1081","100312","649262","573743","1127","87892","653474","654258","650266","653474","NA","Sternberg Task","92","103826.0","101","1024"
"90","90","1030","1030","black","experiment","legacy","legacy","legacy","0","undefined","0","right","101","0","101","101","0","0","101","101","0","0","101","101","101","101","0","Mon Oct  9 13:21:36 2023","The main experiment item","True","SternbergTask.osexp","/Users/baileymcwhirter","False","mono","False","18","no","white","no","yes","768","legacy","89","11","/Users/baileymcwhirter/subject-1.csv","legacy","6 8","Melodramatic Milgram","4.0.5","0","n","0","left","left","right","left","NA","1245.0","7087","12419","1245","NA","2","legacy","2","1024","2","48000","-16","experiment","1","odd","9","657519","8233","654261","655303","1081","100312","655306","573743","1127","87892","659523","660769","656314","659523","NA","Sternberg Task","92","105071.0","102","1024"
"90","90","1026","1026","black","experiment","legacy","legacy","legacy","1","undefined","1","right","102","0","102","102","0","0","102","102","0","0","102","102","102","102","0","Mon Oct  9 13:21:36 2023","The main experiment item","True","SternbergTask.osexp","/Users/baileymcwhirter","False","mono","False","18","no","white","no","yes","768","legacy","90","11","/Users/baileymcwhirter/subject-1.csv","legacy","3 9 8 1 6 4","Melodramatic Milgram","4.0.5","0","n","0","right","left","right","right","NA","635.0","7087","12419","635","NA","2","legacy","6","1024","2","48000","-16","experiment","1","odd","7","664024","8233","654261","661811","1081","100312","661814","660772","1127","87892","666026","666662","662818","666026","NA","Sternberg Task","93","105706.0","103","1024"
"90","90","1023","1023","black","experiment","legacy","legacy","legacy","1","undefined","1","right","103","0","103","103","0","0","103","103","0","0","103","103","103","103","0","Mon Oct  9 13:21:36 2023","The main experiment item","True","SternbergTask.osexp","/Users/baileymcwhirter","False","mono","False","18","no","white","no","yes","768","legacy","91","11","/Users/baileymcwhirter/subject-1.csv","legacy","8 5 4 2 9 6","Melodramatic Milgram","4.0.5","0","n","0","right","left","right","right","NA","770.0","7087","12419","770","NA","2","legacy","6","1024","2","48000","-16","experiment","1","odd","3","669921","8233","666665","667707","1081","100312","667709","660772","1127","87892","671924","672695","668713","671924","NA","Sternberg Task","94","106476.0","104","1024"
"90","90","1020","1020","black","experiment","legacy","legacy","legacy","1","undefined","1","left","104","0","104","104","0","0","104","104","0","0","104","104","104","104","0","Mon Oct  9 13:21:36 2023","The main experiment item","True","SternbergTask.osexp","/Users/baileymcwhirter","False","mono","False","18","no","white","no","yes","768","legacy","92","11","/Users/baileymcwhirter/subject-1.csv","legacy","9 8 4","Melodramatic Milgram","4.0.5","1","y","0","left","left","right","left","NA","670.0","7087","12419","670","NA","2","legacy","3","1024","2","48000","-16","experiment","1","odd","9","675956","8233","672698","673743","1081","100312","673746","660772","1127","87892","677959","678630","674750","677959","NA","Sternberg Task","95","107146.0","105","1024"
"90","90","1019","1019","black","experiment","legacy","legacy","legacy","1","undefined","1","right","105","0","105","105","0","0","105","105","0","0","105","105","105","105","0","Mon Oct  9 13:21:36 2023","The main experiment item","True","SternbergTask.osexp","/Users/baileymcwhirter","False","mono","False","18","no","white","no","yes","768","legacy","93","11","/Users/baileymcwhirter/subject-1.csv","legacy","6 9 7 3 8 2","Melodramatic Milgram","4.0.5","0","n","0","right","left","right","right","NA","875.0","7087","12419","875","NA","2","legacy","6","1024","2","48000","-16","experiment","1","odd","5","681892","8233","678633","679677","1081","100312","679679","660772","1127","87892","683900","684776","680685","683900","NA","Sternberg Task","96","108021.0","106","1024"
"90","90","1018","1018","black","experiment","legacy","legacy","legacy","1","undefined","1","right","106","0","106","106","0","0","106","106","0","0","106","106","106","106","0","Mon Oct  9 13:21:36 2023","The main experiment item","True","SternbergTask.osexp","/Users/baileymcwhirter","False","mono","False","18","no","white","no","yes","768","legacy","94","11","/Users/baileymcwhirter/subject-1.csv","legacy","6 3 1 7 9 8","Melodramatic Milgram","4.0.5","0","n","0","right","left","right","right","NA","937.0","7087","12419","937","NA","2","legacy","6","1024","2","48000","-16","experiment","1","odd","4","688029","8233","684779","685814","1081","100312","685816","660772","1127","87892","690034","690972","686822","690033","NA","Sternberg Task","97","108958.0","107","1024"
"90","90","1018","1018","black","experiment","legacy","legacy","legacy","1","undefined","1","right","107","0","107","107","0","0","107","107","0","0","107","107","107","107","0","Mon Oct  9 13:21:36 2023","The main experiment item","True","SternbergTask.osexp","/Users/baileymcwhirter","False","mono","False","18","no","white","no","yes","768","legacy","95","11","/Users/baileymcwhirter/subject-1.csv","legacy","8 5 7 3 6","Melodramatic Milgram","4.0.5","0","n","0","right","left","right","right","NA","1075.0","7087","12419","1075","NA","2","legacy","5","1024","2","48000","-16","experiment","1","odd","9","694221","8233","690975","692010","1081","100312","692012","660772","1127","87892","696223","697299","693016","696223","NA","Sternberg Task","98","110033.0","108","1024"
"90","90","1017","1017","black","experiment","legacy","legacy","legacy","1","undefined","1","right","108","0","108","108","0","0","108","108","0","0","108","108","108","108","0","Mon Oct  9 13:21:36 2023","The main experiment item","True","SternbergTask.osexp","/Users/baileymcwhirter","False","mono","False","18","no","white","no","yes","768","legacy","96","11","/Users/baileymcwhirter/subject-1.csv","legacy","6 2 9 3 8 4","Melodramatic Milgram","4.0.5","0","n","0","right","left","right","right","NA","836.0","7087","12419","836","NA","2","legacy","6","1024","2","48000","-16","experiment","1","odd","1","700547","8233","697302","698334","1081","100312","698336","660772","1127","87892","702549","703387","699342","702549","NA","Sternberg Task","99","110869.0","109","1024"
"90","90","1015","1015","black","experiment","legacy","legacy","legacy","1","undefined","1","left","109","0","109","109","0","0","109","109","0","0","109","109","109","109","0","Mon Oct  9 13:21:36 2023","The main experiment item","True","SternbergTask.osexp","/Users/baileymcwhirter","False","mono","False","18","no","white","no","yes","768","legacy","97","11","/Users/baileymcwhirter/subject-1.csv","legacy","3 5 7 1","Melodramatic Milgram","4.0.5","3","y","0","left","left","right","left","NA","789.0","7087","12419","789","NA","2","legacy","4","1024","2","48000","-16","experiment","1","odd","7","706630","8233","703389","704421","1081","100312","704423","660772","1127","87892","708633","709423","705425","708633","NA","Sternberg Task","100","111658.0","110","1024"
"90","90","1012","1012","black","experiment","legacy","legacy","legacy","1","undefined","1","right","110","0","110","110","0","0","110","110","0","0","110","110","110","110","0","Mon Oct  9 13:21:36 2023","The main experiment item","True","SternbergTask.osexp","/Users/baileymcwhirter","False","mono","False","18","no","white","no","yes","768","legacy","98","11","/Users/baileymcwhirter/subject-1.csv","legacy","5 9 2 3","Melodramatic Milgram","4.0.5","0","n","0","right","left","right","right","NA","686.0","7087","12419","686","NA","2","legacy","4","1024","2","48000","-16","experiment","1","odd","8","712665","8233","709426","710456","1081","100312","710458","660772","1127","87892","714667","715354","711460","714667","NA","Sternberg Task","101","112344.0","111","1024"
"91","91","1010","1010","black","experiment","legacy","legacy","legacy","1","undefined","1","left","111","0","111","111","0","0","111","111","0","0","111","111","111","111","0","Mon Oct  9 13:21:36 2023","The main experiment item","True","SternbergTask.osexp","/Users/baileymcwhirter","False","mono","False","18","no","white","no","yes","768","legacy","99","11","/Users/baileymcwhirter/subject-1.csv","legacy","2 4 6 9","Melodramatic Milgram","4.0.5","3","y","0","left","left","right","left","NA","813.0","7087","12419","813","NA","2","legacy","4","1024","2","48000","-16","experiment","1","odd","6","718597","8233","715357","716387","1081","100312","716389","660772","1127","87892","720599","721413","717392","720599","NA","Sternberg Task","102","113157.0","112","1024"
"91","91","1008","1008","black","experiment","legacy","legacy","legacy","1","undefined","1","right","112","0","112","112","0","0","112","112","0","0","112","112","112","112","0","Mon Oct  9 13:21:36 2023","The main experiment item","True","SternbergTask.osexp","/Users/baileymcwhirter","False","mono","False","18","no","white","no","yes","768","legacy","100","11","/Users/baileymcwhirter/subject-1.csv","legacy","1 4 9 2 5","Melodramatic Milgram","4.0.5","0","n","0","right","left","right","right","NA","821.0","7087","12419","821","NA","2","legacy","5","1024","2","48000","-16","experiment","1","odd","7","724665","8233","721416","722452","1081","100312","722455","660772","1127","87892","726668","727490","723458","726668","NA","Sternberg Task","103","113978.0","113","1024"
"91","91","1010","1010","black","experiment","legacy","legacy","legacy","1","undefined","1","left","113","0","113","113","0","0","113","113","0","0","113","113","113","113","0","Mon Oct  9 13:21:36 2023","The main experiment item","True","SternbergTask.osexp","/Users/baileymcwhirter","False","mono","False","18","no","white","no","yes","768","legacy","101","11","/Users/baileymcwhirter/subject-1.csv","legacy","6 1 2","Melodramatic Milgram","4.0.5","3","y","0","left","left","right","left","NA","1166.0","7087","12419","1166","NA","2","legacy","3","1024","2","48000","-16","experiment","1","odd","2","730734","8233","727493","728523","1081","100312","728525","660772","1127","87892","732736","733903","729528","732736","NA","Sternberg Task","104","115144.0","114","1024"
"91","91","1007","1007","black","experiment","legacy","legacy","legacy","1","undefined","1","left","114","0","114","114","0","0","114","114","0","0","114","114","114","114","0","Mon Oct  9 13:21:36 2023","The main experiment item","True","SternbergTask.osexp","/Users/baileymcwhirter","False","mono","False","18","no","white","no","yes","768","legacy","102","11","/Users/baileymcwhirter/subject-1.csv","legacy","4 9 7 8 5 3","Melodramatic Milgram","4.0.5","4","y","0","left","left","right","left","NA","711.0","7087","12419","711","NA","2","legacy","6","1024","2","48000","-16","experiment","1","odd","8","737148","8233","733906","734938","1081","100312","734940","660772","1127","87892","739151","739863","735943","739151","NA","Sternberg Task","105","115855.0","115","1024"
"91","91","1005","1005","black","experiment","legacy","legacy","legacy","1","undefined","1","left","115","0","115","115","0","0","115","115","0","0","115","115","115","115","0","Mon Oct  9 13:21:36 2023","The main experiment item","True","SternbergTask.osexp","/Users/baileymcwhirter","False","mono","False","18","no","white","no","yes","768","legacy","103","11","/Users/baileymcwhirter/subject-1.csv","legacy","8 9 6 1","Melodramatic Milgram","4.0.5","2","y","0","left","left","right","left","NA","819.0","7087","12419","819","NA","2","legacy","4","1024","2","48000","-16","experiment","1","odd","9","743107","8233","739865","740895","1081","100312","740898","660772","1127","87892","745112","745932","741902","745112","NA","Sternberg Task","106","116674.0","116","1024"
"91","91","1002","1002","black","experiment","legacy","legacy","legacy","1","undefined","1","left","116","0","116","116","0","0","116","116","0","0","116","116","116","116","0","Mon Oct  9 13:21:36 2023","The main experiment item","True","SternbergTask.osexp","/Users/baileymcwhirter","False","mono","False","18","no","white","no","yes","768","legacy","104","11","/Users/baileymcwhirter/subject-1.csv","legacy","2 3 7 4","Melodramatic Milgram","4.0.5","1","y","0","left","left","right","left","NA","580.0","7087","12419","580","NA","2","legacy","4","1024","2","48000","-16","experiment","1","odd","2","749174","8233","745934","746964","1081","100312","746966","660772","1127","87892","751176","751757","747969","751176","NA","Sternberg Task","107","117254.0","117","1024"
"91","91","1001","1001","black","experiment","legacy","legacy","legacy","1","undefined","1","right","117","0","117","117","0","0","117","117","0","0","117","117","117","117","0","Mon Oct  9 13:21:36 2023","The main experiment item","True","SternbergTask.osexp","/Users/baileymcwhirter","False","mono","False","18","no","white","no","yes","768","legacy","105","11","/Users/baileymcwhirter/subject-1.csv","legacy","5","Melodramatic Milgram","4.0.5","0","n","0","right","left","right","right","NA","899.0","7087","12419","899","NA","2","legacy","1","1024","2","48000","-16","experiment","1","odd","8","754999","8233","751759","752789","1081","100312","752792","660772","1127","87892","757002","757902","753795","757001","NA","Sternberg Task","108","118153.0","118","1024"
"91","91","1000","1000","black","experiment","legacy","legacy","legacy","1","undefined","1","right","118","0","118","118","0","0","118","118","0","0","118","118","118","118","0","Mon Oct  9 13:21:36 2023","The main experiment item","True","SternbergTask.osexp","/Users/baileymcwhirter","False","mono","False","18","no","white","no","yes","768","legacy","106","11","/Users/baileymcwhirter/subject-1.csv","legacy","1","Melodramatic Milgram","4.0.5","0","n","0","right","left","right","right","NA","958.0","7087","12419","958","NA","2","legacy","1","1024","2","48000","-16","experiment","1","odd","7","761148","8233","757905","758938","1081","100312","758940","660772","1127","87892","763151","764110","759943","763151","NA","Sternberg Task","109","119111.0","119","1024"
"91","91","998","998","black","experiment","legacy","legacy","legacy","1","undefined","1","left","119","0","119","119","0","0","119","119","0","0","119","119","119","119","0","Mon Oct  9 13:21:36 2023","The main experiment item","True","SternbergTask.osexp","/Users/baileymcwhirter","False","mono","False","18","no","white","no","yes","768","legacy","107","11","/Users/baileymcwhirter/subject-1.csv","legacy","3 5 9 6 2 4","Melodramatic Milgram","4.0.5","1","y","0","left","left","right","left","NA","755.0","7087","12419","755","NA","2","legacy","6","1024","2","48000","-16","experiment","1","odd","3","767361","8233","764113","765150","1081","100312","765152","660772","1127","87892","769363","770119","766156","769363","NA","Sternberg Task","110","119866.0","120","1024"
"91","91","996","996","black","experiment","legacy","legacy","legacy","1","undefined","1","left","120","0","120","120","0","0","120","120","0","0","120","120","120","120","0","Mon Oct  9 13:21:36 2023","The main experiment item","True","SternbergTask.osexp","/Users/baileymcwhirter","False","mono","False","18","no","white","no","yes","768","legacy","108","11","/Users/baileymcwhirter/subject-1.csv","legacy","9 5 3 8 4","Melodramatic Milgram","4.0.5","1","y","0","left","left","right","left","NA","694.0","7087","12419","694","NA","2","legacy","5","1024","2","48000","-16","experiment","1","odd","9","773377","8233","770122","771165","1081","100312","771167","660772","1127","87892","775379","776074","772172","775379","NA","Sternberg Task","111","120560.0","121","1024"
"91","91","995","995","black","experiment","legacy","legacy","legacy","1","undefined","1","right","121","0","121","121","0","0","121","121","0","0","121","121","121","121","0","Mon Oct  9 13:21:36 2023","The main experiment item","True","SternbergTask.osexp","/Users/baileymcwhirter","False","mono","False","18","no","white","no","yes","768","legacy","109","11","/Users/baileymcwhirter/subject-1.csv","legacy","1 7 5 2","Melodramatic Milgram","4.0.5","0","n","0","right","left","right","right","NA","834.0","7087","12419","834","NA","2","legacy","4","1024","2","48000","-16","experiment","1","odd","3","779319","8233","776076","777108","1081","100312","777110","660772","1127","87892","781322","782157","778113","781322","NA","Sternberg Task","112","121394.0","122","1024"
"91","91","999","999","black","experiment","legacy","legacy","legacy","1","undefined","1","right","122","0","122","122","0","0","122","122","0","0","122","122","122","122","0","Mon Oct  9 13:21:36 2023","The main experiment item","True","SternbergTask.osexp","/Users/baileymcwhirter","False","mono","False","18","no","white","no","yes","768","legacy","110","11","/Users/baileymcwhirter/subject-1.csv","legacy","4 1","Melodramatic Milgram","4.0.5","0","n","0","right","left","right","right","NA","1525.0","7087","12419","1525","NA","2","legacy","2","1024","2","48000","-16","experiment","1","odd","6","785402","8233","782160","783192","1081","100312","783194","660772","1127","87892","787404","788930","784196","787404","NA","Sternberg Task","113","122919.0","123","1024"
"91","91","998","998","black","experiment","legacy","legacy","legacy","1","undefined","1","right","123","0","123","123","0","0","123","123","0","0","123","123","123","123","0","Mon Oct  9 13:21:36 2023","The main experiment item","True","SternbergTask.osexp","/Users/baileymcwhirter","False","mono","False","18","no","white","no","yes","768","legacy","111","11","/Users/baileymcwhirter/subject-1.csv","legacy","7 1 5 6 3","Melodramatic Milgram","4.0.5","0","n","0","right","left","right","right","NA","870.0","7087","12419","870","NA","2","legacy","5","1024","2","48000","-16","experiment","1","odd","8","792175","8233","788932","789965","1081","100312","789968","660772","1127","87892","794177","795048","790970","794177","NA","Sternberg Task","114","123789.0","124","1024"
"92","92","998","998","black","experiment","legacy","legacy","legacy","1","undefined","1","right","124","0","124","124","0","0","124","124","0","0","124","124","124","124","0","Mon Oct  9 13:21:36 2023","The main experiment item","True","SternbergTask.osexp","/Users/baileymcwhirter","False","mono","False","18","no","white","no","yes","768","legacy","112","11","/Users/baileymcwhirter/subject-1.csv","legacy","9 7 4 5 8","Melodramatic Milgram","4.0.5","0","n","0","right","left","right","right","NA","987.0","7087","12419","987","NA","2","legacy","5","1024","2","48000","-16","experiment","1","odd","6","798292","8233","795050","796080","1081","100312","796082","660772","1127","87892","800297","801286","797087","800297","NA","Sternberg Task","115","124776.0","125","1024"
"92","92","994","994","black","experiment","legacy","legacy","legacy","1","undefined","1","left","125","0","125","125","0","0","125","125","0","0","125","125","125","125","0","Mon Oct  9 13:21:36 2023","The main experiment item","True","SternbergTask.osexp","/Users/baileymcwhirter","False","mono","False","18","no","white","no","yes","768","legacy","113","11","/Users/baileymcwhirter/subject-1.csv","legacy","9 3 1 2 5","Melodramatic Milgram","4.0.5","4","y","0","left","left","right","left","NA","574.0","7087","12419","574","NA","2","legacy","5","1024","2","48000","-16","experiment","1","odd","2","804532","8233","801288","802321","1081","100312","802323","660772","1127","87892","806534","807109","803327","806534","NA","Sternberg Task","116","125350.0","126","1024"
"92","92","992","992","black","experiment","legacy","legacy","legacy","1","undefined","1","left","126","0","126","126","0","0","126","126","0","0","126","126","126","126","0","Mon Oct  9 13:21:36 2023","The main experiment item","True","SternbergTask.osexp","/Users/baileymcwhirter","False","mono","False","18","no","white","no","yes","768","legacy","114","11","/Users/baileymcwhirter/subject-1.csv","legacy","7 8 6 3 1","Melodramatic Milgram","4.0.5","5","y","0","left","left","right","left","NA","689.0","7087","12419","689","NA","2","legacy","5","1024","2","48000","-16","experiment","1","odd","1","810363","8233","807112","808151","1081","100312","808153","660772","1127","87892","812367","813057","809158","812367","NA","Sternberg Task","117","126039.0","127","1024"
"92","92","995","995","black","experiment","legacy","legacy","legacy","1","undefined","1","right","127","0","127","127","0","0","127","127","0","0","127","127","127","127","0","Mon Oct  9 13:21:36 2023","The main experiment item","True","SternbergTask.osexp","/Users/baileymcwhirter","False","mono","False","18","no","white","no","yes","768","legacy","115","11","/Users/baileymcwhirter/subject-1.csv","legacy","2 8 6 3 1","Melodramatic Milgram","4.0.5","0","n","0","right","left","right","right","NA","1354.0","7087","12419","1354","NA","2","legacy","5","1024","2","48000","-16","experiment","1","odd","7","816309","8233","813060","814095","1081","100312","814097","660772","1127","87892","818312","819668","815101","818312","NA","Sternberg Task","118","127393.0","128","1024"
"92","92","995","995","black","experiment","legacy","legacy","legacy","1","undefined","1","right","128","0","128","128","0","0","128","128","0","0","128","128","128","128","0","Mon Oct  9 13:21:36 2023","The main experiment item","True","SternbergTask.osexp","/Users/baileymcwhirter","False","mono","False","18","no","white","no","yes","768","legacy","116","11","/Users/baileymcwhirter/subject-1.csv","legacy","5 2","Melodramatic Milgram","4.0.5","0","n","0","right","left","right","right","NA","1066.0","7087","12419","1066","NA","2","legacy","2","1024","2","48000","-16","experiment","1","odd","7","822910","8233","819670","820699","1081","100312","820701","660772","1127","87892","824912","825979","821705","824912","NA","Sternberg Task","119","128459.0","129","1024"
