"acc","accuracy","average_response_time","avg_rt","background","block","canvas_backend","clock_backend","color_backend","compensation","coordinates","correct","correct_instruction1","correct_keyboard_response","correct_response","count_ISI","count_Instructions2","count_correctFeedback","count_expSequence","count_experiment","count_experimentLoop","count_fixation","count_incorrectFeedback","count_instruction1","count_keyboard_response","count_memorySet","count_new_logger","count_practiceLoop","count_probe","count_thankYou","datetime","description","disable_garbage_collection","experiment_file","experiment_path","font_bold","font_family","font_italic","font_size","font_underline","foreground","form_clicks","fullscreen","height","keyboard_backend","live_row","live_row_practiceLoop","logfile","mouse_backend","numberSet","opensesame_codename","opensesame_version","posInSet","present","repeat_cycle","response","response_Instructions2","response_instruction1","response_keyboard_response","response_thankYou","response_time","response_time_Instructions2","response_time_instruction1","response_time_keyboard_response","response_time_thankYou","round_decimals","sampler_backend","setSize","sound_buf_size","sound_channels","sound_freq","sound_sample_size","start","subject_nr","subject_parity","target","time_ISI","time_Instructions2","time_correctFeedback","time_expSequence","time_experiment","time_experimentLoop","time_fixation","time_incorrectFeedback","time_instruction1","time_keyboard_response","time_memorySet","time_new_logger","time_practiceLoop","time_probe","time_thankYou","title","total_correct","total_response_time","total_responses","uniform_coordinates","width"
"100","100","1171","1171","black","practice","legacy","legacy","legacy","0","uniform","1","undefined","1","left","0","0","0","0","0","0","0","0","0","0","0","0","0","0","0","10/17/21 11:58:41","The main experiment item","yes","Sternbergtask.osexp","C:/Users/suici/Desktop/Tarleton/Fall 2021 - Graduate Studies/PSYC 5316-010 Advanced Quantitative Methods & Experiment Design/Lab 3 - the Sternberg memory scanning task (an experiment on short term memory)","no","mono","no","18","no","white","no","yes","768","legacy","0","0","C:/Users/suici/Desktop/Tarleton/Fall 2021 - Graduate Studies/PSYC 5316-010 Advanced Quantitative Methods & Experiment Design/Lab 3 - the Sternberg memory scanning task (an experiment on short term memory)/SM-subject-3.csv","legacy","2 9 4","Lentiform Loewenfeld","3.3.9","3","y","0","left","NA","left","left","NA","1171","NA","21743","1171","NA","2","legacy","3","1024","2","48000","-16","experiment","3","odd","4","25667","NA","NA","23466","1404","NA","23467","NA","1407","27667","24467","28838","23151","27667","NA","Sternberg task","1","1171","1","yes","1024"
"50","50","1322","1322","black","practice","legacy","legacy","legacy","0","uniform","0","undefined","0","left","1","0","1","1","0","0","1","1","0","1","1","1","0","1","0","10/17/21 11:58:41","The main experiment item","yes","Sternbergtask.osexp","C:/Users/suici/Desktop/Tarleton/Fall 2021 - Graduate Studies/PSYC 5316-010 Advanced Quantitative Methods & Experiment Design/Lab 3 - the Sternberg memory scanning task (an experiment on short term memory)","no","mono","no","18","no","white","no","yes","768","legacy","1","1","C:/Users/suici/Desktop/Tarleton/Fall 2021 - Graduate Studies/PSYC 5316-010 Advanced Quantitative Methods & Experiment Design/Lab 3 - the Sternberg memory scanning task (an experiment on short term memory)/SM-subject-3.csv","legacy","1 7 9 8 5","Lentiform Loewenfeld","3.3.9","4","y","0","right","NA","left","right","NA","1473","NA","21743","1473","NA","2","legacy","5","1024","2","48000","-16","experiment","3","odd","8","32101","NA","28862","29900","1404","NA","29901","NA","1407","34101","30901","35574","23151","34101","NA","Sternberg task","1","2644","2","yes","1024"
"33.3333333333","33.3333333333","1060.33333333","1060.33333333","black","practice","legacy","legacy","legacy","0","uniform","0","undefined","0","right","2","0","2","2","0","0","2","2","0","2","2","2","0","2","0","10/17/21 11:58:41","The main experiment item","yes","Sternbergtask.osexp","C:/Users/suici/Desktop/Tarleton/Fall 2021 - Graduate Studies/PSYC 5316-010 Advanced Quantitative Methods & Experiment Design/Lab 3 - the Sternberg memory scanning task (an experiment on short term memory)","no","mono","no","18","no","white","no","yes","768","legacy","2","2","C:/Users/suici/Desktop/Tarleton/Fall 2021 - Graduate Studies/PSYC 5316-010 Advanced Quantitative Methods & Experiment Design/Lab 3 - the Sternberg memory scanning task (an experiment on short term memory)/SM-subject-3.csv","legacy","2 1","Lentiform Loewenfeld","3.3.9","0","n","0","left","NA","left","left","NA","537","NA","21743","537","NA","2","legacy","2","1024","2","48000","-16","experiment","3","odd","5","38813","NA","28862","36612","1404","NA","36613","35576","1407","40813","37613","41350","23151","40813","NA","Sternberg task","1","3181","3","yes","1024"
"25","25","945.5","945.5","black","practice","legacy","legacy","legacy","0","uniform","0","undefined","0","right","3","0","3","3","0","0","3","3","0","3","3","3","0","3","0","10/17/21 11:58:41","The main experiment item","yes","Sternbergtask.osexp","C:/Users/suici/Desktop/Tarleton/Fall 2021 - Graduate Studies/PSYC 5316-010 Advanced Quantitative Methods & Experiment Design/Lab 3 - the Sternberg memory scanning task (an experiment on short term memory)","no","mono","no","18","no","white","no","yes","768","legacy","3","3","C:/Users/suici/Desktop/Tarleton/Fall 2021 - Graduate Studies/PSYC 5316-010 Advanced Quantitative Methods & Experiment Design/Lab 3 - the Sternberg memory scanning task (an experiment on short term memory)/SM-subject-3.csv","legacy","4 1 5","Lentiform Loewenfeld","3.3.9","0","n","0","left","NA","left","left","NA","601","NA","21743","601","NA","2","legacy","3","1024","2","48000","-16","experiment","3","odd","2","44589","NA","28862","42388","1404","NA","42389","41352","1407","46589","43389","47190","23151","46589","NA","Sternberg task","1","3782","4","yes","1024"
"20","20","854","854","black","practice","legacy","legacy","legacy","0","uniform","0","undefined","0","left","4","0","4","4","0","0","4","4","0","4","4","4","0","4","0","10/17/21 11:58:41","The main experiment item","yes","Sternbergtask.osexp","C:/Users/suici/Desktop/Tarleton/Fall 2021 - Graduate Studies/PSYC 5316-010 Advanced Quantitative Methods & Experiment Design/Lab 3 - the Sternberg memory scanning task (an experiment on short term memory)","no","mono","no","18","no","white","no","yes","768","legacy","4","4","C:/Users/suici/Desktop/Tarleton/Fall 2021 - Graduate Studies/PSYC 5316-010 Advanced Quantitative Methods & Experiment Design/Lab 3 - the Sternberg memory scanning task (an experiment on short term memory)/SM-subject-3.csv","legacy","4 3 1 7 9 8","Lentiform Loewenfeld","3.3.9","1","y","0","right","NA","left","right","NA","488","NA","21743","488","NA","2","legacy","6","1024","2","48000","-16","experiment","3","odd","4","50430","NA","28862","48229","1404","NA","48230","47192","1407","52430","49230","52918","23151","52430","NA","Sternberg task","1","4270","5","yes","1024"
"16.6666666667","16.6666666667","839.833333333","839.833333333","black","practice","legacy","legacy","legacy","0","uniform","0","undefined","0","right","5","0","5","5","0","0","5","5","0","5","5","5","0","5","0","10/17/21 11:58:41","The main experiment item","yes","Sternbergtask.osexp","C:/Users/suici/Desktop/Tarleton/Fall 2021 - Graduate Studies/PSYC 5316-010 Advanced Quantitative Methods & Experiment Design/Lab 3 - the Sternberg memory scanning task (an experiment on short term memory)","no","mono","no","18","no","white","no","yes","768","legacy","5","5","C:/Users/suici/Desktop/Tarleton/Fall 2021 - Graduate Studies/PSYC 5316-010 Advanced Quantitative Methods & Experiment Design/Lab 3 - the Sternberg memory scanning task (an experiment on short term memory)/SM-subject-3.csv","legacy","3 1 9 4","Lentiform Loewenfeld","3.3.9","0","n","0","left","NA","left","left","NA","769","NA","21743","769","NA","2","legacy","4","1024","2","48000","-16","experiment","3","odd","6","56158","NA","28862","53957","1404","NA","53958","52920","1407","58158","54958","58927","23151","58158","NA","Sternberg task","1","5039","6","yes","1024"
"14.2857142857","14.2857142857","788.714285714","788.714285714","black","practice","legacy","legacy","legacy","0","uniform","0","undefined","0","left","6","0","6","6","0","0","6","6","0","6","6","6","0","6","0","10/17/21 11:58:41","The main experiment item","yes","Sternbergtask.osexp","C:/Users/suici/Desktop/Tarleton/Fall 2021 - Graduate Studies/PSYC 5316-010 Advanced Quantitative Methods & Experiment Design/Lab 3 - the Sternberg memory scanning task (an experiment on short term memory)","no","mono","no","18","no","white","no","yes","768","legacy","6","6","C:/Users/suici/Desktop/Tarleton/Fall 2021 - Graduate Studies/PSYC 5316-010 Advanced Quantitative Methods & Experiment Design/Lab 3 - the Sternberg memory scanning task (an experiment on short term memory)/SM-subject-3.csv","legacy","1 5 2 9","Lentiform Loewenfeld","3.3.9","2","y","0","right","NA","left","right","NA","482","NA","21743","482","NA","2","legacy","4","1024","2","48000","-16","experiment","3","odd","5","62164","NA","28862","59963","1404","NA","59964","58929","1407","64164","60964","64647","23151","64164","NA","Sternberg task","1","5521","7","yes","1024"
"25","25","775.375","775.375","black","practice","legacy","legacy","legacy","0","uniform","1","undefined","1","left","7","0","7","7","0","0","7","7","0","7","7","7","0","7","0","10/17/21 11:58:41","The main experiment item","yes","Sternbergtask.osexp","C:/Users/suici/Desktop/Tarleton/Fall 2021 - Graduate Studies/PSYC 5316-010 Advanced Quantitative Methods & Experiment Design/Lab 3 - the Sternberg memory scanning task (an experiment on short term memory)","no","mono","no","18","no","white","no","yes","768","legacy","7","7","C:/Users/suici/Desktop/Tarleton/Fall 2021 - Graduate Studies/PSYC 5316-010 Advanced Quantitative Methods & Experiment Design/Lab 3 - the Sternberg memory scanning task (an experiment on short term memory)/SM-subject-3.csv","legacy","6","Lentiform Loewenfeld","3.3.9","1","y","0","left","NA","left","left","NA","682","NA","21743","682","NA","2","legacy","1","1024","2","48000","-16","experiment","3","odd","6","67883","NA","28862","65682","1404","NA","65683","64648","1407","69884","66683","70566","23151","69883","NA","Sternberg task","2","6203","8","yes","1024"
"33.3333333333","33.3333333333","759.222222222","759.222222222","black","practice","legacy","legacy","legacy","0","uniform","1","undefined","1","left","8","0","8","8","0","0","8","8","0","8","8","8","0","8","0","10/17/21 11:58:41","The main experiment item","yes","Sternbergtask.osexp","C:/Users/suici/Desktop/Tarleton/Fall 2021 - Graduate Studies/PSYC 5316-010 Advanced Quantitative Methods & Experiment Design/Lab 3 - the Sternberg memory scanning task (an experiment on short term memory)","no","mono","no","18","no","white","no","yes","768","legacy","8","8","C:/Users/suici/Desktop/Tarleton/Fall 2021 - Graduate Studies/PSYC 5316-010 Advanced Quantitative Methods & Experiment Design/Lab 3 - the Sternberg memory scanning task (an experiment on short term memory)/SM-subject-3.csv","legacy","4 8","Lentiform Loewenfeld","3.3.9","1","y","0","left","NA","left","left","NA","630","NA","21743","630","NA","2","legacy","2","1024","2","48000","-16","experiment","3","odd","4","73808","NA","70568","71607","1404","NA","71608","64648","1407","75808","72608","76439","23151","75808","NA","Sternberg task","3","6833","9","yes","1024"
"30","30","732.4","732.4","black","practice","legacy","legacy","legacy","0","uniform","0","undefined","0","right","9","0","9","9","0","0","9","9","0","9","9","9","0","9","0","10/17/21 11:58:41","The main experiment item","yes","Sternbergtask.osexp","C:/Users/suici/Desktop/Tarleton/Fall 2021 - Graduate Studies/PSYC 5316-010 Advanced Quantitative Methods & Experiment Design/Lab 3 - the Sternberg memory scanning task (an experiment on short term memory)","no","mono","no","18","no","white","no","yes","768","legacy","9","9","C:/Users/suici/Desktop/Tarleton/Fall 2021 - Graduate Studies/PSYC 5316-010 Advanced Quantitative Methods & Experiment Design/Lab 3 - the Sternberg memory scanning task (an experiment on short term memory)/SM-subject-3.csv","legacy","5","Lentiform Loewenfeld","3.3.9","0","n","0","left","NA","left","left","NA","491","NA","21743","491","NA","2","legacy","1","1024","2","48000","-16","experiment","3","odd","3","79675","NA","76440","77474","1404","NA","77475","64648","1407","81675","78475","82166","23151","81675","NA","Sternberg task","3","7324","10","yes","1024"
"27.2727272727","27.2727272727","712.727272727","712.727272727","black","practice","legacy","legacy","legacy","0","uniform","0","undefined","0","right","10","0","10","10","0","0","10","10","0","10","10","10","0","10","0","10/17/21 11:58:41","The main experiment item","yes","Sternbergtask.osexp","C:/Users/suici/Desktop/Tarleton/Fall 2021 - Graduate Studies/PSYC 5316-010 Advanced Quantitative Methods & Experiment Design/Lab 3 - the Sternberg memory scanning task (an experiment on short term memory)","no","mono","no","18","no","white","no","yes","768","legacy","10","10","C:/Users/suici/Desktop/Tarleton/Fall 2021 - Graduate Studies/PSYC 5316-010 Advanced Quantitative Methods & Experiment Design/Lab 3 - the Sternberg memory scanning task (an experiment on short term memory)/SM-subject-3.csv","legacy","9 6 7 4 5","Lentiform Loewenfeld","3.3.9","0","n","0","left","NA","left","left","NA","516","NA","21743","516","NA","2","legacy","5","1024","2","48000","-16","experiment","3","odd","3","85403","NA","76440","83202","1404","NA","83203","82168","1407","87403","84203","87919","23151","87403","NA","Sternberg task","3","7840","11","yes","1024"
"25","25","696.833333333","696.833333333","black","practice","legacy","legacy","legacy","0","uniform","0","undefined","0","right","11","0","11","11","0","0","11","11","0","11","11","11","0","11","0","10/17/21 11:58:41","The main experiment item","yes","Sternbergtask.osexp","C:/Users/suici/Desktop/Tarleton/Fall 2021 - Graduate Studies/PSYC 5316-010 Advanced Quantitative Methods & Experiment Design/Lab 3 - the Sternberg memory scanning task (an experiment on short term memory)","no","mono","no","18","no","white","no","yes","768","legacy","11","11","C:/Users/suici/Desktop/Tarleton/Fall 2021 - Graduate Studies/PSYC 5316-010 Advanced Quantitative Methods & Experiment Design/Lab 3 - the Sternberg memory scanning task (an experiment on short term memory)/SM-subject-3.csv","legacy","5 7 8 4 1 2","Lentiform Loewenfeld","3.3.9","0","n","0","left","NA","left","left","NA","522","NA","21743","522","NA","2","legacy","6","1024","2","48000","-16","experiment","3","odd","6","91155","NA","76440","88954","1404","NA","88955","87920","1407","93156","89955","93678","23151","93155","NA","Sternberg task","3","8362","12","yes","1024"
"30.7692307692","30.7692307692","698.230769231","698.230769231","black","experiment","legacy","legacy","legacy","0","uniform","1","undefined","1","right","12","0","12","12","0","0","12","12","0","12","12","12","0","12","0","10/17/21 11:58:41","The main experiment item","yes","Sternbergtask.osexp","C:/Users/suici/Desktop/Tarleton/Fall 2021 - Graduate Studies/PSYC 5316-010 Advanced Quantitative Methods & Experiment Design/Lab 3 - the Sternberg memory scanning task (an experiment on short term memory)","no","mono","no","18","no","white","no","yes","768","legacy","0","11","C:/Users/suici/Desktop/Tarleton/Fall 2021 - Graduate Studies/PSYC 5316-010 Advanced Quantitative Methods & Experiment Design/Lab 3 - the Sternberg memory scanning task (an experiment on short term memory)/SM-subject-3.csv","legacy","8 2 1 4 5 9","Lentiform Loewenfeld","3.3.9","0","n","0","right","left","left","right","NA","715","13454","21743","715","NA","2","legacy","6","1024","2","48000","-16","experiment","3","odd","7","110388","94689","76440","108187","1404","108143","108188","93680","1407","112388","109188","113103","23151","112388","NA","Sternberg task","4","9077","13","yes","1024"
"35.7142857143","35.7142857143","696.714285714","696.714285714","black","experiment","legacy","legacy","legacy","0","uniform","1","undefined","1","right","13","0","13","13","0","0","13","13","0","13","13","13","0","13","0","10/17/21 11:58:41","The main experiment item","yes","Sternbergtask.osexp","C:/Users/suici/Desktop/Tarleton/Fall 2021 - Graduate Studies/PSYC 5316-010 Advanced Quantitative Methods & Experiment Design/Lab 3 - the Sternberg memory scanning task (an experiment on short term memory)","no","mono","no","18","no","white","no","yes","768","legacy","1","11","C:/Users/suici/Desktop/Tarleton/Fall 2021 - Graduate Studies/PSYC 5316-010 Advanced Quantitative Methods & Experiment Design/Lab 3 - the Sternberg memory scanning task (an experiment on short term memory)/SM-subject-3.csv","legacy","6 9 4 5 3 2","Lentiform Loewenfeld","3.3.9","0","n","0","right","left","left","right","NA","677","13454","21743","677","NA","2","legacy","6","1024","2","48000","-16","experiment","3","odd","8","116345","94689","113104","114143","1404","108143","114144","93680","1407","118345","115144","119023","23151","118345","NA","Sternberg task","5","9754","14","yes","1024"
"33.3333333333","33.3333333333","690.933333333","690.933333333","black","experiment","legacy","legacy","legacy","0","uniform","0","undefined","0","right","14","0","14","14","0","0","14","14","0","14","14","14","0","14","0","10/17/21 11:58:41","The main experiment item","yes","Sternbergtask.osexp","C:/Users/suici/Desktop/Tarleton/Fall 2021 - Graduate Studies/PSYC 5316-010 Advanced Quantitative Methods & Experiment Design/Lab 3 - the Sternberg memory scanning task (an experiment on short term memory)","no","mono","no","18","no","white","no","yes","768","legacy","2","11","C:/Users/suici/Desktop/Tarleton/Fall 2021 - Graduate Studies/PSYC 5316-010 Advanced Quantitative Methods & Experiment Design/Lab 3 - the Sternberg memory scanning task (an experiment on short term memory)/SM-subject-3.csv","legacy","7 1 8 4 9 3","Lentiform Loewenfeld","3.3.9","0","n","0","left","left","left","left","NA","610","13454","21743","610","NA","2","legacy","6","1024","2","48000","-16","experiment","3","odd","6","122260","94689","119024","120059","1404","108143","120060","93680","1407","124260","121060","124871","23151","124260","NA","Sternberg task","5","10364","15","yes","1024"
"37.5","37.5","688.9375","688.9375","black","experiment","legacy","legacy","legacy","0","uniform","1","undefined","1","left","15","0","15","15","0","0","15","15","0","15","15","15","0","15","0","10/17/21 11:58:41","The main experiment item","yes","Sternbergtask.osexp","C:/Users/suici/Desktop/Tarleton/Fall 2021 - Graduate Studies/PSYC 5316-010 Advanced Quantitative Methods & Experiment Design/Lab 3 - the Sternberg memory scanning task (an experiment on short term memory)","no","mono","no","18","no","white","no","yes","768","legacy","3","11","C:/Users/suici/Desktop/Tarleton/Fall 2021 - Graduate Studies/PSYC 5316-010 Advanced Quantitative Methods & Experiment Design/Lab 3 - the Sternberg memory scanning task (an experiment on short term memory)/SM-subject-3.csv","legacy","7 1 8 5 6 2","Lentiform Loewenfeld","3.3.9","2","y","0","left","left","left","left","NA","659","13454","21743","659","NA","2","legacy","6","1024","2","48000","-16","experiment","3","odd","1","128107","94689","119024","125906","1404","108143","125907","124872","1407","130107","126907","130767","23151","130107","NA","Sternberg task","6","11023","16","yes","1024"
"35.2941176471","35.2941176471","682.058823529","682.058823529","black","experiment","legacy","legacy","legacy","0","uniform","0","undefined","0","left","16","0","16","16","0","0","16","16","0","16","16","16","0","16","0","10/17/21 11:58:41","The main experiment item","yes","Sternbergtask.osexp","C:/Users/suici/Desktop/Tarleton/Fall 2021 - Graduate Studies/PSYC 5316-010 Advanced Quantitative Methods & Experiment Design/Lab 3 - the Sternberg memory scanning task (an experiment on short term memory)","no","mono","no","18","no","white","no","yes","768","legacy","4","11","C:/Users/suici/Desktop/Tarleton/Fall 2021 - Graduate Studies/PSYC 5316-010 Advanced Quantitative Methods & Experiment Design/Lab 3 - the Sternberg memory scanning task (an experiment on short term memory)/SM-subject-3.csv","legacy","8 7 3","Lentiform Loewenfeld","3.3.9","1","y","0","right","left","left","right","NA","572","13454","21743","572","NA","2","legacy","3","1024","2","48000","-16","experiment","3","odd","8","134003","94689","130768","131802","1404","108143","131803","124872","1407","136003","132803","136575","23151","136003","NA","Sternberg task","6","11595","17","yes","1024"
"38.8888888889","38.8888888889","701.444444444","701.444444444","black","experiment","legacy","legacy","legacy","0","uniform","1","undefined","1","right","17","0","17","17","0","0","17","17","0","17","17","17","0","17","0","10/17/21 11:58:41","The main experiment item","yes","Sternbergtask.osexp","C:/Users/suici/Desktop/Tarleton/Fall 2021 - Graduate Studies/PSYC 5316-010 Advanced Quantitative Methods & Experiment Design/Lab 3 - the Sternberg memory scanning task (an experiment on short term memory)","no","mono","no","18","no","white","no","yes","768","legacy","5","11","C:/Users/suici/Desktop/Tarleton/Fall 2021 - Graduate Studies/PSYC 5316-010 Advanced Quantitative Methods & Experiment Design/Lab 3 - the Sternberg memory scanning task (an experiment on short term memory)/SM-subject-3.csv","legacy","5 2","Lentiform Loewenfeld","3.3.9","0","n","0","right","left","left","right","NA","1031","13454","21743","1031","NA","2","legacy","2","1024","2","48000","-16","experiment","3","odd","7","139815","94689","130768","137614","1404","108143","137615","136577","1407","141815","138615","142847","23151","141815","NA","Sternberg task","7","12626","18","yes","1024"
"36.8421052632","36.8421052632","702.578947368","702.578947368","black","experiment","legacy","legacy","legacy","0","uniform","0","undefined","0","left","18","0","18","18","0","0","18","18","0","18","18","18","0","18","0","10/17/21 11:58:41","The main experiment item","yes","Sternbergtask.osexp","C:/Users/suici/Desktop/Tarleton/Fall 2021 - Graduate Studies/PSYC 5316-010 Advanced Quantitative Methods & Experiment Design/Lab 3 - the Sternberg memory scanning task (an experiment on short term memory)","no","mono","no","18","no","white","no","yes","768","legacy","6","11","C:/Users/suici/Desktop/Tarleton/Fall 2021 - Graduate Studies/PSYC 5316-010 Advanced Quantitative Methods & Experiment Design/Lab 3 - the Sternberg memory scanning task (an experiment on short term memory)/SM-subject-3.csv","legacy","7 2 3","Lentiform Loewenfeld","3.3.9","3","y","0","right","left","left","right","NA","723","13454","21743","723","NA","2","legacy","3","1024","2","48000","-16","experiment","3","odd","3","146083","94689","142848","143882","1404","108143","143883","136577","1407","148083","144883","148806","23151","148083","NA","Sternberg task","7","13349","19","yes","1024"
"35","35","697.55","697.55","black","experiment","legacy","legacy","legacy","0","uniform","0","undefined","0","left","19","0","19","19","0","0","19","19","0","19","19","19","0","19","0","10/17/21 11:58:41","The main experiment item","yes","Sternbergtask.osexp","C:/Users/suici/Desktop/Tarleton/Fall 2021 - Graduate Studies/PSYC 5316-010 Advanced Quantitative Methods & Experiment Design/Lab 3 - the Sternberg memory scanning task (an experiment on short term memory)","no","mono","no","18","no","white","no","yes","768","legacy","7","11","C:/Users/suici/Desktop/Tarleton/Fall 2021 - Graduate Studies/PSYC 5316-010 Advanced Quantitative Methods & Experiment Design/Lab 3 - the Sternberg memory scanning task (an experiment on short term memory)/SM-subject-3.csv","legacy","4 9 7 8 5 3","Lentiform Loewenfeld","3.3.9","4","y","0","right","left","left","right","NA","602","13454","21743","602","NA","2","legacy","6","1024","2","48000","-16","experiment","3","odd","8","152044","94689","142848","149842","1404","108143","149843","148808","1407","154044","150843","154646","23151","154044","NA","Sternberg task","7","13951","20","yes","1024"
"33.3333333333","33.3333333333","691.19047619","691.19047619","black","experiment","legacy","legacy","legacy","0","uniform","0","undefined","0","right","20","0","20","20","0","0","20","20","0","20","20","20","0","20","0","10/17/21 11:58:41","The main experiment item","yes","Sternbergtask.osexp","C:/Users/suici/Desktop/Tarleton/Fall 2021 - Graduate Studies/PSYC 5316-010 Advanced Quantitative Methods & Experiment Design/Lab 3 - the Sternberg memory scanning task (an experiment on short term memory)","no","mono","no","18","no","white","no","yes","768","legacy","8","11","C:/Users/suici/Desktop/Tarleton/Fall 2021 - Graduate Studies/PSYC 5316-010 Advanced Quantitative Methods & Experiment Design/Lab 3 - the Sternberg memory scanning task (an experiment on short term memory)/SM-subject-3.csv","legacy","1 4 9 3","Lentiform Loewenfeld","3.3.9","0","n","0","left","left","left","left","NA","564","13454","21743","564","NA","2","legacy","4","1024","2","48000","-16","experiment","3","odd","5","157883","94689","142848","155682","1404","108143","155683","154648","1407","159883","156683","160447","23151","159883","NA","Sternberg task","7","14515","21","yes","1024"
"36.3636363636","36.3636363636","684.636363636","684.636363636","black","experiment","legacy","legacy","legacy","0","uniform","1","undefined","1","right","21","0","21","21","0","0","21","21","0","21","21","21","0","21","0","10/17/21 11:58:41","The main experiment item","yes","Sternbergtask.osexp","C:/Users/suici/Desktop/Tarleton/Fall 2021 - Graduate Studies/PSYC 5316-010 Advanced Quantitative Methods & Experiment Design/Lab 3 - the Sternberg memory scanning task (an experiment on short term memory)","no","mono","no","18","no","white","no","yes","768","legacy","9","11","C:/Users/suici/Desktop/Tarleton/Fall 2021 - Graduate Studies/PSYC 5316-010 Advanced Quantitative Methods & Experiment Design/Lab 3 - the Sternberg memory scanning task (an experiment on short term memory)/SM-subject-3.csv","legacy","1 6 4 3 9 7","Lentiform Loewenfeld","3.3.9","0","n","0","right","left","left","right","NA","547","13454","21743","547","NA","2","legacy","6","1024","2","48000","-16","experiment","3","odd","8","163683","94689","142848","161482","1404","108143","161482","160448","1407","165683","162483","166230","23151","165683","NA","Sternberg task","8","15062","22","yes","1024"
"34.7826086957","34.7826086957","697.434782609","697.434782609","black","experiment","legacy","legacy","legacy","0","uniform","0","undefined","0","right","22","0","22","22","0","0","22","22","0","22","22","22","0","22","0","10/17/21 11:58:41","The main experiment item","yes","Sternbergtask.osexp","C:/Users/suici/Desktop/Tarleton/Fall 2021 - Graduate Studies/PSYC 5316-010 Advanced Quantitative Methods & Experiment Design/Lab 3 - the Sternberg memory scanning task (an experiment on short term memory)","no","mono","no","18","no","white","no","yes","768","legacy","10","11","C:/Users/suici/Desktop/Tarleton/Fall 2021 - Graduate Studies/PSYC 5316-010 Advanced Quantitative Methods & Experiment Design/Lab 3 - the Sternberg memory scanning task (an experiment on short term memory)/SM-subject-3.csv","legacy","8 9","Lentiform Loewenfeld","3.3.9","0","n","0","left","left","left","left","NA","979","13454","21743","979","NA","2","legacy","2","1024","2","48000","-16","experiment","3","odd","5","169467","94689","166232","167266","1404","108143","167266","160448","1407","171467","168267","172446","23151","171467","NA","Sternberg task","8","16041","23","yes","1024"
"37.5","37.5","696.75","696.75","black","experiment","legacy","legacy","legacy","0","uniform","1","undefined","1","right","23","0","23","23","0","0","23","23","0","23","23","23","0","23","0","10/17/21 11:58:41","The main experiment item","yes","Sternbergtask.osexp","C:/Users/suici/Desktop/Tarleton/Fall 2021 - Graduate Studies/PSYC 5316-010 Advanced Quantitative Methods & Experiment Design/Lab 3 - the Sternberg memory scanning task (an experiment on short term memory)","no","mono","no","18","no","white","no","yes","768","legacy","11","11","C:/Users/suici/Desktop/Tarleton/Fall 2021 - Graduate Studies/PSYC 5316-010 Advanced Quantitative Methods & Experiment Design/Lab 3 - the Sternberg memory scanning task (an experiment on short term memory)/SM-subject-3.csv","legacy","9 5 3 2 8 6","Lentiform Loewenfeld","3.3.9","0","n","0","right","left","left","right","NA","681","13454","21743","681","NA","2","legacy","6","1024","2","48000","-16","experiment","3","odd","7","175686","94689","166232","173485","1404","108143","173486","172448","1407","177686","174486","178367","23151","177686","NA","Sternberg task","9","16722","24","yes","1024"
"40","40","694.44","694.44","black","experiment","legacy","legacy","legacy","0","uniform","1","undefined","1","right","24","0","24","24","0","0","24","24","0","24","24","24","0","24","0","10/17/21 11:58:41","The main experiment item","yes","Sternbergtask.osexp","C:/Users/suici/Desktop/Tarleton/Fall 2021 - Graduate Studies/PSYC 5316-010 Advanced Quantitative Methods & Experiment Design/Lab 3 - the Sternberg memory scanning task (an experiment on short term memory)","no","mono","no","18","no","white","no","yes","768","legacy","12","11","C:/Users/suici/Desktop/Tarleton/Fall 2021 - Graduate Studies/PSYC 5316-010 Advanced Quantitative Methods & Experiment Design/Lab 3 - the Sternberg memory scanning task (an experiment on short term memory)/SM-subject-3.csv","legacy","5 7 3","Lentiform Loewenfeld","3.3.9","0","n","0","right","left","left","right","NA","639","13454","21743","639","NA","2","legacy","3","1024","2","48000","-16","experiment","3","odd","9","181607","94689","178369","179406","1404","108143","179407","172448","1407","183607","180407","184247","23151","183607","NA","Sternberg task","10","17361","25","yes","1024"
"42.3076923077","42.3076923077","686.307692308","686.307692308","black","experiment","legacy","legacy","legacy","0","uniform","1","undefined","1","left","25","0","25","25","0","0","25","25","0","25","25","25","0","25","0","10/17/21 11:58:41","The main experiment item","yes","Sternbergtask.osexp","C:/Users/suici/Desktop/Tarleton/Fall 2021 - Graduate Studies/PSYC 5316-010 Advanced Quantitative Methods & Experiment Design/Lab 3 - the Sternberg memory scanning task (an experiment on short term memory)","no","mono","no","18","no","white","no","yes","768","legacy","13","11","C:/Users/suici/Desktop/Tarleton/Fall 2021 - Graduate Studies/PSYC 5316-010 Advanced Quantitative Methods & Experiment Design/Lab 3 - the Sternberg memory scanning task (an experiment on short term memory)/SM-subject-3.csv","legacy","2 6 1 7 4","Lentiform Loewenfeld","3.3.9","2","y","0","left","left","left","left","NA","483","13454","21743","483","NA","2","legacy","5","1024","2","48000","-16","experiment","3","odd","6","187483","94689","184248","185282","1404","108143","185283","172448","1407","189483","186283","189966","23151","189483","NA","Sternberg task","11","17844","26","yes","1024"
"44.4444444444","44.4444444444","687.666666667","687.666666667","black","experiment","legacy","legacy","legacy","0","uniform","1","undefined","1","right","26","0","26","26","0","0","26","26","0","26","26","26","0","26","0","10/17/21 11:58:41","The main experiment item","yes","Sternbergtask.osexp","C:/Users/suici/Desktop/Tarleton/Fall 2021 - Graduate Studies/PSYC 5316-010 Advanced Quantitative Methods & Experiment Design/Lab 3 - the Sternberg memory scanning task (an experiment on short term memory)","no","mono","no","18","no","white","no","yes","768","legacy","14","11","C:/Users/suici/Desktop/Tarleton/Fall 2021 - Graduate Studies/PSYC 5316-010 Advanced Quantitative Methods & Experiment Design/Lab 3 - the Sternberg memory scanning task (an experiment on short term memory)/SM-subject-3.csv","legacy","1 7 5 2 9","Lentiform Loewenfeld","3.3.9","0","n","0","right","left","left","right","NA","723","13454","21743","723","NA","2","legacy","5","1024","2","48000","-16","experiment","3","odd","3","193203","94689","189968","191002","1404","108143","191003","172448","1407","195203","192003","195927","23151","195203","NA","Sternberg task","12","18567","27","yes","1024"
"46.4285714286","46.4285714286","678.25","678.25","black","experiment","legacy","legacy","legacy","0","uniform","1","undefined","1","left","27","0","27","27","0","0","27","27","0","27","27","27","0","27","0","10/17/21 11:58:41","The main experiment item","yes","Sternbergtask.osexp","C:/Users/suici/Desktop/Tarleton/Fall 2021 - Graduate Studies/PSYC 5316-010 Advanced Quantitative Methods & Experiment Design/Lab 3 - the Sternberg memory scanning task (an experiment on short term memory)","no","mono","no","18","no","white","no","yes","768","legacy","15","11","C:/Users/suici/Desktop/Tarleton/Fall 2021 - Graduate Studies/PSYC 5316-010 Advanced Quantitative Methods & Experiment Design/Lab 3 - the Sternberg memory scanning task (an experiment on short term memory)/SM-subject-3.csv","legacy","6 9 3 1","Lentiform Loewenfeld","3.3.9","4","y","0","left","left","left","left","NA","424","13454","21743","424","NA","2","legacy","4","1024","2","48000","-16","experiment","3","odd","1","199166","94689","195928","196965","1404","108143","196966","172448","1407","201166","197966","201590","23151","201166","NA","Sternberg task","13","18991","28","yes","1024"
"48.275862069","48.275862069","686.896551724","686.896551724","black","experiment","legacy","legacy","legacy","0","uniform","1","undefined","1","left","28","0","28","28","0","0","28","28","0","28","28","28","0","28","0","10/17/21 11:58:41","The main experiment item","yes","Sternbergtask.osexp","C:/Users/suici/Desktop/Tarleton/Fall 2021 - Graduate Studies/PSYC 5316-010 Advanced Quantitative Methods & Experiment Design/Lab 3 - the Sternberg memory scanning task (an experiment on short term memory)","no","mono","no","18","no","white","no","yes","768","legacy","16","11","C:/Users/suici/Desktop/Tarleton/Fall 2021 - Graduate Studies/PSYC 5316-010 Advanced Quantitative Methods & Experiment Design/Lab 3 - the Sternberg memory scanning task (an experiment on short term memory)/SM-subject-3.csv","legacy","5 2 6","Lentiform Loewenfeld","3.3.9","2","y","0","left","left","left","left","NA","929","13454","21743","929","NA","2","legacy","3","1024","2","48000","-16","experiment","3","odd","2","204829","94689","201592","202629","1404","108143","202629","172448","1407","206829","203629","207759","23151","206829","NA","Sternberg task","14","19920","29","yes","1024"
"50","50","680.266666667","680.266666667","black","experiment","legacy","legacy","legacy","0","uniform","1","undefined","1","right","29","0","29","29","0","0","29","29","0","29","29","29","0","29","0","10/17/21 11:58:41","The main experiment item","yes","Sternbergtask.osexp","C:/Users/suici/Desktop/Tarleton/Fall 2021 - Graduate Studies/PSYC 5316-010 Advanced Quantitative Methods & Experiment Design/Lab 3 - the Sternberg memory scanning task (an experiment on short term memory)","no","mono","no","18","no","white","no","yes","768","legacy","17","11","C:/Users/suici/Desktop/Tarleton/Fall 2021 - Graduate Studies/PSYC 5316-010 Advanced Quantitative Methods & Experiment Design/Lab 3 - the Sternberg memory scanning task (an experiment on short term memory)/SM-subject-3.csv","legacy","2 8 6 3 1","Lentiform Loewenfeld","3.3.9","0","n","0","right","left","left","right","NA","488","13454","21743","488","NA","2","legacy","5","1024","2","48000","-16","experiment","3","odd","7","210998","94689","207761","208797","1404","108143","208798","172448","1407","212998","209798","213486","23151","212998","NA","Sternberg task","15","20408","30","yes","1024"
"51.6129032258","51.6129032258","675.096774194","675.096774194","black","experiment","legacy","legacy","legacy","0","uniform","1","undefined","1","left","30","0","30","30","0","0","30","30","0","30","30","30","0","30","0","10/17/21 11:58:41","The main experiment item","yes","Sternbergtask.osexp","C:/Users/suici/Desktop/Tarleton/Fall 2021 - Graduate Studies/PSYC 5316-010 Advanced Quantitative Methods & Experiment Design/Lab 3 - the Sternberg memory scanning task (an experiment on short term memory)","no","mono","no","18","no","white","no","yes","768","legacy","18","11","C:/Users/suici/Desktop/Tarleton/Fall 2021 - Graduate Studies/PSYC 5316-010 Advanced Quantitative Methods & Experiment Design/Lab 3 - the Sternberg memory scanning task (an experiment on short term memory)/SM-subject-3.csv","legacy","3 2 1 4 7","Lentiform Loewenfeld","3.3.9","2","y","0","left","left","left","left","NA","520","13454","21743","520","NA","2","legacy","5","1024","2","48000","-16","experiment","3","odd","2","216726","94689","213488","214525","1404","108143","214526","172448","1407","218726","215526","219246","23151","218726","NA","Sternberg task","16","20928","31","yes","1024"
"50","50","684.28125","684.28125","black","experiment","legacy","legacy","legacy","0","uniform","0","undefined","0","left","31","0","31","31","0","0","31","31","0","31","31","31","0","31","0","10/17/21 11:58:41","The main experiment item","yes","Sternbergtask.osexp","C:/Users/suici/Desktop/Tarleton/Fall 2021 - Graduate Studies/PSYC 5316-010 Advanced Quantitative Methods & Experiment Design/Lab 3 - the Sternberg memory scanning task (an experiment on short term memory)","no","mono","no","18","no","white","no","yes","768","legacy","19","11","C:/Users/suici/Desktop/Tarleton/Fall 2021 - Graduate Studies/PSYC 5316-010 Advanced Quantitative Methods & Experiment Design/Lab 3 - the Sternberg memory scanning task (an experiment on short term memory)/SM-subject-3.csv","legacy","8 5 1 3 9","Lentiform Loewenfeld","3.3.9","4","y","0","right","left","left","right","NA","969","13454","21743","969","NA","2","legacy","5","1024","2","48000","-16","experiment","3","odd","3","222485","94689","219248","220284","1404","108143","220285","172448","1407","224485","221285","225454","23151","224485","NA","Sternberg task","16","21897","32","yes","1024"
"51.5151515152","51.5151515152","684.393939394","684.393939394","black","experiment","legacy","legacy","legacy","0","uniform","1","undefined","1","right","32","0","32","32","0","0","32","32","0","32","32","32","0","32","0","10/17/21 11:58:41","The main experiment item","yes","Sternbergtask.osexp","C:/Users/suici/Desktop/Tarleton/Fall 2021 - Graduate Studies/PSYC 5316-010 Advanced Quantitative Methods & Experiment Design/Lab 3 - the Sternberg memory scanning task (an experiment on short term memory)","no","mono","no","18","no","white","no","yes","768","legacy","20","11","C:/Users/suici/Desktop/Tarleton/Fall 2021 - Graduate Studies/PSYC 5316-010 Advanced Quantitative Methods & Experiment Design/Lab 3 - the Sternberg memory scanning task (an experiment on short term memory)/SM-subject-3.csv","legacy","5","Lentiform Loewenfeld","3.3.9","0","n","0","right","left","left","right","NA","688","13454","21743","688","NA","2","legacy","1","1024","2","48000","-16","experiment","3","odd","8","228694","94689","219248","226493","1404","108143","226493","225456","1407","230694","227494","231382","23151","230694","NA","Sternberg task","17","22585","33","yes","1024"
"52.9411764706","52.9411764706","681.941176471","681.941176471","black","experiment","legacy","legacy","legacy","0","uniform","1","undefined","1","left","33","0","33","33","0","0","33","33","0","33","33","33","0","33","0","10/17/21 11:58:41","The main experiment item","yes","Sternbergtask.osexp","C:/Users/suici/Desktop/Tarleton/Fall 2021 - Graduate Studies/PSYC 5316-010 Advanced Quantitative Methods & Experiment Design/Lab 3 - the Sternberg memory scanning task (an experiment on short term memory)","no","mono","no","18","no","white","no","yes","768","legacy","21","11","C:/Users/suici/Desktop/Tarleton/Fall 2021 - Graduate Studies/PSYC 5316-010 Advanced Quantitative Methods & Experiment Design/Lab 3 - the Sternberg memory scanning task (an experiment on short term memory)/SM-subject-3.csv","legacy","4 1 5","Lentiform Loewenfeld","3.3.9","2","y","0","left","left","left","left","NA","601","13454","21743","601","NA","2","legacy","3","1024","2","48000","-16","experiment","3","odd","1","234622","94689","231384","232421","1404","108143","232422","225456","1407","236622","233422","237223","23151","236622","NA","Sternberg task","18","23186","34","yes","1024"
"54.2857142857","54.2857142857","677.714285714","677.714285714","black","experiment","legacy","legacy","legacy","0","uniform","1","undefined","1","left","34","0","34","34","0","0","34","34","0","34","34","34","0","34","0","10/17/21 11:58:41","The main experiment item","yes","Sternbergtask.osexp","C:/Users/suici/Desktop/Tarleton/Fall 2021 - Graduate Studies/PSYC 5316-010 Advanced Quantitative Methods & Experiment Design/Lab 3 - the Sternberg memory scanning task (an experiment on short term memory)","no","mono","no","18","no","white","no","yes","768","legacy","22","11","C:/Users/suici/Desktop/Tarleton/Fall 2021 - Graduate Studies/PSYC 5316-010 Advanced Quantitative Methods & Experiment Design/Lab 3 - the Sternberg memory scanning task (an experiment on short term memory)/SM-subject-3.csv","legacy","6 5","Lentiform Loewenfeld","3.3.9","2","y","0","left","left","left","left","NA","534","13454","21743","534","NA","2","legacy","2","1024","2","48000","-16","experiment","3","odd","5","240464","94689","237225","238263","1404","108143","238264","225456","1407","242464","239264","242998","23151","242464","NA","Sternberg task","19","23720","35","yes","1024"
"52.7777777778","52.7777777778","677.583333333","677.583333333","black","experiment","legacy","legacy","legacy","0","uniform","0","undefined","0","left","35","0","35","35","0","0","35","35","0","35","35","35","0","35","0","10/17/21 11:58:41","The main experiment item","yes","Sternbergtask.osexp","C:/Users/suici/Desktop/Tarleton/Fall 2021 - Graduate Studies/PSYC 5316-010 Advanced Quantitative Methods & Experiment Design/Lab 3 - the Sternberg memory scanning task (an experiment on short term memory)","no","mono","no","18","no","white","no","yes","768","legacy","23","11","C:/Users/suici/Desktop/Tarleton/Fall 2021 - Graduate Studies/PSYC 5316-010 Advanced Quantitative Methods & Experiment Design/Lab 3 - the Sternberg memory scanning task (an experiment on short term memory)/SM-subject-3.csv","legacy","6 9 7 4 5 1","Lentiform Loewenfeld","3.3.9","2","y","0","right","left","left","right","NA","673","13454","21743","673","NA","2","legacy","6","1024","2","48000","-16","experiment","3","odd","9","246237","94689","243000","244037","1404","108143","244037","225456","1407","248237","245037","248910","23151","248237","NA","Sternberg task","19","24393","36","yes","1024"
"54.0540540541","54.0540540541","675.72972973","675.72972973","black","experiment","legacy","legacy","legacy","0","uniform","1","undefined","1","left","36","0","36","36","0","0","36","36","0","36","36","36","0","36","0","10/17/21 11:58:41","The main experiment item","yes","Sternbergtask.osexp","C:/Users/suici/Desktop/Tarleton/Fall 2021 - Graduate Studies/PSYC 5316-010 Advanced Quantitative Methods & Experiment Design/Lab 3 - the Sternberg memory scanning task (an experiment on short term memory)","no","mono","no","18","no","white","no","yes","768","legacy","24","11","C:/Users/suici/Desktop/Tarleton/Fall 2021 - Graduate Studies/PSYC 5316-010 Advanced Quantitative Methods & Experiment Design/Lab 3 - the Sternberg memory scanning task (an experiment on short term memory)/SM-subject-3.csv","legacy","3 4 9 6 2 9","Lentiform Loewenfeld","3.3.9","5","y","0","left","left","left","left","NA","609","13454","21743","609","NA","2","legacy","6","1024","2","48000","-16","experiment","3","odd","2","252150","94689","243000","249949","1404","108143","249950","248912","1407","254150","250950","254759","23151","254150","NA","Sternberg task","20","25002","37","yes","1024"
"52.6315789474","52.6315789474","673.105263158","673.105263158","black","experiment","legacy","legacy","legacy","0","uniform","0","undefined","0","right","37","0","37","37","0","0","37","37","0","37","37","37","0","37","0","10/17/21 11:58:41","The main experiment item","yes","Sternbergtask.osexp","C:/Users/suici/Desktop/Tarleton/Fall 2021 - Graduate Studies/PSYC 5316-010 Advanced Quantitative Methods & Experiment Design/Lab 3 - the Sternberg memory scanning task (an experiment on short term memory)","no","mono","no","18","no","white","no","yes","768","legacy","25","11","C:/Users/suici/Desktop/Tarleton/Fall 2021 - Graduate Studies/PSYC 5316-010 Advanced Quantitative Methods & Experiment Design/Lab 3 - the Sternberg memory scanning task (an experiment on short term memory)/SM-subject-3.csv","legacy","8 5 7 3 6","Lentiform Loewenfeld","3.3.9","0","n","0","left","left","left","left","NA","576","13454","21743","576","NA","2","legacy","5","1024","2","48000","-16","experiment","3","odd","9","257998","94689","254761","255797","1404","108143","255798","248912","1407","259998","256798","260575","23151","259998","NA","Sternberg task","20","25578","38","yes","1024"
"53.8461538462","53.8461538462","671.897435897","671.897435897","black","experiment","legacy","legacy","legacy","0","uniform","1","undefined","1","right","38","0","38","38","0","0","38","38","0","38","38","38","0","38","0","10/17/21 11:58:41","The main experiment item","yes","Sternbergtask.osexp","C:/Users/suici/Desktop/Tarleton/Fall 2021 - Graduate Studies/PSYC 5316-010 Advanced Quantitative Methods & Experiment Design/Lab 3 - the Sternberg memory scanning task (an experiment on short term memory)","no","mono","no","18","no","white","no","yes","768","legacy","26","11","C:/Users/suici/Desktop/Tarleton/Fall 2021 - Graduate Studies/PSYC 5316-010 Advanced Quantitative Methods & Experiment Design/Lab 3 - the Sternberg memory scanning task (an experiment on short term memory)/SM-subject-3.csv","legacy","3 9 1","Lentiform Loewenfeld","3.3.9","0","n","0","right","left","left","right","NA","626","13454","21743","626","NA","2","legacy","3","1024","2","48000","-16","experiment","3","odd","7","263812","94689","254761","261611","1404","108143","261612","260577","1407","265812","262612","266438","23151","265812","NA","Sternberg task","21","26204","39","yes","1024"
"55","55","667.275","667.275","black","experiment","legacy","legacy","legacy","0","uniform","1","undefined","1","right","39","0","39","39","0","0","39","39","0","39","39","39","0","39","0","10/17/21 11:58:41","The main experiment item","yes","Sternbergtask.osexp","C:/Users/suici/Desktop/Tarleton/Fall 2021 - Graduate Studies/PSYC 5316-010 Advanced Quantitative Methods & Experiment Design/Lab 3 - the Sternberg memory scanning task (an experiment on short term memory)","no","mono","no","18","no","white","no","yes","768","legacy","27","11","C:/Users/suici/Desktop/Tarleton/Fall 2021 - Graduate Studies/PSYC 5316-010 Advanced Quantitative Methods & Experiment Design/Lab 3 - the Sternberg memory scanning task (an experiment on short term memory)/SM-subject-3.csv","legacy","1 4 3 6 5","Lentiform Loewenfeld","3.3.9","0","n","0","right","left","left","right","NA","487","13454","21743","487","NA","2","legacy","5","1024","2","48000","-16","experiment","3","odd","8","269679","94689","266440","267478","1404","108143","267479","260577","1407","271679","268479","272167","23151","271679","NA","Sternberg task","22","26691","40","yes","1024"
"56.0975609756","56.0975609756","666.414634146","666.414634146","black","experiment","legacy","legacy","legacy","0","uniform","1","undefined","1","left","40","0","40","40","0","0","40","40","0","40","40","40","0","40","0","10/17/21 11:58:41","The main experiment item","yes","Sternbergtask.osexp","C:/Users/suici/Desktop/Tarleton/Fall 2021 - Graduate Studies/PSYC 5316-010 Advanced Quantitative Methods & Experiment Design/Lab 3 - the Sternberg memory scanning task (an experiment on short term memory)","no","mono","no","18","no","white","no","yes","768","legacy","28","11","C:/Users/suici/Desktop/Tarleton/Fall 2021 - Graduate Studies/PSYC 5316-010 Advanced Quantitative Methods & Experiment Design/Lab 3 - the Sternberg memory scanning task (an experiment on short term memory)/SM-subject-3.csv","legacy","4","Lentiform Loewenfeld","3.3.9","1","y","0","left","left","left","left","NA","632","13454","21743","632","NA","2","legacy","1","1024","2","48000","-16","experiment","3","odd","4","275406","94689","272169","273205","1404","108143","273206","260577","1407","277406","274206","278039","23151","277406","NA","Sternberg task","23","27323","41","yes","1024"
"57.1428571429","57.1428571429","662.619047619","662.619047619","black","experiment","legacy","legacy","legacy","0","uniform","1","undefined","1","left","41","0","41","41","0","0","41","41","0","41","41","41","0","41","0","10/17/21 11:58:41","The main experiment item","yes","Sternbergtask.osexp","C:/Users/suici/Desktop/Tarleton/Fall 2021 - Graduate Studies/PSYC 5316-010 Advanced Quantitative Methods & Experiment Design/Lab 3 - the Sternberg memory scanning task (an experiment on short term memory)","no","mono","no","18","no","white","no","yes","768","legacy","29","11","C:/Users/suici/Desktop/Tarleton/Fall 2021 - Graduate Studies/PSYC 5316-010 Advanced Quantitative Methods & Experiment Design/Lab 3 - the Sternberg memory scanning task (an experiment on short term memory)/SM-subject-3.csv","legacy","2 4 6 9","Lentiform Loewenfeld","3.3.9","3","y","0","left","left","left","left","NA","507","13454","21743","507","NA","2","legacy","4","1024","2","48000","-16","experiment","3","odd","6","281275","94689","278040","279074","1404","108143","279075","260577","1407","283275","280075","283782","23151","283275","NA","Sternberg task","24","27830","42","yes","1024"
"58.1395348837","58.1395348837","664.395348837","664.395348837","black","experiment","legacy","legacy","legacy","0","uniform","1","undefined","1","left","42","0","42","42","0","0","42","42","0","42","42","42","0","42","0","10/17/21 11:58:41","The main experiment item","yes","Sternbergtask.osexp","C:/Users/suici/Desktop/Tarleton/Fall 2021 - Graduate Studies/PSYC 5316-010 Advanced Quantitative Methods & Experiment Design/Lab 3 - the Sternberg memory scanning task (an experiment on short term memory)","no","mono","no","18","no","white","no","yes","768","legacy","30","11","C:/Users/suici/Desktop/Tarleton/Fall 2021 - Graduate Studies/PSYC 5316-010 Advanced Quantitative Methods & Experiment Design/Lab 3 - the Sternberg memory scanning task (an experiment on short term memory)/SM-subject-3.csv","legacy","8 5 3 7 4 6","Lentiform Loewenfeld","3.3.9","6","y","0","left","left","left","left","NA","739","13454","21743","739","NA","2","legacy","6","1024","2","48000","-16","experiment","3","odd","6","287019","94689","283784","284818","1404","108143","284819","260577","1407","289019","285819","289758","23151","289019","NA","Sternberg task","25","28569","43","yes","1024"
"56.8181818182","56.8181818182","665.909090909","665.909090909","black","experiment","legacy","legacy","legacy","0","uniform","0","undefined","0","right","43","0","43","43","0","0","43","43","0","43","43","43","0","43","0","10/17/21 11:58:41","The main experiment item","yes","Sternbergtask.osexp","C:/Users/suici/Desktop/Tarleton/Fall 2021 - Graduate Studies/PSYC 5316-010 Advanced Quantitative Methods & Experiment Design/Lab 3 - the Sternberg memory scanning task (an experiment on short term memory)","no","mono","no","18","no","white","no","yes","768","legacy","31","11","C:/Users/suici/Desktop/Tarleton/Fall 2021 - Graduate Studies/PSYC 5316-010 Advanced Quantitative Methods & Experiment Design/Lab 3 - the Sternberg memory scanning task (an experiment on short term memory)/SM-subject-3.csv","legacy","8 6 3 4 7","Lentiform Loewenfeld","3.3.9","0","n","0","left","left","left","left","NA","731","13454","21743","731","NA","2","legacy","5","1024","2","48000","-16","experiment","3","odd","1","292995","94689","289760","290794","1404","108143","290794","260577","1407","294995","291795","295727","23151","294995","NA","Sternberg task","25","29300","44","yes","1024"
"55.5555555556","55.5555555556","670.555555556","670.555555556","black","experiment","legacy","legacy","legacy","0","uniform","0","undefined","0","left","44","0","44","44","0","0","44","44","0","44","44","44","0","44","0","10/17/21 11:58:41","The main experiment item","yes","Sternbergtask.osexp","C:/Users/suici/Desktop/Tarleton/Fall 2021 - Graduate Studies/PSYC 5316-010 Advanced Quantitative Methods & Experiment Design/Lab 3 - the Sternberg memory scanning task (an experiment on short term memory)","no","mono","no","18","no","white","no","yes","768","legacy","32","11","C:/Users/suici/Desktop/Tarleton/Fall 2021 - Graduate Studies/PSYC 5316-010 Advanced Quantitative Methods & Experiment Design/Lab 3 - the Sternberg memory scanning task (an experiment on short term memory)/SM-subject-3.csv","legacy","5 2 9 6 1 7","Lentiform Loewenfeld","3.3.9","3","y","0","right","left","left","right","NA","875","13454","21743","875","NA","2","legacy","6","1024","2","48000","-16","experiment","3","odd","9","298963","94689","289760","296762","1404","108143","296762","295728","1407","300963","297763","301839","23151","300963","NA","Sternberg task","25","30175","45","yes","1024"
"56.5217391304","56.5217391304","669.456521739","669.456521739","black","experiment","legacy","legacy","legacy","0","uniform","1","undefined","1","right","45","0","45","45","0","0","45","45","0","45","45","45","0","45","0","10/17/21 11:58:41","The main experiment item","yes","Sternbergtask.osexp","C:/Users/suici/Desktop/Tarleton/Fall 2021 - Graduate Studies/PSYC 5316-010 Advanced Quantitative Methods & Experiment Design/Lab 3 - the Sternberg memory scanning task (an experiment on short term memory)","no","mono","no","18","no","white","no","yes","768","legacy","33","11","C:/Users/suici/Desktop/Tarleton/Fall 2021 - Graduate Studies/PSYC 5316-010 Advanced Quantitative Methods & Experiment Design/Lab 3 - the Sternberg memory scanning task (an experiment on short term memory)/SM-subject-3.csv","legacy","4 2 6 9","Lentiform Loewenfeld","3.3.9","0","n","0","right","left","left","right","NA","620","13454","21743","620","NA","2","legacy","4","1024","2","48000","-16","experiment","3","odd","7","305074","94689","289760","302874","1404","108143","302874","301840","1407","307074","303874","307694","23151","307074","NA","Sternberg task","26","30795","46","yes","1024"
"55.3191489362","55.3191489362","667.659574468","667.659574468","black","experiment","legacy","legacy","legacy","0","uniform","0","undefined","0","right","46","0","46","46","0","0","46","46","0","46","46","46","0","46","0","10/17/21 11:58:41","The main experiment item","yes","Sternbergtask.osexp","C:/Users/suici/Desktop/Tarleton/Fall 2021 - Graduate Studies/PSYC 5316-010 Advanced Quantitative Methods & Experiment Design/Lab 3 - the Sternberg memory scanning task (an experiment on short term memory)","no","mono","no","18","no","white","no","yes","768","legacy","34","11","C:/Users/suici/Desktop/Tarleton/Fall 2021 - Graduate Studies/PSYC 5316-010 Advanced Quantitative Methods & Experiment Design/Lab 3 - the Sternberg memory scanning task (an experiment on short term memory)/SM-subject-3.csv","legacy","1 3 2 6 9","Lentiform Loewenfeld","3.3.9","0","n","0","left","left","left","left","NA","585","13454","21743","585","NA","2","legacy","5","1024","2","48000","-16","experiment","3","odd","5","310933","94689","307696","308732","1404","108143","308733","301840","1407","312933","309733","313518","23151","312933","NA","Sternberg task","26","31380","47","yes","1024"
"56.25","56.25","663.791666667","663.791666667","black","experiment","legacy","legacy","legacy","0","uniform","1","undefined","1","left","47","0","47","47","0","0","47","47","0","47","47","47","0","47","0","10/17/21 11:58:41","The main experiment item","yes","Sternbergtask.osexp","C:/Users/suici/Desktop/Tarleton/Fall 2021 - Graduate Studies/PSYC 5316-010 Advanced Quantitative Methods & Experiment Design/Lab 3 - the Sternberg memory scanning task (an experiment on short term memory)","no","mono","no","18","no","white","no","yes","768","legacy","35","11","C:/Users/suici/Desktop/Tarleton/Fall 2021 - Graduate Studies/PSYC 5316-010 Advanced Quantitative Methods & Experiment Design/Lab 3 - the Sternberg memory scanning task (an experiment on short term memory)/SM-subject-3.csv","legacy","6 2","Lentiform Loewenfeld","3.3.9","1","y","0","left","left","left","left","NA","482","13454","21743","482","NA","2","legacy","2","1024","2","48000","-16","experiment","3","odd","6","316756","94689","307696","314555","1404","108143","314556","313520","1407","318756","315556","319238","23151","318756","NA","Sternberg task","27","31862","48","yes","1024"
"57.1428571429","57.1428571429","661.428571429","661.428571429","black","experiment","legacy","legacy","legacy","0","uniform","1","undefined","1","right","48","0","48","48","0","0","48","48","0","48","48","48","0","48","0","10/17/21 11:58:41","The main experiment item","yes","Sternbergtask.osexp","C:/Users/suici/Desktop/Tarleton/Fall 2021 - Graduate Studies/PSYC 5316-010 Advanced Quantitative Methods & Experiment Design/Lab 3 - the Sternberg memory scanning task (an experiment on short term memory)","no","mono","no","18","no","white","no","yes","768","legacy","36","11","C:/Users/suici/Desktop/Tarleton/Fall 2021 - Graduate Studies/PSYC 5316-010 Advanced Quantitative Methods & Experiment Design/Lab 3 - the Sternberg memory scanning task (an experiment on short term memory)/SM-subject-3.csv","legacy","6 9 7 3 8 2","Lentiform Loewenfeld","3.3.9","0","n","0","right","left","left","right","NA","548","13454","21743","548","NA","2","legacy","6","1024","2","48000","-16","experiment","3","odd","5","322474","94689","319240","320273","1404","108143","320274","313520","1407","324474","321274","325023","23151","324474","NA","Sternberg task","28","32410","49","yes","1024"
"56","56","667.44","667.44","black","experiment","legacy","legacy","legacy","0","uniform","0","undefined","0","left","49","0","49","49","0","0","49","49","0","49","49","49","0","49","0","10/17/21 11:58:41","The main experiment item","yes","Sternbergtask.osexp","C:/Users/suici/Desktop/Tarleton/Fall 2021 - Graduate Studies/PSYC 5316-010 Advanced Quantitative Methods & Experiment Design/Lab 3 - the Sternberg memory scanning task (an experiment on short term memory)","no","mono","no","18","no","white","no","yes","768","legacy","37","11","C:/Users/suici/Desktop/Tarleton/Fall 2021 - Graduate Studies/PSYC 5316-010 Advanced Quantitative Methods & Experiment Design/Lab 3 - the Sternberg memory scanning task (an experiment on short term memory)/SM-subject-3.csv","legacy","8","Lentiform Loewenfeld","3.3.9","1","y","0","right","left","left","right","NA","962","13454","21743","962","NA","2","legacy","1","1024","2","48000","-16","experiment","3","odd","8","328260","94689","325024","326058","1404","108143","326060","313520","1407","330260","327060","331222","23151","330260","NA","Sternberg task","28","33372","50","yes","1024"
"56.862745098","56.862745098","667.901960784","667.901960784","black","experiment","legacy","legacy","legacy","0","uniform","1","undefined","1","left","50","0","50","50","0","0","50","50","0","50","50","50","0","50","0","10/17/21 11:58:41","The main experiment item","yes","Sternbergtask.osexp","C:/Users/suici/Desktop/Tarleton/Fall 2021 - Graduate Studies/PSYC 5316-010 Advanced Quantitative Methods & Experiment Design/Lab 3 - the Sternberg memory scanning task (an experiment on short term memory)","no","mono","no","18","no","white","no","yes","768","legacy","38","11","C:/Users/suici/Desktop/Tarleton/Fall 2021 - Graduate Studies/PSYC 5316-010 Advanced Quantitative Methods & Experiment Design/Lab 3 - the Sternberg memory scanning task (an experiment on short term memory)/SM-subject-3.csv","legacy","3 4","Lentiform Loewenfeld","3.3.9","1","y","0","left","left","left","left","NA","691","13454","21743","691","NA","2","legacy","2","1024","2","48000","-16","experiment","3","odd","3","334459","94689","325024","332258","1404","108143","332259","331224","1407","336459","333259","337151","23151","336459","NA","Sternberg task","29","34063","51","yes","1024"
"57.6923076923","57.6923076923","681.576923077","681.576923077","black","experiment","legacy","legacy","legacy","0","uniform","1","undefined","1","right","51","0","51","51","0","0","51","51","0","51","51","51","0","51","0","10/17/21 11:58:41","The main experiment item","yes","Sternbergtask.osexp","C:/Users/suici/Desktop/Tarleton/Fall 2021 - Graduate Studies/PSYC 5316-010 Advanced Quantitative Methods & Experiment Design/Lab 3 - the Sternberg memory scanning task (an experiment on short term memory)","no","mono","no","18","no","white","no","yes","768","legacy","39","11","C:/Users/suici/Desktop/Tarleton/Fall 2021 - Graduate Studies/PSYC 5316-010 Advanced Quantitative Methods & Experiment Design/Lab 3 - the Sternberg memory scanning task (an experiment on short term memory)/SM-subject-3.csv","legacy","8 4 3 9","Lentiform Loewenfeld","3.3.9","0","n","0","right","left","left","right","NA","1379","13454","21743","1379","NA","2","legacy","4","1024","2","48000","-16","experiment","3","odd","5","340388","94689","337153","338187","1404","108143","338188","331224","1407","342388","339188","343767","23151","342388","NA","Sternberg task","30","35442","52","yes","1024"
"56.6037735849","56.6037735849","685.962264151","685.962264151","black","experiment","legacy","legacy","legacy","0","uniform","0","undefined","0","right","52","0","52","52","0","0","52","52","0","52","52","52","0","52","0","10/17/21 11:58:41","The main experiment item","yes","Sternbergtask.osexp","C:/Users/suici/Desktop/Tarleton/Fall 2021 - Graduate Studies/PSYC 5316-010 Advanced Quantitative Methods & Experiment Design/Lab 3 - the Sternberg memory scanning task (an experiment on short term memory)","no","mono","no","18","no","white","no","yes","768","legacy","40","11","C:/Users/suici/Desktop/Tarleton/Fall 2021 - Graduate Studies/PSYC 5316-010 Advanced Quantitative Methods & Experiment Design/Lab 3 - the Sternberg memory scanning task (an experiment on short term memory)/SM-subject-3.csv","legacy","2 6 4 3 9","Lentiform Loewenfeld","3.3.9","0","n","0","left","left","left","left","NA","914","13454","21743","914","NA","2","legacy","5","1024","2","48000","-16","experiment","3","odd","1","347004","94689","343769","344803","1404","108143","344804","331224","1407","349004","345804","349919","23151","349004","NA","Sternberg task","30","36356","53","yes","1024"
"55.5555555556","55.5555555556","692.092592593","692.092592593","black","experiment","legacy","legacy","legacy","0","uniform","0","undefined","0","left","53","0","53","53","0","0","53","53","0","53","53","53","0","53","0","10/17/21 11:58:41","The main experiment item","yes","Sternbergtask.osexp","C:/Users/suici/Desktop/Tarleton/Fall 2021 - Graduate Studies/PSYC 5316-010 Advanced Quantitative Methods & Experiment Design/Lab 3 - the Sternberg memory scanning task (an experiment on short term memory)","no","mono","no","18","no","white","no","yes","768","legacy","41","11","C:/Users/suici/Desktop/Tarleton/Fall 2021 - Graduate Studies/PSYC 5316-010 Advanced Quantitative Methods & Experiment Design/Lab 3 - the Sternberg memory scanning task (an experiment on short term memory)/SM-subject-3.csv","legacy","7","Lentiform Loewenfeld","3.3.9","1","y","0","right","left","left","right","NA","1017","13454","21743","1017","NA","2","legacy","1","1024","2","48000","-16","experiment","3","odd","7","353157","94689","343769","350956","1404","108143","350957","349920","1407","355157","351957","356175","23151","355157","NA","Sternberg task","30","37373","54","yes","1024"
"56.3636363636","56.3636363636","700.454545455","700.454545455","black","experiment","legacy","legacy","legacy","0","uniform","1","undefined","1","right","54","0","54","54","0","0","54","54","0","54","54","54","0","54","0","10/17/21 11:58:41","The main experiment item","yes","Sternbergtask.osexp","C:/Users/suici/Desktop/Tarleton/Fall 2021 - Graduate Studies/PSYC 5316-010 Advanced Quantitative Methods & Experiment Design/Lab 3 - the Sternberg memory scanning task (an experiment on short term memory)","no","mono","no","18","no","white","no","yes","768","legacy","42","11","C:/Users/suici/Desktop/Tarleton/Fall 2021 - Graduate Studies/PSYC 5316-010 Advanced Quantitative Methods & Experiment Design/Lab 3 - the Sternberg memory scanning task (an experiment on short term memory)/SM-subject-3.csv","legacy","6 2 9 3 8 4","Lentiform Loewenfeld","3.3.9","0","n","0","right","left","left","right","NA","1152","13454","21743","1152","NA","2","legacy","6","1024","2","48000","-16","experiment","3","odd","1","359415","94689","343769","357214","1404","108143","357215","356177","1407","361415","358215","362567","23151","361415","NA","Sternberg task","31","38525","55","yes","1024"
"57.1428571429","57.1428571429","699.946428571","699.946428571","black","experiment","legacy","legacy","legacy","0","uniform","1","undefined","1","left","55","0","55","55","0","0","55","55","0","55","55","55","0","55","0","10/17/21 11:58:41","The main experiment item","yes","Sternbergtask.osexp","C:/Users/suici/Desktop/Tarleton/Fall 2021 - Graduate Studies/PSYC 5316-010 Advanced Quantitative Methods & Experiment Design/Lab 3 - the Sternberg memory scanning task (an experiment on short term memory)","no","mono","no","18","no","white","no","yes","768","legacy","43","11","C:/Users/suici/Desktop/Tarleton/Fall 2021 - Graduate Studies/PSYC 5316-010 Advanced Quantitative Methods & Experiment Design/Lab 3 - the Sternberg memory scanning task (an experiment on short term memory)/SM-subject-3.csv","legacy","6 1 2","Lentiform Loewenfeld","3.3.9","3","y","0","left","left","left","left","NA","672","13454","21743","672","NA","2","legacy","3","1024","2","48000","-16","experiment","3","odd","2","365806","94689","362569","363605","1404","108143","363606","356177","1407","367806","364606","368479","23151","367806","NA","Sternberg task","32","39197","56","yes","1024"
"57.8947368421","57.8947368421","700.315789474","700.315789474","black","experiment","legacy","legacy","legacy","0","uniform","1","undefined","1","right","56","0","56","56","0","0","56","56","0","56","56","56","0","56","0","10/17/21 11:58:41","The main experiment item","yes","Sternbergtask.osexp","C:/Users/suici/Desktop/Tarleton/Fall 2021 - Graduate Studies/PSYC 5316-010 Advanced Quantitative Methods & Experiment Design/Lab 3 - the Sternberg memory scanning task (an experiment on short term memory)","no","mono","no","18","no","white","no","yes","768","legacy","44","11","C:/Users/suici/Desktop/Tarleton/Fall 2021 - Graduate Studies/PSYC 5316-010 Advanced Quantitative Methods & Experiment Design/Lab 3 - the Sternberg memory scanning task (an experiment on short term memory)/SM-subject-3.csv","legacy","7 4 2 8 1 9","Lentiform Loewenfeld","3.3.9","0","n","0","right","left","left","right","NA","721","13454","21743","721","NA","2","legacy","6","1024","2","48000","-16","experiment","3","odd","5","371717","94689","368480","369516","1404","108143","369517","356177","1407","373717","370517","374439","23151","373717","NA","Sternberg task","33","39918","57","yes","1024"
"58.6206896552","58.6206896552","702.844827586","702.844827586","black","experiment","legacy","legacy","legacy","0","uniform","1","undefined","1","right","57","0","57","57","0","0","57","57","0","57","57","57","0","57","0","10/17/21 11:58:41","The main experiment item","yes","Sternbergtask.osexp","C:/Users/suici/Desktop/Tarleton/Fall 2021 - Graduate Studies/PSYC 5316-010 Advanced Quantitative Methods & Experiment Design/Lab 3 - the Sternberg memory scanning task (an experiment on short term memory)","no","mono","no","18","no","white","no","yes","768","legacy","45","11","C:/Users/suici/Desktop/Tarleton/Fall 2021 - Graduate Studies/PSYC 5316-010 Advanced Quantitative Methods & Experiment Design/Lab 3 - the Sternberg memory scanning task (an experiment on short term memory)/SM-subject-3.csv","legacy","7 9 1 6","Lentiform Loewenfeld","3.3.9","0","n","0","right","left","left","right","NA","847","13454","21743","847","NA","2","legacy","4","1024","2","48000","-16","experiment","3","odd","4","377679","94689","374440","375478","1404","108143","375479","356177","1407","379679","376479","380526","23151","379679","NA","Sternberg task","34","40765","58","yes","1024"
"59.3220338983","59.3220338983","704.118644068","704.118644068","black","experiment","legacy","legacy","legacy","0","uniform","1","undefined","1","right","58","0","58","58","0","0","58","58","0","58","58","58","0","58","0","10/17/21 11:58:41","The main experiment item","yes","Sternbergtask.osexp","C:/Users/suici/Desktop/Tarleton/Fall 2021 - Graduate Studies/PSYC 5316-010 Advanced Quantitative Methods & Experiment Design/Lab 3 - the Sternberg memory scanning task (an experiment on short term memory)","no","mono","no","18","no","white","no","yes","768","legacy","46","11","C:/Users/suici/Desktop/Tarleton/Fall 2021 - Graduate Studies/PSYC 5316-010 Advanced Quantitative Methods & Experiment Design/Lab 3 - the Sternberg memory scanning task (an experiment on short term memory)/SM-subject-3.csv","legacy","1 4 9 2 5","Lentiform Loewenfeld","3.3.9","0","n","0","right","left","left","right","NA","778","13454","21743","778","NA","2","legacy","5","1024","2","48000","-16","experiment","3","odd","7","383763","94689","380528","381562","1404","108143","381563","356177","1407","385764","382563","386542","23151","385764","NA","Sternberg task","35","41543","59","yes","1024"
"58.3333333333","58.3333333333","705.733333333","705.733333333","black","experiment","legacy","legacy","legacy","0","uniform","0","undefined","0","left","59","0","59","59","0","0","59","59","0","59","59","59","0","59","0","10/17/21 11:58:41","The main experiment item","yes","Sternbergtask.osexp","C:/Users/suici/Desktop/Tarleton/Fall 2021 - Graduate Studies/PSYC 5316-010 Advanced Quantitative Methods & Experiment Design/Lab 3 - the Sternberg memory scanning task (an experiment on short term memory)","no","mono","no","18","no","white","no","yes","768","legacy","47","11","C:/Users/suici/Desktop/Tarleton/Fall 2021 - Graduate Studies/PSYC 5316-010 Advanced Quantitative Methods & Experiment Design/Lab 3 - the Sternberg memory scanning task (an experiment on short term memory)/SM-subject-3.csv","legacy","3 5 7 1","Lentiform Loewenfeld","3.3.9","3","y","0","right","left","left","right","NA","801","13454","21743","801","NA","2","legacy","4","1024","2","48000","-16","experiment","3","odd","7","389781","94689","386544","387580","1404","108143","387581","356177","1407","391781","388581","392583","23151","391781","NA","Sternberg task","35","42344","60","yes","1024"
"57.3770491803","57.3770491803","706.737704918","706.737704918","black","experiment","legacy","legacy","legacy","0","uniform","0","undefined","0","left","60","0","60","60","0","0","60","60","0","60","60","60","0","60","0","10/17/21 11:58:41","The main experiment item","yes","Sternbergtask.osexp","C:/Users/suici/Desktop/Tarleton/Fall 2021 - Graduate Studies/PSYC 5316-010 Advanced Quantitative Methods & Experiment Design/Lab 3 - the Sternberg memory scanning task (an experiment on short term memory)","no","mono","no","18","no","white","no","yes","768","legacy","48","11","C:/Users/suici/Desktop/Tarleton/Fall 2021 - Graduate Studies/PSYC 5316-010 Advanced Quantitative Methods & Experiment Design/Lab 3 - the Sternberg memory scanning task (an experiment on short term memory)/SM-subject-3.csv","legacy","8 1 6","Lentiform Loewenfeld","3.3.9","3","y","0","right","left","left","right","NA","767","13454","21743","767","NA","2","legacy","3","1024","2","48000","-16","experiment","3","odd","6","395823","94689","386544","393622","1404","108143","393623","392585","1407","397823","394623","398590","23151","397823","NA","Sternberg task","35","43111","61","yes","1024"
"58.064516129","58.064516129","705.919354839","705.919354839","black","experiment","legacy","legacy","legacy","0","uniform","1","undefined","1","right","61","0","61","61","0","0","61","61","0","61","61","61","0","61","0","10/17/21 11:58:41","The main experiment item","yes","Sternbergtask.osexp","C:/Users/suici/Desktop/Tarleton/Fall 2021 - Graduate Studies/PSYC 5316-010 Advanced Quantitative Methods & Experiment Design/Lab 3 - the Sternberg memory scanning task (an experiment on short term memory)","no","mono","no","18","no","white","no","yes","768","legacy","49","11","C:/Users/suici/Desktop/Tarleton/Fall 2021 - Graduate Studies/PSYC 5316-010 Advanced Quantitative Methods & Experiment Design/Lab 3 - the Sternberg memory scanning task (an experiment on short term memory)/SM-subject-3.csv","legacy","1 8 7","Lentiform Loewenfeld","3.3.9","0","n","0","right","left","left","right","NA","656","13454","21743","656","NA","2","legacy","3","1024","2","48000","-16","experiment","3","odd","4","401830","94689","386544","399629","1404","108143","399630","398592","1407","403830","400630","404486","23151","403830","NA","Sternberg task","36","43767","62","yes","1024"
"58.7301587302","58.7301587302","717.714285714","717.714285714","black","experiment","legacy","legacy","legacy","0","uniform","1","undefined","1","left","62","0","62","62","0","0","62","62","0","62","62","62","0","62","0","10/17/21 11:58:41","The main experiment item","yes","Sternbergtask.osexp","C:/Users/suici/Desktop/Tarleton/Fall 2021 - Graduate Studies/PSYC 5316-010 Advanced Quantitative Methods & Experiment Design/Lab 3 - the Sternberg memory scanning task (an experiment on short term memory)","no","mono","no","18","no","white","no","yes","768","legacy","50","11","C:/Users/suici/Desktop/Tarleton/Fall 2021 - Graduate Studies/PSYC 5316-010 Advanced Quantitative Methods & Experiment Design/Lab 3 - the Sternberg memory scanning task (an experiment on short term memory)/SM-subject-3.csv","legacy","8 3","Lentiform Loewenfeld","3.3.9","2","y","0","left","left","left","left","NA","1449","13454","21743","1449","NA","2","legacy","2","1024","2","48000","-16","experiment","3","odd","3","407725","94689","404488","405524","1404","108143","405525","398592","1407","409725","406525","411174","23151","409725","NA","Sternberg task","37","45216","63","yes","1024"
"59.375","59.375","719.5625","719.5625","black","experiment","legacy","legacy","legacy","0","uniform","1","undefined","1","right","63","0","63","63","0","0","63","63","0","63","63","63","0","63","0","10/17/21 11:58:41","The main experiment item","yes","Sternbergtask.osexp","C:/Users/suici/Desktop/Tarleton/Fall 2021 - Graduate Studies/PSYC 5316-010 Advanced Quantitative Methods & Experiment Design/Lab 3 - the Sternberg memory scanning task (an experiment on short term memory)","no","mono","no","18","no","white","no","yes","768","legacy","51","11","C:/Users/suici/Desktop/Tarleton/Fall 2021 - Graduate Studies/PSYC 5316-010 Advanced Quantitative Methods & Experiment Design/Lab 3 - the Sternberg memory scanning task (an experiment on short term memory)/SM-subject-3.csv","legacy","7 8 6 1","Lentiform Loewenfeld","3.3.9","0","n","0","right","left","left","right","NA","836","13454","21743","836","NA","2","legacy","4","1024","2","48000","-16","experiment","3","odd","3","414410","94689","411176","412210","1404","108143","412210","398592","1407","416410","413210","417247","23151","416410","NA","Sternberg task","38","46052","64","yes","1024"
"60","60","720.092307692","720.092307692","black","experiment","legacy","legacy","legacy","0","uniform","1","undefined","1","right","64","0","64","64","0","0","64","64","0","64","64","64","0","64","0","10/17/21 11:58:41","The main experiment item","yes","Sternbergtask.osexp","C:/Users/suici/Desktop/Tarleton/Fall 2021 - Graduate Studies/PSYC 5316-010 Advanced Quantitative Methods & Experiment Design/Lab 3 - the Sternberg memory scanning task (an experiment on short term memory)","no","mono","no","18","no","white","no","yes","768","legacy","52","11","C:/Users/suici/Desktop/Tarleton/Fall 2021 - Graduate Studies/PSYC 5316-010 Advanced Quantitative Methods & Experiment Design/Lab 3 - the Sternberg memory scanning task (an experiment on short term memory)/SM-subject-3.csv","legacy","2 7 5","Lentiform Loewenfeld","3.3.9","0","n","0","right","left","left","right","NA","754","13454","21743","754","NA","2","legacy","3","1024","2","48000","-16","experiment","3","odd","8","420484","94689","417248","418283","1404","108143","418284","398592","1407","422484","419284","423239","23151","422484","NA","Sternberg task","39","46806","65","yes","1024"
"59.0909090909","59.0909090909","721.181818182","721.181818182","black","experiment","legacy","legacy","legacy","0","uniform","0","undefined","0","right","65","0","65","65","0","0","65","65","0","65","65","65","0","65","0","10/17/21 11:58:41","The main experiment item","yes","Sternbergtask.osexp","C:/Users/suici/Desktop/Tarleton/Fall 2021 - Graduate Studies/PSYC 5316-010 Advanced Quantitative Methods & Experiment Design/Lab 3 - the Sternberg memory scanning task (an experiment on short term memory)","no","mono","no","18","no","white","no","yes","768","legacy","53","11","C:/Users/suici/Desktop/Tarleton/Fall 2021 - Graduate Studies/PSYC 5316-010 Advanced Quantitative Methods & Experiment Design/Lab 3 - the Sternberg memory scanning task (an experiment on short term memory)/SM-subject-3.csv","legacy","2 5 1 4","Lentiform Loewenfeld","3.3.9","0","n","0","left","left","left","left","NA","792","13454","21743","792","NA","2","legacy","4","1024","2","48000","-16","experiment","3","odd","6","426478","94689","423240","424277","1404","108143","424278","398592","1407","428478","425278","429270","23151","428478","NA","Sternberg task","39","47598","66","yes","1024"
"59.7014925373","59.7014925373","722.76119403","722.76119403","black","experiment","legacy","legacy","legacy","0","uniform","1","undefined","1","right","66","0","66","66","0","0","66","66","0","66","66","66","0","66","0","10/17/21 11:58:41","The main experiment item","yes","Sternbergtask.osexp","C:/Users/suici/Desktop/Tarleton/Fall 2021 - Graduate Studies/PSYC 5316-010 Advanced Quantitative Methods & Experiment Design/Lab 3 - the Sternberg memory scanning task (an experiment on short term memory)","no","mono","no","18","no","white","no","yes","768","legacy","54","11","C:/Users/suici/Desktop/Tarleton/Fall 2021 - Graduate Studies/PSYC 5316-010 Advanced Quantitative Methods & Experiment Design/Lab 3 - the Sternberg memory scanning task (an experiment on short term memory)/SM-subject-3.csv","legacy","5 3 2 6 9 8","Lentiform Loewenfeld","3.3.9","0","n","0","right","left","left","right","NA","827","13454","21743","827","NA","2","legacy","6","1024","2","48000","-16","experiment","3","odd","4","432507","94689","423240","430306","1404","108143","430307","429272","1407","434507","431307","435335","23151","434507","NA","Sternberg task","40","48425","67","yes","1024"
"60.2941176471","60.2941176471","722.558823529","722.558823529","black","experiment","legacy","legacy","legacy","0","uniform","1","undefined","1","left","67","0","67","67","0","0","67","67","0","67","67","67","0","67","0","10/17/21 11:58:41","The main experiment item","yes","Sternbergtask.osexp","C:/Users/suici/Desktop/Tarleton/Fall 2021 - Graduate Studies/PSYC 5316-010 Advanced Quantitative Methods & Experiment Design/Lab 3 - the Sternberg memory scanning task (an experiment on short term memory)","no","mono","no","18","no","white","no","yes","768","legacy","55","11","C:/Users/suici/Desktop/Tarleton/Fall 2021 - Graduate Studies/PSYC 5316-010 Advanced Quantitative Methods & Experiment Design/Lab 3 - the Sternberg memory scanning task (an experiment on short term memory)/SM-subject-3.csv","legacy","2 4 8 5 1 3","Lentiform Loewenfeld","3.3.9","1","y","0","left","left","left","left","NA","709","13454","21743","709","NA","2","legacy","6","1024","2","48000","-16","experiment","3","odd","2","438570","94689","435336","436369","1404","108143","436370","429272","1407","440570","437370","441279","23151","440570","NA","Sternberg task","41","49134","68","yes","1024"
"60.8695652174","60.8695652174","735.057971014","735.057971014","black","experiment","legacy","legacy","legacy","0","uniform","1","undefined","1","left","68","0","68","68","0","0","68","68","0","68","68","68","0","68","0","10/17/21 11:58:41","The main experiment item","yes","Sternbergtask.osexp","C:/Users/suici/Desktop/Tarleton/Fall 2021 - Graduate Studies/PSYC 5316-010 Advanced Quantitative Methods & Experiment Design/Lab 3 - the Sternberg memory scanning task (an experiment on short term memory)","no","mono","no","18","no","white","no","yes","768","legacy","56","11","C:/Users/suici/Desktop/Tarleton/Fall 2021 - Graduate Studies/PSYC 5316-010 Advanced Quantitative Methods & Experiment Design/Lab 3 - the Sternberg memory scanning task (an experiment on short term memory)/SM-subject-3.csv","legacy","3 5 4 7","Lentiform Loewenfeld","3.3.9","1","y","0","left","left","left","left","NA","1585","13454","21743","1585","NA","2","legacy","4","1024","2","48000","-16","experiment","3","odd","3","444517","94689","441281","442316","1404","108143","442317","429272","1407","446517","443317","448103","23151","446517","NA","Sternberg task","42","50719","69","yes","1024"
"61.4285714286","61.4285714286","733.371428571","733.371428571","black","experiment","legacy","legacy","legacy","0","uniform","1","undefined","1","left","69","0","69","69","0","0","69","69","0","69","69","69","0","69","0","10/17/21 11:58:41","The main experiment item","yes","Sternbergtask.osexp","C:/Users/suici/Desktop/Tarleton/Fall 2021 - Graduate Studies/PSYC 5316-010 Advanced Quantitative Methods & Experiment Design/Lab 3 - the Sternberg memory scanning task (an experiment on short term memory)","no","mono","no","18","no","white","no","yes","768","legacy","57","11","C:/Users/suici/Desktop/Tarleton/Fall 2021 - Graduate Studies/PSYC 5316-010 Advanced Quantitative Methods & Experiment Design/Lab 3 - the Sternberg memory scanning task (an experiment on short term memory)/SM-subject-3.csv","legacy","3 5 9 6 2 4","Lentiform Loewenfeld","3.3.9","1","y","0","left","left","left","left","NA","617","13454","21743","617","NA","2","legacy","6","1024","2","48000","-16","experiment","3","odd","3","451341","94689","448105","449140","1404","108143","449141","429272","1407","453341","450141","453959","23151","453341","NA","Sternberg task","43","51336","70","yes","1024"
"60.5633802817","60.5633802817","734.14084507","734.14084507","black","experiment","legacy","legacy","legacy","0","uniform","0","undefined","0","right","70","0","70","70","0","0","70","70","0","70","70","70","0","70","0","10/17/21 11:58:41","The main experiment item","yes","Sternbergtask.osexp","C:/Users/suici/Desktop/Tarleton/Fall 2021 - Graduate Studies/PSYC 5316-010 Advanced Quantitative Methods & Experiment Design/Lab 3 - the Sternberg memory scanning task (an experiment on short term memory)","no","mono","no","18","no","white","no","yes","768","legacy","58","11","C:/Users/suici/Desktop/Tarleton/Fall 2021 - Graduate Studies/PSYC 5316-010 Advanced Quantitative Methods & Experiment Design/Lab 3 - the Sternberg memory scanning task (an experiment on short term memory)/SM-subject-3.csv","legacy","4 1","Lentiform Loewenfeld","3.3.9","0","n","0","left","left","left","left","NA","788","13454","21743","788","NA","2","legacy","2","1024","2","48000","-16","experiment","3","odd","6","457194","94689","453960","454994","1404","108143","454994","429272","1407","459194","455994","459983","23151","459194","NA","Sternberg task","43","52124","71","yes","1024"
"59.7222222222","59.7222222222","735.097222222","735.097222222","black","experiment","legacy","legacy","legacy","0","uniform","0","undefined","0","right","71","0","71","71","0","0","71","71","0","71","71","71","0","71","0","10/17/21 11:58:41","The main experiment item","yes","Sternbergtask.osexp","C:/Users/suici/Desktop/Tarleton/Fall 2021 - Graduate Studies/PSYC 5316-010 Advanced Quantitative Methods & Experiment Design/Lab 3 - the Sternberg memory scanning task (an experiment on short term memory)","no","mono","no","18","no","white","no","yes","768","legacy","59","11","C:/Users/suici/Desktop/Tarleton/Fall 2021 - Graduate Studies/PSYC 5316-010 Advanced Quantitative Methods & Experiment Design/Lab 3 - the Sternberg memory scanning task (an experiment on short term memory)/SM-subject-3.csv","legacy","8 5 4 2 9 6","Lentiform Loewenfeld","3.3.9","0","n","0","left","left","left","left","NA","803","13454","21743","803","NA","2","legacy","6","1024","2","48000","-16","experiment","3","odd","3","463219","94689","453960","461018","1404","108143","461019","459984","1407","465219","462019","466022","23151","465219","NA","Sternberg task","43","52927","72","yes","1024"
"60.2739726027","60.2739726027","737.671232877","737.671232877","black","experiment","legacy","legacy","legacy","0","uniform","1","undefined","1","left","72","0","72","72","0","0","72","72","0","72","72","72","0","72","0","10/17/21 11:58:41","The main experiment item","yes","Sternbergtask.osexp","C:/Users/suici/Desktop/Tarleton/Fall 2021 - Graduate Studies/PSYC 5316-010 Advanced Quantitative Methods & Experiment Design/Lab 3 - the Sternberg memory scanning task (an experiment on short term memory)","no","mono","no","18","no","white","no","yes","768","legacy","60","11","C:/Users/suici/Desktop/Tarleton/Fall 2021 - Graduate Studies/PSYC 5316-010 Advanced Quantitative Methods & Experiment Design/Lab 3 - the Sternberg memory scanning task (an experiment on short term memory)/SM-subject-3.csv","legacy","2 8 5 1","Lentiform Loewenfeld","3.3.9","4","y","0","left","left","left","left","NA","923","13454","21743","923","NA","2","legacy","4","1024","2","48000","-16","experiment","3","odd","1","469259","94689","453960","467058","1404","108143","467059","466024","1407","471259","468059","472182","23151","471259","NA","Sternberg task","44","53850","73","yes","1024"
"60.8108108108","60.8108108108","737.554054054","737.554054054","black","experiment","legacy","legacy","legacy","0","uniform","1","undefined","1","left","73","0","73","73","0","0","73","73","0","73","73","73","0","73","0","10/17/21 11:58:41","The main experiment item","yes","Sternbergtask.osexp","C:/Users/suici/Desktop/Tarleton/Fall 2021 - Graduate Studies/PSYC 5316-010 Advanced Quantitative Methods & Experiment Design/Lab 3 - the Sternberg memory scanning task (an experiment on short term memory)","no","mono","no","18","no","white","no","yes","768","legacy","61","11","C:/Users/suici/Desktop/Tarleton/Fall 2021 - Graduate Studies/PSYC 5316-010 Advanced Quantitative Methods & Experiment Design/Lab 3 - the Sternberg memory scanning task (an experiment on short term memory)/SM-subject-3.csv","legacy","9 1 7 2","Lentiform Loewenfeld","3.3.9","2","y","0","left","left","left","left","NA","729","13454","21743","729","NA","2","legacy","4","1024","2","48000","-16","experiment","3","odd","1","475422","94689","472184","473222","1404","108143","473222","466024","1407","477422","474222","478151","23151","477422","NA","Sternberg task","45","54579","74","yes","1024"
"61.3333333333","61.3333333333","742.413333333","742.413333333","black","experiment","legacy","legacy","legacy","0","uniform","1","undefined","1","right","74","0","74","74","0","0","74","74","0","74","74","74","0","74","0","10/17/21 11:58:41","The main experiment item","yes","Sternbergtask.osexp","C:/Users/suici/Desktop/Tarleton/Fall 2021 - Graduate Studies/PSYC 5316-010 Advanced Quantitative Methods & Experiment Design/Lab 3 - the Sternberg memory scanning task (an experiment on short term memory)","no","mono","no","18","no","white","no","yes","768","legacy","62","11","C:/Users/suici/Desktop/Tarleton/Fall 2021 - Graduate Studies/PSYC 5316-010 Advanced Quantitative Methods & Experiment Design/Lab 3 - the Sternberg memory scanning task (an experiment on short term memory)/SM-subject-3.csv","legacy","2 3 8 5 6 7","Lentiform Loewenfeld","3.3.9","0","n","0","right","left","left","right","NA","1102","13454","21743","1102","NA","2","legacy","6","1024","2","48000","-16","experiment","3","odd","1","481391","94689","478153","479190","1404","108143","479191","466024","1407","483392","480191","484495","23151","483392","NA","Sternberg task","46","55681","75","yes","1024"
"61.8421052632","61.8421052632","748.75","748.75","black","experiment","legacy","legacy","legacy","0","uniform","1","undefined","1","right","75","0","75","75","0","0","75","75","0","75","75","75","0","75","0","10/17/21 11:58:41","The main experiment item","yes","Sternbergtask.osexp","C:/Users/suici/Desktop/Tarleton/Fall 2021 - Graduate Studies/PSYC 5316-010 Advanced Quantitative Methods & Experiment Design/Lab 3 - the Sternberg memory scanning task (an experiment on short term memory)","no","mono","no","18","no","white","no","yes","768","legacy","63","11","C:/Users/suici/Desktop/Tarleton/Fall 2021 - Graduate Studies/PSYC 5316-010 Advanced Quantitative Methods & Experiment Design/Lab 3 - the Sternberg memory scanning task (an experiment on short term memory)/SM-subject-3.csv","legacy","5 3 8 7 2 4","Lentiform Loewenfeld","3.3.9","0","n","0","right","left","left","right","NA","1224","13454","21743","1224","NA","2","legacy","6","1024","2","48000","-16","experiment","3","odd","9","487734","94689","484497","485533","1404","108143","485534","466024","1407","489734","486534","490959","23151","489734","NA","Sternberg task","47","56905","76","yes","1024"
"61.038961039","61.038961039","745.467532468","745.467532468","black","experiment","legacy","legacy","legacy","0","uniform","0","undefined","0","right","76","0","76","76","0","0","76","76","0","76","76","76","0","76","0","10/17/21 11:58:41","The main experiment item","yes","Sternbergtask.osexp","C:/Users/suici/Desktop/Tarleton/Fall 2021 - Graduate Studies/PSYC 5316-010 Advanced Quantitative Methods & Experiment Design/Lab 3 - the Sternberg memory scanning task (an experiment on short term memory)","no","mono","no","18","no","white","no","yes","768","legacy","64","11","C:/Users/suici/Desktop/Tarleton/Fall 2021 - Graduate Studies/PSYC 5316-010 Advanced Quantitative Methods & Experiment Design/Lab 3 - the Sternberg memory scanning task (an experiment on short term memory)/SM-subject-3.csv","legacy","6 3 1 7 9 8","Lentiform Loewenfeld","3.3.9","0","n","0","left","left","left","left","NA","496","13454","21743","496","NA","2","legacy","6","1024","2","48000","-16","experiment","3","odd","4","494198","94689","490960","491997","1404","108143","491998","466024","1407","496198","492998","496695","23151","496198","NA","Sternberg task","47","57401","77","yes","1024"
"60.2564102564","60.2564102564","746.833333333","746.833333333","black","experiment","legacy","legacy","legacy","0","uniform","0","undefined","0","left","77","0","77","77","0","0","77","77","0","77","77","77","0","77","0","10/17/21 11:58:41","The main experiment item","yes","Sternbergtask.osexp","C:/Users/suici/Desktop/Tarleton/Fall 2021 - Graduate Studies/PSYC 5316-010 Advanced Quantitative Methods & Experiment Design/Lab 3 - the Sternberg memory scanning task (an experiment on short term memory)","no","mono","no","18","no","white","no","yes","768","legacy","65","11","C:/Users/suici/Desktop/Tarleton/Fall 2021 - Graduate Studies/PSYC 5316-010 Advanced Quantitative Methods & Experiment Design/Lab 3 - the Sternberg memory scanning task (an experiment on short term memory)/SM-subject-3.csv","legacy","9 1 6 7 8","Lentiform Loewenfeld","3.3.9","1","y","0","right","left","left","right","NA","852","13454","21743","852","NA","2","legacy","5","1024","2","48000","-16","experiment","3","odd","9","499938","94689","490960","497737","1404","108143","497738","496697","1407","501938","498738","502790","23151","501938","NA","Sternberg task","47","58253","78","yes","1024"
"59.4936708861","59.4936708861","746.481012658","746.481012658","black","experiment","legacy","legacy","legacy","0","uniform","0","undefined","0","right","78","0","78","78","0","0","78","78","0","78","78","78","0","78","0","10/17/21 11:58:41","The main experiment item","yes","Sternbergtask.osexp","C:/Users/suici/Desktop/Tarleton/Fall 2021 - Graduate Studies/PSYC 5316-010 Advanced Quantitative Methods & Experiment Design/Lab 3 - the Sternberg memory scanning task (an experiment on short term memory)","no","mono","no","18","no","white","no","yes","768","legacy","66","11","C:/Users/suici/Desktop/Tarleton/Fall 2021 - Graduate Studies/PSYC 5316-010 Advanced Quantitative Methods & Experiment Design/Lab 3 - the Sternberg memory scanning task (an experiment on short term memory)/SM-subject-3.csv","legacy","1 7 8 3 9","Lentiform Loewenfeld","3.3.9","0","n","0","left","left","left","left","NA","719","13454","21743","719","NA","2","legacy","5","1024","2","48000","-16","experiment","3","odd","2","506031","94689","490960","503830","1404","108143","503831","502792","1407","508031","504831","508751","23151","508031","NA","Sternberg task","47","58972","79","yes","1024"
"60","60","746.8375","746.8375","black","experiment","legacy","legacy","legacy","0","uniform","1","undefined","1","left","79","0","79","79","0","0","79","79","0","79","79","79","0","79","0","10/17/21 11:58:41","The main experiment item","yes","Sternbergtask.osexp","C:/Users/suici/Desktop/Tarleton/Fall 2021 - Graduate Studies/PSYC 5316-010 Advanced Quantitative Methods & Experiment Design/Lab 3 - the Sternberg memory scanning task (an experiment on short term memory)","no","mono","no","18","no","white","no","yes","768","legacy","67","11","C:/Users/suici/Desktop/Tarleton/Fall 2021 - Graduate Studies/PSYC 5316-010 Advanced Quantitative Methods & Experiment Design/Lab 3 - the Sternberg memory scanning task (an experiment on short term memory)/SM-subject-3.csv","legacy","7 6","Lentiform Loewenfeld","3.3.9","2","y","0","left","left","left","left","NA","775","13454","21743","775","NA","2","legacy","2","1024","2","48000","-16","experiment","3","odd","6","511991","94689","490960","509790","1404","108143","509791","508752","1407","513991","510791","514766","23151","513991","NA","Sternberg task","48","59747","80","yes","1024"
"60.4938271605","60.4938271605","756.679012346","756.679012346","black","experiment","legacy","legacy","legacy","0","uniform","1","undefined","1","right","80","0","80","80","0","0","80","80","0","80","80","80","0","80","0","10/17/21 11:58:41","The main experiment item","yes","Sternbergtask.osexp","C:/Users/suici/Desktop/Tarleton/Fall 2021 - Graduate Studies/PSYC 5316-010 Advanced Quantitative Methods & Experiment Design/Lab 3 - the Sternberg memory scanning task (an experiment on short term memory)","no","mono","no","18","no","white","no","yes","768","legacy","68","11","C:/Users/suici/Desktop/Tarleton/Fall 2021 - Graduate Studies/PSYC 5316-010 Advanced Quantitative Methods & Experiment Design/Lab 3 - the Sternberg memory scanning task (an experiment on short term memory)/SM-subject-3.csv","legacy","4 8 1 2","Lentiform Loewenfeld","3.3.9","0","n","0","right","left","left","right","NA","1544","13454","21743","1544","NA","2","legacy","4","1024","2","48000","-16","experiment","3","odd","7","518006","94689","514768","515805","1404","108143","515806","508752","1407","520006","516806","521551","23151","520006","NA","Sternberg task","49","61291","81","yes","1024"
"60.9756097561","60.9756097561","758.768292683","758.768292683","black","experiment","legacy","legacy","legacy","0","uniform","1","undefined","1","left","81","0","81","81","0","0","81","81","0","81","81","81","0","81","0","10/17/21 11:58:41","The main experiment item","yes","Sternbergtask.osexp","C:/Users/suici/Desktop/Tarleton/Fall 2021 - Graduate Studies/PSYC 5316-010 Advanced Quantitative Methods & Experiment Design/Lab 3 - the Sternberg memory scanning task (an experiment on short term memory)","no","mono","no","18","no","white","no","yes","768","legacy","69","11","C:/Users/suici/Desktop/Tarleton/Fall 2021 - Graduate Studies/PSYC 5316-010 Advanced Quantitative Methods & Experiment Design/Lab 3 - the Sternberg memory scanning task (an experiment on short term memory)/SM-subject-3.csv","legacy","7 8 4 6 9 5","Lentiform Loewenfeld","3.3.9","4","y","0","left","left","left","left","NA","928","13454","21743","928","NA","2","legacy","6","1024","2","48000","-16","experiment","3","odd","6","524790","94689","521552","522589","1404","108143","522590","508752","1407","526790","523590","527719","23151","526790","NA","Sternberg task","50","62219","82","yes","1024"
"61.4457831325","61.4457831325","765.638554217","765.638554217","black","experiment","legacy","legacy","legacy","0","uniform","1","undefined","1","right","82","0","82","82","0","0","82","82","0","82","82","82","0","82","0","10/17/21 11:58:41","The main experiment item","yes","Sternbergtask.osexp","C:/Users/suici/Desktop/Tarleton/Fall 2021 - Graduate Studies/PSYC 5316-010 Advanced Quantitative Methods & Experiment Design/Lab 3 - the Sternberg memory scanning task (an experiment on short term memory)","no","mono","no","18","no","white","no","yes","768","legacy","70","11","C:/Users/suici/Desktop/Tarleton/Fall 2021 - Graduate Studies/PSYC 5316-010 Advanced Quantitative Methods & Experiment Design/Lab 3 - the Sternberg memory scanning task (an experiment on short term memory)/SM-subject-3.csv","legacy","1 7 5 2","Lentiform Loewenfeld","3.3.9","0","n","0","right","left","left","right","NA","1329","13454","21743","1329","NA","2","legacy","4","1024","2","48000","-16","experiment","3","odd","3","530957","94689","527720","528756","1404","108143","528757","508752","1407","532957","529757","534287","23151","532957","NA","Sternberg task","51","63548","83","yes","1024"
"61.9047619048","61.9047619048","764.654761905","764.654761905","black","experiment","legacy","legacy","legacy","0","uniform","1","undefined","1","right","83","0","83","83","0","0","83","83","0","83","83","83","0","83","0","10/17/21 11:58:41","The main experiment item","yes","Sternbergtask.osexp","C:/Users/suici/Desktop/Tarleton/Fall 2021 - Graduate Studies/PSYC 5316-010 Advanced Quantitative Methods & Experiment Design/Lab 3 - the Sternberg memory scanning task (an experiment on short term memory)","no","mono","no","18","no","white","no","yes","768","legacy","71","11","C:/Users/suici/Desktop/Tarleton/Fall 2021 - Graduate Studies/PSYC 5316-010 Advanced Quantitative Methods & Experiment Design/Lab 3 - the Sternberg memory scanning task (an experiment on short term memory)/SM-subject-3.csv","legacy","7 6 4 8 1 2","Lentiform Loewenfeld","3.3.9","0","n","0","right","left","left","right","NA","683","13454","21743","683","NA","2","legacy","6","1024","2","48000","-16","experiment","3","odd","9","537523","94689","534288","535322","1404","108143","535323","508752","1407","539523","536323","540206","23151","539523","NA","Sternberg task","52","64231","84","yes","1024"
