"acc","accuracy","average_response_time","avg_rt","background","block","canvas_backend","clock_backend","color_backend","correct","correct_instruction1","correct_new_keyboard_response","correct_response","count_ISI","count_correctFeedback","count_experiment","count_experimentLoop","count_expsequence","count_fixation","count_incorrectFeedback","count_instruction1","count_instructions2","count_memoryset","count_new_keyboard_response","count_new_logger","count_practiceLoop","count_probe","count_thankyou","datetime","description","disable_garbage_collection","experiment_file","experiment_path","font_bold","font_family","font_italic","font_size","font_underline","foreground","form_clicks","fullscreen","height","keyboard_backend","live_row","live_row_practiceLoop","logfile","mouse_backend","numberSet","opensesame_codename","opensesame_version","posInSet","present","repeat_cycle","response","response_instruction1","response_instructions2","response_new_keyboard_response","response_thankyou","response_time","response_time_instruction1","response_time_instructions2","response_time_new_keyboard_response","response_time_thankyou","round_decimals","sampler_backend","setSize","sound_buf_size","sound_channels","sound_freq","sound_sample_size","start","subject_nr","subject_parity","target","time_ISI","time_correctFeedback","time_experiment","time_experimentLoop","time_expsequence","time_fixation","time_incorrectFeedback","time_instruction1","time_instructions2","time_memoryset","time_new_keyboard_response","time_new_logger","time_practiceLoop","time_probe","time_thankyou","title","total_correct","total_response_time","total_responses","width"
"100","100","909","909","#3d3846","practice","legacy","legacy","legacy","1","undefined","1","left","0","0","0","0","0","0","0","0","0","0","0","0","0","0","0","Thu Oct 12 19:11:06 2023","The main experiment item","True","SternbergTask.osexp","C:/Users/katjo/OneDrive/Desktop","False","mono","False","18","no","white","no","yes","768","legacy","0","0","C:/Users/katjo/OneDrive/Desktop/KEJ-subject-1.csv","legacy","1 7 9 8 5","Melodramatic Milgram","4.0.5","4","y","0","left","left","NA","left","NA","909.0","8667","NA","909","NA","2","legacy","5","1024","2","48000","-16","experiment","1","odd","8","14806","NA","3496","NA","12603","12604","NA","3500","NA","13605","16807","17716","12169","16807","NA","Sternberg Task","1","909.0","1","1024"
"100","100","1140","1140","#3d3846","practice","legacy","legacy","legacy","1","undefined","1","left","1","1","0","0","1","1","1","0","0","1","1","1","0","1","0","Thu Oct 12 19:11:06 2023","The main experiment item","True","SternbergTask.osexp","C:/Users/katjo/OneDrive/Desktop","False","mono","False","18","no","white","no","yes","768","legacy","1","1","C:/Users/katjo/OneDrive/Desktop/KEJ-subject-1.csv","legacy","4 3 1 7 9 8","Melodramatic Milgram","4.0.5","1","y","0","left","left","NA","left","NA","1372.0","8667","NA","1372","NA","2","legacy","6","1024","2","48000","-16","experiment","1","odd","4","20990","17757","3496","NA","18788","18788","NA","3500","NA","19788","22990","24363","12169","22990","NA","Sternberg Task","2","2281.0","2","1024"
"100","100","1013","1013","#3d3846","practice","legacy","legacy","legacy","1","undefined","1","right","2","2","0","0","2","2","2","0","0","2","2","2","0","2","0","Thu Oct 12 19:11:06 2023","The main experiment item","True","SternbergTask.osexp","C:/Users/katjo/OneDrive/Desktop","False","mono","False","18","no","white","no","yes","768","legacy","2","2","C:/Users/katjo/OneDrive/Desktop/KEJ-subject-1.csv","legacy","9 6 7 4 5","Melodramatic Milgram","4.0.5","0","n","0","right","left","NA","right","NA","760.0","8667","NA","760","NA","2","legacy","5","1024","2","48000","-16","experiment","1","odd","3","27623","24389","3496","NA","25422","25422","NA","3500","NA","26423","29623","30383","12169","29623","NA","Sternberg Task","3","3041.0","3","1024"
"100","100","928","928","#3d3846","practice","legacy","legacy","legacy","1","undefined","1","left","3","3","0","0","3","3","3","0","0","3","3","3","0","3","0","Thu Oct 12 19:11:06 2023","The main experiment item","True","SternbergTask.osexp","C:/Users/katjo/OneDrive/Desktop","False","mono","False","18","no","white","no","yes","768","legacy","3","3","C:/Users/katjo/OneDrive/Desktop/KEJ-subject-1.csv","legacy","2 9 4","Melodramatic Milgram","4.0.5","3","y","0","left","left","NA","left","NA","671.0","8667","NA","671","NA","2","legacy","3","1024","2","48000","-16","experiment","1","odd","4","33643","30409","3496","NA","31441","31442","NA","3500","NA","32442","35643","36315","12169","35643","NA","Sternberg Task","4","3712.0","4","1024"
"100","100","879","879","#3d3846","practice","legacy","legacy","legacy","1","undefined","1","right","4","4","0","0","4","4","4","0","0","4","4","4","0","4","0","Thu Oct 12 19:11:06 2023","The main experiment item","True","SternbergTask.osexp","C:/Users/katjo/OneDrive/Desktop","False","mono","False","18","no","white","no","yes","768","legacy","4","4","C:/Users/katjo/OneDrive/Desktop/KEJ-subject-1.csv","legacy","3 1 9 4","Melodramatic Milgram","4.0.5","0","n","0","right","left","NA","right","NA","686.0","8667","NA","686","NA","2","legacy","4","1024","2","48000","-16","experiment","1","odd","6","39593","36341","3496","NA","37391","37391","NA","3500","NA","38392","41594","42281","12169","41594","NA","Sternberg Task","5","4398.0","5","1024"
"100","100","832","832","#3d3846","practice","legacy","legacy","legacy","1","undefined","1","left","5","5","0","0","5","5","5","0","0","5","5","5","0","5","0","Thu Oct 12 19:11:06 2023","The main experiment item","True","SternbergTask.osexp","C:/Users/katjo/OneDrive/Desktop","False","mono","False","18","no","white","no","yes","768","legacy","5","5","C:/Users/katjo/OneDrive/Desktop/KEJ-subject-1.csv","legacy","6","Melodramatic Milgram","4.0.5","1","y","0","left","left","NA","left","NA","598.0","8667","NA","598","NA","2","legacy","1","1024","2","48000","-16","experiment","1","odd","6","45516","42285","3496","NA","43314","43315","NA","3500","NA","44315","47516","48115","12169","47516","NA","Sternberg Task","6","4996.0","6","1024"
"100","100","796","796","#3d3846","practice","legacy","legacy","legacy","1","undefined","1","right","6","6","0","0","6","6","6","0","0","6","6","6","0","6","0","Thu Oct 12 19:11:06 2023","The main experiment item","True","SternbergTask.osexp","C:/Users/katjo/OneDrive/Desktop","False","mono","False","18","no","white","no","yes","768","legacy","6","6","C:/Users/katjo/OneDrive/Desktop/KEJ-subject-1.csv","legacy","5","Melodramatic Milgram","4.0.5","0","n","0","right","left","NA","right","NA","581.0","8667","NA","581","NA","2","legacy","1","1024","2","48000","-16","experiment","1","odd","3","51357","48122","3496","NA","49154","49155","NA","3500","NA","50156","53358","53939","12169","53358","NA","Sternberg Task","7","5577.0","7","1024"
"100","100","761","761","#3d3846","practice","legacy","legacy","legacy","1","undefined","1","left","7","7","0","0","7","7","7","0","0","7","7","7","0","7","0","Thu Oct 12 19:11:06 2023","The main experiment item","True","SternbergTask.osexp","C:/Users/katjo/OneDrive/Desktop","False","mono","False","18","no","white","no","yes","768","legacy","7","7","C:/Users/katjo/OneDrive/Desktop/KEJ-subject-1.csv","legacy","4 8","Melodramatic Milgram","4.0.5","1","y","0","left","left","NA","left","NA","511.0","8667","NA","511","NA","2","legacy","2","1024","2","48000","-16","experiment","1","odd","4","57182","53942","3496","NA","54979","54980","NA","3500","NA","55981","59182","59693","12169","59182","NA","Sternberg Task","8","6088.0","8","1024"
"100","100","728","728","#3d3846","practice","legacy","legacy","legacy","1","undefined","1","right","8","8","0","0","8","8","8","0","0","8","8","8","0","8","0","Thu Oct 12 19:11:06 2023","The main experiment item","True","SternbergTask.osexp","C:/Users/katjo/OneDrive/Desktop","False","mono","False","18","no","white","no","yes","768","legacy","8","8","C:/Users/katjo/OneDrive/Desktop/KEJ-subject-1.csv","legacy","2 1","Melodramatic Milgram","4.0.5","0","n","0","right","left","NA","right","NA","468.0","8667","NA","468","NA","2","legacy","2","1024","2","48000","-16","experiment","1","odd","5","62970","59719","3496","NA","60767","60768","NA","3500","NA","61769","64970","65438","12169","64970","NA","Sternberg Task","9","6556.0","9","1024"
"100","100","725","725","#3d3846","practice","legacy","legacy","legacy","1","undefined","1","right","9","9","0","0","9","9","9","0","0","9","9","9","0","9","0","Thu Oct 12 19:11:06 2023","The main experiment item","True","SternbergTask.osexp","C:/Users/katjo/OneDrive/Desktop","False","mono","False","18","no","white","no","yes","768","legacy","9","9","C:/Users/katjo/OneDrive/Desktop/KEJ-subject-1.csv","legacy","5 7 8 4 1 2","Melodramatic Milgram","4.0.5","0","n","0","right","left","NA","right","NA","697.0","8667","NA","697","NA","2","legacy","6","1024","2","48000","-16","experiment","1","odd","6","68679","65447","3496","NA","66477","66478","NA","3500","NA","67478","70680","71378","12169","70680","NA","Sternberg Task","10","7253.0","10","1024"
"100","100","721","721","#3d3846","practice","legacy","legacy","legacy","1","undefined","1","right","10","10","0","0","10","10","10","0","0","10","10","10","0","10","0","Thu Oct 12 19:11:06 2023","The main experiment item","True","SternbergTask.osexp","C:/Users/katjo/OneDrive/Desktop","False","mono","False","18","no","white","no","yes","768","legacy","10","10","C:/Users/katjo/OneDrive/Desktop/KEJ-subject-1.csv","legacy","4 1 5","Melodramatic Milgram","4.0.5","0","n","0","right","left","NA","right","NA","683.0","8667","NA","683","NA","2","legacy","3","1024","2","48000","-16","experiment","1","odd","2","74639","71385","3496","NA","72437","72437","NA","3500","NA","73438","76639","77322","12169","76639","NA","Sternberg Task","11","7936.0","11","1024"
"100","100","702","702","#3d3846","practice","legacy","legacy","legacy","1","undefined","1","left","11","11","0","0","11","11","11","0","0","11","11","11","0","11","0","Thu Oct 12 19:11:06 2023","The main experiment item","True","SternbergTask.osexp","C:/Users/katjo/OneDrive/Desktop","False","mono","False","18","no","white","no","yes","768","legacy","11","11","C:/Users/katjo/OneDrive/Desktop/KEJ-subject-1.csv","legacy","1 5 2 9","Melodramatic Milgram","4.0.5","2","y","0","left","left","NA","left","NA","493.0","8667","NA","493","NA","2","legacy","4","1024","2","48000","-16","experiment","1","odd","5","80563","77330","3496","NA","78361","78361","NA","3500","NA","79362","82564","83057","12169","82564","NA","Sternberg Task","12","8429.0","12","1024"
"100","100","699","699","#3d3846","experiment","legacy","legacy","legacy","1","undefined","1","left","12","12","0","0","12","12","12","0","0","12","12","12","0","12","0","Thu Oct 12 19:11:06 2023","The main experiment item","True","SternbergTask.osexp","C:/Users/katjo/OneDrive/Desktop","False","mono","False","18","no","white","no","yes","768","legacy","0","11","C:/Users/katjo/OneDrive/Desktop/KEJ-subject-1.csv","legacy","2 3 7 4","Melodramatic Milgram","4.0.5","1","y","0","left","left","right","left","NA","670.0","8667","7924","670","NA","2","legacy","4","1024","2","48000","-16","experiment","1","odd","2","94290","83064","3496","91989","92088","92089","NA","3500","84065","93089","96290","96960","12169","96290","NA","Sternberg Task","13","9099.0","13","1024"
"100","100","703","703","#3d3846","experiment","legacy","legacy","legacy","1","undefined","1","left","13","13","0","0","13","13","13","0","0","13","13","13","0","13","0","Thu Oct 12 19:11:06 2023","The main experiment item","True","SternbergTask.osexp","C:/Users/katjo/OneDrive/Desktop","False","mono","False","18","no","white","no","yes","768","legacy","1","11","C:/Users/katjo/OneDrive/Desktop/KEJ-subject-1.csv","legacy","5 2 6","Melodramatic Milgram","4.0.5","2","y","0","left","left","right","left","NA","755.0","8667","7924","755","NA","2","legacy","3","1024","2","48000","-16","experiment","1","odd","2","100201","96968","3496","91989","97999","98000","NA","3500","84065","99000","102201","102957","12169","102201","NA","Sternberg Task","14","9854.0","14","1024"
"100","100","712","712","#3d3846","experiment","legacy","legacy","legacy","1","undefined","1","left","14","14","0","0","14","14","14","0","0","14","14","14","0","14","0","Thu Oct 12 19:11:06 2023","The main experiment item","True","SternbergTask.osexp","C:/Users/katjo/OneDrive/Desktop","False","mono","False","18","no","white","no","yes","768","legacy","2","11","C:/Users/katjo/OneDrive/Desktop/KEJ-subject-1.csv","legacy","4 3 2 5 8","Melodramatic Milgram","4.0.5","2","y","0","left","left","right","left","NA","836.0","8667","7924","836","NA","2","legacy","5","1024","2","48000","-16","experiment","1","odd","3","106210","102962","3496","91989","104007","104008","NA","3500","84065","105009","108211","109048","12169","108211","NA","Sternberg Task","15","10690.0","15","1024"
"100","100","714","714","#3d3846","experiment","legacy","legacy","legacy","1","undefined","1","left","15","15","0","0","15","15","15","0","0","15","15","15","0","15","0","Thu Oct 12 19:11:06 2023","The main experiment item","True","SternbergTask.osexp","C:/Users/katjo/OneDrive/Desktop","False","mono","False","18","no","white","no","yes","768","legacy","3","11","C:/Users/katjo/OneDrive/Desktop/KEJ-subject-1.csv","legacy","6 5","Melodramatic Milgram","4.0.5","2","y","0","left","left","right","left","NA","741.0","8667","7924","741","NA","2","legacy","2","1024","2","48000","-16","experiment","1","odd","5","112287","109056","3496","91989","110085","110086","NA","3500","84065","111086","114287","115028","12169","114287","NA","Sternberg Task","16","11431.0","16","1024"
"100","100","727","727","#3d3846","experiment","legacy","legacy","legacy","1","undefined","1","left","16","16","0","0","16","16","16","0","0","16","16","16","0","16","0","Thu Oct 12 19:11:06 2023","The main experiment item","True","SternbergTask.osexp","C:/Users/katjo/OneDrive/Desktop","False","mono","False","18","no","white","no","yes","768","legacy","4","11","C:/Users/katjo/OneDrive/Desktop/KEJ-subject-1.csv","legacy","8 9 5 7 1 6","Melodramatic Milgram","4.0.5","4","y","0","left","left","right","left","NA","943.0","8667","7924","943","NA","2","legacy","6","1024","2","48000","-16","experiment","1","odd","7","118289","115054","3496","91989","116087","116088","NA","3500","84065","117088","120289","121232","12169","120289","NA","Sternberg Task","17","12374.0","17","1024"
"100","100","717","717","#3d3846","experiment","legacy","legacy","legacy","1","undefined","1","right","17","17","0","0","17","17","17","0","0","17","17","17","0","17","0","Thu Oct 12 19:11:06 2023","The main experiment item","True","SternbergTask.osexp","C:/Users/katjo/OneDrive/Desktop","False","mono","False","18","no","white","no","yes","768","legacy","5","11","C:/Users/katjo/OneDrive/Desktop/KEJ-subject-1.csv","legacy","1","Melodramatic Milgram","4.0.5","0","n","0","right","left","right","right","NA","532.0","8667","7924","532","NA","2","legacy","1","1024","2","48000","-16","experiment","1","odd","7","124506","121259","3496","91989","122305","122305","NA","3500","84065","123305","126506","127039","12169","126506","NA","Sternberg Task","18","12906.0","18","1024"
"100","100","716","716","#3d3846","experiment","legacy","legacy","legacy","1","undefined","1","right","18","18","0","0","18","18","18","0","0","18","18","18","0","18","0","Thu Oct 12 19:11:06 2023","The main experiment item","True","SternbergTask.osexp","C:/Users/katjo/OneDrive/Desktop","False","mono","False","18","no","white","no","yes","768","legacy","6","11","C:/Users/katjo/OneDrive/Desktop/KEJ-subject-1.csv","legacy","8 2 1 4 5 9","Melodramatic Milgram","4.0.5","0","n","0","right","left","right","right","NA","716.0","8667","7924","716","NA","2","legacy","6","1024","2","48000","-16","experiment","1","odd","7","130302","127065","3496","91989","128100","128101","NA","3500","84065","129101","132302","133019","12169","132302","NA","Sternberg Task","19","13622.0","19","1024"
"100","100","706","706","#3d3846","experiment","legacy","legacy","legacy","1","undefined","1","left","19","19","0","0","19","19","19","0","0","19","19","19","0","19","0","Thu Oct 12 19:11:06 2023","The main experiment item","True","SternbergTask.osexp","C:/Users/katjo/OneDrive/Desktop","False","mono","False","18","no","white","no","yes","768","legacy","7","11","C:/Users/katjo/OneDrive/Desktop/KEJ-subject-1.csv","legacy","6 1 2","Melodramatic Milgram","4.0.5","3","y","0","left","left","right","left","NA","513.0","8667","7924","513","NA","2","legacy","3","1024","2","48000","-16","experiment","1","odd","2","136263","133029","3496","91989","134060","134061","NA","3500","84065","135062","138264","138778","12169","138264","NA","Sternberg Task","20","14135.0","20","1024"
"100","100","704","704","#3d3846","experiment","legacy","legacy","legacy","1","undefined","1","right","20","20","0","0","20","20","20","0","0","20","20","20","0","20","0","Thu Oct 12 19:11:06 2023","The main experiment item","True","SternbergTask.osexp","C:/Users/katjo/OneDrive/Desktop","False","mono","False","18","no","white","no","yes","768","legacy","8","11","C:/Users/katjo/OneDrive/Desktop/KEJ-subject-1.csv","legacy","6 7 5 9","Melodramatic Milgram","4.0.5","0","n","0","right","left","right","right","NA","657.0","8667","7924","657","NA","2","legacy","4","1024","2","48000","-16","experiment","1","odd","2","142019","138785","3496","91989","139816","139817","NA","3500","84065","140818","144020","144678","12169","144020","NA","Sternberg Task","21","14792.0","21","1024"
"100","100","697","697","#3d3846","experiment","legacy","legacy","legacy","1","undefined","1","left","21","21","0","0","21","21","21","0","0","21","21","21","0","21","0","Thu Oct 12 19:11:06 2023","The main experiment item","True","SternbergTask.osexp","C:/Users/katjo/OneDrive/Desktop","False","mono","False","18","no","white","no","yes","768","legacy","9","11","C:/Users/katjo/OneDrive/Desktop/KEJ-subject-1.csv","legacy","3 5 7 1","Melodramatic Milgram","4.0.5","3","y","0","left","left","right","left","NA","561.0","8667","7924","561","NA","2","legacy","4","1024","2","48000","-16","experiment","1","odd","7","147919","144685","3496","91989","145716","145717","NA","3500","84065","146718","149919","150481","12169","149919","NA","Sternberg Task","22","15353.0","22","1024"
"100","100","693","693","#3d3846","experiment","legacy","legacy","legacy","1","undefined","1","right","22","22","0","0","22","22","22","0","0","22","22","22","0","22","0","Thu Oct 12 19:11:06 2023","The main experiment item","True","SternbergTask.osexp","C:/Users/katjo/OneDrive/Desktop","False","mono","False","18","no","white","no","yes","768","legacy","10","11","C:/Users/katjo/OneDrive/Desktop/KEJ-subject-1.csv","legacy","1 5 3 2 8","Melodramatic Milgram","4.0.5","0","n","0","right","left","right","right","NA","590.0","8667","7924","590","NA","2","legacy","5","1024","2","48000","-16","experiment","1","odd","4","153723","150489","3496","91989","151521","151522","NA","3500","84065","152522","155723","156314","12169","155723","NA","Sternberg Task","23","15943.0","23","1024"
"100","100","696","696","#3d3846","experiment","legacy","legacy","legacy","1","undefined","1","right","23","23","0","0","23","23","23","0","0","23","23","23","0","23","0","Thu Oct 12 19:11:06 2023","The main experiment item","True","SternbergTask.osexp","C:/Users/katjo/OneDrive/Desktop","False","mono","False","18","no","white","no","yes","768","legacy","11","11","C:/Users/katjo/OneDrive/Desktop/KEJ-subject-1.csv","legacy","5","Melodramatic Milgram","4.0.5","0","n","0","right","left","right","right","NA","765.0","8667","7924","765","NA","2","legacy","1","1024","2","48000","-16","experiment","1","odd","8","159577","156321","3496","91989","157374","157375","NA","3500","84065","158376","161578","162343","12169","161578","NA","Sternberg Task","24","16708.0","24","1024"
"100","100","703","703","#3d3846","experiment","legacy","legacy","legacy","1","undefined","1","right","24","24","0","0","24","24","24","0","0","24","24","24","0","24","0","Thu Oct 12 19:11:06 2023","The main experiment item","True","SternbergTask.osexp","C:/Users/katjo/OneDrive/Desktop","False","mono","False","18","no","white","no","yes","768","legacy","12","11","C:/Users/katjo/OneDrive/Desktop/KEJ-subject-1.csv","legacy","8 4 3 9","Melodramatic Milgram","4.0.5","0","n","0","right","left","right","right","NA","877.0","8667","7924","877","NA","2","legacy","4","1024","2","48000","-16","experiment","1","odd","5","165598","162350","3496","91989","163395","163396","NA","3500","84065","164397","167599","168476","12169","167599","NA","Sternberg Task","25","17585.0","25","1024"
"100","100","695","695","#3d3846","experiment","legacy","legacy","legacy","1","undefined","1","left","25","25","0","0","25","25","25","0","0","25","25","25","0","25","0","Thu Oct 12 19:11:06 2023","The main experiment item","True","SternbergTask.osexp","C:/Users/katjo/OneDrive/Desktop","False","mono","False","18","no","white","no","yes","768","legacy","13","11","C:/Users/katjo/OneDrive/Desktop/KEJ-subject-1.csv","legacy","6 7 8 5","Melodramatic Milgram","4.0.5","3","y","0","left","left","right","left","NA","485.0","8667","7924","485","NA","2","legacy","4","1024","2","48000","-16","experiment","1","odd","8","171729","168479","3496","91989","169527","169528","NA","3500","84065","170528","173729","174214","12169","173729","NA","Sternberg Task","26","18070.0","26","1024"
"100","100","689","689","#3d3846","experiment","legacy","legacy","legacy","1","undefined","1","right","26","26","0","0","26","26","26","0","0","26","26","26","0","26","0","Thu Oct 12 19:11:06 2023","The main experiment item","True","SternbergTask.osexp","C:/Users/katjo/OneDrive/Desktop","False","mono","False","18","no","white","no","yes","768","legacy","14","11","C:/Users/katjo/OneDrive/Desktop/KEJ-subject-1.csv","legacy","9 7 4 5 8","Melodramatic Milgram","4.0.5","0","n","0","right","left","right","right","NA","558.0","8667","7924","558","NA","2","legacy","5","1024","2","48000","-16","experiment","1","odd","6","177478","174222","3496","91989","175276","175277","NA","3500","84065","176277","179478","180037","12169","179478","NA","Sternberg Task","27","18628.0","27","1024"
"100","100","687","687","#3d3846","experiment","legacy","legacy","legacy","1","undefined","1","left","27","27","0","0","27","27","27","0","0","27","27","27","0","27","0","Thu Oct 12 19:11:06 2023","The main experiment item","True","SternbergTask.osexp","C:/Users/katjo/OneDrive/Desktop","False","mono","False","18","no","white","no","yes","768","legacy","15","11","C:/Users/katjo/OneDrive/Desktop/KEJ-subject-1.csv","legacy","6 2","Melodramatic Milgram","4.0.5","1","y","0","left","left","right","left","NA","625.0","8667","7924","625","NA","2","legacy","2","1024","2","48000","-16","experiment","1","odd","6","183296","180063","3496","91989","181095","181096","NA","3500","84065","182096","185296","185922","12169","185296","NA","Sternberg Task","28","19253.0","28","1024"
"100","100","681","681","#3d3846","experiment","legacy","legacy","legacy","1","undefined","1","right","28","28","0","0","28","28","28","0","0","28","28","28","0","28","0","Thu Oct 12 19:11:06 2023","The main experiment item","True","SternbergTask.osexp","C:/Users/katjo/OneDrive/Desktop","False","mono","False","18","no","white","no","yes","768","legacy","16","11","C:/Users/katjo/OneDrive/Desktop/KEJ-subject-1.csv","legacy","3 4 9 6 7 8","Melodramatic Milgram","4.0.5","0","n","0","right","left","right","right","NA","518.0","8667","7924","518","NA","2","legacy","6","1024","2","48000","-16","experiment","1","odd","2","189183","185948","3496","91989","186980","186981","NA","3500","84065","187982","191183","191702","12169","191183","NA","Sternberg Task","29","19771.0","29","1024"
"100","100","675","675","#3d3846","experiment","legacy","legacy","legacy","1","undefined","1","left","29","29","0","0","29","29","29","0","0","29","29","29","0","29","0","Thu Oct 12 19:11:06 2023","The main experiment item","True","SternbergTask.osexp","C:/Users/katjo/OneDrive/Desktop","False","mono","False","18","no","white","no","yes","768","legacy","17","11","C:/Users/katjo/OneDrive/Desktop/KEJ-subject-1.csv","legacy","9 3 1 2 5","Melodramatic Milgram","4.0.5","4","y","0","left","left","right","left","NA","490.0","8667","7924","490","NA","2","legacy","5","1024","2","48000","-16","experiment","1","odd","2","194941","191709","3496","91989","192738","192739","NA","3500","84065","193739","196941","197432","12169","196941","NA","Sternberg Task","30","20261.0","30","1024"
"100","100","673","673","#3d3846","experiment","legacy","legacy","legacy","1","undefined","1","right","30","30","0","0","30","30","30","0","0","30","30","30","0","30","0","Thu Oct 12 19:11:06 2023","The main experiment item","True","SternbergTask.osexp","C:/Users/katjo/OneDrive/Desktop","False","mono","False","18","no","white","no","yes","768","legacy","18","11","C:/Users/katjo/OneDrive/Desktop/KEJ-subject-1.csv","legacy","1 6 4 3 9 7","Melodramatic Milgram","4.0.5","0","n","0","right","left","right","right","NA","619.0","8667","7924","619","NA","2","legacy","6","1024","2","48000","-16","experiment","1","odd","8","200690","197458","3496","91989","198487","198488","NA","3500","84065","199489","202690","203310","12169","202690","NA","Sternberg Task","31","20880.0","31","1024"
"100","100","670","670","#3d3846","experiment","legacy","legacy","legacy","1","undefined","1","left","31","31","0","0","31","31","31","0","0","31","31","31","0","31","0","Thu Oct 12 19:11:06 2023","The main experiment item","True","SternbergTask.osexp","C:/Users/katjo/OneDrive/Desktop","False","mono","False","18","no","white","no","yes","768","legacy","19","11","C:/Users/katjo/OneDrive/Desktop/KEJ-subject-1.csv","legacy","3 5 4 7","Melodramatic Milgram","4.0.5","1","y","0","left","left","right","left","NA","566.0","8667","7924","566","NA","2","legacy","4","1024","2","48000","-16","experiment","1","odd","3","206589","203337","3496","91989","204386","204387","NA","3500","84065","205388","208590","209157","12169","208590","NA","Sternberg Task","32","21446.0","32","1024"
"100","100","665","665","#3d3846","experiment","legacy","legacy","legacy","1","undefined","1","left","32","32","0","0","32","32","32","0","0","32","32","32","0","32","0","Thu Oct 12 19:11:06 2023","The main experiment item","True","SternbergTask.osexp","C:/Users/katjo/OneDrive/Desktop","False","mono","False","18","no","white","no","yes","768","legacy","20","11","C:/Users/katjo/OneDrive/Desktop/KEJ-subject-1.csv","legacy","9 4 2","Melodramatic Milgram","4.0.5","1","y","0","left","left","right","left","NA","520.0","8667","7924","520","NA","2","legacy","3","1024","2","48000","-16","experiment","1","odd","9","212416","209165","3496","91989","210213","210214","NA","3500","84065","211215","214417","214938","12169","214417","NA","Sternberg Task","33","21966.0","33","1024"
"100","100","661","661","#3d3846","experiment","legacy","legacy","legacy","1","undefined","1","right","33","33","0","0","33","33","33","0","0","33","33","33","0","33","0","Thu Oct 12 19:11:06 2023","The main experiment item","True","SternbergTask.osexp","C:/Users/katjo/OneDrive/Desktop","False","mono","False","18","no","white","no","yes","768","legacy","21","11","C:/Users/katjo/OneDrive/Desktop/KEJ-subject-1.csv","legacy","2 7 5","Melodramatic Milgram","4.0.5","0","n","0","right","left","right","right","NA","538.0","8667","7924","538","NA","2","legacy","3","1024","2","48000","-16","experiment","1","odd","8","218196","214945","3496","91989","215993","215994","NA","3500","84065","216994","220196","220735","12169","220196","NA","Sternberg Task","34","22504.0","34","1024"
"100","100","662","662","#3d3846","experiment","legacy","legacy","legacy","1","undefined","1","right","34","34","0","0","34","34","34","0","0","34","34","34","0","34","0","Thu Oct 12 19:11:06 2023","The main experiment item","True","SternbergTask.osexp","C:/Users/katjo/OneDrive/Desktop","False","mono","False","18","no","white","no","yes","768","legacy","22","11","C:/Users/katjo/OneDrive/Desktop/KEJ-subject-1.csv","legacy","6 3 1 7 9 8","Melodramatic Milgram","4.0.5","0","n","0","right","left","right","right","NA","696.0","8667","7924","696","NA","2","legacy","6","1024","2","48000","-16","experiment","1","odd","4","223995","220761","3496","91989","221792","221793","NA","3500","84065","222794","225995","226692","12169","225995","NA","Sternberg Task","35","23200.0","35","1024"
"100","100","660","660","#3d3846","experiment","legacy","legacy","legacy","1","undefined","1","right","35","35","0","0","35","35","35","0","0","35","35","35","0","35","0","Thu Oct 12 19:11:06 2023","The main experiment item","True","SternbergTask.osexp","C:/Users/katjo/OneDrive/Desktop","False","mono","False","18","no","white","no","yes","768","legacy","23","11","C:/Users/katjo/OneDrive/Desktop/KEJ-subject-1.csv","legacy","5 3 8 7 2 4","Melodramatic Milgram","4.0.5","0","n","0","right","left","right","right","NA","584.0","8667","7924","584","NA","2","legacy","6","1024","2","48000","-16","experiment","1","odd","9","229941","226699","3496","91989","227738","227739","NA","3500","84065","228740","231941","232526","12169","231941","NA","Sternberg Task","36","23784.0","36","1024"
"100","100","659","659","#3d3846","experiment","legacy","legacy","legacy","1","undefined","1","right","36","36","0","0","36","36","36","0","0","36","36","36","0","36","0","Thu Oct 12 19:11:06 2023","The main experiment item","True","SternbergTask.osexp","C:/Users/katjo/OneDrive/Desktop","False","mono","False","18","no","white","no","yes","768","legacy","24","11","C:/Users/katjo/OneDrive/Desktop/KEJ-subject-1.csv","legacy","7 1","Melodramatic Milgram","4.0.5","0","n","0","right","left","right","right","NA","632.0","8667","7924","632","NA","2","legacy","2","1024","2","48000","-16","experiment","1","odd","8","235779","232533","3496","91989","233576","233577","NA","3500","84065","234578","237779","238412","12169","237779","NA","Sternberg Task","37","24416.0","37","1024"
"100","100","660","660","#3d3846","experiment","legacy","legacy","legacy","1","undefined","1","left","37","37","0","0","37","37","37","0","0","37","37","37","0","37","0","Thu Oct 12 19:11:06 2023","The main experiment item","True","SternbergTask.osexp","C:/Users/katjo/OneDrive/Desktop","False","mono","False","18","no","white","no","yes","768","legacy","25","11","C:/Users/katjo/OneDrive/Desktop/KEJ-subject-1.csv","legacy","6 9 3 1","Melodramatic Milgram","4.0.5","4","y","0","left","left","right","left","NA","699.0","8667","7924","699","NA","2","legacy","4","1024","2","48000","-16","experiment","1","odd","1","241682","238438","3496","91989","239480","239480","NA","3500","84065","240481","243683","244383","12169","243683","NA","Sternberg Task","38","25115.0","38","1024"
"100","100","657","657","#3d3846","experiment","legacy","legacy","legacy","1","undefined","1","right","38","38","0","0","38","38","38","0","0","38","38","38","0","38","0","Thu Oct 12 19:11:06 2023","The main experiment item","True","SternbergTask.osexp","C:/Users/katjo/OneDrive/Desktop","False","mono","False","18","no","white","no","yes","768","legacy","26","11","C:/Users/katjo/OneDrive/Desktop/KEJ-subject-1.csv","legacy","5 3 2 6 9 8","Melodramatic Milgram","4.0.5","0","n","0","right","left","right","right","NA","543.0","8667","7924","543","NA","2","legacy","6","1024","2","48000","-16","experiment","1","odd","4","247655","244410","3496","91989","245453","245454","NA","3500","84065","246454","249655","250198","12169","249655","NA","Sternberg Task","39","25658.0","39","1024"
"100","100","657","657","#3d3846","experiment","legacy","legacy","legacy","1","undefined","1","right","39","39","0","0","39","39","39","0","0","39","39","39","0","39","0","Thu Oct 12 19:11:06 2023","The main experiment item","True","SternbergTask.osexp","C:/Users/katjo/OneDrive/Desktop","False","mono","False","18","no","white","no","yes","768","legacy","27","11","C:/Users/katjo/OneDrive/Desktop/KEJ-subject-1.csv","legacy","2 6 4 3 9","Melodramatic Milgram","4.0.5","0","n","0","right","left","right","right","NA","626.0","8667","7924","626","NA","2","legacy","5","1024","2","48000","-16","experiment","1","odd","1","253459","250225","3496","91989","251256","251257","NA","3500","84065","252257","255459","256086","12169","255459","NA","Sternberg Task","40","26284.0","40","1024"
"100","100","655","655","#3d3846","experiment","legacy","legacy","legacy","1","undefined","1","left","40","40","0","0","40","40","40","0","0","40","40","40","0","40","0","Thu Oct 12 19:11:06 2023","The main experiment item","True","SternbergTask.osexp","C:/Users/katjo/OneDrive/Desktop","False","mono","False","18","no","white","no","yes","768","legacy","28","11","C:/Users/katjo/OneDrive/Desktop/KEJ-subject-1.csv","legacy","8 5 3 7 4 6","Melodramatic Milgram","4.0.5","6","y","0","left","left","right","left","NA","578.0","8667","7924","578","NA","2","legacy","6","1024","2","48000","-16","experiment","1","odd","6","259358","256112","3496","91989","257156","257157","NA","3500","84065","258157","261358","261937","12169","261358","NA","Sternberg Task","41","26862.0","41","1024"
"97","97","653","653","#3d3846","experiment","legacy","legacy","legacy","0","undefined","0","left","41","41","0","0","41","41","41","0","0","41","41","41","0","41","0","Thu Oct 12 19:11:06 2023","The main experiment item","True","SternbergTask.osexp","C:/Users/katjo/OneDrive/Desktop","False","mono","False","18","no","white","no","yes","768","legacy","29","11","C:/Users/katjo/OneDrive/Desktop/KEJ-subject-1.csv","legacy","9 8 4","Melodramatic Milgram","4.0.5","1","y","0","right","left","right","right","NA","565.0","8667","7924","565","NA","2","legacy","3","1024","2","48000","-16","experiment","1","odd","9","265196","261963","3496","91989","262994","262994","NA","3500","84065","263995","267196","267762","12169","267196","NA","Sternberg Task","41","27427.0","42","1024"
"97","97","655","655","#3d3846","experiment","legacy","legacy","legacy","1","undefined","1","right","42","42","0","0","42","42","42","0","0","42","42","42","0","42","0","Thu Oct 12 19:11:06 2023","The main experiment item","True","SternbergTask.osexp","C:/Users/katjo/OneDrive/Desktop","False","mono","False","18","no","white","no","yes","768","legacy","30","11","C:/Users/katjo/OneDrive/Desktop/KEJ-subject-1.csv","legacy","6 9 5","Melodramatic Milgram","4.0.5","0","n","0","right","left","right","right","NA","771.0","8667","7924","771","NA","2","legacy","3","1024","2","48000","-16","experiment","1","odd","8","271004","261963","3496","91989","268801","268802","267769","3500","84065","269803","273004","273775","12169","273004","NA","Sternberg Task","42","28198.0","43","1024"
"97","97","655","655","#3d3846","experiment","legacy","legacy","legacy","1","undefined","1","left","43","43","0","0","43","43","43","0","0","43","43","43","0","43","0","Thu Oct 12 19:11:06 2023","The main experiment item","True","SternbergTask.osexp","C:/Users/katjo/OneDrive/Desktop","False","mono","False","18","no","white","no","yes","768","legacy","31","11","C:/Users/katjo/OneDrive/Desktop/KEJ-subject-1.csv","legacy","5 7 3 6 2","Melodramatic Milgram","4.0.5","5","y","0","left","left","right","left","NA","647.0","8667","7924","647","NA","2","legacy","5","1024","2","48000","-16","experiment","1","odd","2","277043","273801","3496","91989","274841","274842","267769","3500","84065","275842","279043","279690","12169","279043","NA","Sternberg Task","43","28845.0","44","1024"
"97","97","669","669","#3d3846","experiment","legacy","legacy","legacy","1","undefined","1","left","44","44","0","0","44","44","44","0","0","44","44","44","0","44","0","Thu Oct 12 19:11:06 2023","The main experiment item","True","SternbergTask.osexp","C:/Users/katjo/OneDrive/Desktop","False","mono","False","18","no","white","no","yes","768","legacy","32","11","C:/Users/katjo/OneDrive/Desktop/KEJ-subject-1.csv","legacy","2 4 8 5 1 3","Melodramatic Milgram","4.0.5","1","y","0","left","left","right","left","NA","1289.0","8667","7924","1289","NA","2","legacy","6","1024","2","48000","-16","experiment","1","odd","2","282950","279717","3496","91989","280748","280748","267769","3500","84065","281749","284951","286241","12169","284951","NA","Sternberg Task","44","30134.0","45","1024"
"97","97","666","666","#3d3846","experiment","legacy","legacy","legacy","1","undefined","1","right","45","45","0","0","45","45","45","0","0","45","45","45","0","45","0","Thu Oct 12 19:11:06 2023","The main experiment item","True","SternbergTask.osexp","C:/Users/katjo/OneDrive/Desktop","False","mono","False","18","no","white","no","yes","768","legacy","33","11","C:/Users/katjo/OneDrive/Desktop/KEJ-subject-1.csv","legacy","3 9 1","Melodramatic Milgram","4.0.5","0","n","0","right","left","right","right","NA","513.0","8667","7924","513","NA","2","legacy","3","1024","2","48000","-16","experiment","1","odd","7","289482","286249","3496","91989","287281","287281","267769","3500","84065","288281","291482","291996","12169","291482","NA","Sternberg Task","45","30647.0","46","1024"
"97","97","664","664","#3d3846","experiment","legacy","legacy","legacy","1","undefined","1","right","46","46","0","0","46","46","46","0","0","46","46","46","0","46","0","Thu Oct 12 19:11:06 2023","The main experiment item","True","SternbergTask.osexp","C:/Users/katjo/OneDrive/Desktop","False","mono","False","18","no","white","no","yes","768","legacy","34","11","C:/Users/katjo/OneDrive/Desktop/KEJ-subject-1.csv","legacy","2 3 8 5 6 7","Melodramatic Milgram","4.0.5","0","n","0","right","left","right","right","NA","561.0","8667","7924","561","NA","2","legacy","6","1024","2","48000","-16","experiment","1","odd","1","295265","292022","3496","91989","293062","293063","267769","3500","84065","294064","297265","297827","12169","297265","NA","Sternberg Task","46","31208.0","47","1024"
"97","97","662","662","#3d3846","experiment","legacy","legacy","legacy","1","undefined","1","right","47","47","0","0","47","47","47","0","0","47","47","47","0","47","0","Thu Oct 12 19:11:06 2023","The main experiment item","True","SternbergTask.osexp","C:/Users/katjo/OneDrive/Desktop","False","mono","False","18","no","white","no","yes","768","legacy","35","11","C:/Users/katjo/OneDrive/Desktop/KEJ-subject-1.csv","legacy","6 8","Melodramatic Milgram","4.0.5","0","n","0","right","left","right","right","NA","610.0","8667","7924","610","NA","2","legacy","2","1024","2","48000","-16","experiment","1","odd","9","301067","297834","3496","91989","298865","298865","267769","3500","84065","299866","303068","303679","12169","303068","NA","Sternberg Task","47","31818.0","48","1024"
"97","97","663","663","#3d3846","experiment","legacy","legacy","legacy","1","undefined","1","right","48","48","0","0","48","48","48","0","0","48","48","48","0","48","0","Thu Oct 12 19:11:06 2023","The main experiment item","True","SternbergTask.osexp","C:/Users/katjo/OneDrive/Desktop","False","mono","False","18","no","white","no","yes","768","legacy","36","11","C:/Users/katjo/OneDrive/Desktop/KEJ-subject-1.csv","legacy","4 2 7 6 1 3","Melodramatic Milgram","4.0.5","0","n","0","right","left","right","right","NA","685.0","8667","7924","685","NA","2","legacy","6","1024","2","48000","-16","experiment","1","odd","8","306917","303686","3496","91989","304715","304716","267769","3500","84065","305716","308919","309604","12169","308918","NA","Sternberg Task","48","32503.0","49","1024"
"98","98","670","670","#3d3846","experiment","legacy","legacy","legacy","1","undefined","1","right","49","49","0","0","49","49","49","0","0","49","49","49","0","49","0","Thu Oct 12 19:11:06 2023","The main experiment item","True","SternbergTask.osexp","C:/Users/katjo/OneDrive/Desktop","False","mono","False","18","no","white","no","yes","768","legacy","37","11","C:/Users/katjo/OneDrive/Desktop/KEJ-subject-1.csv","legacy","2 8 6 3 1","Melodramatic Milgram","4.0.5","0","n","0","right","left","right","right","NA","1016.0","8667","7924","1016","NA","2","legacy","5","1024","2","48000","-16","experiment","1","odd","7","312844","309612","3496","91989","310642","310643","267769","3500","84065","311643","314845","315861","12169","314845","NA","Sternberg Task","49","33519.0","50","1024"
"98","98","667","667","#3d3846","experiment","legacy","legacy","legacy","1","undefined","1","right","50","50","0","0","50","50","50","0","0","50","50","50","0","50","0","Thu Oct 12 19:11:06 2023","The main experiment item","True","SternbergTask.osexp","C:/Users/katjo/OneDrive/Desktop","False","mono","False","18","no","white","no","yes","768","legacy","38","11","C:/Users/katjo/OneDrive/Desktop/KEJ-subject-1.csv","legacy","9 8 2 7 4","Melodramatic Milgram","4.0.5","0","n","0","right","left","right","right","NA","515.0","8667","7924","515","NA","2","legacy","5","1024","2","48000","-16","experiment","1","odd","5","319101","315869","3496","91989","316900","316900","267769","3500","84065","317900","321101","321617","12169","321101","NA","Sternberg Task","50","34034.0","51","1024"
"98","98","667","667","#3d3846","experiment","legacy","legacy","legacy","1","undefined","1","left","51","51","0","0","51","51","51","0","0","51","51","51","0","51","0","Thu Oct 12 19:11:06 2023","The main experiment item","True","SternbergTask.osexp","C:/Users/katjo/OneDrive/Desktop","False","mono","False","18","no","white","no","yes","768","legacy","39","11","C:/Users/katjo/OneDrive/Desktop/KEJ-subject-1.csv","legacy","6 7 9 3 1 2","Melodramatic Milgram","4.0.5","1","y","0","left","left","right","left","NA","692.0","8667","7924","692","NA","2","legacy","6","1024","2","48000","-16","experiment","1","odd","6","324890","321643","3496","91989","322688","322689","267769","3500","84065","323689","326890","327583","12169","326890","NA","Sternberg Task","51","34726.0","52","1024"
"98","98","666","666","#3d3846","experiment","legacy","legacy","legacy","1","undefined","1","left","52","52","0","0","52","52","52","0","0","52","52","52","0","52","0","Thu Oct 12 19:11:06 2023","The main experiment item","True","SternbergTask.osexp","C:/Users/katjo/OneDrive/Desktop","False","mono","False","18","no","white","no","yes","768","legacy","40","11","C:/Users/katjo/OneDrive/Desktop/KEJ-subject-1.csv","legacy","9 1 7 2","Melodramatic Milgram","4.0.5","2","y","0","left","left","right","left","NA","605.0","8667","7924","605","NA","2","legacy","4","1024","2","48000","-16","experiment","1","odd","1","330839","327590","3496","91989","328636","328637","267769","3500","84065","329638","332839","333445","12169","332839","NA","Sternberg Task","52","35331.0","53","1024"
"98","98","663","663","#3d3846","experiment","legacy","legacy","legacy","1","undefined","1","right","53","53","0","0","53","53","53","0","0","53","53","53","0","53","0","Thu Oct 12 19:11:06 2023","The main experiment item","True","SternbergTask.osexp","C:/Users/katjo/OneDrive/Desktop","False","mono","False","18","no","white","no","yes","768","legacy","41","11","C:/Users/katjo/OneDrive/Desktop/KEJ-subject-1.csv","legacy","1 8 7","Melodramatic Milgram","4.0.5","0","n","0","right","left","right","right","NA","522.0","8667","7924","522","NA","2","legacy","3","1024","2","48000","-16","experiment","1","odd","4","336695","333452","3496","91989","334492","334493","267769","3500","84065","335494","338695","339218","12169","338695","NA","Sternberg Task","53","35853.0","54","1024"
"98","98","661","661","#3d3846","experiment","legacy","legacy","legacy","1","undefined","1","right","54","54","0","0","54","54","54","0","0","54","54","54","0","54","0","Thu Oct 12 19:11:06 2023","The main experiment item","True","SternbergTask.osexp","C:/Users/katjo/OneDrive/Desktop","False","mono","False","18","no","white","no","yes","768","legacy","42","11","C:/Users/katjo/OneDrive/Desktop/KEJ-subject-1.csv","legacy","3 4 2","Melodramatic Milgram","4.0.5","0","n","0","right","left","right","right","NA","506.0","8667","7924","506","NA","2","legacy","3","1024","2","48000","-16","experiment","1","odd","5","342479","339245","3496","91989","340276","340277","267769","3500","84065","341278","344479","344986","12169","344479","NA","Sternberg Task","54","36359.0","55","1024"
"98","98","659","659","#3d3846","experiment","legacy","legacy","legacy","1","undefined","1","left","55","55","0","0","55","55","55","0","0","55","55","55","0","55","0","Thu Oct 12 19:11:06 2023","The main experiment item","True","SternbergTask.osexp","C:/Users/katjo/OneDrive/Desktop","False","mono","False","18","no","white","no","yes","768","legacy","43","11","C:/Users/katjo/OneDrive/Desktop/KEJ-subject-1.csv","legacy","6 8 9 3 4 9","Melodramatic Milgram","4.0.5","5","y","0","left","left","right","left","NA","578.0","8667","7924","578","NA","2","legacy","6","1024","2","48000","-16","experiment","1","odd","4","348230","344993","3496","91989","346028","346029","267769","3500","84065","347029","350230","350809","12169","350230","NA","Sternberg Task","55","36937.0","56","1024"
"98","98","658","658","#3d3846","experiment","legacy","legacy","legacy","1","undefined","1","right","56","56","0","0","56","56","56","0","0","56","56","56","0","56","0","Thu Oct 12 19:11:06 2023","The main experiment item","True","SternbergTask.osexp","C:/Users/katjo/OneDrive/Desktop","False","mono","False","18","no","white","no","yes","768","legacy","44","11","C:/Users/katjo/OneDrive/Desktop/KEJ-subject-1.csv","legacy","6 8 4","Melodramatic Milgram","4.0.5","0","n","0","right","left","right","right","NA","616.0","8667","7924","616","NA","2","legacy","3","1024","2","48000","-16","experiment","1","odd","1","354051","350816","3496","91989","351848","351849","267769","3500","84065","352850","356051","356668","12169","356051","NA","Sternberg Task","56","37553.0","57","1024"
"98","98","658","658","#3d3846","experiment","legacy","legacy","legacy","1","undefined","1","left","57","57","0","0","57","57","57","0","0","57","57","57","0","57","0","Thu Oct 12 19:11:06 2023","The main experiment item","True","SternbergTask.osexp","C:/Users/katjo/OneDrive/Desktop","False","mono","False","18","no","white","no","yes","768","legacy","45","11","C:/Users/katjo/OneDrive/Desktop/KEJ-subject-1.csv","legacy","4 7 6 8 2 3","Melodramatic Milgram","4.0.5","6","y","0","left","left","right","left","NA","622.0","8667","7924","622","NA","2","legacy","6","1024","2","48000","-16","experiment","1","odd","3","359905","356673","3496","91989","357704","357704","267769","3500","84065","358705","361905","362528","12169","361905","NA","Sternberg Task","57","38175.0","58","1024"
"98","98","662","662","#3d3846","experiment","legacy","legacy","legacy","1","undefined","1","right","58","58","0","0","58","58","58","0","0","58","58","58","0","58","0","Thu Oct 12 19:11:06 2023","The main experiment item","True","SternbergTask.osexp","C:/Users/katjo/OneDrive/Desktop","False","mono","False","18","no","white","no","yes","768","legacy","46","11","C:/Users/katjo/OneDrive/Desktop/KEJ-subject-1.csv","legacy","1 4 3 6 5","Melodramatic Milgram","4.0.5","0","n","0","right","left","right","right","NA","928.0","8667","7924","928","NA","2","legacy","5","1024","2","48000","-16","experiment","1","odd","8","365771","362535","3496","91989","363569","363570","267769","3500","84065","364570","367771","368700","12169","367771","NA","Sternberg Task","58","39103.0","59","1024"
"98","98","664","664","#3d3846","experiment","legacy","legacy","legacy","1","undefined","1","right","59","59","0","0","59","59","59","0","0","59","59","59","0","59","0","Thu Oct 12 19:11:06 2023","The main experiment item","True","SternbergTask.osexp","C:/Users/katjo/OneDrive/Desktop","False","mono","False","18","no","white","no","yes","768","legacy","47","11","C:/Users/katjo/OneDrive/Desktop/KEJ-subject-1.csv","legacy","1 4 9 2 5","Melodramatic Milgram","4.0.5","0","n","0","right","left","right","right","NA","760.0","8667","7924","760","NA","2","legacy","5","1024","2","48000","-16","experiment","1","odd","7","371939","368707","3496","91989","369739","369739","267769","3500","84065","370739","373939","374699","12169","373939","NA","Sternberg Task","59","39863.0","60","1024"
"98","98","663","663","#3d3846","experiment","legacy","legacy","legacy","1","undefined","1","left","60","60","0","0","60","60","60","0","0","60","60","60","0","60","0","Thu Oct 12 19:11:06 2023","The main experiment item","True","SternbergTask.osexp","C:/Users/katjo/OneDrive/Desktop","False","mono","False","18","no","white","no","yes","768","legacy","48","11","C:/Users/katjo/OneDrive/Desktop/KEJ-subject-1.csv","legacy","2 3","Melodramatic Milgram","4.0.5","1","y","0","left","left","right","left","NA","580.0","8667","7924","580","NA","2","legacy","2","1024","2","48000","-16","experiment","1","odd","2","377942","374707","3496","91989","375740","375741","267769","3500","84065","376741","379942","380523","12169","379942","NA","Sternberg Task","60","40443.0","61","1024"
"98","98","660","660","#3d3846","experiment","legacy","legacy","legacy","1","undefined","1","right","61","61","0","0","61","61","61","0","0","61","61","61","0","61","0","Thu Oct 12 19:11:06 2023","The main experiment item","True","SternbergTask.osexp","C:/Users/katjo/OneDrive/Desktop","False","mono","False","18","no","white","no","yes","768","legacy","49","11","C:/Users/katjo/OneDrive/Desktop/KEJ-subject-1.csv","legacy","2 8 9","Melodramatic Milgram","4.0.5","0","n","0","right","left","right","right","NA","534.0","8667","7924","534","NA","2","legacy","3","1024","2","48000","-16","experiment","1","odd","6","383786","380531","3496","91989","381584","381585","267769","3500","84065","382585","385786","386321","12169","385786","NA","Sternberg Task","61","40977.0","62","1024"
"98","98","660","660","#3d3846","experiment","legacy","legacy","legacy","1","undefined","1","right","62","62","0","0","62","62","62","0","0","62","62","62","0","62","0","Thu Oct 12 19:11:06 2023","The main experiment item","True","SternbergTask.osexp","C:/Users/katjo/OneDrive/Desktop","False","mono","False","18","no","white","no","yes","768","legacy","50","11","C:/Users/katjo/OneDrive/Desktop/KEJ-subject-1.csv","legacy","6 9 4 5 2","Melodramatic Milgram","4.0.5","0","n","0","right","left","right","right","NA","624.0","8667","7924","624","NA","2","legacy","5","1024","2","48000","-16","experiment","1","odd","1","389599","386348","3496","91989","387396","387396","267769","3500","84065","388397","391599","392224","12169","391599","NA","Sternberg Task","62","41601.0","63","1024"
"98","98","659","659","#3d3846","experiment","legacy","legacy","legacy","1","undefined","1","left","63","63","0","0","63","63","63","0","0","63","63","63","0","63","0","Thu Oct 12 19:11:06 2023","The main experiment item","True","SternbergTask.osexp","C:/Users/katjo/OneDrive/Desktop","False","mono","False","18","no","white","no","yes","768","legacy","51","11","C:/Users/katjo/OneDrive/Desktop/KEJ-subject-1.csv","legacy","2 4 6 9","Melodramatic Milgram","4.0.5","3","y","0","left","left","right","left","NA","615.0","8667","7924","615","NA","2","legacy","4","1024","2","48000","-16","experiment","1","odd","6","395468","392232","3496","91989","393265","393266","267769","3500","84065","394267","397468","398083","12169","397468","NA","Sternberg Task","63","42216.0","64","1024"
"98","98","658","658","#3d3846","experiment","legacy","legacy","legacy","1","undefined","1","left","64","64","0","0","64","64","64","0","0","64","64","64","0","64","0","Thu Oct 12 19:11:06 2023","The main experiment item","True","SternbergTask.osexp","C:/Users/katjo/OneDrive/Desktop","False","mono","False","18","no","white","no","yes","768","legacy","52","11","C:/Users/katjo/OneDrive/Desktop/KEJ-subject-1.csv","legacy","8","Melodramatic Milgram","4.0.5","1","y","0","left","left","right","left","NA","600.0","8667","7924","600","NA","2","legacy","1","1024","2","48000","-16","experiment","1","odd","8","401323","398091","3496","91989","399121","399122","267769","3500","84065","400122","403323","403923","12169","403323","NA","Sternberg Task","64","42816.0","65","1024"
"98","98","665","665","#3d3846","experiment","legacy","legacy","legacy","1","undefined","1","left","65","65","0","0","65","65","65","0","0","65","65","65","0","65","0","Thu Oct 12 19:11:06 2023","The main experiment item","True","SternbergTask.osexp","C:/Users/katjo/OneDrive/Desktop","False","mono","False","18","no","white","no","yes","768","legacy","53","11","C:/Users/katjo/OneDrive/Desktop/KEJ-subject-1.csv","legacy","8 5 4 7 3 1","Melodramatic Milgram","4.0.5","2","y","0","left","left","right","left","NA","1087.0","8667","7924","1087","NA","2","legacy","6","1024","2","48000","-16","experiment","1","odd","5","407164","403931","3496","91989","404962","404963","267769","3500","84065","405963","409164","410252","12169","409164","NA","Sternberg Task","65","43903.0","66","1024"
"98","98","667","667","#3d3846","experiment","legacy","legacy","legacy","1","undefined","1","right","66","66","0","0","66","66","66","0","0","66","66","66","0","66","0","Thu Oct 12 19:11:06 2023","The main experiment item","True","SternbergTask.osexp","C:/Users/katjo/OneDrive/Desktop","False","mono","False","18","no","white","no","yes","768","legacy","54","11","C:/Users/katjo/OneDrive/Desktop/KEJ-subject-1.csv","legacy","7 3 2 8","Melodramatic Milgram","4.0.5","0","n","0","right","left","right","right","NA","805.0","8667","7924","805","NA","2","legacy","4","1024","2","48000","-16","experiment","1","odd","4","413489","410256","3496","91989","411287","411288","267769","3500","84065","412289","415491","416297","12169","415491","NA","Sternberg Task","66","44708.0","67","1024"
"98","98","669","669","#3d3846","experiment","legacy","legacy","legacy","1","undefined","1","left","67","67","0","0","67","67","67","0","0","67","67","67","0","67","0","Thu Oct 12 19:11:06 2023","The main experiment item","True","SternbergTask.osexp","C:/Users/katjo/OneDrive/Desktop","False","mono","False","18","no","white","no","yes","768","legacy","55","11","C:/Users/katjo/OneDrive/Desktop/KEJ-subject-1.csv","legacy","7 8 4 6 9 5","Melodramatic Milgram","4.0.5","4","y","0","left","left","right","left","NA","787.0","8667","7924","787","NA","2","legacy","6","1024","2","48000","-16","experiment","1","odd","6","419542","416304","3496","91989","417340","417341","267769","3500","84065","418341","421542","422330","12169","421542","NA","Sternberg Task","67","45495.0","68","1024"
"98","98","669","669","#3d3846","experiment","legacy","legacy","legacy","1","undefined","1","left","68","68","0","0","68","68","68","0","0","68","68","68","0","68","0","Thu Oct 12 19:11:06 2023","The main experiment item","True","SternbergTask.osexp","C:/Users/katjo/OneDrive/Desktop","False","mono","False","18","no","white","no","yes","768","legacy","56","11","C:/Users/katjo/OneDrive/Desktop/KEJ-subject-1.csv","legacy","2 6 1 7 4","Melodramatic Milgram","4.0.5","2","y","0","left","left","right","left","NA","730.0","8667","7924","730","NA","2","legacy","5","1024","2","48000","-16","experiment","1","odd","6","425600","422356","3496","91989","423397","423398","267769","3500","84065","424399","427600","428331","12169","427600","NA","Sternberg Task","68","46225.0","69","1024"
"98","98","669","669","#3d3846","experiment","legacy","legacy","legacy","1","undefined","1","right","69","69","0","0","69","69","69","0","0","69","69","69","0","69","0","Thu Oct 12 19:11:06 2023","The main experiment item","True","SternbergTask.osexp","C:/Users/katjo/OneDrive/Desktop","False","mono","False","18","no","white","no","yes","768","legacy","57","11","C:/Users/katjo/OneDrive/Desktop/KEJ-subject-1.csv","legacy","4 1","Melodramatic Milgram","4.0.5","0","n","0","right","left","right","right","NA","674.0","8667","7924","674","NA","2","legacy","2","1024","2","48000","-16","experiment","1","odd","6","431590","428339","3496","91989","429388","429389","267769","3500","84065","430389","433590","434265","12169","433590","NA","Sternberg Task","69","46899.0","70","1024"
"98","98","674","674","#3d3846","experiment","legacy","legacy","legacy","1","undefined","1","left","70","70","0","0","70","70","70","0","0","70","70","70","0","70","0","Thu Oct 12 19:11:06 2023","The main experiment item","True","SternbergTask.osexp","C:/Users/katjo/OneDrive/Desktop","False","mono","False","18","no","white","no","yes","768","legacy","58","11","C:/Users/katjo/OneDrive/Desktop/KEJ-subject-1.csv","legacy","9 5 3 8 4","Melodramatic Milgram","4.0.5","1","y","0","left","left","right","left","NA","1012.0","8667","7924","1012","NA","2","legacy","5","1024","2","48000","-16","experiment","1","odd","9","437506","434272","3496","91989","435304","435305","267769","3500","84065","436305","439506","440519","12169","439506","NA","Sternberg Task","70","47911.0","71","1024"
"98","98","673","673","#3d3846","experiment","legacy","legacy","legacy","1","undefined","1","left","71","71","0","0","71","71","71","0","0","71","71","71","0","71","0","Thu Oct 12 19:11:06 2023","The main experiment item","True","SternbergTask.osexp","C:/Users/katjo/OneDrive/Desktop","False","mono","False","18","no","white","no","yes","768","legacy","59","11","C:/Users/katjo/OneDrive/Desktop/KEJ-subject-1.csv","legacy","9 5 8 1","Melodramatic Milgram","4.0.5","2","y","0","left","left","right","left","NA","553.0","8667","7924","553","NA","2","legacy","4","1024","2","48000","-16","experiment","1","odd","5","443758","440526","3496","91989","441556","441557","267769","3500","84065","442557","445759","446313","12169","445759","NA","Sternberg Task","71","48464.0","72","1024"
"98","98","669","669","#3d3846","experiment","legacy","legacy","legacy","1","undefined","1","left","72","72","0","0","72","72","72","0","0","72","72","72","0","72","0","Thu Oct 12 19:11:06 2023","The main experiment item","True","SternbergTask.osexp","C:/Users/katjo/OneDrive/Desktop","False","mono","False","18","no","white","no","yes","768","legacy","60","11","C:/Users/katjo/OneDrive/Desktop/KEJ-subject-1.csv","legacy","7 1 3","Melodramatic Milgram","4.0.5","2","y","0","left","left","right","left","NA","445.0","8667","7924","445","NA","2","legacy","3","1024","2","48000","-16","experiment","1","odd","1","449560","446320","3496","91989","447356","447358","267769","3500","84065","448359","451560","452006","12169","451560","NA","Sternberg Task","72","48909.0","73","1024"
"98","98","669","669","#3d3846","experiment","legacy","legacy","legacy","1","undefined","1","left","73","73","0","0","73","73","73","0","0","73","73","73","0","73","0","Thu Oct 12 19:11:06 2023","The main experiment item","True","SternbergTask.osexp","C:/Users/katjo/OneDrive/Desktop","False","mono","False","18","no","white","no","yes","768","legacy","61","11","C:/Users/katjo/OneDrive/Desktop/KEJ-subject-1.csv","legacy","5 7 8 2 3 8","Melodramatic Milgram","4.0.5","5","y","0","left","left","right","left","NA","654.0","8667","7924","654","NA","2","legacy","6","1024","2","48000","-16","experiment","1","odd","3","455246","452014","3496","91989","453045","453045","267769","3500","84065","454045","457246","457901","12169","457246","NA","Sternberg Task","73","49563.0","74","1024"
"98","98","667","667","#3d3846","experiment","legacy","legacy","legacy","1","undefined","1","left","74","74","0","0","74","74","74","0","0","74","74","74","0","74","0","Thu Oct 12 19:11:06 2023","The main experiment item","True","SternbergTask.osexp","C:/Users/katjo/OneDrive/Desktop","False","mono","False","18","no","white","no","yes","768","legacy","62","11","C:/Users/katjo/OneDrive/Desktop/KEJ-subject-1.csv","legacy","8 7 3","Melodramatic Milgram","4.0.5","1","y","0","left","left","right","left","NA","526.0","8667","7924","526","NA","2","legacy","3","1024","2","48000","-16","experiment","1","odd","8","461153","457908","3496","91989","458951","458952","267769","3500","84065","459952","463153","463680","12169","463153","NA","Sternberg Task","74","50089.0","75","1024"
"98","98","667","667","#3d3846","experiment","legacy","legacy","legacy","1","undefined","1","right","75","75","0","0","75","75","75","0","0","75","75","75","0","75","0","Thu Oct 12 19:11:06 2023","The main experiment item","True","SternbergTask.osexp","C:/Users/katjo/OneDrive/Desktop","False","mono","False","18","no","white","no","yes","768","legacy","63","11","C:/Users/katjo/OneDrive/Desktop/KEJ-subject-1.csv","legacy","7 6 4 8 1 2","Melodramatic Milgram","4.0.5","0","n","0","right","left","right","right","NA","651.0","8667","7924","651","NA","2","legacy","6","1024","2","48000","-16","experiment","1","odd","9","466921","463688","3496","91989","464719","464720","267769","3500","84065","465720","468921","469573","12169","468921","NA","Sternberg Task","75","50740.0","76","1024"
"98","98","668","668","#3d3846","experiment","legacy","legacy","legacy","1","undefined","1","right","76","76","0","0","76","76","76","0","0","76","76","76","0","76","0","Thu Oct 12 19:11:06 2023","The main experiment item","True","SternbergTask.osexp","C:/Users/katjo/OneDrive/Desktop","False","mono","False","18","no","white","no","yes","768","legacy","64","11","C:/Users/katjo/OneDrive/Desktop/KEJ-subject-1.csv","legacy","6 2 9 3 8 4","Melodramatic Milgram","4.0.5","0","n","0","right","left","right","right","NA","700.0","8667","7924","700","NA","2","legacy","6","1024","2","48000","-16","experiment","1","odd","1","472825","469581","3496","91989","470622","470623","267769","3500","84065","471624","474826","475526","12169","474826","NA","Sternberg Task","76","51440.0","77","1024"
"98","98","668","668","#3d3846","experiment","legacy","legacy","legacy","1","undefined","1","left","77","77","0","0","77","77","77","0","0","77","77","77","0","77","0","Thu Oct 12 19:11:06 2023","The main experiment item","True","SternbergTask.osexp","C:/Users/katjo/OneDrive/Desktop","False","mono","False","18","no","white","no","yes","768","legacy","65","11","C:/Users/katjo/OneDrive/Desktop/KEJ-subject-1.csv","legacy","6 9 7 4 5 1","Melodramatic Milgram","4.0.5","2","y","0","left","left","right","left","NA","671.0","8667","7924","671","NA","2","legacy","6","1024","2","48000","-16","experiment","1","odd","9","478765","475534","3496","91989","476563","476564","267769","3500","84065","477564","480766","481438","12169","480766","NA","Sternberg Task","77","52111.0","78","1024"
"98","98","667","667","#3d3846","experiment","legacy","legacy","legacy","1","undefined","1","left","78","78","0","0","78","78","78","0","0","78","78","78","0","78","0","Thu Oct 12 19:11:06 2023","The main experiment item","True","SternbergTask.osexp","C:/Users/katjo/OneDrive/Desktop","False","mono","False","18","no","white","no","yes","768","legacy","66","11","C:/Users/katjo/OneDrive/Desktop/KEJ-subject-1.csv","legacy","7 6","Melodramatic Milgram","4.0.5","2","y","0","left","left","right","left","NA","590.0","8667","7924","590","NA","2","legacy","2","1024","2","48000","-16","experiment","1","odd","6","484713","481464","3496","91989","482512","482512","267769","3500","84065","483512","486715","487305","12169","486715","NA","Sternberg Task","78","52701.0","79","1024"
"98","98","666","666","#3d3846","experiment","legacy","legacy","legacy","1","undefined","1","right","79","79","0","0","79","79","79","0","0","79","79","79","0","79","0","Thu Oct 12 19:11:06 2023","The main experiment item","True","SternbergTask.osexp","C:/Users/katjo/OneDrive/Desktop","False","mono","False","18","no","white","no","yes","768","legacy","67","11","C:/Users/katjo/OneDrive/Desktop/KEJ-subject-1.csv","legacy","5 2","Melodramatic Milgram","4.0.5","0","n","0","right","left","right","right","NA","644.0","8667","7924","644","NA","2","legacy","2","1024","2","48000","-16","experiment","1","odd","7","490546","487313","3496","91989","488344","488345","267769","3500","84065","489345","492546","493191","12169","492546","NA","Sternberg Task","79","53345.0","80","1024"
"98","98","666","666","#3d3846","experiment","legacy","legacy","legacy","1","undefined","1","left","80","80","0","0","80","80","80","0","0","80","80","80","0","80","0","Thu Oct 12 19:11:06 2023","The main experiment item","True","SternbergTask.osexp","C:/Users/katjo/OneDrive/Desktop","False","mono","False","18","no","white","no","yes","768","legacy","68","11","C:/Users/katjo/OneDrive/Desktop/KEJ-subject-1.csv","legacy","8 9 5 6 7","Melodramatic Milgram","4.0.5","1","y","0","left","left","right","left","NA","627.0","8667","7924","627","NA","2","legacy","5","1024","2","48000","-16","experiment","1","odd","8","496430","493198","3496","91989","494229","494229","267769","3500","84065","495229","498430","499058","12169","498430","NA","Sternberg Task","80","53972.0","81","1024"
"98","98","670","670","#3d3846","experiment","legacy","legacy","legacy","1","undefined","1","right","81","81","0","0","81","81","81","0","0","81","81","81","0","81","0","Thu Oct 12 19:11:06 2023","The main experiment item","True","SternbergTask.osexp","C:/Users/katjo/OneDrive/Desktop","False","mono","False","18","no","white","no","yes","768","legacy","69","11","C:/Users/katjo/OneDrive/Desktop/KEJ-subject-1.csv","legacy","7 4 2 8 1 9","Melodramatic Milgram","4.0.5","0","n","0","right","left","right","right","NA","1036.0","8667","7924","1036","NA","2","legacy","6","1024","2","48000","-16","experiment","1","odd","5","502318","499066","3496","91989","500116","500117","267769","3500","84065","501117","504319","505356","12169","504319","NA","Sternberg Task","81","55008.0","82","1024"
"98","98","669","669","#3d3846","experiment","legacy","legacy","legacy","1","undefined","1","right","82","82","0","0","82","82","82","0","0","82","82","82","0","82","0","Thu Oct 12 19:11:06 2023","The main experiment item","True","SternbergTask.osexp","C:/Users/katjo/OneDrive/Desktop","False","mono","False","18","no","white","no","yes","768","legacy","70","11","C:/Users/katjo/OneDrive/Desktop/KEJ-subject-1.csv","legacy","1 6 4","Melodramatic Milgram","4.0.5","0","n","0","right","left","right","right","NA","543.0","8667","7924","543","NA","2","legacy","3","1024","2","48000","-16","experiment","1","odd","7","508597","505363","3496","91989","506396","506397","267769","3500","84065","507397","510597","511141","12169","510597","NA","Sternberg Task","82","55551.0","83","1024"
"98","98","668","668","#3d3846","experiment","legacy","legacy","legacy","1","undefined","1","right","83","83","0","0","83","83","83","0","0","83","83","83","0","83","0","Thu Oct 12 19:11:06 2023","The main experiment item","True","SternbergTask.osexp","C:/Users/katjo/OneDrive/Desktop","False","mono","False","18","no","white","no","yes","768","legacy","71","11","C:/Users/katjo/OneDrive/Desktop/KEJ-subject-1.csv","legacy","1 3 2 6 9","Melodramatic Milgram","4.0.5","0","n","0","right","left","right","right","NA","605.0","8667","7924","605","NA","2","legacy","5","1024","2","48000","-16","experiment","1","odd","5","514389","511144","3496","91989","512187","512188","267769","3500","84065","513188","516389","516995","12169","516389","NA","Sternberg Task","83","56156.0","84","1024"
"98","98","667","667","#3d3846","experiment","legacy","legacy","legacy","1","undefined","1","right","84","84","0","0","84","84","84","0","0","84","84","84","0","84","0","Thu Oct 12 19:11:06 2023","The main experiment item","True","SternbergTask.osexp","C:/Users/katjo/OneDrive/Desktop","False","mono","False","18","no","white","no","yes","768","legacy","72","11","C:/Users/katjo/OneDrive/Desktop/KEJ-subject-1.csv","legacy","8 9","Melodramatic Milgram","4.0.5","0","n","0","right","left","right","right","NA","561.0","8667","7924","561","NA","2","legacy","2","1024","2","48000","-16","experiment","1","odd","5","520236","517002","3496","91989","518033","518034","267769","3500","84065","519035","522236","522798","12169","522236","NA","Sternberg Task","84","56717.0","85","1024"
"98","98","667","667","#3d3846","experiment","legacy","legacy","legacy","1","undefined","1","left","85","85","0","0","85","85","85","0","0","85","85","85","0","85","0","Thu Oct 12 19:11:06 2023","The main experiment item","True","SternbergTask.osexp","C:/Users/katjo/OneDrive/Desktop","False","mono","False","18","no","white","no","yes","768","legacy","73","11","C:/Users/katjo/OneDrive/Desktop/KEJ-subject-1.csv","legacy","3 4 9 6 2 9","Melodramatic Milgram","4.0.5","5","y","0","left","left","right","left","NA","667.0","8667","7924","667","NA","2","legacy","6","1024","2","48000","-16","experiment","1","odd","2","526038","522805","3496","91989","523835","523836","267769","3500","84065","524837","528039","528707","12169","528039","NA","Sternberg Task","85","57384.0","86","1024"
"98","98","670","670","#3d3846","experiment","legacy","legacy","legacy","1","undefined","1","left","86","86","0","0","86","86","86","0","0","86","86","86","0","86","0","Thu Oct 12 19:11:06 2023","The main experiment item","True","SternbergTask.osexp","C:/Users/katjo/OneDrive/Desktop","False","mono","False","18","no","white","no","yes","768","legacy","74","11","C:/Users/katjo/OneDrive/Desktop/KEJ-subject-1.csv","legacy","8 9 6 1","Melodramatic Milgram","4.0.5","2","y","0","left","left","right","left","NA","960.0","8667","7924","960","NA","2","legacy","4","1024","2","48000","-16","experiment","1","odd","9","531947","528715","3496","91989","529746","529747","267769","3500","84065","530747","533947","534909","12169","533947","NA","Sternberg Task","86","58344.0","87","1024"
"98","98","672","672","#3d3846","experiment","legacy","legacy","legacy","1","undefined","1","right","87","87","0","0","87","87","87","0","0","87","87","87","0","87","0","Thu Oct 12 19:11:06 2023","The main experiment item","True","SternbergTask.osexp","C:/Users/katjo/OneDrive/Desktop","False","mono","False","18","no","white","no","yes","768","legacy","75","11","C:/Users/katjo/OneDrive/Desktop/KEJ-subject-1.csv","legacy","5 7 3","Melodramatic Milgram","4.0.5","0","n","0","right","left","right","right","NA","795.0","8667","7924","795","NA","2","legacy","3","1024","2","48000","-16","experiment","1","odd","9","538166","534916","3496","91989","535965","535966","267769","3500","84065","536966","540168","540963","12169","540167","NA","Sternberg Task","87","59139.0","88","1024"
"98","98","673","673","#3d3846","experiment","legacy","legacy","legacy","1","undefined","1","right","88","88","0","0","88","88","88","0","0","88","88","88","0","88","0","Thu Oct 12 19:11:06 2023","The main experiment item","True","SternbergTask.osexp","C:/Users/katjo/OneDrive/Desktop","False","mono","False","18","no","white","no","yes","768","legacy","76","11","C:/Users/katjo/OneDrive/Desktop/KEJ-subject-1.csv","legacy","1 7 5 2","Melodramatic Milgram","4.0.5","0","n","0","right","left","right","right","NA","772.0","8667","7924","772","NA","2","legacy","4","1024","2","48000","-16","experiment","1","odd","3","544205","540971","3496","91989","542002","542003","267769","3500","84065","543004","546205","546978","12169","546205","NA","Sternberg Task","88","59911.0","89","1024"
"98","98","674","674","#3d3846","experiment","legacy","legacy","legacy","1","undefined","1","left","89","89","0","0","89","89","89","0","0","89","89","89","0","89","0","Thu Oct 12 19:11:06 2023","The main experiment item","True","SternbergTask.osexp","C:/Users/katjo/OneDrive/Desktop","False","mono","False","18","no","white","no","yes","768","legacy","77","11","C:/Users/katjo/OneDrive/Desktop/KEJ-subject-1.csv","legacy","9 6 2 4 1","Melodramatic Milgram","4.0.5","4","y","0","left","left","right","left","NA","830.0","8667","7924","830","NA","2","legacy","5","1024","2","48000","-16","experiment","1","odd","4","550216","546983","3496","91989","548014","548015","267769","3500","84065","549015","552216","553047","12169","552216","NA","Sternberg Task","89","60741.0","90","1024"
"98","98","673","673","#3d3846","experiment","legacy","legacy","legacy","1","undefined","1","left","90","90","0","0","90","90","90","0","0","90","90","90","0","90","0","Thu Oct 12 19:11:06 2023","The main experiment item","True","SternbergTask.osexp","C:/Users/katjo/OneDrive/Desktop","False","mono","False","18","no","white","no","yes","768","legacy","78","11","C:/Users/katjo/OneDrive/Desktop/KEJ-subject-1.csv","legacy","9 1 6 7 8","Melodramatic Milgram","4.0.5","1","y","0","left","left","right","left","NA","541.0","8667","7924","541","NA","2","legacy","5","1024","2","48000","-16","experiment","1","odd","9","556305","553055","3496","91989","554103","554104","267769","3500","84065","555104","558305","558846","12169","558305","NA","Sternberg Task","90","61282.0","91","1024"
"98","98","673","673","#3d3846","experiment","legacy","legacy","legacy","1","undefined","1","left","91","91","0","0","91","91","91","0","0","91","91","91","0","91","0","Thu Oct 12 19:11:06 2023","The main experiment item","True","SternbergTask.osexp","C:/Users/katjo/OneDrive/Desktop","False","mono","False","18","no","white","no","yes","768","legacy","79","11","C:/Users/katjo/OneDrive/Desktop/KEJ-subject-1.csv","legacy","4 6 5 8","Melodramatic Milgram","4.0.5","1","y","0","left","left","right","left","NA","639.0","8667","7924","639","NA","2","legacy","4","1024","2","48000","-16","experiment","1","odd","4","562105","558849","3496","91989","559902","559903","267769","3500","84065","560904","564105","564745","12169","564105","NA","Sternberg Task","91","61921.0","92","1024"
"98","98","674","674","#3d3846","experiment","legacy","legacy","legacy","1","undefined","1","left","92","92","0","0","92","92","92","0","0","92","92","92","0","92","0","Thu Oct 12 19:11:06 2023","The main experiment item","True","SternbergTask.osexp","C:/Users/katjo/OneDrive/Desktop","False","mono","False","18","no","white","no","yes","768","legacy","80","11","C:/Users/katjo/OneDrive/Desktop/KEJ-subject-1.csv","legacy","2 8 5 1","Melodramatic Milgram","4.0.5","4","y","0","left","left","right","left","NA","790.0","8667","7924","790","NA","2","legacy","4","1024","2","48000","-16","experiment","1","odd","1","567999","564753","3496","91989","565796","565797","267769","3500","84065","566798","569999","570790","12169","569999","NA","Sternberg Task","92","62711.0","93","1024"
"98","98","674","674","#3d3846","experiment","legacy","legacy","legacy","1","undefined","1","right","93","93","0","0","93","93","93","0","0","93","93","93","0","93","0","Thu Oct 12 19:11:06 2023","The main experiment item","True","SternbergTask.osexp","C:/Users/katjo/OneDrive/Desktop","False","mono","False","18","no","white","no","yes","768","legacy","81","11","C:/Users/katjo/OneDrive/Desktop/KEJ-subject-1.csv","legacy","6 9 7 3 8 2","Melodramatic Milgram","4.0.5","0","n","0","right","left","right","right","NA","658.0","8667","7924","658","NA","2","legacy","6","1024","2","48000","-16","experiment","1","odd","5","574036","570798","3496","91989","571834","571835","267769","3500","84065","572835","576036","576695","12169","576036","NA","Sternberg Task","93","63369.0","94","1024"
"98","98","674","674","#3d3846","experiment","legacy","legacy","legacy","1","undefined","1","left","94","94","0","0","94","94","94","0","0","94","94","94","0","94","0","Thu Oct 12 19:11:06 2023","The main experiment item","True","SternbergTask.osexp","C:/Users/katjo/OneDrive/Desktop","False","mono","False","18","no","white","no","yes","768","legacy","82","11","C:/Users/katjo/OneDrive/Desktop/KEJ-subject-1.csv","legacy","8 3","Melodramatic Milgram","4.0.5","2","y","0","left","left","right","left","NA","685.0","8667","7924","685","NA","2","legacy","2","1024","2","48000","-16","experiment","1","odd","3","579936","576702","3496","91989","577734","577735","267769","3500","84065","578735","581936","582622","12169","581936","NA","Sternberg Task","94","64054.0","95","1024"
"98","98","672","672","#3d3846","experiment","legacy","legacy","legacy","1","undefined","1","left","95","95","0","0","95","95","95","0","0","95","95","95","0","95","0","Thu Oct 12 19:11:06 2023","The main experiment item","True","SternbergTask.osexp","C:/Users/katjo/OneDrive/Desktop","False","mono","False","18","no","white","no","yes","768","legacy","83","11","C:/Users/katjo/OneDrive/Desktop/KEJ-subject-1.csv","legacy","3 5 9 6 2 4","Melodramatic Milgram","4.0.5","1","y","0","left","left","right","left","NA","544.0","8667","7924","544","NA","2","legacy","6","1024","2","48000","-16","experiment","1","odd","3","585882","582649","3496","91989","583680","583681","267769","3500","84065","584681","587882","588427","12169","587882","NA","Sternberg Task","95","64598.0","96","1024"
"98","98","672","672","#3d3846","experiment","legacy","legacy","legacy","1","undefined","1","right","96","96","0","0","96","96","96","0","0","96","96","96","0","96","0","Thu Oct 12 19:11:06 2023","The main experiment item","True","SternbergTask.osexp","C:/Users/katjo/OneDrive/Desktop","False","mono","False","18","no","white","no","yes","768","legacy","84","11","C:/Users/katjo/OneDrive/Desktop/KEJ-subject-1.csv","legacy","8 4 3 5","Melodramatic Milgram","4.0.5","0","n","0","right","left","right","right","NA","624.0","8667","7924","624","NA","2","legacy","4","1024","2","48000","-16","experiment","1","odd","6","591686","588453","3496","91989","589484","589485","267769","3500","84065","590485","593688","594313","12169","593687","NA","Sternberg Task","96","65222.0","97","1024"
"98","98","671","671","#3d3846","experiment","legacy","legacy","legacy","1","undefined","1","right","97","97","0","0","97","97","97","0","0","97","97","97","0","97","0","Thu Oct 12 19:11:06 2023","The main experiment item","True","SternbergTask.osexp","C:/Users/katjo/OneDrive/Desktop","False","mono","False","18","no","white","no","yes","768","legacy","85","11","C:/Users/katjo/OneDrive/Desktop/KEJ-subject-1.csv","legacy","6 9 4 5 3 2","Melodramatic Milgram","4.0.5","0","n","0","right","left","right","right","NA","606.0","8667","7924","606","NA","2","legacy","6","1024","2","48000","-16","experiment","1","odd","8","597555","594320","3496","91989","595352","595353","267769","3500","84065","596354","599556","600163","12169","599556","NA","Sternberg Task","97","65828.0","98","1024"
"98","98","670","670","#3d3846","experiment","legacy","legacy","legacy","1","undefined","1","right","98","98","0","0","98","98","98","0","0","98","98","98","0","98","0","Thu Oct 12 19:11:06 2023","The main experiment item","True","SternbergTask.osexp","C:/Users/katjo/OneDrive/Desktop","False","mono","False","18","no","white","no","yes","768","legacy","86","11","C:/Users/katjo/OneDrive/Desktop/KEJ-subject-1.csv","legacy","1 7 8 3 9","Melodramatic Milgram","4.0.5","0","n","0","right","left","right","right","NA","556.0","8667","7924","556","NA","2","legacy","5","1024","2","48000","-16","experiment","1","odd","2","603433","600189","3496","91989","601231","601232","267769","3500","84065","602232","605433","605990","12169","605433","NA","Sternberg Task","98","66384.0","99","1024"
"99","99","669","669","#3d3846","experiment","legacy","legacy","legacy","1","undefined","1","left","99","99","0","0","99","99","99","0","0","99","99","99","0","99","0","Thu Oct 12 19:11:06 2023","The main experiment item","True","SternbergTask.osexp","C:/Users/katjo/OneDrive/Desktop","False","mono","False","18","no","white","no","yes","768","legacy","87","11","C:/Users/katjo/OneDrive/Desktop/KEJ-subject-1.csv","legacy","7 4 2 6 3 5","Melodramatic Milgram","4.0.5","6","y","0","left","left","right","left","NA","598.0","8667","7924","598","NA","2","legacy","6","1024","2","48000","-16","experiment","1","odd","5","609251","606017","3496","91989","607049","607050","267769","3500","84065","608050","611251","611850","12169","611251","NA","Sternberg Task","99","66982.0","100","1024"
"99","99","669","669","#3d3846","experiment","legacy","legacy","legacy","1","undefined","1","right","100","100","0","0","100","100","100","0","0","100","100","100","0","100","0","Thu Oct 12 19:11:06 2023","The main experiment item","True","SternbergTask.osexp","C:/Users/katjo/OneDrive/Desktop","False","mono","False","18","no","white","no","yes","768","legacy","88","11","C:/Users/katjo/OneDrive/Desktop/KEJ-subject-1.csv","legacy","7 1 8 4 9 3","Melodramatic Milgram","4.0.5","0","n","0","right","left","right","right","NA","626.0","8667","7924","626","NA","2","legacy","6","1024","2","48000","-16","experiment","1","odd","6","615095","611857","3496","91989","612892","612893","267769","3500","84065","613893","617095","617722","12169","617095","NA","Sternberg Task","100","67608.0","101","1024"
"99","99","676","676","#3d3846","experiment","legacy","legacy","legacy","1","undefined","1","right","101","101","0","0","101","101","101","0","0","101","101","101","0","101","0","Thu Oct 12 19:11:06 2023","The main experiment item","True","SternbergTask.osexp","C:/Users/katjo/OneDrive/Desktop","False","mono","False","18","no","white","no","yes","768","legacy","89","11","C:/Users/katjo/OneDrive/Desktop/KEJ-subject-1.csv","legacy","2 8 7 9 5 3","Melodramatic Milgram","4.0.5","0","n","0","right","left","right","right","NA","1370.0","8667","7924","1370","NA","2","legacy","6","1024","2","48000","-16","experiment","1","odd","6","620960","617729","3496","91989","618758","618759","267769","3500","84065","619759","622960","624331","12169","622960","NA","Sternberg Task","101","68978.0","102","1024"
"99","99","674","674","#3d3846","experiment","legacy","legacy","legacy","1","undefined","1","left","102","102","0","0","102","102","102","0","0","102","102","102","0","102","0","Thu Oct 12 19:11:06 2023","The main experiment item","True","SternbergTask.osexp","C:/Users/katjo/OneDrive/Desktop","False","mono","False","18","no","white","no","yes","768","legacy","90","11","C:/Users/katjo/OneDrive/Desktop/KEJ-subject-1.csv","legacy","4 1 8 7 5","Melodramatic Milgram","4.0.5","3","y","0","left","left","right","left","NA","527.0","8667","7924","527","NA","2","legacy","5","1024","2","48000","-16","experiment","1","odd","8","627588","624338","3496","91989","625386","625387","267769","3500","84065","626387","629588","630117","12169","629588","NA","Sternberg Task","102","69505.0","103","1024"
"99","99","674","674","#3d3846","experiment","legacy","legacy","legacy","1","undefined","1","left","103","103","0","0","103","103","103","0","0","103","103","103","0","103","0","Thu Oct 12 19:11:06 2023","The main experiment item","True","SternbergTask.osexp","C:/Users/katjo/OneDrive/Desktop","False","mono","False","18","no","white","no","yes","768","legacy","91","11","C:/Users/katjo/OneDrive/Desktop/KEJ-subject-1.csv","legacy","5 2 9 6 1 7","Melodramatic Milgram","4.0.5","3","y","0","left","left","right","left","NA","602.0","8667","7924","602","NA","2","legacy","6","1024","2","48000","-16","experiment","1","odd","9","633358","630124","3496","91989","631156","631156","267769","3500","84065","632157","635358","635961","12169","635358","NA","Sternberg Task","103","70107.0","104","1024"
"99","99","672","672","#3d3846","experiment","legacy","legacy","legacy","1","undefined","1","left","104","104","0","0","104","104","104","0","0","104","104","104","0","104","0","Thu Oct 12 19:11:06 2023","The main experiment item","True","SternbergTask.osexp","C:/Users/katjo/OneDrive/Desktop","False","mono","False","18","no","white","no","yes","768","legacy","92","11","C:/Users/katjo/OneDrive/Desktop/KEJ-subject-1.csv","legacy","3 9 7 6 4","Melodramatic Milgram","4.0.5","3","y","0","left","left","right","left","NA","466.0","8667","7924","466","NA","2","legacy","5","1024","2","48000","-16","experiment","1","odd","7","639236","635988","3496","91989","637033","637034","267769","3500","84065","638035","641236","641703","12169","641236","NA","Sternberg Task","104","70573.0","105","1024"
"99","99","671","671","#3d3846","experiment","legacy","legacy","legacy","1","undefined","1","right","105","105","0","0","105","105","105","0","0","105","105","105","0","105","0","Thu Oct 12 19:11:06 2023","The main experiment item","True","SternbergTask.osexp","C:/Users/katjo/OneDrive/Desktop","False","mono","False","18","no","white","no","yes","768","legacy","93","11","C:/Users/katjo/OneDrive/Desktop/KEJ-subject-1.csv","legacy","7 8 6 1","Melodramatic Milgram","4.0.5","0","n","0","right","left","right","right","NA","564.0","8667","7924","564","NA","2","legacy","4","1024","2","48000","-16","experiment","1","odd","3","644963","641710","3496","91989","642761","642762","267769","3500","84065","643762","646963","647528","12169","646963","NA","Sternberg Task","105","71137.0","106","1024"
"99","99","669","669","#3d3846","experiment","legacy","legacy","legacy","1","undefined","1","right","106","106","0","0","106","106","106","0","0","106","106","106","0","106","0","Thu Oct 12 19:11:06 2023","The main experiment item","True","SternbergTask.osexp","C:/Users/katjo/OneDrive/Desktop","False","mono","False","18","no","white","no","yes","768","legacy","94","11","C:/Users/katjo/OneDrive/Desktop/KEJ-subject-1.csv","legacy","5 9 2 3","Melodramatic Milgram","4.0.5","0","n","0","right","left","right","right","NA","523.0","8667","7924","523","NA","2","legacy","4","1024","2","48000","-16","experiment","1","odd","8","650778","647536","3496","91989","648575","648576","267769","3500","84065","649577","652778","653302","12169","652778","NA","Sternberg Task","106","71660.0","107","1024"
"99","99","668","668","#3d3846","experiment","legacy","legacy","legacy","1","undefined","1","left","107","107","0","0","107","107","107","0","0","107","107","107","0","107","0","Thu Oct 12 19:11:06 2023","The main experiment item","True","SternbergTask.osexp","C:/Users/katjo/OneDrive/Desktop","False","mono","False","18","no","white","no","yes","768","legacy","95","11","C:/Users/katjo/OneDrive/Desktop/KEJ-subject-1.csv","legacy","2 5 4 8 7","Melodramatic Milgram","4.0.5","3","y","0","left","left","right","left","NA","587.0","8667","7924","587","NA","2","legacy","5","1024","2","48000","-16","experiment","1","odd","4","656563","653310","3496","91989","654360","654361","267769","3500","84065","655362","658567","659156","12169","658565","NA","Sternberg Task","107","72247.0","108","1024"
"99","99","669","669","#3d3846","experiment","legacy","legacy","legacy","1","undefined","1","left","108","108","0","0","108","108","108","0","0","108","108","108","0","108","0","Thu Oct 12 19:11:06 2023","The main experiment item","True","SternbergTask.osexp","C:/Users/katjo/OneDrive/Desktop","False","mono","False","18","no","white","no","yes","768","legacy","96","11","C:/Users/katjo/OneDrive/Desktop/KEJ-subject-1.csv","legacy","3 2 1 4 7","Melodramatic Milgram","4.0.5","2","y","0","left","left","right","left","NA","750.0","8667","7924","750","NA","2","legacy","5","1024","2","48000","-16","experiment","1","odd","2","662467","659163","3496","91989","660264","660265","267769","3500","84065","661266","664468","665219","12169","664468","NA","Sternberg Task","108","72997.0","109","1024"
"99","99","667","667","#3d3846","experiment","legacy","legacy","legacy","1","undefined","1","left","109","109","0","0","109","109","109","0","0","109","109","109","0","109","0","Thu Oct 12 19:11:06 2023","The main experiment item","True","SternbergTask.osexp","C:/Users/katjo/OneDrive/Desktop","False","mono","False","18","no","white","no","yes","768","legacy","97","11","C:/Users/katjo/OneDrive/Desktop/KEJ-subject-1.csv","legacy","4 9 7 8 5 3","Melodramatic Milgram","4.0.5","4","y","0","left","left","right","left","NA","475.0","8667","7924","475","NA","2","legacy","6","1024","2","48000","-16","experiment","1","odd","8","668532","665226","3496","91989","666330","666331","267769","3500","84065","667331","670534","671010","12169","670533","NA","Sternberg Task","109","73472.0","110","1024"
"99","99","667","667","#3d3846","experiment","legacy","legacy","legacy","1","undefined","1","right","110","110","0","0","110","110","110","0","0","110","110","110","0","110","0","Thu Oct 12 19:11:06 2023","The main experiment item","True","SternbergTask.osexp","C:/Users/katjo/OneDrive/Desktop","False","mono","False","18","no","white","no","yes","768","legacy","98","11","C:/Users/katjo/OneDrive/Desktop/KEJ-subject-1.csv","legacy","7 9 1 6","Melodramatic Milgram","4.0.5","0","n","0","right","left","right","right","NA","589.0","8667","7924","589","NA","2","legacy","4","1024","2","48000","-16","experiment","1","odd","4","674323","671017","3496","91989","672120","672121","267769","3500","84065","673122","676324","676914","12169","676324","NA","Sternberg Task","110","74061.0","111","1024"
"99","99","666","666","#3d3846","experiment","legacy","legacy","legacy","1","undefined","1","right","111","111","0","0","111","111","111","0","0","111","111","111","0","111","0","Thu Oct 12 19:11:06 2023","The main experiment item","True","SternbergTask.osexp","C:/Users/katjo/OneDrive/Desktop","False","mono","False","18","no","white","no","yes","768","legacy","99","11","C:/Users/katjo/OneDrive/Desktop/KEJ-subject-1.csv","legacy","4 2 6 9","Melodramatic Milgram","4.0.5","0","n","0","right","left","right","right","NA","531.0","8667","7924","531","NA","2","legacy","4","1024","2","48000","-16","experiment","1","odd","7","680222","676917","3496","91989","678019","678020","267769","3500","84065","679021","682224","682756","12169","682223","NA","Sternberg Task","111","74592.0","112","1024"
"99","99","665","665","#3d3846","experiment","legacy","legacy","legacy","1","undefined","1","right","112","112","0","0","112","112","112","0","0","112","112","112","0","112","0","Thu Oct 12 19:11:06 2023","The main experiment item","True","SternbergTask.osexp","C:/Users/katjo/OneDrive/Desktop","False","mono","False","18","no","white","no","yes","768","legacy","100","11","C:/Users/katjo/OneDrive/Desktop/KEJ-subject-1.csv","legacy","1 4 9 3","Melodramatic Milgram","4.0.5","0","n","0","right","left","right","right","NA","595.0","8667","7924","595","NA","2","legacy","4","1024","2","48000","-16","experiment","1","odd","5","686090","682782","3496","91989","683885","683887","267769","3500","84065","684888","688091","688687","12169","688091","NA","Sternberg Task","112","75187.0","113","1024"
"99","99","664","664","#3d3846","experiment","legacy","legacy","legacy","1","undefined","1","right","113","113","0","0","113","113","113","0","0","113","113","113","0","113","0","Thu Oct 12 19:11:06 2023","The main experiment item","True","SternbergTask.osexp","C:/Users/katjo/OneDrive/Desktop","False","mono","False","18","no","white","no","yes","768","legacy","101","11","C:/Users/katjo/OneDrive/Desktop/KEJ-subject-1.csv","legacy","3 9 8 1 6 4","Melodramatic Milgram","4.0.5","0","n","0","right","left","right","right","NA","555.0","8667","7924","555","NA","2","legacy","6","1024","2","48000","-16","experiment","1","odd","7","692012","688694","3496","91989","689809","689810","267769","3500","84065","690811","694014","694570","12169","694013","NA","Sternberg Task","113","75742.0","114","1024"
"99","99","664","664","#3d3846","experiment","legacy","legacy","legacy","1","undefined","1","right","114","114","0","0","114","114","114","0","0","114","114","114","0","114","0","Thu Oct 12 19:11:06 2023","The main experiment item","True","SternbergTask.osexp","C:/Users/katjo/OneDrive/Desktop","False","mono","False","18","no","white","no","yes","768","legacy","102","11","C:/Users/katjo/OneDrive/Desktop/KEJ-subject-1.csv","legacy","8 5 4 2 9 6","Melodramatic Milgram","4.0.5","0","n","0","right","left","right","right","NA","639.0","8667","7924","639","NA","2","legacy","6","1024","2","48000","-16","experiment","1","odd","3","697905","694601","3496","91989","695702","695703","267769","3500","84065","696704","699907","700547","12169","699907","NA","Sternberg Task","114","76381.0","115","1024"
"99","99","663","663","#3d3846","experiment","legacy","legacy","legacy","1","undefined","1","right","115","115","0","0","115","115","115","0","0","115","115","115","0","115","0","Thu Oct 12 19:11:06 2023","The main experiment item","True","SternbergTask.osexp","C:/Users/katjo/OneDrive/Desktop","False","mono","False","18","no","white","no","yes","768","legacy","103","11","C:/Users/katjo/OneDrive/Desktop/KEJ-subject-1.csv","legacy","8 6 3 4 7","Melodramatic Milgram","4.0.5","0","n","0","right","left","right","right","NA","560.0","8667","7924","560","NA","2","legacy","5","1024","2","48000","-16","experiment","1","odd","1","703877","700573","3496","91989","701674","701675","267769","3500","84065","702676","705879","706440","12169","705878","NA","Sternberg Task","115","76941.0","116","1024"
"99","99","662","662","#3d3846","experiment","legacy","legacy","legacy","1","undefined","1","right","116","116","0","0","116","116","116","0","0","116","116","116","0","116","0","Thu Oct 12 19:11:06 2023","The main experiment item","True","SternbergTask.osexp","C:/Users/katjo/OneDrive/Desktop","False","mono","False","18","no","white","no","yes","768","legacy","104","11","C:/Users/katjo/OneDrive/Desktop/KEJ-subject-1.csv","legacy","7 1 5 6 3","Melodramatic Milgram","4.0.5","0","n","0","right","left","right","right","NA","534.0","8667","7924","534","NA","2","legacy","5","1024","2","48000","-16","experiment","1","odd","8","709755","706447","3496","91989","707551","707553","267769","3500","84065","708554","711756","712291","12169","711756","NA","Sternberg Task","116","77475.0","117","1024"
"98","98","661","661","#3d3846","experiment","legacy","legacy","legacy","0","undefined","0","left","117","117","0","0","117","117","117","0","0","117","117","117","0","117","0","Thu Oct 12 19:11:06 2023","The main experiment item","True","SternbergTask.osexp","C:/Users/katjo/OneDrive/Desktop","False","mono","False","18","no","white","no","yes","768","legacy","105","11","C:/Users/katjo/OneDrive/Desktop/KEJ-subject-1.csv","legacy","7 8 6 3 1","Melodramatic Milgram","4.0.5","5","y","0","right","left","right","right","NA","543.0","8667","7924","543","NA","2","legacy","5","1024","2","48000","-16","experiment","1","odd","1","715624","712318","3496","91989","713419","713421","267769","3500","84065","714422","717626","718170","12169","717625","NA","Sternberg Task","116","78018.0","118","1024"
"98","98","659","659","#3d3846","experiment","legacy","legacy","legacy","1","undefined","1","left","118","118","0","0","118","118","118","0","0","118","118","118","0","118","0","Thu Oct 12 19:11:06 2023","The main experiment item","True","SternbergTask.osexp","C:/Users/katjo/OneDrive/Desktop","False","mono","False","18","no","white","no","yes","768","legacy","106","11","C:/Users/katjo/OneDrive/Desktop/KEJ-subject-1.csv","legacy","3 4","Melodramatic Milgram","4.0.5","1","y","0","left","left","right","left","NA","488.0","8667","7924","488","NA","2","legacy","2","1024","2","48000","-16","experiment","1","odd","3","721483","712318","3496","91989","719279","719281","718178","3500","84065","720282","723484","723973","12169","723484","NA","Sternberg Task","117","78506.0","119","1024"
"98","98","659","659","#3d3846","experiment","legacy","legacy","legacy","1","undefined","1","right","119","119","0","0","119","119","119","0","0","119","119","119","0","119","0","Thu Oct 12 19:11:06 2023","The main experiment item","True","SternbergTask.osexp","C:/Users/katjo/OneDrive/Desktop","False","mono","False","18","no","white","no","yes","768","legacy","107","11","C:/Users/katjo/OneDrive/Desktop/KEJ-subject-1.csv","legacy","9 5 3 2 8 6","Melodramatic Milgram","4.0.5","0","n","0","right","left","right","right","NA","687.0","8667","7924","687","NA","2","legacy","6","1024","2","48000","-16","experiment","1","odd","7","727306","723999","3496","91989","725102","725103","718178","3500","84065","726105","729307","729995","12169","729307","NA","Sternberg Task","118","79193.0","120","1024"
"98","98","659","659","#3d3846","experiment","legacy","legacy","legacy","1","undefined","1","right","120","120","0","0","120","120","120","0","0","120","120","120","0","120","0","Thu Oct 12 19:11:06 2023","The main experiment item","True","SternbergTask.osexp","C:/Users/katjo/OneDrive/Desktop","False","mono","False","18","no","white","no","yes","768","legacy","108","11","C:/Users/katjo/OneDrive/Desktop/KEJ-subject-1.csv","legacy","2 5 1 4","Melodramatic Milgram","4.0.5","0","n","0","right","left","right","right","NA","577.0","8667","7924","577","NA","2","legacy","4","1024","2","48000","-16","experiment","1","odd","6","733307","730002","3496","91989","731103","731104","718178","3500","84065","732105","735309","735887","12169","735308","NA","Sternberg Task","119","79770.0","121","1024"
"98","98","657","657","#3d3846","experiment","legacy","legacy","legacy","1","undefined","1","left","121","121","0","0","121","121","121","0","0","121","121","121","0","121","0","Thu Oct 12 19:11:06 2023","The main experiment item","True","SternbergTask.osexp","C:/Users/katjo/OneDrive/Desktop","False","mono","False","18","no","white","no","yes","768","legacy","109","11","C:/Users/katjo/OneDrive/Desktop/KEJ-subject-1.csv","legacy","1 4 9 3 2 5","Melodramatic Milgram","4.0.5","3","y","0","left","left","right","left","NA","479.0","8667","7924","479","NA","2","legacy","6","1024","2","48000","-16","experiment","1","odd","9","739212","735895","3496","91989","737009","737010","718178","3500","84065","738011","741212","741692","12169","741212","NA","Sternberg Task","120","80249.0","122","1024"
"98","98","655","655","#3d3846","experiment","legacy","legacy","legacy","1","undefined","1","left","122","122","0","0","122","122","122","0","0","122","122","122","0","122","0","Thu Oct 12 19:11:06 2023","The main experiment item","True","SternbergTask.osexp","C:/Users/katjo/OneDrive/Desktop","False","mono","False","18","no","white","no","yes","768","legacy","110","11","C:/Users/katjo/OneDrive/Desktop/KEJ-subject-1.csv","legacy","7","Melodramatic Milgram","4.0.5","1","y","0","left","left","right","left","NA","390.0","8667","7924","390","NA","2","legacy","1","1024","2","48000","-16","experiment","1","odd","7","745022","741718","3496","91989","742818","742820","718178","3500","84065","743821","747024","747415","12169","747023","NA","Sternberg Task","121","80639.0","123","1024"
"98","98","656","656","#3d3846","experiment","legacy","legacy","legacy","1","undefined","1","left","123","123","0","0","123","123","123","0","0","123","123","123","0","123","0","Thu Oct 12 19:11:06 2023","The main experiment item","True","SternbergTask.osexp","C:/Users/katjo/OneDrive/Desktop","False","mono","False","18","no","white","no","yes","768","legacy","111","11","C:/Users/katjo/OneDrive/Desktop/KEJ-subject-1.csv","legacy","8 1 6","Melodramatic Milgram","4.0.5","3","y","0","left","left","right","left","NA","786.0","8667","7924","786","NA","2","legacy","3","1024","2","48000","-16","experiment","1","odd","6","750722","747422","3496","91989","748520","748521","718178","3500","84065","749521","752724","753511","12169","752723","NA","Sternberg Task","122","81425.0","124","1024"
"98","98","655","655","#3d3846","experiment","legacy","legacy","legacy","1","undefined","1","left","124","124","0","0","124","124","124","0","0","124","124","124","0","124","0","Thu Oct 12 19:11:06 2023","The main experiment item","True","SternbergTask.osexp","C:/Users/katjo/OneDrive/Desktop","False","mono","False","18","no","white","no","yes","768","legacy","112","11","C:/Users/katjo/OneDrive/Desktop/KEJ-subject-1.csv","legacy","3 9 6 2","Melodramatic Milgram","4.0.5","4","y","0","left","left","right","left","NA","539.0","8667","7924","539","NA","2","legacy","4","1024","2","48000","-16","experiment","1","odd","2","756824","753518","3496","91989","754621","754622","718178","3500","84065","755623","758827","759367","12169","758826","NA","Sternberg Task","123","81964.0","125","1024"
