acc,accuracy,average_response_time,avg_rt,background,block,canvas_backend,clock_backend,color_backend,compensation,coordinates,correct,correct_instruction1,correct_keyboard_response,correct_response,count_ISI,count_correctFeedback,count_expSequence,count_experiment,count_experimentLoop,count_fixation,count_incorrectFeedback,count_instruction1,count_instructions2,count_keyboard_response,count_logger,count_memorySet,count_practiceLoop,count_probe,count_thankYou,datetime,description,disable_garbage_collection,experiment_file,experiment_path,font_bold,font_family,font_italic,font_size,font_underline,foreground,form_clicks,fullscreen,height,keyboard_backend,live_row,live_row_practiceLoop,logfile,mouse_backend,numberSet,opensesame_codename,opensesame_version,posInSet,present,repeat_cycle,response,response_instruction1,response_instructions2,response_keyboard_response,response_thankYou,response_time,response_time_instruction1,response_time_instructions2,response_time_keyboard_response,response_time_thankYou,round_decimals,sampler_backend,setSize,sound_buf_size,sound_channels,sound_freq,sound_sample_size,start,subject_nr,subject_parity,target,time_ISI,time_correctFeedback,time_expSequence,time_experiment,time_experimentLoop,time_fixation,time_incorrectFeedback,time_instruction1,time_instructions2,time_keyboard_response,time_logger,time_memorySet,time_practiceLoop,time_probe,time_thankYou,title,total_correct,total_response_time,total_responses,uniform_coordinates,width
0,0,1081,1081,black,practice,legacy,legacy,legacy,0,uniform,0,undefined,0,right,0,0,0,0,0,0,0,0,0,0,0,0,0,0,0,Sun Oct 27 15:53:08 2019,The main experiment item,yes,SternbergTask.osexp,/Users/Zenny/Desktop,no,mono,no,18,no,white,no,no,768,legacy,0,0,/Users/Zenny/Desktop/quickrun.csv,legacy,3 1 9 4,Kafkaesque Koffka,3.2.8,0,n,0,left,right,NA,left,NA,1081,29261,NA,1081,NA,2,legacy,4,1024,2,48000,-16,experiment,999,odd,6,34497,NA,32138,2593,NA,32226,NA,2678,NA,36530,37613,33261,31949,36530,NA,SternbergTask,0,1081,1,yes,1024
0,0,795,795,black,practice,legacy,legacy,legacy,0,uniform,0,undefined,0,left,1,1,1,0,0,1,1,0,0,1,1,1,0,1,0,Sun Oct 27 15:53:08 2019,The main experiment item,yes,SternbergTask.osexp,/Users/Zenny/Desktop,no,mono,no,18,no,white,no,no,768,legacy,1,1,/Users/Zenny/Desktop/quickrun.csv,legacy,4 3 1 7 9 8,Kafkaesque Koffka,3.2.8,1,y,0,right,right,NA,right,NA,509,29261,NA,509,NA,2,legacy,6,1024,2,48000,-16,experiment,999,odd,4,41228,NA,38921,2593,NA,38954,37755,2678,NA,43261,43771,39985,31949,43260,NA,SternbergTask,0,1590,2,yes,1024
33.33333333,33.33333333,888.3333333,888.3333333,black,practice,legacy,legacy,legacy,0,uniform,1,undefined,1,left,2,2,2,0,0,2,2,0,0,2,2,2,0,2,0,Sun Oct 27 15:53:08 2019,The main experiment item,yes,SternbergTask.osexp,/Users/Zenny/Desktop,no,mono,no,18,no,white,no,no,768,legacy,2,2,/Users/Zenny/Desktop/quickrun.csv,legacy,6,Kafkaesque Koffka,3.2.8,1,y,0,left,right,NA,left,NA,1075,29261,NA,1075,NA,2,legacy,1,1024,2,48000,-16,experiment,999,odd,6,47236,NA,44915,2593,NA,44946,43805,2678,NA,49268,50344,45977,31949,49268,NA,SternbergTask,1,2665,3,yes,1024
50,50,916.75,916.75,black,practice,legacy,legacy,legacy,0,uniform,1,undefined,1,right,3,3,3,0,0,3,3,0,0,3,3,3,0,3,0,Sun Oct 27 15:53:08 2019,The main experiment item,yes,SternbergTask.osexp,/Users/Zenny/Desktop,no,mono,no,18,no,white,no,no,768,legacy,3,3,/Users/Zenny/Desktop/quickrun.csv,legacy,5 7 8 4 1 2,Kafkaesque Koffka,3.2.8,0,n,0,right,right,NA,right,NA,1002,29261,NA,1002,NA,2,legacy,6,1024,2,48000,-16,experiment,999,odd,6,53840,50385,51542,2593,NA,51575,43805,2678,NA,55875,56879,52606,31949,55875,NA,SternbergTask,2,3667,4,yes,1024
60,60,837.4,837.4,black,practice,legacy,legacy,legacy,0,uniform,1,undefined,1,left,4,4,4,0,0,4,4,0,0,4,4,4,0,4,0,Sun Oct 27 15:53:08 2019,The main experiment item,yes,SternbergTask.osexp,/Users/Zenny/Desktop,no,mono,no,18,no,white,no,no,768,legacy,4,4,/Users/Zenny/Desktop/quickrun.csv,legacy,1 5 2 9,Kafkaesque Koffka,3.2.8,2,y,0,left,right,NA,left,NA,520,29261,NA,520,NA,2,legacy,4,1024,2,48000,-16,experiment,999,odd,5,60374,56922,58076,2593,NA,58109,43805,2678,NA,62408,62930,59140,31949,62408,NA,SternbergTask,3,4187,5,yes,1024
50,50,858,858,black,practice,legacy,legacy,legacy,0,uniform,0,undefined,0,left,5,5,5,0,0,5,5,0,0,5,5,5,0,5,0,Sun Oct 27 15:53:08 2019,The main experiment item,yes,SternbergTask.osexp,/Users/Zenny/Desktop,no,mono,no,18,no,white,no,no,768,legacy,5,5,/Users/Zenny/Desktop/quickrun.csv,legacy,1 7 9 8 5,Kafkaesque Koffka,3.2.8,4,y,0,right,right,NA,right,NA,961,29261,NA,961,NA,2,legacy,5,1024,2,48000,-16,experiment,999,odd,8,66379,62970,64081,2593,NA,64113,43805,2678,NA,68413,69376,65144,31949,68413,NA,SternbergTask,3,5148,6,yes,1024
57.14285714,57.14285714,848.8571429,848.8571429,black,practice,legacy,legacy,legacy,0,uniform,1,undefined,1,right,6,6,6,0,0,6,6,0,0,6,6,6,0,6,0,Sun Oct 27 15:53:08 2019,The main experiment item,yes,SternbergTask.osexp,/Users/Zenny/Desktop,no,mono,no,18,no,white,no,no,768,legacy,6,6,/Users/Zenny/Desktop/quickrun.csv,legacy,9 6 7 4 5,Kafkaesque Koffka,3.2.8,0,n,0,right,right,NA,right,NA,794,29261,NA,794,NA,2,legacy,5,1024,2,48000,-16,experiment,999,odd,3,72859,62970,70563,2593,NA,70595,69414,2678,NA,74892,75688,71627,31949,74892,NA,SternbergTask,4,5942,7,yes,1024
62.5,62.5,807.375,807.375,black,practice,legacy,legacy,legacy,0,uniform,1,undefined,1,left,7,7,7,0,0,7,7,0,0,7,7,7,0,7,0,Sun Oct 27 15:53:08 2019,The main experiment item,yes,SternbergTask.osexp,/Users/Zenny/Desktop,no,mono,no,18,no,white,no,no,768,legacy,7,7,/Users/Zenny/Desktop/quickrun.csv,legacy,4 8,Kafkaesque Koffka,3.2.8,1,y,0,left,right,NA,left,NA,517,29261,NA,517,NA,2,legacy,2,1024,2,48000,-16,experiment,999,odd,4,79145,75723,76850,2593,NA,76882,69414,2678,NA,81179,81698,77914,31949,81179,NA,SternbergTask,5,6459,8,yes,1024
66.66666667,66.66666667,794,794,black,practice,legacy,legacy,legacy,0,uniform,1,undefined,1,left,8,8,8,0,0,8,8,0,0,8,8,8,0,8,0,Sun Oct 27 15:53:08 2019,The main experiment item,yes,SternbergTask.osexp,/Users/Zenny/Desktop,no,mono,no,18,no,white,no,no,768,legacy,8,8,/Users/Zenny/Desktop/quickrun.csv,legacy,2 9 4,Kafkaesque Koffka,3.2.8,3,y,0,left,right,NA,left,NA,687,29261,NA,687,NA,2,legacy,3,1024,2,48000,-16,experiment,999,odd,4,85235,81736,82890,2593,NA,82925,69414,2678,NA,87267,87955,83956,31949,87267,NA,SternbergTask,6,7146,9,yes,1024
70,70,782.2,782.2,black,practice,legacy,legacy,legacy,0,uniform,1,undefined,1,right,9,9,9,0,0,9,9,0,0,9,9,9,0,9,0,Sun Oct 27 15:53:08 2019,The main experiment item,yes,SternbergTask.osexp,/Users/Zenny/Desktop,no,mono,no,18,no,white,no,no,768,legacy,9,9,/Users/Zenny/Desktop/quickrun.csv,legacy,4 1 5,Kafkaesque Koffka,3.2.8,0,n,0,right,right,NA,right,NA,676,29261,NA,676,NA,2,legacy,3,1024,2,48000,-16,experiment,999,odd,2,91397,87989,89098,2593,NA,89129,69414,2678,NA,93430,94108,90161,31949,93430,NA,SternbergTask,7,7822,10,yes,1024
72.72727273,72.72727273,778.9090909,778.9090909,black,practice,legacy,legacy,legacy,0,uniform,1,undefined,1,right,10,10,10,0,0,10,10,0,0,10,10,10,0,10,0,Sun Oct 27 15:53:08 2019,The main experiment item,yes,SternbergTask.osexp,/Users/Zenny/Desktop,no,mono,no,18,no,white,no,no,768,legacy,10,10,/Users/Zenny/Desktop/quickrun.csv,legacy,2 1,Kafkaesque Koffka,3.2.8,0,n,0,right,right,NA,right,NA,746,29261,NA,746,NA,2,legacy,2,1024,2,48000,-16,experiment,999,odd,5,97603,94146,95306,2593,NA,95338,69414,2678,NA,99635,100383,96370,31949,99635,NA,SternbergTask,8,8568,11,yes,1024
75,75,813,813,black,practice,legacy,legacy,legacy,0,uniform,1,undefined,1,right,11,11,11,0,0,11,11,0,0,11,11,11,0,11,0,Sun Oct 27 15:53:08 2019,The main experiment item,yes,SternbergTask.osexp,/Users/Zenny/Desktop,no,mono,no,18,no,white,no,no,768,legacy,11,11,/Users/Zenny/Desktop/quickrun.csv,legacy,5,Kafkaesque Koffka,3.2.8,0,n,0,right,right,NA,right,NA,1188,29261,NA,1188,NA,2,legacy,1,1024,2,48000,-16,experiment,999,odd,3,103831,100420,101530,2593,NA,101561,69414,2678,NA,105864,107054,102595,31949,105863,NA,SternbergTask,9,9756,12,yes,1024
76.92307692,76.92307692,830.0769231,830.0769231,black,experiment,legacy,legacy,legacy,0,uniform,1,undefined,1,left,12,12,12,0,0,12,12,0,0,12,12,12,0,12,0,Sun Oct 27 15:53:08 2019,The main experiment item,yes,SternbergTask.osexp,/Users/Zenny/Desktop,no,mono,no,18,no,white,no,no,768,legacy,0,11,/Users/Zenny/Desktop/quickrun.csv,legacy,7 8 6 3 1,Kafkaesque Koffka,3.2.8,5,y,0,left,right,right,left,NA,1035,29261,1749,1035,NA,2,legacy,5,1024,2,48000,-16,experiment,999,odd,1,112459,107092,110115,2593,109909,110148,69414,2678,108159,114490,115526,111226,31949,114490,NA,SternbergTask,10,10791,13,yes,1024
78.57142857,78.57142857,829.8571429,829.8571429,black,experiment,legacy,legacy,legacy,0,uniform,1,undefined,1,right,13,13,13,0,0,13,13,0,0,13,13,13,0,13,0,Sun Oct 27 15:53:08 2019,The main experiment item,yes,SternbergTask.osexp,/Users/Zenny/Desktop,no,mono,no,18,no,white,no,no,768,legacy,1,11,/Users/Zenny/Desktop/quickrun.csv,legacy,7 4 2 8 1 9,Kafkaesque Koffka,3.2.8,0,n,0,right,right,right,right,NA,827,29261,1749,827,NA,2,legacy,6,1024,2,48000,-16,experiment,999,odd,5,119020,115565,116721,2593,109909,116755,69414,2678,108159,121054,121882,117787,31949,121054,NA,SternbergTask,11,11618,14,yes,1024
80,80,836.7333333,836.7333333,black,experiment,legacy,legacy,legacy,0,uniform,1,undefined,1,right,14,14,14,0,0,14,14,0,0,14,14,14,0,14,0,Sun Oct 27 15:53:08 2019,The main experiment item,yes,SternbergTask.osexp,/Users/Zenny/Desktop,no,mono,no,18,no,white,no,no,768,legacy,2,11,/Users/Zenny/Desktop/quickrun.csv,legacy,2 7 5,Kafkaesque Koffka,3.2.8,0,n,0,right,right,right,right,NA,933,29261,1749,933,NA,2,legacy,3,1024,2,48000,-16,experiment,999,odd,8,125328,121918,123028,2593,109909,123060,69414,2678,108159,127361,128296,124093,31949,127360,NA,SternbergTask,12,12551,15,yes,1024
81.25,81.25,828.1875,828.1875,black,experiment,legacy,legacy,legacy,0,uniform,1,undefined,1,left,15,15,15,0,0,15,15,0,0,15,15,15,0,15,0,Sun Oct 27 15:53:08 2019,The main experiment item,yes,SternbergTask.osexp,/Users/Zenny/Desktop,no,mono,no,18,no,white,no,no,768,legacy,3,11,/Users/Zenny/Desktop/quickrun.csv,legacy,2 6 1 7 4,Kafkaesque Koffka,3.2.8,2,y,0,left,right,right,left,NA,700,29261,1749,700,NA,2,legacy,5,1024,2,48000,-16,experiment,999,odd,6,131788,128333,129491,2593,109909,129524,69414,2678,108159,133822,134524,130556,31949,133822,NA,SternbergTask,13,13251,16,yes,1024
82.35294118,82.35294118,810.2352941,810.2352941,black,experiment,legacy,legacy,legacy,0,uniform,1,undefined,1,left,16,16,16,0,0,16,16,0,0,16,16,16,0,16,0,Sun Oct 27 15:53:08 2019,The main experiment item,yes,SternbergTask.osexp,/Users/Zenny/Desktop,no,mono,no,18,no,white,no,no,768,legacy,4,11,/Users/Zenny/Desktop/quickrun.csv,legacy,2 3,Kafkaesque Koffka,3.2.8,1,y,0,left,right,right,left,NA,523,29261,1749,523,NA,2,legacy,2,1024,2,48000,-16,experiment,999,odd,2,137978,134566,135678,2593,109909,135711,69414,2678,108159,140011,140536,136744,31949,140010,NA,SternbergTask,14,13774,17,yes,1024
83.33333333,83.33333333,795,795,black,experiment,legacy,legacy,legacy,0,uniform,1,undefined,1,left,17,17,17,0,0,17,17,0,0,17,17,17,0,17,0,Sun Oct 27 15:53:08 2019,The main experiment item,yes,SternbergTask.osexp,/Users/Zenny/Desktop,no,mono,no,18,no,white,no,no,768,legacy,5,11,/Users/Zenny/Desktop/quickrun.csv,legacy,8 5 4 7 3 1,Kafkaesque Koffka,3.2.8,2,y,0,left,right,right,left,NA,536,29261,1749,536,NA,2,legacy,6,1024,2,48000,-16,experiment,999,odd,5,144021,140575,141722,2593,109909,141755,69414,2678,108159,146054,146591,142787,31949,146054,NA,SternbergTask,15,14310,18,yes,1024
84.21052632,84.21052632,791.1052632,791.1052632,black,experiment,legacy,legacy,legacy,0,uniform,1,undefined,1,right,18,18,18,0,0,18,18,0,0,18,18,18,0,18,0,Sun Oct 27 15:53:08 2019,The main experiment item,yes,SternbergTask.osexp,/Users/Zenny/Desktop,no,mono,no,18,no,white,no,no,768,legacy,6,11,/Users/Zenny/Desktop/quickrun.csv,legacy,6 9 4 5 3 2,Kafkaesque Koffka,3.2.8,0,n,0,right,right,right,right,NA,721,29261,1749,721,NA,2,legacy,6,1024,2,48000,-16,experiment,999,odd,8,150036,146625,147738,2593,109909,147771,69414,2678,108159,152069,152791,148803,31949,152069,NA,SternbergTask,16,15031,19,yes,1024
85,85,796.95,796.95,black,experiment,legacy,legacy,legacy,0,uniform,1,undefined,1,right,19,19,19,0,0,19,19,0,0,19,19,19,0,19,0,Sun Oct 27 15:53:08 2019,The main experiment item,yes,SternbergTask.osexp,/Users/Zenny/Desktop,no,mono,no,18,no,white,no,no,768,legacy,7,11,/Users/Zenny/Desktop/quickrun.csv,legacy,6 9 7 3 8 2,Kafkaesque Koffka,3.2.8,0,n,0,right,right,right,right,NA,908,29261,1749,908,NA,2,legacy,6,1024,2,48000,-16,experiment,999,odd,5,156286,152830,153987,2593,109909,154021,69414,2678,108159,158318,159228,155053,31949,158318,NA,SternbergTask,17,15939,20,yes,1024
85.71428571,85.71428571,799.4285714,799.4285714,black,experiment,legacy,legacy,legacy,0,uniform,1,undefined,1,right,20,20,20,0,0,20,20,0,0,20,20,20,0,20,0,Sun Oct 27 15:53:08 2019,The main experiment item,yes,SternbergTask.osexp,/Users/Zenny/Desktop,no,mono,no,18,no,white,no,no,768,legacy,8,11,/Users/Zenny/Desktop/quickrun.csv,legacy,6 7 5 9,Kafkaesque Koffka,3.2.8,0,n,0,right,right,right,right,NA,849,29261,1749,849,NA,2,legacy,4,1024,2,48000,-16,experiment,999,odd,2,162708,159263,160408,2593,109909,160440,69414,2678,108159,164749,165600,161476,31949,164749,NA,SternbergTask,18,16788,21,yes,1024
86.36363636,86.36363636,787.1818182,787.1818182,black,experiment,legacy,legacy,legacy,0,uniform,1,undefined,1,left,21,21,21,0,0,21,21,0,0,21,21,21,0,21,0,Sun Oct 27 15:53:08 2019,The main experiment item,yes,SternbergTask.osexp,/Users/Zenny/Desktop,no,mono,no,18,no,white,no,no,768,legacy,9,11,/Users/Zenny/Desktop/quickrun.csv,legacy,8 9 5 6 7,Kafkaesque Koffka,3.2.8,1,y,0,left,right,right,left,NA,530,29261,1749,530,NA,2,legacy,5,1024,2,48000,-16,experiment,999,odd,8,169068,165644,166757,2593,109909,166804,69414,2678,108159,171100,171632,167837,31949,171100,NA,SternbergTask,19,17318,22,yes,1024
86.95652174,86.95652174,781.3043478,781.3043478,black,experiment,legacy,legacy,legacy,0,uniform,1,undefined,1,right,22,22,22,0,0,22,22,0,0,22,22,22,0,22,0,Sun Oct 27 15:53:08 2019,The main experiment item,yes,SternbergTask.osexp,/Users/Zenny/Desktop,no,mono,no,18,no,white,no,no,768,legacy,10,11,/Users/Zenny/Desktop/quickrun.csv,legacy,1 7 5 2 9,Kafkaesque Koffka,3.2.8,0,n,0,right,right,right,right,NA,652,29261,1749,652,NA,2,legacy,5,1024,2,48000,-16,experiment,999,odd,3,175118,171671,172821,2593,109909,172854,69414,2678,108159,177151,177804,173885,31949,177151,NA,SternbergTask,20,17970,23,yes,1024
87.5,87.5,781.2916667,781.2916667,black,experiment,legacy,legacy,legacy,0,uniform,1,undefined,1,right,23,23,23,0,0,23,23,0,0,23,23,23,0,23,0,Sun Oct 27 15:53:08 2019,The main experiment item,yes,SternbergTask.osexp,/Users/Zenny/Desktop,no,mono,no,18,no,white,no,no,768,legacy,11,11,/Users/Zenny/Desktop/quickrun.csv,legacy,8 2 1 4 5 9,Kafkaesque Koffka,3.2.8,0,n,0,right,right,right,right,NA,781,29261,1749,781,NA,2,legacy,6,1024,2,48000,-16,experiment,999,odd,7,181247,177838,178949,2593,109909,178981,69414,2678,108159,183279,184061,180012,31949,183279,NA,SternbergTask,21,18751,24,yes,1024
88,88,780.96,780.96,black,experiment,legacy,legacy,legacy,0,uniform,1,undefined,1,right,24,24,24,0,0,24,24,0,0,24,24,24,0,24,0,Sun Oct 27 15:53:08 2019,The main experiment item,yes,SternbergTask.osexp,/Users/Zenny/Desktop,no,mono,no,18,no,white,no,no,768,legacy,12,11,/Users/Zenny/Desktop/quickrun.csv,legacy,5 3 2 6 9 8,Kafkaesque Koffka,3.2.8,0,n,0,right,right,right,right,NA,773,29261,1749,773,NA,2,legacy,6,1024,2,48000,-16,experiment,999,odd,4,187554,184098,185256,2593,109909,185289,69414,2678,108159,189589,190364,186321,31949,189589,NA,SternbergTask,22,19524,25,yes,1024
88.46153846,88.46153846,782.4615385,782.4615385,black,experiment,legacy,legacy,legacy,0,uniform,1,undefined,1,right,25,25,25,0,0,25,25,0,0,25,25,25,0,25,0,Sun Oct 27 15:53:08 2019,The main experiment item,yes,SternbergTask.osexp,/Users/Zenny/Desktop,no,mono,no,18,no,white,no,no,768,legacy,13,11,/Users/Zenny/Desktop/quickrun.csv,legacy,7 1 8 4 9 3,Kafkaesque Koffka,3.2.8,0,n,0,right,right,right,right,NA,820,29261,1749,820,NA,2,legacy,6,1024,2,48000,-16,experiment,999,odd,6,193806,190398,191510,2593,109909,191542,69414,2678,108159,195838,196662,192574,31949,195837,NA,SternbergTask,23,20344,26,yes,1024
88.88888889,88.88888889,783.1481481,783.1481481,black,experiment,legacy,legacy,legacy,0,uniform,1,undefined,1,left,26,26,26,0,0,26,26,0,0,26,26,26,0,26,0,Sun Oct 27 15:53:08 2019,The main experiment item,yes,SternbergTask.osexp,/Users/Zenny/Desktop,no,mono,no,18,no,white,no,no,768,legacy,14,11,/Users/Zenny/Desktop/quickrun.csv,legacy,7 8 4 6 9 5,Kafkaesque Koffka,3.2.8,4,y,0,left,right,right,left,NA,801,29261,1749,801,NA,2,legacy,6,1024,2,48000,-16,experiment,999,odd,6,200147,196699,197849,2593,109909,197882,69414,2678,108159,202180,202983,198914,31949,202180,NA,SternbergTask,24,21145,27,yes,1024
89.28571429,89.28571429,773.3571429,773.3571429,black,experiment,legacy,legacy,legacy,0,uniform,1,undefined,1,left,27,27,27,0,0,27,27,0,0,27,27,27,0,27,0,Sun Oct 27 15:53:08 2019,The main experiment item,yes,SternbergTask.osexp,/Users/Zenny/Desktop,no,mono,no,18,no,white,no,no,768,legacy,15,11,/Users/Zenny/Desktop/quickrun.csv,legacy,2 4 6 9,Kafkaesque Koffka,3.2.8,3,y,0,left,right,right,left,NA,509,29261,1749,509,NA,2,legacy,4,1024,2,48000,-16,experiment,999,odd,6,206456,203016,204128,2593,109909,204159,69414,2678,108159,208490,209000,205224,31949,208490,NA,SternbergTask,25,21654,28,yes,1024
89.65517241,89.65517241,770.7241379,770.7241379,black,experiment,legacy,legacy,legacy,0,uniform,1,undefined,1,right,28,28,28,0,0,28,28,0,0,28,28,28,0,28,0,Sun Oct 27 15:53:08 2019,The main experiment item,yes,SternbergTask.osexp,/Users/Zenny/Desktop,no,mono,no,18,no,white,no,no,768,legacy,16,11,/Users/Zenny/Desktop/quickrun.csv,legacy,1,Kafkaesque Koffka,3.2.8,0,n,0,right,right,right,right,NA,697,29261,1749,697,NA,2,legacy,1,1024,2,48000,-16,experiment,999,odd,7,212496,209042,210195,2593,109909,210229,69414,2678,108159,214530,215229,211262,31949,214530,NA,SternbergTask,26,22351,29,yes,1024
90,90,770.8333333,770.8333333,black,experiment,legacy,legacy,legacy,0,uniform,1,undefined,1,left,29,29,29,0,0,29,29,0,0,29,29,29,0,29,0,Sun Oct 27 15:53:08 2019,The main experiment item,yes,SternbergTask.osexp,/Users/Zenny/Desktop,no,mono,no,18,no,white,no,no,768,legacy,17,11,/Users/Zenny/Desktop/quickrun.csv,legacy,3 5 9 6 2 4,Kafkaesque Koffka,3.2.8,1,y,0,left,right,right,left,NA,774,29261,1749,774,NA,2,legacy,6,1024,2,48000,-16,experiment,999,odd,3,218676,215265,216379,2593,109909,216411,69414,2678,108159,220708,221485,217443,31949,220708,NA,SternbergTask,27,23125,30,yes,1024
90.32258065,90.32258065,762.6129032,762.6129032,black,experiment,legacy,legacy,legacy,0,uniform,1,undefined,1,left,30,30,30,0,0,30,30,0,0,30,30,30,0,30,0,Sun Oct 27 15:53:08 2019,The main experiment item,yes,SternbergTask.osexp,/Users/Zenny/Desktop,no,mono,no,18,no,white,no,no,768,legacy,18,11,/Users/Zenny/Desktop/quickrun.csv,legacy,3 9 6 2,Kafkaesque Koffka,3.2.8,4,y,0,left,right,right,left,NA,516,29261,1749,516,NA,2,legacy,4,1024,2,48000,-16,experiment,999,odd,2,224974,221524,222674,2593,109909,222707,69414,2678,108159,227005,227523,223740,31949,227005,NA,SternbergTask,28,23641,31,yes,1024
90.625,90.625,764.125,764.125,black,experiment,legacy,legacy,legacy,0,uniform,1,undefined,1,left,31,31,31,0,0,31,31,0,0,31,31,31,0,31,0,Sun Oct 27 15:53:08 2019,The main experiment item,yes,SternbergTask.osexp,/Users/Zenny/Desktop,no,mono,no,18,no,white,no,no,768,legacy,19,11,/Users/Zenny/Desktop/quickrun.csv,legacy,7 4 2 6 3 5,Kafkaesque Koffka,3.2.8,6,y,0,left,right,right,left,NA,811,29261,1749,811,NA,2,legacy,6,1024,2,48000,-16,experiment,999,odd,5,230969,227558,228671,2593,109909,228704,69414,2678,108159,233000,233813,229736,31949,233000,NA,SternbergTask,29,24452,32,yes,1024
90.90909091,90.90909091,755.2727273,755.2727273,black,experiment,legacy,legacy,legacy,0,uniform,1,undefined,1,left,32,32,32,0,0,32,32,0,0,32,32,32,0,32,0,Sun Oct 27 15:53:08 2019,The main experiment item,yes,SternbergTask.osexp,/Users/Zenny/Desktop,no,mono,no,18,no,white,no,no,768,legacy,20,11,/Users/Zenny/Desktop/quickrun.csv,legacy,4 7 6 8 2 3,Kafkaesque Koffka,3.2.8,6,y,0,left,right,right,left,NA,472,29261,1749,472,NA,2,legacy,6,1024,2,48000,-16,experiment,999,odd,3,237297,233851,235000,2593,109909,235032,69414,2678,108159,239329,239803,236064,31949,239329,NA,SternbergTask,30,24924,33,yes,1024
91.17647059,91.17647059,753.1470588,753.1470588,black,experiment,legacy,legacy,legacy,0,uniform,1,undefined,1,right,33,33,33,0,0,33,33,0,0,33,33,33,0,33,0,Sun Oct 27 15:53:08 2019,The main experiment item,yes,SternbergTask.osexp,/Users/Zenny/Desktop,no,mono,no,18,no,white,no,no,768,legacy,21,11,/Users/Zenny/Desktop/quickrun.csv,legacy,5 2,Kafkaesque Koffka,3.2.8,0,n,0,right,right,right,right,NA,683,29261,1749,683,NA,2,legacy,2,1024,2,48000,-16,experiment,999,odd,7,243245,239837,240948,2593,109909,240980,69414,2678,108159,245277,245962,242011,31949,245277,NA,SternbergTask,31,25607,34,yes,1024
91.42857143,91.42857143,753.6,753.6,black,experiment,legacy,legacy,legacy,0,uniform,1,undefined,1,left,34,34,34,0,0,34,34,0,0,34,34,34,0,34,0,Sun Oct 27 15:53:08 2019,The main experiment item,yes,SternbergTask.osexp,/Users/Zenny/Desktop,no,mono,no,18,no,white,no,no,768,legacy,22,11,/Users/Zenny/Desktop/quickrun.csv,legacy,1 4 9 3 2 5,Kafkaesque Koffka,3.2.8,3,y,0,left,right,right,left,NA,769,29261,1749,769,NA,2,legacy,6,1024,2,48000,-16,experiment,999,odd,9,249472,246000,247153,2593,109909,247189,69414,2678,108159,251505,252276,248239,31949,251505,NA,SternbergTask,32,26376,35,yes,1024
91.66666667,91.66666667,747.8611111,747.8611111,black,experiment,legacy,legacy,legacy,0,uniform,1,undefined,1,left,35,35,35,0,0,35,35,0,0,35,35,35,0,35,0,Sun Oct 27 15:53:08 2019,The main experiment item,yes,SternbergTask.osexp,/Users/Zenny/Desktop,no,mono,no,18,no,white,no,no,768,legacy,23,11,/Users/Zenny/Desktop/quickrun.csv,legacy,2 5 4 8 7,Kafkaesque Koffka,3.2.8,3,y,0,left,right,right,left,NA,547,29261,1749,547,NA,2,legacy,5,1024,2,48000,-16,experiment,999,odd,4,255720,252312,253425,2593,109909,253457,69414,2678,108159,257753,258302,254489,31949,257753,NA,SternbergTask,33,26923,36,yes,1024
91.89189189,91.89189189,752.1621622,752.1621622,black,experiment,legacy,legacy,legacy,0,uniform,1,undefined,1,right,36,36,36,0,0,36,36,0,0,36,36,36,0,36,0,Sun Oct 27 15:53:08 2019,The main experiment item,yes,SternbergTask.osexp,/Users/Zenny/Desktop,no,mono,no,18,no,white,no,no,768,legacy,24,11,/Users/Zenny/Desktop/quickrun.csv,legacy,6 3 1 7 9 8,Kafkaesque Koffka,3.2.8,0,n,0,right,right,right,right,NA,907,29261,1749,907,NA,2,legacy,6,1024,2,48000,-16,experiment,999,odd,4,261801,258343,259499,2593,109909,259531,69414,2678,108159,263833,264742,260567,31949,263833,NA,SternbergTask,34,27830,37,yes,1024
92.10526316,92.10526316,744.2631579,744.2631579,black,experiment,legacy,legacy,legacy,0,uniform,1,undefined,1,left,37,37,37,0,0,37,37,0,0,37,37,37,0,37,0,Sun Oct 27 15:53:08 2019,The main experiment item,yes,SternbergTask.osexp,/Users/Zenny/Desktop,no,mono,no,18,no,white,no,no,768,legacy,25,11,/Users/Zenny/Desktop/quickrun.csv,legacy,5 2 6,Kafkaesque Koffka,3.2.8,2,y,0,left,right,right,left,NA,452,29261,1749,452,NA,2,legacy,3,1024,2,48000,-16,experiment,999,odd,2,268227,264778,265926,2593,109909,265962,69414,2678,108159,270264,270718,266993,31949,270264,NA,SternbergTask,35,28282,38,yes,1024
92.30769231,92.30769231,744.0769231,744.0769231,black,experiment,legacy,legacy,legacy,0,uniform,1,undefined,1,right,38,38,38,0,0,38,38,0,0,38,38,38,0,38,0,Sun Oct 27 15:53:08 2019,The main experiment item,yes,SternbergTask.osexp,/Users/Zenny/Desktop,no,mono,no,18,no,white,no,no,768,legacy,26,11,/Users/Zenny/Desktop/quickrun.csv,legacy,7 8 6 1,Kafkaesque Koffka,3.2.8,0,n,0,right,right,right,right,NA,737,29261,1749,737,NA,2,legacy,4,1024,2,48000,-16,experiment,999,odd,3,274167,270756,271868,2593,109909,271899,69414,2678,108159,276234,276973,272932,31949,276234,NA,SternbergTask,36,29019,39,yes,1024
92.5,92.5,738.875,738.875,black,experiment,legacy,legacy,legacy,0,uniform,1,undefined,1,left,39,39,39,0,0,39,39,0,0,39,39,39,0,39,0,Sun Oct 27 15:53:08 2019,The main experiment item,yes,SternbergTask.osexp,/Users/Zenny/Desktop,no,mono,no,18,no,white,no,no,768,legacy,27,11,/Users/Zenny/Desktop/quickrun.csv,legacy,9 4 2,Kafkaesque Koffka,3.2.8,1,y,0,left,right,right,left,NA,536,29261,1749,536,NA,2,legacy,3,1024,2,48000,-16,experiment,999,odd,9,280501,277009,278158,2593,109909,278235,69414,2678,108159,282533,283071,279268,31949,282533,NA,SternbergTask,37,29555,40,yes,1024
92.68292683,92.68292683,740.7073171,740.7073171,black,experiment,legacy,legacy,legacy,0,uniform,1,undefined,1,right,40,40,40,0,0,40,40,0,0,40,40,40,0,40,0,Sun Oct 27 15:53:08 2019,The main experiment item,yes,SternbergTask.osexp,/Users/Zenny/Desktop,no,mono,no,18,no,white,no,no,768,legacy,28,11,/Users/Zenny/Desktop/quickrun.csv,legacy,8 5 4 2 9 6,Kafkaesque Koffka,3.2.8,0,n,0,right,right,right,right,NA,814,29261,1749,814,NA,2,legacy,6,1024,2,48000,-16,experiment,999,odd,3,286516,283105,284219,2593,109909,284251,69414,2678,108159,288547,289363,285283,31949,288547,NA,SternbergTask,38,30369,41,yes,1024
92.85714286,92.85714286,742.5,742.5,black,experiment,legacy,legacy,legacy,0,uniform,1,undefined,1,right,41,41,41,0,0,41,41,0,0,41,41,41,0,41,0,Sun Oct 27 15:53:08 2019,The main experiment item,yes,SternbergTask.osexp,/Users/Zenny/Desktop,no,mono,no,18,no,white,no,no,768,legacy,29,11,/Users/Zenny/Desktop/quickrun.csv,legacy,8 4 3 5,Kafkaesque Koffka,3.2.8,0,n,0,right,right,right,right,NA,816,29261,1749,816,NA,2,legacy,4,1024,2,48000,-16,experiment,999,odd,6,292852,289402,290552,2593,109909,290585,69414,2678,108159,294890,295708,291618,31949,294890,NA,SternbergTask,39,31185,42,yes,1024
93.02325581,93.02325581,737.3023256,737.3023256,black,experiment,legacy,legacy,legacy,0,uniform,1,undefined,1,left,42,42,42,0,0,42,42,0,0,42,42,42,0,42,0,Sun Oct 27 15:53:08 2019,The main experiment item,yes,SternbergTask.osexp,/Users/Zenny/Desktop,no,mono,no,18,no,white,no,no,768,legacy,30,11,/Users/Zenny/Desktop/quickrun.csv,legacy,7 1 3,Kafkaesque Koffka,3.2.8,2,y,0,left,right,right,left,NA,519,29261,1749,519,NA,2,legacy,3,1024,2,48000,-16,experiment,999,odd,1,299156,295743,296855,2593,109909,296888,69414,2678,108159,301225,301746,297920,31949,301225,NA,SternbergTask,40,31704,43,yes,1024
93.18181818,93.18181818,729.8409091,729.8409091,black,experiment,legacy,legacy,legacy,0,uniform,1,undefined,1,left,43,43,43,0,0,43,43,0,0,43,43,43,0,43,0,Sun Oct 27 15:53:08 2019,The main experiment item,yes,SternbergTask.osexp,/Users/Zenny/Desktop,no,mono,no,18,no,white,no,no,768,legacy,31,11,/Users/Zenny/Desktop/quickrun.csv,legacy,4 1 5,Kafkaesque Koffka,3.2.8,2,y,0,left,right,right,left,NA,409,29261,1749,409,NA,2,legacy,3,1024,2,48000,-16,experiment,999,odd,1,305233,301786,302937,2593,109909,302970,69414,2678,108159,307265,307676,304001,31949,307265,NA,SternbergTask,41,32113,44,yes,1024
93.33333333,93.33333333,725.5777778,725.5777778,black,experiment,legacy,legacy,legacy,0,uniform,1,undefined,1,right,44,44,44,0,0,44,44,0,0,44,44,44,0,44,0,Sun Oct 27 15:53:08 2019,The main experiment item,yes,SternbergTask.osexp,/Users/Zenny/Desktop,no,mono,no,18,no,white,no,no,768,legacy,32,11,/Users/Zenny/Desktop/quickrun.csv,legacy,2 8 6 3 1,Kafkaesque Koffka,3.2.8,0,n,0,right,right,right,right,NA,538,29261,1749,538,NA,2,legacy,5,1024,2,48000,-16,experiment,999,odd,7,311122,307712,308824,2593,109909,308856,69414,2678,108159,313154,313694,309889,31949,313154,NA,SternbergTask,42,32651,45,yes,1024
93.47826087,93.47826087,720.9565217,720.9565217,black,experiment,legacy,legacy,legacy,0,uniform,1,undefined,1,left,45,45,45,0,0,45,45,0,0,45,45,45,0,45,0,Sun Oct 27 15:53:08 2019,The main experiment item,yes,SternbergTask.osexp,/Users/Zenny/Desktop,no,mono,no,18,no,white,no,no,768,legacy,33,11,/Users/Zenny/Desktop/quickrun.csv,legacy,4 6 2 5 1,Kafkaesque Koffka,3.2.8,5,y,0,left,right,right,left,NA,513,29261,1749,513,NA,2,legacy,5,1024,2,48000,-16,experiment,999,odd,1,317178,313730,314879,2593,109909,314913,69414,2678,108159,319240,319756,315945,31949,319240,NA,SternbergTask,43,33164,46,yes,1024
93.61702128,93.61702128,718.7446809,718.7446809,black,experiment,legacy,legacy,legacy,0,uniform,1,undefined,1,right,46,46,46,0,0,46,46,0,0,46,46,46,0,46,0,Sun Oct 27 15:53:08 2019,The main experiment item,yes,SternbergTask.osexp,/Users/Zenny/Desktop,no,mono,no,18,no,white,no,no,768,legacy,34,11,/Users/Zenny/Desktop/quickrun.csv,legacy,4 2 6 9,Kafkaesque Koffka,3.2.8,0,n,0,right,right,right,right,NA,617,29261,1749,617,NA,2,legacy,4,1024,2,48000,-16,experiment,999,odd,7,323228,319798,320912,2593,109909,320948,69414,2678,108159,325260,325879,321980,31949,325260,NA,SternbergTask,44,33781,47,yes,1024
93.75,93.75,717.3541667,717.3541667,black,experiment,legacy,legacy,legacy,0,uniform,1,undefined,1,right,47,47,47,0,0,47,47,0,0,47,47,47,0,47,0,Sun Oct 27 15:53:08 2019,The main experiment item,yes,SternbergTask.osexp,/Users/Zenny/Desktop,no,mono,no,18,no,white,no,no,768,legacy,35,11,/Users/Zenny/Desktop/quickrun.csv,legacy,1 6 4 3 9 7,Kafkaesque Koffka,3.2.8,0,n,0,right,right,right,right,NA,652,29261,1749,652,NA,2,legacy,6,1024,2,48000,-16,experiment,999,odd,8,329369,325922,327070,2593,109909,327103,69414,2678,108159,331401,332054,328134,31949,331401,NA,SternbergTask,45,34433,48,yes,1024
93.87755102,93.87755102,714.3265306,714.3265306,black,experiment,legacy,legacy,legacy,0,uniform,1,undefined,1,left,48,48,48,0,0,48,48,0,0,48,48,48,0,48,0,Sun Oct 27 15:53:08 2019,The main experiment item,yes,SternbergTask.osexp,/Users/Zenny/Desktop,no,mono,no,18,no,white,no,no,768,legacy,36,11,/Users/Zenny/Desktop/quickrun.csv,legacy,9 1 6 7 8,Kafkaesque Koffka,3.2.8,1,y,0,left,right,right,left,NA,569,29261,1749,569,NA,2,legacy,5,1024,2,48000,-16,experiment,999,odd,9,335504,332091,333206,2593,109909,333238,69414,2678,108159,337535,338106,334270,31949,337535,NA,SternbergTask,46,35002,49,yes,1024
94,94,714.6,714.6,black,experiment,legacy,legacy,legacy,0,uniform,1,undefined,1,right,49,49,49,0,0,49,49,0,0,49,49,49,0,49,0,Sun Oct 27 15:53:08 2019,The main experiment item,yes,SternbergTask.osexp,/Users/Zenny/Desktop,no,mono,no,18,no,white,no,no,768,legacy,37,11,/Users/Zenny/Desktop/quickrun.csv,legacy,7 9,Kafkaesque Koffka,3.2.8,0,n,0,right,right,right,right,NA,728,29261,1749,728,NA,2,legacy,2,1024,2,48000,-16,experiment,999,odd,1,341604,338148,339306,2593,109909,339339,69414,2678,108159,343636,344366,340371,31949,343636,NA,SternbergTask,47,35730,50,yes,1024
94.11764706,94.11764706,711.4509804,711.4509804,black,experiment,legacy,legacy,legacy,0,uniform,1,undefined,1,left,50,50,50,0,0,50,50,0,0,50,50,50,0,50,0,Sun Oct 27 15:53:08 2019,The main experiment item,yes,SternbergTask.osexp,/Users/Zenny/Desktop,no,mono,no,18,no,white,no,no,768,legacy,38,11,/Users/Zenny/Desktop/quickrun.csv,legacy,7 2 3,Kafkaesque Koffka,3.2.8,3,y,0,left,right,right,left,NA,554,29261,1749,554,NA,2,legacy,3,1024,2,48000,-16,experiment,999,odd,3,347811,344401,345513,2593,109909,345545,69414,2678,108159,349844,350399,346577,31949,349843,NA,SternbergTask,48,36284,51,yes,1024
92.30769231,92.30769231,713.2115385,713.2115385,black,experiment,legacy,legacy,legacy,0,uniform,0,undefined,0,left,51,51,51,0,0,51,51,0,0,51,51,51,0,51,0,Sun Oct 27 15:53:08 2019,The main experiment item,yes,SternbergTask.osexp,/Users/Zenny/Desktop,no,mono,no,18,no,white,no,no,768,legacy,39,11,/Users/Zenny/Desktop/quickrun.csv,legacy,6 8 9 3 4 9,Kafkaesque Koffka,3.2.8,5,y,0,right,right,right,right,NA,803,29261,1749,803,NA,2,legacy,6,1024,2,48000,-16,experiment,999,odd,4,353885,350439,351586,2593,109909,351619,69414,2678,108159,355917,356722,352650,31949,355917,NA,SternbergTask,48,37087,52,yes,1024
90.56603774,90.56603774,715.6981132,715.6981132,black,experiment,legacy,legacy,legacy,0,uniform,0,undefined,0,right,52,52,52,0,0,52,52,0,0,52,52,52,0,52,0,Sun Oct 27 15:53:08 2019,The main experiment item,yes,SternbergTask.osexp,/Users/Zenny/Desktop,no,mono,no,18,no,white,no,no,768,legacy,40,11,/Users/Zenny/Desktop/quickrun.csv,legacy,8 4 3 9,Kafkaesque Koffka,3.2.8,0,n,0,left,right,right,left,NA,845,29261,1749,845,NA,2,legacy,4,1024,2,48000,-16,experiment,999,odd,5,360166,350439,357868,2593,109909,357901,356755,2678,108159,362238,363085,358933,31949,362237,NA,SternbergTask,48,37932,53,yes,1024
90.74074074,90.74074074,715.5925926,715.5925926,black,experiment,legacy,legacy,legacy,0,uniform,1,undefined,1,left,53,53,53,0,0,53,53,0,0,53,53,53,0,53,0,Sun Oct 27 15:53:08 2019,The main experiment item,yes,SternbergTask.osexp,/Users/Zenny/Desktop,no,mono,no,18,no,white,no,no,768,legacy,41,11,/Users/Zenny/Desktop/quickrun.csv,legacy,6 9 7 4 5 1,Kafkaesque Koffka,3.2.8,2,y,0,left,right,right,left,NA,710,29261,1749,710,NA,2,legacy,6,1024,2,48000,-16,experiment,999,odd,9,366576,350439,364277,2593,109909,364311,363121,2678,108159,368608,369320,365343,31949,368608,NA,SternbergTask,49,38642,54,yes,1024
90.90909091,90.90909091,720.2909091,720.2909091,black,experiment,legacy,legacy,legacy,0,uniform,1,undefined,1,right,54,54,54,0,0,54,54,0,0,54,54,54,0,54,0,Sun Oct 27 15:53:08 2019,The main experiment item,yes,SternbergTask.osexp,/Users/Zenny/Desktop,no,mono,no,18,no,white,no,no,768,legacy,42,11,/Users/Zenny/Desktop/quickrun.csv,legacy,3 4 2,Kafkaesque Koffka,3.2.8,0,n,0,right,right,right,right,NA,974,29261,1749,974,NA,2,legacy,3,1024,2,48000,-16,experiment,999,odd,5,372771,369361,370472,2593,109909,370504,363121,2678,108159,374803,375779,371537,31949,374803,NA,SternbergTask,50,39616,55,yes,1024
91.07142857,91.07142857,720.4821429,720.4821429,black,experiment,legacy,legacy,legacy,0,uniform,1,undefined,1,right,55,55,55,0,0,55,55,0,0,55,55,55,0,55,0,Sun Oct 27 15:53:08 2019,The main experiment item,yes,SternbergTask.osexp,/Users/Zenny/Desktop,no,mono,no,18,no,white,no,no,768,legacy,43,11,/Users/Zenny/Desktop/quickrun.csv,legacy,7 3 2 8,Kafkaesque Koffka,3.2.8,0,n,0,right,right,right,right,NA,731,29261,1749,731,NA,2,legacy,4,1024,2,48000,-16,experiment,999,odd,4,379262,375814,376961,2593,109909,376997,363121,2678,108159,381305,382039,378029,31949,381305,NA,SternbergTask,51,40347,56,yes,1024
91.22807018,91.22807018,717.7894737,717.7894737,black,experiment,legacy,legacy,legacy,0,uniform,1,undefined,1,left,56,56,56,0,0,56,56,0,0,56,56,56,0,56,0,Sun Oct 27 15:53:08 2019,The main experiment item,yes,SternbergTask.osexp,/Users/Zenny/Desktop,no,mono,no,18,no,white,no,no,768,legacy,44,11,/Users/Zenny/Desktop/quickrun.csv,legacy,8 3,Kafkaesque Koffka,3.2.8,2,y,0,left,right,right,left,NA,567,29261,1749,567,NA,2,legacy,2,1024,2,48000,-16,experiment,999,odd,3,385489,382076,383189,2593,109909,383221,363121,2678,108159,387520,388089,384253,31949,387520,NA,SternbergTask,52,40914,57,yes,1024
91.37931034,91.37931034,719.3965517,719.3965517,black,experiment,legacy,legacy,legacy,0,uniform,1,undefined,1,right,57,57,57,0,0,57,57,0,0,57,57,57,0,57,0,Sun Oct 27 15:53:08 2019,The main experiment item,yes,SternbergTask.osexp,/Users/Zenny/Desktop,no,mono,no,18,no,white,no,no,768,legacy,45,11,/Users/Zenny/Desktop/quickrun.csv,legacy,5 9 2 3,Kafkaesque Koffka,3.2.8,0,n,0,right,right,right,right,NA,811,29261,1749,811,NA,2,legacy,4,1024,2,48000,-16,experiment,999,odd,8,391586,388130,389287,2593,109909,389322,363121,2678,108159,393618,394431,390354,31949,393618,NA,SternbergTask,53,41725,58,yes,1024
91.52542373,91.52542373,720.4067797,720.4067797,black,experiment,legacy,legacy,legacy,0,uniform,1,undefined,1,left,58,58,58,0,0,58,58,0,0,58,58,58,0,58,0,Sun Oct 27 15:53:08 2019,The main experiment item,yes,SternbergTask.osexp,/Users/Zenny/Desktop,no,mono,no,18,no,white,no,no,768,legacy,46,11,/Users/Zenny/Desktop/quickrun.csv,legacy,4 6 5 8,Kafkaesque Koffka,3.2.8,1,y,0,left,right,right,left,NA,779,29261,1749,779,NA,2,legacy,4,1024,2,48000,-16,experiment,999,odd,4,397873,394465,395578,2593,109909,395609,363121,2678,108159,399905,400686,396641,31949,399905,NA,SternbergTask,54,42504,59,yes,1024
91.66666667,91.66666667,726.1833333,726.1833333,black,experiment,legacy,legacy,legacy,0,uniform,1,undefined,1,right,59,59,59,0,0,59,59,0,0,59,59,59,0,59,0,Sun Oct 27 15:53:08 2019,The main experiment item,yes,SternbergTask.osexp,/Users/Zenny/Desktop,no,mono,no,18,no,white,no,no,768,legacy,47,11,/Users/Zenny/Desktop/quickrun.csv,legacy,2 6 4 3 9,Kafkaesque Koffka,3.2.8,0,n,0,right,right,right,right,NA,1067,29261,1749,1067,NA,2,legacy,5,1024,2,48000,-16,experiment,999,odd,1,404170,400722,401872,2593,109909,401904,363121,2678,108159,406206,407275,402936,31949,406206,NA,SternbergTask,55,43571,60,yes,1024
91.80327869,91.80327869,726.4098361,726.4098361,black,experiment,legacy,legacy,legacy,0,uniform,1,undefined,1,left,60,60,60,0,0,60,60,0,0,60,60,60,0,60,0,Sun Oct 27 15:53:08 2019,The main experiment item,yes,SternbergTask.osexp,/Users/Zenny/Desktop,no,mono,no,18,no,white,no,no,768,legacy,48,11,/Users/Zenny/Desktop/quickrun.csv,legacy,3 2 1 4 7,Kafkaesque Koffka,3.2.8,2,y,0,left,right,right,left,NA,740,29261,1749,740,NA,2,legacy,5,1024,2,48000,-16,experiment,999,odd,2,410748,407312,408446,2593,109909,408479,363121,2678,108159,412780,413522,409516,31949,412780,NA,SternbergTask,56,44311,61,yes,1024
91.93548387,91.93548387,728.5483871,728.5483871,black,experiment,legacy,legacy,legacy,0,uniform,1,undefined,1,left,61,61,61,0,0,61,61,0,0,61,61,61,0,61,0,Sun Oct 27 15:53:08 2019,The main experiment item,yes,SternbergTask.osexp,/Users/Zenny/Desktop,no,mono,no,18,no,white,no,no,768,legacy,49,11,/Users/Zenny/Desktop/quickrun.csv,legacy,8 1 6,Kafkaesque Koffka,3.2.8,3,y,0,left,right,right,left,NA,859,29261,1749,859,NA,2,legacy,3,1024,2,48000,-16,experiment,999,odd,6,416972,413564,414674,2593,109909,414707,363121,2678,108159,419003,419865,415738,31949,419003,NA,SternbergTask,57,45170,62,yes,1024
92.06349206,92.06349206,725.3015873,725.3015873,black,experiment,legacy,legacy,legacy,0,uniform,1,undefined,1,left,62,62,62,0,0,62,62,0,0,62,62,62,0,62,0,Sun Oct 27 15:53:08 2019,The main experiment item,yes,SternbergTask.osexp,/Users/Zenny/Desktop,no,mono,no,18,no,white,no,no,768,legacy,50,11,/Users/Zenny/Desktop/quickrun.csv,legacy,9 8 4,Kafkaesque Koffka,3.2.8,1,y,0,left,right,right,left,NA,524,29261,1749,524,NA,2,legacy,3,1024,2,48000,-16,experiment,999,odd,9,423354,419907,421056,2593,109909,421088,363121,2678,108159,425389,425916,422119,31949,425388,NA,SternbergTask,58,45694,63,yes,1024
92.1875,92.1875,722.671875,722.671875,black,experiment,legacy,legacy,legacy,0,uniform,1,undefined,1,left,63,63,63,0,0,63,63,0,0,63,63,63,0,63,0,Sun Oct 27 15:53:08 2019,The main experiment item,yes,SternbergTask.osexp,/Users/Zenny/Desktop,no,mono,no,18,no,white,no,no,768,legacy,51,11,/Users/Zenny/Desktop/quickrun.csv,legacy,9 1 7 2,Kafkaesque Koffka,3.2.8,2,y,0,left,right,right,left,NA,557,29261,1749,557,NA,2,legacy,4,1024,2,48000,-16,experiment,999,odd,1,429360,425951,427061,2593,109909,427092,363121,2678,108159,431392,431952,428126,31949,431392,NA,SternbergTask,59,46251,64,yes,1024
92.30769231,92.30769231,719.6769231,719.6769231,black,experiment,legacy,legacy,legacy,0,uniform,1,undefined,1,left,64,64,64,0,0,64,64,0,0,64,64,64,0,64,0,Sun Oct 27 15:53:08 2019,The main experiment item,yes,SternbergTask.osexp,/Users/Zenny/Desktop,no,mono,no,18,no,white,no,no,768,legacy,52,11,/Users/Zenny/Desktop/quickrun.csv,legacy,7,Kafkaesque Koffka,3.2.8,1,y,0,left,right,right,left,NA,528,29261,1749,528,NA,2,legacy,1,1024,2,48000,-16,experiment,999,odd,7,435463,431988,433122,2593,109909,433155,363121,2678,108159,437496,438027,434231,31949,437496,NA,SternbergTask,60,46779,65,yes,1024
92.42424242,92.42424242,726.1969697,726.1969697,black,experiment,legacy,legacy,legacy,0,uniform,1,undefined,1,right,65,65,65,0,0,65,65,0,0,65,65,65,0,65,0,Sun Oct 27 15:53:08 2019,The main experiment item,yes,SternbergTask.osexp,/Users/Zenny/Desktop,no,mono,no,18,no,white,no,no,768,legacy,53,11,/Users/Zenny/Desktop/quickrun.csv,legacy,9 8 2 7 4,Kafkaesque Koffka,3.2.8,0,n,0,right,right,right,right,NA,1150,29261,1749,1150,NA,2,legacy,5,1024,2,48000,-16,experiment,999,odd,5,441479,438066,439180,2593,109909,439213,363121,2678,108159,443512,444665,440244,31949,443512,NA,SternbergTask,61,47929,66,yes,1024
92.53731343,92.53731343,724.7761194,724.7761194,black,experiment,legacy,legacy,legacy,0,uniform,1,undefined,1,left,66,66,66,0,0,66,66,0,0,66,66,66,0,66,0,Sun Oct 27 15:53:08 2019,The main experiment item,yes,SternbergTask.osexp,/Users/Zenny/Desktop,no,mono,no,18,no,white,no,no,768,legacy,54,11,/Users/Zenny/Desktop/quickrun.csv,legacy,5 7 8 2 3 8,Kafkaesque Koffka,3.2.8,5,y,0,left,right,right,left,NA,631,29261,1749,631,NA,2,legacy,6,1024,2,48000,-16,experiment,999,odd,3,448154,444708,445857,2593,109909,445889,363121,2678,108159,450228,450861,446921,31949,450228,NA,SternbergTask,62,48560,67,yes,1024
92.64705882,92.64705882,722.9411765,722.9411765,black,experiment,legacy,legacy,legacy,0,uniform,1,undefined,1,left,67,67,67,0,0,67,67,0,0,67,67,67,0,67,0,Sun Oct 27 15:53:08 2019,The main experiment item,yes,SternbergTask.osexp,/Users/Zenny/Desktop,no,mono,no,18,no,white,no,no,768,legacy,55,11,/Users/Zenny/Desktop/quickrun.csv,legacy,2 8 5 1,Kafkaesque Koffka,3.2.8,4,y,0,left,right,right,left,NA,600,29261,1749,600,NA,2,legacy,4,1024,2,48000,-16,experiment,999,odd,1,454304,450896,452007,2593,109909,452039,363121,2678,108159,456336,456938,453071,31949,456336,NA,SternbergTask,63,49160,68,yes,1024
92.75362319,92.75362319,720.2173913,720.2173913,black,experiment,legacy,legacy,legacy,0,uniform,1,undefined,1,left,68,68,68,0,0,68,68,0,0,68,68,68,0,68,0,Sun Oct 27 15:53:08 2019,The main experiment item,yes,SternbergTask.osexp,/Users/Zenny/Desktop,no,mono,no,18,no,white,no,no,768,legacy,56,11,/Users/Zenny/Desktop/quickrun.csv,legacy,9 5 3 8 4,Kafkaesque Koffka,3.2.8,1,y,0,left,right,right,left,NA,535,29261,1749,535,NA,2,legacy,5,1024,2,48000,-16,experiment,999,odd,9,460401,456977,458101,2593,109909,458135,363121,2678,108159,462433,462970,459169,31949,462433,NA,SternbergTask,64,49695,69,yes,1024
92.85714286,92.85714286,719.2428571,719.2428571,black,experiment,legacy,legacy,legacy,0,uniform,1,undefined,1,left,69,69,69,0,0,69,69,0,0,69,69,69,0,69,0,Sun Oct 27 15:53:08 2019,The main experiment item,yes,SternbergTask.osexp,/Users/Zenny/Desktop,no,mono,no,18,no,white,no,no,768,legacy,57,11,/Users/Zenny/Desktop/quickrun.csv,legacy,4 9 7 8 5 3,Kafkaesque Koffka,3.2.8,4,y,0,left,right,right,left,NA,652,29261,1749,652,NA,2,legacy,6,1024,2,48000,-16,experiment,999,odd,8,466470,463005,464118,2593,109909,464150,363121,2678,108159,468503,469158,465238,31949,468503,NA,SternbergTask,65,50347,70,yes,1024
92.95774648,92.95774648,716.4084507,716.4084507,black,experiment,legacy,legacy,legacy,0,uniform,1,undefined,1,left,70,70,70,0,0,70,70,0,0,70,70,70,0,70,0,Sun Oct 27 15:53:08 2019,The main experiment item,yes,SternbergTask.osexp,/Users/Zenny/Desktop,no,mono,no,18,no,white,no,no,768,legacy,58,11,/Users/Zenny/Desktop/quickrun.csv,legacy,5 2 9 6 1 7,Kafkaesque Koffka,3.2.8,3,y,0,left,right,right,left,NA,518,29261,1749,518,NA,2,legacy,6,1024,2,48000,-16,experiment,999,odd,9,472676,469225,470377,2593,109909,470410,363121,2678,108159,474708,475229,471442,31949,474708,NA,SternbergTask,66,50865,71,yes,1024
93.05555556,93.05555556,717.1666667,717.1666667,black,experiment,legacy,legacy,legacy,0,uniform,1,undefined,1,right,71,71,71,0,0,71,71,0,0,71,71,71,0,71,0,Sun Oct 27 15:53:08 2019,The main experiment item,yes,SternbergTask.osexp,/Users/Zenny/Desktop,no,mono,no,18,no,white,no,no,768,legacy,59,11,/Users/Zenny/Desktop/quickrun.csv,legacy,8 6 3 4 7,Kafkaesque Koffka,3.2.8,0,n,0,right,right,right,right,NA,771,29261,1749,771,NA,2,legacy,5,1024,2,48000,-16,experiment,999,odd,1,478677,475264,476380,2593,109909,476411,363121,2678,108159,480709,481482,477442,31949,480709,NA,SternbergTask,67,51636,72,yes,1024
93.15068493,93.15068493,719.5068493,719.5068493,black,experiment,legacy,legacy,legacy,0,uniform,1,undefined,1,right,72,72,72,0,0,72,72,0,0,72,72,72,0,72,0,Sun Oct 27 15:53:08 2019,The main experiment item,yes,SternbergTask.osexp,/Users/Zenny/Desktop,no,mono,no,18,no,white,no,no,768,legacy,60,11,/Users/Zenny/Desktop/quickrun.csv,legacy,7 9 1 6,Kafkaesque Koffka,3.2.8,0,n,0,right,right,right,right,NA,888,29261,1749,888,NA,2,legacy,4,1024,2,48000,-16,experiment,999,odd,4,484971,481522,482672,2593,109909,482705,363121,2678,108159,487004,487894,483737,31949,487004,NA,SternbergTask,68,52524,73,yes,1024
93.24324324,93.24324324,720.4054054,720.4054054,black,experiment,legacy,legacy,legacy,0,uniform,1,undefined,1,right,73,73,73,0,0,73,73,0,0,73,73,73,0,73,0,Sun Oct 27 15:53:08 2019,The main experiment item,yes,SternbergTask.osexp,/Users/Zenny/Desktop,no,mono,no,18,no,white,no,no,768,legacy,61,11,/Users/Zenny/Desktop/quickrun.csv,legacy,4 8 1 2,Kafkaesque Koffka,3.2.8,0,n,0,right,right,right,right,NA,786,29261,1749,786,NA,2,legacy,4,1024,2,48000,-16,experiment,999,odd,7,491361,487936,489061,2593,109909,489093,363121,2678,108159,493394,494183,490126,31949,493393,NA,SternbergTask,69,53310,74,yes,1024
93.33333333,93.33333333,721.9466667,721.9466667,black,experiment,legacy,legacy,legacy,0,uniform,1,undefined,1,right,74,74,74,0,0,74,74,0,0,74,74,74,0,74,0,Sun Oct 27 15:53:08 2019,The main experiment item,yes,SternbergTask.osexp,/Users/Zenny/Desktop,no,mono,no,18,no,white,no,no,768,legacy,62,11,/Users/Zenny/Desktop/quickrun.csv,legacy,1 5 3 2 8,Kafkaesque Koffka,3.2.8,0,n,0,right,right,right,right,NA,836,29261,1749,836,NA,2,legacy,5,1024,2,48000,-16,experiment,999,odd,4,497695,494239,495397,2593,109909,495428,363121,2678,108159,499726,500565,496461,31949,499726,NA,SternbergTask,70,54146,75,yes,1024
93.42105263,93.42105263,721.7894737,721.7894737,black,experiment,legacy,legacy,legacy,0,uniform,1,undefined,1,right,75,75,75,0,0,75,75,0,0,75,75,75,0,75,0,Sun Oct 27 15:53:08 2019,The main experiment item,yes,SternbergTask.osexp,/Users/Zenny/Desktop,no,mono,no,18,no,white,no,no,768,legacy,63,11,/Users/Zenny/Desktop/quickrun.csv,legacy,2 8 7 9 5 3,Kafkaesque Koffka,3.2.8,0,n,0,right,right,right,right,NA,710,29261,1749,710,NA,2,legacy,6,1024,2,48000,-16,experiment,999,odd,6,504030,500601,501732,2593,109909,501766,363121,2678,108159,506062,506774,502798,31949,506062,NA,SternbergTask,71,54856,76,yes,1024
93.50649351,93.50649351,722.7142857,722.7142857,black,experiment,legacy,legacy,legacy,0,uniform,1,undefined,1,left,76,76,76,0,0,76,76,0,0,76,76,76,0,76,0,Sun Oct 27 15:53:08 2019,The main experiment item,yes,SternbergTask.osexp,/Users/Zenny/Desktop,no,mono,no,18,no,white,no,no,768,legacy,64,11,/Users/Zenny/Desktop/quickrun.csv,legacy,8 9 5 7 1 6,Kafkaesque Koffka,3.2.8,4,y,0,left,right,right,left,NA,793,29261,1749,793,NA,2,legacy,6,1024,2,48000,-16,experiment,999,odd,7,510232,506813,507928,2593,109909,507960,363121,2678,108159,512264,513060,508993,31949,512264,NA,SternbergTask,72,55649,77,yes,1024
93.58974359,93.58974359,723.5,723.5,black,experiment,legacy,legacy,legacy,0,uniform,1,undefined,1,right,77,77,77,0,0,77,77,0,0,77,77,77,0,77,0,Sun Oct 27 15:53:08 2019,The main experiment item,yes,SternbergTask.osexp,/Users/Zenny/Desktop,no,mono,no,18,no,white,no,no,768,legacy,65,11,/Users/Zenny/Desktop/quickrun.csv,legacy,5 7 3,Kafkaesque Koffka,3.2.8,0,n,0,right,right,right,right,NA,784,29261,1749,784,NA,2,legacy,3,1024,2,48000,-16,experiment,999,odd,9,516545,513096,514235,2593,109909,514276,363121,2678,108159,518578,519365,515310,31949,518578,NA,SternbergTask,73,56433,78,yes,1024
93.67088608,93.67088608,723.6329114,723.6329114,black,experiment,legacy,legacy,legacy,0,uniform,1,undefined,1,left,78,78,78,0,0,78,78,0,0,78,78,78,0,78,0,Sun Oct 27 15:53:08 2019,The main experiment item,yes,SternbergTask.osexp,/Users/Zenny/Desktop,no,mono,no,18,no,white,no,no,768,legacy,66,11,/Users/Zenny/Desktop/quickrun.csv,legacy,4,Kafkaesque Koffka,3.2.8,1,y,0,left,right,right,left,NA,734,29261,1749,734,NA,2,legacy,1,1024,2,48000,-16,experiment,999,odd,4,522806,519399,520510,2593,109909,520542,363121,2678,108159,524837,525574,521574,31949,524837,NA,SternbergTask,74,57167,79,yes,1024
93.75,93.75,724.9375,724.9375,black,experiment,legacy,legacy,legacy,0,uniform,1,undefined,1,left,79,79,79,0,0,79,79,0,0,79,79,79,0,79,0,Sun Oct 27 15:53:08 2019,The main experiment item,yes,SternbergTask.osexp,/Users/Zenny/Desktop,no,mono,no,18,no,white,no,no,768,legacy,67,11,/Users/Zenny/Desktop/quickrun.csv,legacy,8 5 3 7 4 6,Kafkaesque Koffka,3.2.8,6,y,0,left,right,right,left,NA,828,29261,1749,828,NA,2,legacy,6,1024,2,48000,-16,experiment,999,odd,6,529068,525609,526753,2593,109909,526805,363121,2678,108159,531101,531932,527837,31949,531101,NA,SternbergTask,75,57995,80,yes,1024
93.82716049,93.82716049,723.654321,723.654321,black,experiment,legacy,legacy,legacy,0,uniform,1,undefined,1,left,80,80,80,0,0,80,80,0,0,80,80,80,0,80,0,Sun Oct 27 15:53:08 2019,The main experiment item,yes,SternbergTask.osexp,/Users/Zenny/Desktop,no,mono,no,18,no,white,no,no,768,legacy,68,11,/Users/Zenny/Desktop/quickrun.csv,legacy,8 5 1 3 9,Kafkaesque Koffka,3.2.8,4,y,0,left,right,right,left,NA,621,29261,1749,621,NA,2,legacy,5,1024,2,48000,-16,experiment,999,odd,3,535377,531968,533078,2593,109909,533112,363121,2678,108159,537409,538032,534144,31949,537409,NA,SternbergTask,76,58616,81,yes,1024
93.90243902,93.90243902,725.9756098,725.9756098,black,experiment,legacy,legacy,legacy,0,uniform,1,undefined,1,right,81,81,81,0,0,81,81,0,0,81,81,81,0,81,0,Sun Oct 27 15:53:08 2019,The main experiment item,yes,SternbergTask.osexp,/Users/Zenny/Desktop,no,mono,no,18,no,white,no,no,768,legacy,69,11,/Users/Zenny/Desktop/quickrun.csv,legacy,5 3 8 7 2 4,Kafkaesque Koffka,3.2.8,0,n,0,right,right,right,right,NA,914,29261,1749,914,NA,2,legacy,6,1024,2,48000,-16,experiment,999,odd,9,541531,538070,539232,2593,109909,539266,363121,2678,108159,543564,544481,540298,31949,543563,NA,SternbergTask,77,59530,82,yes,1024
93.97590361,93.97590361,726.7710843,726.7710843,black,experiment,legacy,legacy,legacy,0,uniform,1,undefined,1,right,82,82,82,0,0,82,82,0,0,82,82,82,0,82,0,Sun Oct 27 15:53:08 2019,The main experiment item,yes,SternbergTask.osexp,/Users/Zenny/Desktop,no,mono,no,18,no,white,no,no,768,legacy,70,11,/Users/Zenny/Desktop/quickrun.csv,legacy,4 2 7 6 1 3,Kafkaesque Koffka,3.2.8,0,n,0,right,right,right,right,NA,792,29261,1749,792,NA,2,legacy,6,1024,2,48000,-16,experiment,999,odd,8,547963,544515,545664,2593,109909,545698,363121,2678,108159,549997,550792,546731,31949,549997,NA,SternbergTask,78,60322,83,yes,1024
94.04761905,94.04761905,723.5952381,723.5952381,black,experiment,legacy,legacy,legacy,0,uniform,1,undefined,1,left,83,83,83,0,0,83,83,0,0,83,83,83,0,83,0,Sun Oct 27 15:53:08 2019,The main experiment item,yes,SternbergTask.osexp,/Users/Zenny/Desktop,no,mono,no,18,no,white,no,no,768,legacy,71,11,/Users/Zenny/Desktop/quickrun.csv,legacy,9 3 1 2 5,Kafkaesque Koffka,3.2.8,4,y,0,left,right,right,left,NA,460,29261,1749,460,NA,2,legacy,5,1024,2,48000,-16,experiment,999,odd,2,554239,550829,551940,2593,109909,551971,363121,2678,108159,556272,556735,553003,31949,556272,NA,SternbergTask,79,60782,84,yes,1024
94.11764706,94.11764706,723.1411765,723.1411765,black,experiment,legacy,legacy,legacy,0,uniform,1,undefined,1,right,84,84,84,0,0,84,84,0,0,84,84,84,0,84,0,Sun Oct 27 15:53:08 2019,The main experiment item,yes,SternbergTask.osexp,/Users/Zenny/Desktop,no,mono,no,18,no,white,no,no,768,legacy,72,11,/Users/Zenny/Desktop/quickrun.csv,legacy,6 2 9 3 8 4,Kafkaesque Koffka,3.2.8,0,n,0,right,right,right,right,NA,685,29261,1749,685,NA,2,legacy,6,1024,2,48000,-16,experiment,999,odd,1,560228,556777,557905,2593,109909,557937,363121,2678,108159,562263,562950,558969,31949,562263,NA,SternbergTask,80,61467,85,yes,1024
94.18604651,94.18604651,722.3372093,722.3372093,black,experiment,legacy,legacy,legacy,0,uniform,1,undefined,1,left,85,85,85,0,0,85,85,0,0,85,85,85,0,85,0,Sun Oct 27 15:53:08 2019,The main experiment item,yes,SternbergTask.osexp,/Users/Zenny/Desktop,no,mono,no,18,no,white,no,no,768,legacy,73,11,/Users/Zenny/Desktop/quickrun.csv,legacy,2 4 8 5 1 3,Kafkaesque Koffka,3.2.8,1,y,0,left,right,right,left,NA,654,29261,1749,654,NA,2,legacy,6,1024,2,48000,-16,experiment,999,odd,2,566398,562985,564098,2593,109909,564131,363121,2678,108159,568431,569087,565165,31949,568431,NA,SternbergTask,81,62121,86,yes,1024
93.10344828,93.10344828,723.9885057,723.9885057,black,experiment,legacy,legacy,legacy,0,uniform,0,undefined,0,right,86,86,86,0,0,86,86,0,0,86,86,86,0,86,0,Sun Oct 27 15:53:08 2019,The main experiment item,yes,SternbergTask.osexp,/Users/Zenny/Desktop,no,mono,no,18,no,white,no,no,768,legacy,74,11,/Users/Zenny/Desktop/quickrun.csv,legacy,1 7 8 3 9,Kafkaesque Koffka,3.2.8,0,n,0,left,right,right,left,NA,866,29261,1749,866,NA,2,legacy,5,1024,2,48000,-16,experiment,999,odd,2,572577,569123,570276,2593,109909,570309,363121,2678,108159,574609,575479,571344,31949,574609,NA,SternbergTask,81,62987,87,yes,1024
93.18181818,93.18181818,726.125,726.125,black,experiment,legacy,legacy,legacy,0,uniform,1,undefined,1,right,87,87,87,0,0,87,87,0,0,87,87,87,0,87,0,Sun Oct 27 15:53:08 2019,The main experiment item,yes,SternbergTask.osexp,/Users/Zenny/Desktop,no,mono,no,18,no,white,no,no,768,legacy,75,11,/Users/Zenny/Desktop/quickrun.csv,legacy,1 4 9 3,Kafkaesque Koffka,3.2.8,0,n,0,right,right,right,right,NA,912,29261,1749,912,NA,2,legacy,4,1024,2,48000,-16,experiment,999,odd,5,578924,569123,576626,2593,109909,576658,575514,2678,108159,580956,581870,577690,31949,580956,NA,SternbergTask,82,63899,88,yes,1024
93.25842697,93.25842697,723.3483146,723.3483146,black,experiment,legacy,legacy,legacy,0,uniform,1,undefined,1,left,88,88,88,0,0,88,88,0,0,88,88,88,0,88,0,Sun Oct 27 15:53:08 2019,The main experiment item,yes,SternbergTask.osexp,/Users/Zenny/Desktop,no,mono,no,18,no,white,no,no,768,legacy,76,11,/Users/Zenny/Desktop/quickrun.csv,legacy,6 2,Kafkaesque Koffka,3.2.8,1,y,0,left,right,right,left,NA,479,29261,1749,479,NA,2,legacy,2,1024,2,48000,-16,experiment,999,odd,6,585363,581907,583062,2593,109909,583095,575514,2678,108159,587395,587877,584128,31949,587395,NA,SternbergTask,83,64378,89,yes,1024
93.33333333,93.33333333,723.4777778,723.4777778,black,experiment,legacy,legacy,legacy,0,uniform,1,undefined,1,right,89,89,89,0,0,89,89,0,0,89,89,89,0,89,0,Sun Oct 27 15:53:08 2019,The main experiment item,yes,SternbergTask.osexp,/Users/Zenny/Desktop,no,mono,no,18,no,white,no,no,768,legacy,77,11,/Users/Zenny/Desktop/quickrun.csv,legacy,1 4 3 6 5,Kafkaesque Koffka,3.2.8,0,n,0,right,right,right,right,NA,735,29261,1749,735,NA,2,legacy,5,1024,2,48000,-16,experiment,999,odd,8,591319,587911,589022,2593,109909,589054,575514,2678,108159,593350,594088,590087,31949,593350,NA,SternbergTask,84,65113,90,yes,1024
93.40659341,93.40659341,723.6813187,723.6813187,black,experiment,legacy,legacy,legacy,0,uniform,1,undefined,1,left,90,90,90,0,0,90,90,0,0,90,90,90,0,90,0,Sun Oct 27 15:53:08 2019,The main experiment item,yes,SternbergTask.osexp,/Users/Zenny/Desktop,no,mono,no,18,no,white,no,no,768,legacy,78,11,/Users/Zenny/Desktop/quickrun.csv,legacy,4 3 2 5 8,Kafkaesque Koffka,3.2.8,2,y,0,left,right,right,left,NA,742,29261,1749,742,NA,2,legacy,5,1024,2,48000,-16,experiment,999,odd,3,597590,594129,595292,2593,109909,595325,575514,2678,108159,599622,600368,596357,31949,599621,NA,SternbergTask,85,65855,91,yes,1024
93.47826087,93.47826087,723.4347826,723.4347826,black,experiment,legacy,legacy,legacy,0,uniform,1,undefined,1,right,91,91,91,0,0,91,91,0,0,91,91,91,0,91,0,Sun Oct 27 15:53:08 2019,The main experiment item,yes,SternbergTask.osexp,/Users/Zenny/Desktop,no,mono,no,18,no,white,no,no,768,legacy,79,11,/Users/Zenny/Desktop/quickrun.csv,legacy,1 8 7,Kafkaesque Koffka,3.2.8,0,n,0,right,right,right,right,NA,701,29261,1749,701,NA,2,legacy,3,1024,2,48000,-16,experiment,999,odd,4,603811,600402,601516,2593,109909,601548,575514,2678,108159,605842,606546,602580,31949,605842,NA,SternbergTask,86,66556,92,yes,1024
93.5483871,93.5483871,726.1935484,726.1935484,black,experiment,legacy,legacy,legacy,0,uniform,1,undefined,1,right,92,92,92,0,0,92,92,0,0,92,92,92,0,92,0,Sun Oct 27 15:53:08 2019,The main experiment item,yes,SternbergTask.osexp,/Users/Zenny/Desktop,no,mono,no,18,no,white,no,no,768,legacy,80,11,/Users/Zenny/Desktop/quickrun.csv,legacy,2 5 1 4,Kafkaesque Koffka,3.2.8,0,n,0,right,right,right,right,NA,980,29261,1749,980,NA,2,legacy,4,1024,2,48000,-16,experiment,999,odd,6,610038,606583,607739,2593,109909,607772,575514,2678,108159,612070,613054,608803,31949,612070,NA,SternbergTask,87,67536,93,yes,1024
93.61702128,93.61702128,730.712766,730.712766,black,experiment,legacy,legacy,legacy,0,uniform,1,undefined,1,left,93,93,93,0,0,93,93,0,0,93,93,93,0,93,0,Sun Oct 27 15:53:08 2019,The main experiment item,yes,SternbergTask.osexp,/Users/Zenny/Desktop,no,mono,no,18,no,white,no,no,768,legacy,81,11,/Users/Zenny/Desktop/quickrun.csv,legacy,6 7 8 5,Kafkaesque Koffka,3.2.8,3,y,0,left,right,right,left,NA,1151,29261,1749,1151,NA,2,legacy,4,1024,2,48000,-16,experiment,999,odd,8,616548,613091,614252,2593,109909,614284,575514,2678,108159,618582,619736,615316,31949,618581,NA,SternbergTask,88,68687,94,yes,1024
93.68421053,93.68421053,729.3578947,729.3578947,black,experiment,legacy,legacy,legacy,0,uniform,1,undefined,1,left,94,94,94,0,0,94,94,0,0,94,94,94,0,94,0,Sun Oct 27 15:53:08 2019,The main experiment item,yes,SternbergTask.osexp,/Users/Zenny/Desktop,no,mono,no,18,no,white,no,no,768,legacy,82,11,/Users/Zenny/Desktop/quickrun.csv,legacy,6 7 9 3 1 2,Kafkaesque Koffka,3.2.8,1,y,0,left,right,right,left,NA,602,29261,1749,602,NA,2,legacy,6,1024,2,48000,-16,experiment,999,odd,6,623231,619778,620932,2593,109909,620966,575514,2678,108159,625264,625868,621998,31949,625263,NA,SternbergTask,89,69289,95,yes,1024
93.75,93.75,726.6770833,726.6770833,black,experiment,legacy,legacy,legacy,0,uniform,1,undefined,1,left,95,95,95,0,0,95,95,0,0,95,95,95,0,95,0,Sun Oct 27 15:53:08 2019,The main experiment item,yes,SternbergTask.osexp,/Users/Zenny/Desktop,no,mono,no,18,no,white,no,no,768,legacy,83,11,/Users/Zenny/Desktop/quickrun.csv,legacy,2 3 7 4,Kafkaesque Koffka,3.2.8,1,y,0,left,right,right,left,NA,472,29261,1749,472,NA,2,legacy,4,1024,2,48000,-16,experiment,999,odd,2,629312,625903,627014,2593,109909,627046,575514,2678,108159,631344,631819,628078,31949,631344,NA,SternbergTask,90,69761,96,yes,1024
93.81443299,93.81443299,728.4020619,728.4020619,black,experiment,legacy,legacy,legacy,0,uniform,1,undefined,1,right,96,96,96,0,0,96,96,0,0,96,96,96,0,96,0,Sun Oct 27 15:53:08 2019,The main experiment item,yes,SternbergTask.osexp,/Users/Zenny/Desktop,no,mono,no,18,no,white,no,no,768,legacy,84,11,/Users/Zenny/Desktop/quickrun.csv,legacy,1 7 5 2,Kafkaesque Koffka,3.2.8,0,n,0,right,right,right,right,NA,894,29261,1749,894,NA,2,legacy,4,1024,2,48000,-16,experiment,999,odd,3,635312,631856,633011,2593,109909,633045,575514,2678,108159,637344,638241,634077,31949,637343,NA,SternbergTask,91,70655,97,yes,1024
93.87755102,93.87755102,726.9897959,726.9897959,black,experiment,legacy,legacy,legacy,0,uniform,1,undefined,1,left,97,97,97,0,0,97,97,0,0,97,97,97,0,97,0,Sun Oct 27 15:53:08 2019,The main experiment item,yes,SternbergTask.osexp,/Users/Zenny/Desktop,no,mono,no,18,no,white,no,no,768,legacy,85,11,/Users/Zenny/Desktop/quickrun.csv,legacy,3 4,Kafkaesque Koffka,3.2.8,1,y,0,left,right,right,left,NA,590,29261,1749,590,NA,2,legacy,2,1024,2,48000,-16,experiment,999,odd,3,641701,638275,639404,2593,109909,639437,575514,2678,108159,643733,644326,640469,31949,643733,NA,SternbergTask,92,71245,98,yes,1024
93.93939394,93.93939394,724.4949495,724.4949495,black,experiment,legacy,legacy,legacy,0,uniform,1,undefined,1,left,98,98,98,0,0,98,98,0,0,98,98,98,0,98,0,Sun Oct 27 15:53:08 2019,The main experiment item,yes,SternbergTask.osexp,/Users/Zenny/Desktop,no,mono,no,18,no,white,no,no,768,legacy,86,11,/Users/Zenny/Desktop/quickrun.csv,legacy,7 1 8 5 6 2,Kafkaesque Koffka,3.2.8,2,y,0,left,right,right,left,NA,480,29261,1749,480,NA,2,legacy,6,1024,2,48000,-16,experiment,999,odd,1,647779,644370,645482,2593,109909,645514,575514,2678,108159,649810,650293,646545,31949,649810,NA,SternbergTask,93,71725,99,yes,1024
94,94,723.43,723.43,black,experiment,legacy,legacy,legacy,0,uniform,1,undefined,1,left,99,99,99,0,0,99,99,0,0,99,99,99,0,99,0,Sun Oct 27 15:53:08 2019,The main experiment item,yes,SternbergTask.osexp,/Users/Zenny/Desktop,no,mono,no,18,no,white,no,no,768,legacy,87,11,/Users/Zenny/Desktop/quickrun.csv,legacy,7 6,Kafkaesque Koffka,3.2.8,2,y,0,left,right,right,left,NA,618,29261,1749,618,NA,2,legacy,2,1024,2,48000,-16,experiment,999,odd,6,653788,650336,651485,2593,109909,651521,575514,2678,108159,655820,656441,652554,31949,655820,NA,SternbergTask,94,72343,100,yes,1024
94.05940594,94.05940594,724.970297,724.970297,black,experiment,legacy,legacy,legacy,0,uniform,1,undefined,1,right,100,100,100,0,0,100,100,0,0,100,100,100,0,100,0,Sun Oct 27 15:53:08 2019,The main experiment item,yes,SternbergTask.osexp,/Users/Zenny/Desktop,no,mono,no,18,no,white,no,no,768,legacy,88,11,/Users/Zenny/Desktop/quickrun.csv,legacy,2 8 9 4 1,Kafkaesque Koffka,3.2.8,0,n,0,right,right,right,right,NA,879,29261,1749,879,NA,2,legacy,5,1024,2,48000,-16,experiment,999,odd,5,659885,656477,657589,2593,109909,657620,575514,2678,108159,661917,662799,658652,31949,661917,NA,SternbergTask,95,73222,101,yes,1024
94.11764706,94.11764706,726.0588235,726.0588235,black,experiment,legacy,legacy,legacy,0,uniform,1,undefined,1,right,101,101,101,0,0,101,101,0,0,101,101,101,0,101,0,Sun Oct 27 15:53:08 2019,The main experiment item,yes,SternbergTask.osexp,/Users/Zenny/Desktop,no,mono,no,18,no,white,no,no,768,legacy,89,11,/Users/Zenny/Desktop/quickrun.csv,legacy,7 6 4 8 1 2,Kafkaesque Koffka,3.2.8,0,n,0,right,right,right,right,NA,836,29261,1749,836,NA,2,legacy,6,1024,2,48000,-16,experiment,999,odd,9,666262,662838,663968,2593,109909,664000,575514,2678,108159,668294,669134,665030,31949,668293,NA,SternbergTask,96,74058,102,yes,1024
94.17475728,94.17475728,725.2427184,725.2427184,black,experiment,legacy,legacy,legacy,0,uniform,1,undefined,1,left,102,102,102,0,0,102,102,0,0,102,102,102,0,102,0,Sun Oct 27 15:53:08 2019,The main experiment item,yes,SternbergTask.osexp,/Users/Zenny/Desktop,no,mono,no,18,no,white,no,no,768,legacy,90,11,/Users/Zenny/Desktop/quickrun.csv,legacy,9 5 8 1,Kafkaesque Koffka,3.2.8,2,y,0,left,right,right,left,NA,642,29261,1749,642,NA,2,legacy,4,1024,2,48000,-16,experiment,999,odd,5,672581,669171,670286,2593,109909,670318,575514,2678,108159,674613,675259,671350,31949,674613,NA,SternbergTask,97,74700,103,yes,1024
94.23076923,94.23076923,725.4134615,725.4134615,black,experiment,legacy,legacy,legacy,0,uniform,1,undefined,1,right,103,103,103,0,0,103,103,0,0,103,103,103,0,103,0,Sun Oct 27 15:53:08 2019,The main experiment item,yes,SternbergTask.osexp,/Users/Zenny/Desktop,no,mono,no,18,no,white,no,no,768,legacy,91,11,/Users/Zenny/Desktop/quickrun.csv,legacy,1 4 9 2 5,Kafkaesque Koffka,3.2.8,0,n,0,right,right,right,right,NA,743,29261,1749,743,NA,2,legacy,5,1024,2,48000,-16,experiment,999,odd,7,678750,675297,676452,2593,109909,676485,575514,2678,108159,680784,681531,677517,31949,680783,NA,SternbergTask,98,75443,104,yes,1024
94.28571429,94.28571429,724.9047619,724.9047619,black,experiment,legacy,legacy,legacy,0,uniform,1,undefined,1,right,104,104,104,0,0,104,104,0,0,104,104,104,0,104,0,Sun Oct 27 15:53:08 2019,The main experiment item,yes,SternbergTask.osexp,/Users/Zenny/Desktop,no,mono,no,18,no,white,no,no,768,legacy,92,11,/Users/Zenny/Desktop/quickrun.csv,legacy,1 3 2 6 9,Kafkaesque Koffka,3.2.8,0,n,0,right,right,right,right,NA,672,29261,1749,672,NA,2,legacy,5,1024,2,48000,-16,experiment,999,odd,5,684978,681567,682681,2593,109909,682713,575514,2678,108159,687008,687683,683745,31949,687008,NA,SternbergTask,99,76115,105,yes,1024
94.33962264,94.33962264,722.3490566,722.3490566,black,experiment,legacy,legacy,legacy,0,uniform,1,undefined,1,left,105,105,105,0,0,105,105,0,0,105,105,105,0,105,0,Sun Oct 27 15:53:08 2019,The main experiment item,yes,SternbergTask.osexp,/Users/Zenny/Desktop,no,mono,no,18,no,white,no,no,768,legacy,93,11,/Users/Zenny/Desktop/quickrun.csv,legacy,6 9 3 1,Kafkaesque Koffka,3.2.8,4,y,0,left,right,right,left,NA,454,29261,1749,454,NA,2,legacy,4,1024,2,48000,-16,experiment,999,odd,1,691229,687722,688875,2593,109909,688909,575514,2678,108159,693261,693718,689941,31949,693261,NA,SternbergTask,100,76569,106,yes,1024
94.39252336,94.39252336,722.0934579,722.0934579,black,experiment,legacy,legacy,legacy,0,uniform,1,undefined,1,right,106,106,106,0,0,106,106,0,0,106,106,106,0,106,0,Sun Oct 27 15:53:08 2019,The main experiment item,yes,SternbergTask.osexp,/Users/Zenny/Desktop,no,mono,no,18,no,white,no,no,768,legacy,94,11,/Users/Zenny/Desktop/quickrun.csv,legacy,6 8 4,Kafkaesque Koffka,3.2.8,0,n,0,right,right,right,right,NA,695,29261,1749,695,NA,2,legacy,3,1024,2,48000,-16,experiment,999,odd,1,697165,693752,694865,2593,109909,694898,575514,2678,108159,699231,699929,695930,31949,699231,NA,SternbergTask,101,77264,107,yes,1024
94.44444444,94.44444444,726.6851852,726.6851852,black,experiment,legacy,legacy,legacy,0,uniform,1,undefined,1,right,107,107,107,0,0,107,107,0,0,107,107,107,0,107,0,Sun Oct 27 15:53:08 2019,The main experiment item,yes,SternbergTask.osexp,/Users/Zenny/Desktop,no,mono,no,18,no,white,no,no,768,legacy,95,11,/Users/Zenny/Desktop/quickrun.csv,legacy,3 4 9 6 7 8,Kafkaesque Koffka,3.2.8,0,n,0,right,right,right,right,NA,1218,29261,1749,1218,NA,2,legacy,6,1024,2,48000,-16,experiment,999,odd,2,703465,699968,701118,2593,109909,701155,575514,2678,108159,705498,706719,702232,31949,705497,NA,SternbergTask,102,78482,108,yes,1024
94.49541284,94.49541284,727.9724771,727.9724771,black,experiment,legacy,legacy,legacy,0,uniform,1,undefined,1,right,108,108,108,0,0,108,108,0,0,108,108,108,0,108,0,Sun Oct 27 15:53:08 2019,The main experiment item,yes,SternbergTask.osexp,/Users/Zenny/Desktop,no,mono,no,18,no,white,no,no,768,legacy,96,11,/Users/Zenny/Desktop/quickrun.csv,legacy,9 5 3 2 8 6,Kafkaesque Koffka,3.2.8,0,n,0,right,right,right,right,NA,867,29261,1749,867,NA,2,legacy,6,1024,2,48000,-16,experiment,999,odd,7,710226,706759,707915,2593,109909,707948,575514,2678,108159,712258,713127,708979,31949,712257,NA,SternbergTask,103,79349,109,yes,1024
94.54545455,94.54545455,727,727,black,experiment,legacy,legacy,legacy,0,uniform,1,undefined,1,left,109,109,109,0,0,109,109,0,0,109,109,109,0,109,0,Sun Oct 27 15:53:08 2019,The main experiment item,yes,SternbergTask.osexp,/Users/Zenny/Desktop,no,mono,no,18,no,white,no,no,768,legacy,97,11,/Users/Zenny/Desktop/quickrun.csv,legacy,6 5,Kafkaesque Koffka,3.2.8,2,y,0,left,right,right,left,NA,621,29261,1749,621,NA,2,legacy,2,1024,2,48000,-16,experiment,999,odd,5,716582,713163,714284,2593,109909,714317,575514,2678,108159,718614,719238,715349,31949,718614,NA,SternbergTask,104,79970,110,yes,1024
94.59459459,94.59459459,725.5765766,725.5765766,black,experiment,legacy,legacy,legacy,0,uniform,1,undefined,1,left,110,110,110,0,0,110,110,0,0,110,110,110,0,110,0,Sun Oct 27 15:53:08 2019,The main experiment item,yes,SternbergTask.osexp,/Users/Zenny/Desktop,no,mono,no,18,no,white,no,no,768,legacy,98,11,/Users/Zenny/Desktop/quickrun.csv,legacy,8,Kafkaesque Koffka,3.2.8,1,y,0,left,right,right,left,NA,569,29261,1749,569,NA,2,legacy,1,1024,2,48000,-16,experiment,999,odd,8,722719,719275,720417,2593,109909,720449,575514,2678,108159,724751,725323,721485,31949,724751,NA,SternbergTask,105,80539,111,yes,1024
94.64285714,94.64285714,727.2053571,727.2053571,black,experiment,legacy,legacy,legacy,0,uniform,1,undefined,1,left,111,111,111,0,0,111,111,0,0,111,111,111,0,111,0,Sun Oct 27 15:53:08 2019,The main experiment item,yes,SternbergTask.osexp,/Users/Zenny/Desktop,no,mono,no,18,no,white,no,no,768,legacy,99,11,/Users/Zenny/Desktop/quickrun.csv,legacy,9 3 8 2 1 4,Kafkaesque Koffka,3.2.8,3,y,0,left,right,right,left,NA,908,29261,1749,908,NA,2,legacy,6,1024,2,48000,-16,experiment,999,odd,8,728768,725360,726471,2593,109909,726502,575514,2678,108159,730801,731712,727534,31949,730801,NA,SternbergTask,106,81447,112,yes,1024
94.69026549,94.69026549,724.7876106,724.7876106,black,experiment,legacy,legacy,legacy,0,uniform,1,undefined,1,left,112,112,112,0,0,112,112,0,0,112,112,112,0,112,0,Sun Oct 27 15:53:08 2019,The main experiment item,yes,SternbergTask.osexp,/Users/Zenny/Desktop,no,mono,no,18,no,white,no,no,768,legacy,100,11,/Users/Zenny/Desktop/quickrun.csv,legacy,3 5 7 1,Kafkaesque Koffka,3.2.8,3,y,0,left,right,right,left,NA,454,29261,1749,454,NA,2,legacy,4,1024,2,48000,-16,experiment,999,odd,7,735234,731747,732887,2593,109909,732921,575514,2678,108159,737266,737722,733955,31949,737265,NA,SternbergTask,107,81901,113,yes,1024
94.73684211,94.73684211,725.8157895,725.8157895,black,experiment,legacy,legacy,legacy,0,uniform,1,undefined,1,right,113,113,113,0,0,113,113,0,0,113,113,113,0,113,0,Sun Oct 27 15:53:08 2019,The main experiment item,yes,SternbergTask.osexp,/Users/Zenny/Desktop,no,mono,no,18,no,white,no,no,768,legacy,101,11,/Users/Zenny/Desktop/quickrun.csv,legacy,9 7 4 5 8,Kafkaesque Koffka,3.2.8,0,n,0,right,right,right,right,NA,842,29261,1749,842,NA,2,legacy,5,1024,2,48000,-16,experiment,999,odd,6,741168,737758,738869,2593,109909,738901,575514,2678,108159,743239,744084,739933,31949,743239,NA,SternbergTask,108,82743,114,yes,1024
94.7826087,94.7826087,725.3043478,725.3043478,black,experiment,legacy,legacy,legacy,0,uniform,1,undefined,1,right,114,114,114,0,0,114,114,0,0,114,114,114,0,114,0,Sun Oct 27 15:53:08 2019,The main experiment item,yes,SternbergTask.osexp,/Users/Zenny/Desktop,no,mono,no,18,no,white,no,no,768,legacy,102,11,/Users/Zenny/Desktop/quickrun.csv,legacy,9,Kafkaesque Koffka,3.2.8,0,n,0,right,right,right,right,NA,667,29261,1749,667,NA,2,legacy,1,1024,2,48000,-16,experiment,999,odd,6,747554,744119,745254,2593,109909,745289,575514,2678,108159,749587,750259,746322,31949,749587,NA,SternbergTask,109,83410,115,yes,1024
94.82758621,94.82758621,726.7758621,726.7758621,black,experiment,legacy,legacy,legacy,0,uniform,1,undefined,1,right,115,115,115,0,0,115,115,0,0,115,115,115,0,115,0,Sun Oct 27 15:53:08 2019,The main experiment item,yes,SternbergTask.osexp,/Users/Zenny/Desktop,no,mono,no,18,no,white,no,no,768,legacy,103,11,/Users/Zenny/Desktop/quickrun.csv,legacy,6 9 4 5 2,Kafkaesque Koffka,3.2.8,0,n,0,right,right,right,right,NA,896,29261,1749,896,NA,2,legacy,5,1024,2,48000,-16,experiment,999,odd,1,753715,750302,751416,2593,109909,751449,575514,2678,108159,755748,756647,752481,31949,755748,NA,SternbergTask,110,84306,116,yes,1024
94.87179487,94.87179487,725.5299145,725.5299145,black,experiment,legacy,legacy,legacy,0,uniform,1,undefined,1,left,116,116,116,0,0,116,116,0,0,116,116,116,0,116,0,Sun Oct 27 15:53:08 2019,The main experiment item,yes,SternbergTask.osexp,/Users/Zenny/Desktop,no,mono,no,18,no,white,no,no,768,legacy,104,11,/Users/Zenny/Desktop/quickrun.csv,legacy,4 1 8 7 5,Kafkaesque Koffka,3.2.8,3,y,0,left,right,right,left,NA,581,29261,1749,581,NA,2,legacy,5,1024,2,48000,-16,experiment,999,odd,8,760132,756684,757835,2593,109909,757867,575514,2678,108159,762166,762750,758900,31949,762166,NA,SternbergTask,111,84887,117,yes,1024
94.91525424,94.91525424,725.9915254,725.9915254,black,experiment,legacy,legacy,legacy,0,uniform,1,undefined,1,right,117,117,117,0,0,117,117,0,0,117,117,117,0,117,0,Sun Oct 27 15:53:08 2019,The main experiment item,yes,SternbergTask.osexp,/Users/Zenny/Desktop,no,mono,no,18,no,white,no,no,768,legacy,105,11,/Users/Zenny/Desktop/quickrun.csv,legacy,4 1,Kafkaesque Koffka,3.2.8,0,n,0,right,right,right,right,NA,780,29261,1749,780,NA,2,legacy,2,1024,2,48000,-16,experiment,999,odd,6,766231,762785,763897,2593,109909,763929,575514,2678,108159,768263,769047,764961,31949,768263,NA,SternbergTask,112,85667,118,yes,1024
94.11764706,94.11764706,730.7478992,730.7478992,black,experiment,legacy,legacy,legacy,0,uniform,0,undefined,0,right,118,118,118,0,0,118,118,0,0,118,118,118,0,118,0,Sun Oct 27 15:53:08 2019,The main experiment item,yes,SternbergTask.osexp,/Users/Zenny/Desktop,no,mono,no,18,no,white,no,no,768,legacy,106,11,/Users/Zenny/Desktop/quickrun.csv,legacy,8 5 7 3 6,Kafkaesque Koffka,3.2.8,0,n,0,left,right,right,left,NA,1292,29261,1749,1292,NA,2,legacy,5,1024,2,48000,-16,experiment,999,odd,9,772536,769084,770237,2593,109909,770270,575514,2678,108159,774568,775863,771303,31949,774567,NA,SternbergTask,112,86959,119,yes,1024
94.16666667,94.16666667,731.85,731.85,black,experiment,legacy,legacy,legacy,0,uniform,1,undefined,1,left,119,119,119,0,0,119,119,0,0,119,119,119,0,119,0,Sun Oct 27 15:53:08 2019,The main experiment item,yes,SternbergTask.osexp,/Users/Zenny/Desktop,no,mono,no,18,no,white,no,no,768,legacy,107,11,/Users/Zenny/Desktop/quickrun.csv,legacy,9 6 2 4 1,Kafkaesque Koffka,3.2.8,4,y,0,left,right,right,left,NA,863,29261,1749,863,NA,2,legacy,5,1024,2,48000,-16,experiment,999,odd,4,779354,769084,777044,2593,109909,777077,775902,2678,108159,781387,782253,778119,31949,781386,NA,SternbergTask,113,87822,120,yes,1024
94.21487603,94.21487603,731.3966942,731.3966942,black,experiment,legacy,legacy,legacy,0,uniform,1,undefined,1,right,120,120,120,0,0,120,120,0,0,120,120,120,0,120,0,Sun Oct 27 15:53:08 2019,The main experiment item,yes,SternbergTask.osexp,/Users/Zenny/Desktop,no,mono,no,18,no,white,no,no,768,legacy,108,11,/Users/Zenny/Desktop/quickrun.csv,legacy,6 8,Kafkaesque Koffka,3.2.8,0,n,0,right,right,right,right,NA,677,29261,1749,677,NA,2,legacy,2,1024,2,48000,-16,experiment,999,odd,9,785697,782289,783401,2593,109909,783434,775902,2678,108159,787730,788415,784466,31949,787730,NA,SternbergTask,114,88499,121,yes,1024
94.26229508,94.26229508,729.8442623,729.8442623,black,experiment,legacy,legacy,legacy,0,uniform,1,undefined,1,left,121,121,121,0,0,121,121,0,0,121,121,121,0,121,0,Sun Oct 27 15:53:08 2019,The main experiment item,yes,SternbergTask.osexp,/Users/Zenny/Desktop,no,mono,no,18,no,white,no,no,768,legacy,109,11,/Users/Zenny/Desktop/quickrun.csv,legacy,6 1 2,Kafkaesque Koffka,3.2.8,3,y,0,left,right,right,left,NA,542,29261,1749,542,NA,2,legacy,3,1024,2,48000,-16,experiment,999,odd,2,791896,788453,789598,2593,109909,789631,775902,2678,108159,793931,794477,790663,31949,793931,NA,SternbergTask,115,89041,122,yes,1024
94.30894309,94.30894309,729.902439,729.902439,black,experiment,legacy,legacy,legacy,0,uniform,1,undefined,1,left,122,122,122,0,0,122,122,0,0,122,122,122,0,122,0,Sun Oct 27 15:53:08 2019,The main experiment item,yes,SternbergTask.osexp,/Users/Zenny/Desktop,no,mono,no,18,no,white,no,no,768,legacy,110,11,/Users/Zenny/Desktop/quickrun.csv,legacy,8 7 3,Kafkaesque Koffka,3.2.8,1,y,0,left,right,right,left,NA,737,29261,1749,737,NA,2,legacy,3,1024,2,48000,-16,experiment,999,odd,8,797921,794511,795624,2593,109909,795656,775902,2678,108159,799953,800693,796687,31949,799953,NA,SternbergTask,116,89778,123,yes,1024
94.35483871,94.35483871,730.2903226,730.2903226,black,experiment,legacy,legacy,legacy,0,uniform,1,undefined,1,left,123,123,123,0,0,123,123,0,0,123,123,123,0,123,0,Sun Oct 27 15:53:08 2019,The main experiment item,yes,SternbergTask.osexp,/Users/Zenny/Desktop,no,mono,no,18,no,white,no,no,768,legacy,111,11,/Users/Zenny/Desktop/quickrun.csv,legacy,5 7 3 6 2,Kafkaesque Koffka,3.2.8,5,y,0,left,right,right,left,NA,778,29261,1749,778,NA,2,legacy,5,1024,2,48000,-16,experiment,999,odd,2,804192,800734,801891,2593,109909,801924,775902,2678,108159,806228,807009,802957,31949,806228,NA,SternbergTask,117,90556,124,yes,1024
94.4,94.4,729.44,729.44,black,experiment,legacy,legacy,legacy,0,uniform,1,undefined,1,right,124,124,124,0,0,124,124,0,0,124,124,124,0,124,0,Sun Oct 27 15:53:08 2019,The main experiment item,yes,SternbergTask.osexp,/Users/Zenny/Desktop,no,mono,no,18,no,white,no,no,768,legacy,112,11,/Users/Zenny/Desktop/quickrun.csv,legacy,5,Kafkaesque Koffka,3.2.8,0,n,0,right,right,right,right,NA,624,29261,1749,624,NA,2,legacy,1,1024,2,48000,-16,experiment,999,odd,8,810491,807047,808160,2593,109909,808227,775902,2678,108159,812525,813154,809259,31949,812524,NA,SternbergTask,118,91180,125,yes,1024
94.44444444,94.44444444,730.2301587,730.2301587,black,experiment,legacy,legacy,legacy,0,uniform,1,undefined,1,right,125,125,125,0,0,125,125,0,0,125,125,125,0,125,0,Sun Oct 27 15:53:08 2019,The main experiment item,yes,SternbergTask.osexp,/Users/Zenny/Desktop,no,mono,no,18,no,white,no,no,768,legacy,113,11,/Users/Zenny/Desktop/quickrun.csv,legacy,1 6 4,Kafkaesque Koffka,3.2.8,0,n,0,right,right,right,right,NA,829,29261,1749,829,NA,2,legacy,3,1024,2,48000,-16,experiment,999,odd,7,816686,813233,814388,2593,109909,814421,775902,2678,108159,818719,819551,815453,31949,818719,NA,SternbergTask,119,92009,126,yes,1024
94.48818898,94.48818898,732.1968504,732.1968504,black,experiment,legacy,legacy,legacy,0,uniform,1,undefined,1,right,126,126,126,0,0,126,126,0,0,126,126,126,0,126,0,Sun Oct 27 15:53:08 2019,The main experiment item,yes,SternbergTask.osexp,/Users/Zenny/Desktop,no,mono,no,18,no,white,no,no,768,legacy,114,11,/Users/Zenny/Desktop/quickrun.csv,legacy,3 9 1,Kafkaesque Koffka,3.2.8,0,n,0,right,right,right,right,NA,980,29261,1749,980,NA,2,legacy,3,1024,2,48000,-16,experiment,999,odd,7,822999,819590,820704,2593,109909,820736,775902,2678,108159,825030,826013,821767,31949,825030,NA,SternbergTask,120,92989,127,yes,1024
94.53125,94.53125,734.203125,734.203125,black,experiment,legacy,legacy,legacy,0,uniform,1,undefined,1,right,127,127,127,0,0,127,127,0,0,127,127,127,0,127,0,Sun Oct 27 15:53:08 2019,The main experiment item,yes,SternbergTask.osexp,/Users/Zenny/Desktop,no,mono,no,18,no,white,no,no,768,legacy,115,11,/Users/Zenny/Desktop/quickrun.csv,legacy,7 1,Kafkaesque Koffka,3.2.8,0,n,0,right,right,right,right,NA,989,29261,1749,989,NA,2,legacy,2,1024,2,48000,-16,experiment,999,odd,8,829507,826051,827197,2593,109909,827241,775902,2678,108159,831539,832533,828274,31949,831539,NA,SternbergTask,121,93978,128,yes,1024
94.57364341,94.57364341,733.5813953,733.5813953,black,experiment,legacy,legacy,legacy,0,uniform,1,undefined,1,left,128,128,128,0,0,128,128,0,0,128,128,128,0,128,0,Sun Oct 27 15:53:08 2019,The main experiment item,yes,SternbergTask.osexp,/Users/Zenny/Desktop,no,mono,no,18,no,white,no,no,768,legacy,116,11,/Users/Zenny/Desktop/quickrun.csv,legacy,3 5 4 7,Kafkaesque Koffka,3.2.8,1,y,0,left,right,right,left,NA,654,29261,1749,654,NA,2,legacy,4,1024,2,48000,-16,experiment,999,odd,3,836000,832569,833705,2593,109909,833737,775902,2678,108159,838031,838688,834768,31949,838031,NA,SternbergTask,122,94632,129,yes,1024
94.61538462,94.61538462,734.4538462,734.4538462,black,experiment,legacy,legacy,legacy,0,uniform,1,undefined,1,right,129,129,129,0,0,129,129,0,0,129,129,129,0,129,0,Sun Oct 27 15:53:08 2019,The main experiment item,yes,SternbergTask.osexp,/Users/Zenny/Desktop,no,mono,no,18,no,white,no,no,768,legacy,117,11,/Users/Zenny/Desktop/quickrun.csv,legacy,3 9 8 1 6 4,Kafkaesque Koffka,3.2.8,0,n,0,right,right,right,right,NA,847,29261,1749,847,NA,2,legacy,6,1024,2,48000,-16,experiment,999,odd,7,842135,838726,839839,2593,109909,839870,775902,2678,108159,844167,845017,840902,31949,844167,NA,SternbergTask,123,95479,130,yes,1024
94.65648855,94.65648855,734.3129771,734.3129771,black,experiment,legacy,legacy,legacy,0,uniform,1,undefined,1,left,130,130,130,0,0,130,130,0,0,130,130,130,0,130,0,Sun Oct 27 15:53:08 2019,The main experiment item,yes,SternbergTask.osexp,/Users/Zenny/Desktop,no,mono,no,18,no,white,no,no,768,legacy,118,11,/Users/Zenny/Desktop/quickrun.csv,legacy,8 9 6 1,Kafkaesque Koffka,3.2.8,2,y,0,left,right,right,left,NA,716,29261,1749,716,NA,2,legacy,4,1024,2,48000,-16,experiment,999,odd,9,848519,845060,846218,2593,109909,846253,775902,2678,108159,850551,851270,847285,31949,850551,NA,SternbergTask,124,96195,131,yes,1024
94.6969697,94.6969697,737.2651515,737.2651515,black,experiment,legacy,legacy,legacy,0,uniform,1,undefined,1,right,131,131,131,0,0,131,131,0,0,131,131,131,0,131,0,Sun Oct 27 15:53:08 2019,The main experiment item,yes,SternbergTask.osexp,/Users/Zenny/Desktop,no,mono,no,18,no,white,no,no,768,legacy,119,11,/Users/Zenny/Desktop/quickrun.csv,legacy,6 9 5,Kafkaesque Koffka,3.2.8,0,n,0,right,right,right,right,NA,1124,29261,1749,1124,NA,2,legacy,3,1024,2,48000,-16,experiment,999,odd,8,854715,851306,852418,2593,109909,852449,775902,2678,108159,856746,857873,853481,31949,856746,NA,SternbergTask,125,97319,132,yes,1024
94.73684211,94.73684211,736.6766917,736.6766917,black,experiment,legacy,legacy,legacy,0,uniform,1,undefined,1,left,132,132,132,0,0,132,132,0,0,132,132,132,0,132,0,Sun Oct 27 15:53:08 2019,The main experiment item,yes,SternbergTask.osexp,/Users/Zenny/Desktop,no,mono,no,18,no,white,no,no,768,legacy,120,11,/Users/Zenny/Desktop/quickrun.csv,legacy,3 9 7 6 4,Kafkaesque Koffka,3.2.8,3,y,0,left,right,right,left,NA,659,29261,1749,659,NA,2,legacy,5,1024,2,48000,-16,experiment,999,odd,7,861360,857914,859062,2593,109909,859095,775902,2678,108159,863392,864054,860126,31949,863392,NA,SternbergTask,126,97978,133,yes,1024
94.7761194,94.7761194,739.3358209,739.3358209,black,experiment,legacy,legacy,legacy,0,uniform,1,undefined,1,right,133,133,133,0,0,133,133,0,0,133,133,133,0,133,0,Sun Oct 27 15:53:08 2019,The main experiment item,yes,SternbergTask.osexp,/Users/Zenny/Desktop,no,mono,no,18,no,white,no,no,768,legacy,121,11,/Users/Zenny/Desktop/quickrun.csv,legacy,7 1 5 6 3,Kafkaesque Koffka,3.2.8,0,n,0,right,right,right,right,NA,1093,29261,1749,1093,NA,2,legacy,5,1024,2,48000,-16,experiment,999,odd,8,867509,864097,865212,2593,109909,865244,775902,2678,108159,869541,870637,866276,31949,869541,NA,SternbergTask,127,99071,134,yes,1024
94.81481481,94.81481481,739.8444444,739.8444444,black,experiment,legacy,legacy,legacy,0,uniform,1,undefined,1,right,134,134,134,0,0,134,134,0,0,134,134,134,0,134,0,Sun Oct 27 15:53:08 2019,The main experiment item,yes,SternbergTask.osexp,/Users/Zenny/Desktop,no,mono,no,18,no,white,no,no,768,legacy,122,11,/Users/Zenny/Desktop/quickrun.csv,legacy,8 9,Kafkaesque Koffka,3.2.8,0,n,0,right,right,right,right,NA,808,29261,1749,808,NA,2,legacy,2,1024,2,48000,-16,experiment,999,odd,5,874120,870674,871824,2593,109909,871857,775902,2678,108159,876155,876969,872889,31949,876155,NA,SternbergTask,128,99879,135,yes,1024
94.85294118,94.85294118,740.5735294,740.5735294,black,experiment,legacy,legacy,legacy,0,uniform,1,undefined,1,right,135,135,135,0,0,135,135,0,0,135,135,135,0,135,0,Sun Oct 27 15:53:08 2019,The main experiment item,yes,SternbergTask.osexp,/Users/Zenny/Desktop,no,mono,no,18,no,white,no,no,768,legacy,123,11,/Users/Zenny/Desktop/quickrun.csv,legacy,2 3 8 5 6 7,Kafkaesque Koffka,3.2.8,0,n,0,right,right,right,right,NA,839,29261,1749,839,NA,2,legacy,6,1024,2,48000,-16,experiment,999,odd,1,880469,877003,878118,2593,109909,878150,775902,2678,108159,882501,883343,879237,31949,882501,NA,SternbergTask,129,100718,136,yes,1024
94.89051095,94.89051095,742.1970803,742.1970803,black,experiment,legacy,legacy,legacy,0,uniform,1,undefined,1,right,136,136,136,0,0,136,136,0,0,136,136,136,0,136,0,Sun Oct 27 15:53:08 2019,The main experiment item,yes,SternbergTask.osexp,/Users/Zenny/Desktop,no,mono,no,18,no,white,no,no,768,legacy,124,11,/Users/Zenny/Desktop/quickrun.csv,legacy,2 8 9,Kafkaesque Koffka,3.2.8,0,n,0,right,right,right,right,NA,963,29261,1749,963,NA,2,legacy,3,1024,2,48000,-16,experiment,999,odd,6,886830,883378,884528,2593,109909,884561,775902,2678,108159,888863,889829,885592,31949,888863,NA,SternbergTask,130,101681,137,yes,1024
94.92753623,94.92753623,742.0942029,742.0942029,black,experiment,legacy,legacy,legacy,0,uniform,1,undefined,1,left,137,137,137,0,0,137,137,0,0,137,137,137,0,137,0,Sun Oct 27 15:53:08 2019,The main experiment item,yes,SternbergTask.osexp,/Users/Zenny/Desktop,no,mono,no,18,no,white,no,no,768,legacy,125,11,/Users/Zenny/Desktop/quickrun.csv,legacy,3 4 9 6 2 9,Kafkaesque Koffka,3.2.8,5,y,0,left,right,right,left,NA,728,29261,1749,728,NA,2,legacy,6,1024,2,48000,-16,experiment,999,odd,2,893320,889872,891011,2593,109909,891050,775902,2678,108159,895361,896092,892085,31949,895361,NA,SternbergTask,131,102409,138,yes,1024