acc,accuracy,average_response_time,avg_rt,background,block,canvas_backend,clock_backend,color_backend,correct,correct_instruction1,correct_keyboard_response,correct_response,count_correctFeedback,count_expSequence,count_experiment,count_experimentalLoop,count_fixation,count_incorrectFeedback,count_instruction1,count_keyboard_response,count_logger,count_memorySet,count_new_1_sketchpad,count_new_sketchpad,count_practiceLoop,count_probe,count_thankYou,datetime,description,disable_garbage_collection,experiment_file,experiment_path,font_bold,font_family,font_italic,font_size,font_underline,foreground,form_clicks,fullscreen,height,keyboard_backend,live_row,live_row_practiceLoop,logfile,mouse_backend,numberSet,opensesame_codename,opensesame_version,posInSet,present,repeat_cycle,response,response_instruction1,response_keyboard_response,response_new_1_sketchpad,response_thankYou,response_time,response_time_instruction1,response_time_keyboard_response,response_time_new_1_sketchpad,response_time_thankYou,round_decimals,sampler_backend,setSize,sound_buf_size,sound_channels,sound_freq,sound_sample_size,start,subject_nr,subject_parity,target,time_correctFeedback,time_expSequence,time_experiment,time_experimentalLoop,time_fixation,time_incorrectFeedback,time_instruction1,time_keyboard_response,time_logger,time_memorySet,time_new_1_sketchpad,time_new_sketchpad,time_practiceLoop,time_probe,time_thankYou,title,total_correct,total_response_time,total_responses,width
0,0,2000,2000,#3d3846,practice,legacy,legacy,legacy,0,undefined,0,left,0,0,0,0,0,0,0,0,0,0,0,0,0,0,0,Thu Oct 19 18:53:18 2023,The main experiment item,TRUE,Edward Banda Sternbergtask.osexp,C:\Users\Edward Banda\Desktop,FALSE,mono,FALSE,18,no,white,no,yes,768,legacy,0,0,C:/Users/Edward Banda/Desktop/subject-4.csv,legacy,4 3 1 7 9 8,Melodramatic Milgram,4.0.5,1,y,0,None,right,None,NA,NA,2000,70417,2000,NA,NA,2,legacy,6,1024,2,48000,-16,experiment,4,even,4,NA,75029,2674,NA,75030,NA,2677,79233,81233,76031,NA,77232,73096,79233,NA,Sternberg task,0,2000,1,1024
50,50,1262,1262,#3d3846,practice,legacy,legacy,legacy,1,undefined,1,left,1,1,0,0,1,1,0,1,1,1,0,1,0,1,0,Thu Oct 19 18:53:18 2023,The main experiment item,TRUE,Edward Banda Sternbergtask.osexp,C:\Users\Edward Banda\Desktop,FALSE,mono,FALSE,18,no,white,no,yes,768,legacy,1,1,C:/Users/Edward Banda/Desktop/subject-4.csv,legacy,1 7 9 8 5,Melodramatic Milgram,4.0.5,4,y,0,left,right,left,NA,NA,525,70417,525,NA,NA,2,legacy,5,1024,2,48000,-16,experiment,4,even,8,NA,82335,2674,NA,82337,81296,2677,86540,87066,83338,NA,84539,73096,86540,NA,Sternberg task,1,2525,2,1024
66,66,1036,1036,#3d3846,practice,legacy,legacy,legacy,1,undefined,1,right,2,2,0,0,2,2,0,2,2,2,0,2,0,2,0,Thu Oct 19 18:53:18 2023,The main experiment item,TRUE,Edward Banda Sternbergtask.osexp,C:\Users\Edward Banda\Desktop,FALSE,mono,FALSE,18,no,white,no,yes,768,legacy,2,2,C:/Users/Edward Banda/Desktop/subject-4.csv,legacy,3 1 9 4,Melodramatic Milgram,4.0.5,0,n,0,right,right,right,NA,NA,583,70417,583,NA,NA,2,legacy,4,1024,2,48000,-16,experiment,4,even,6,87078,88128,2674,NA,88130,81296,2677,92333,92917,89131,NA,90332,73096,92333,NA,Sternberg task,2,3108,3,1024
75,75,1064,1064,#3d3846,practice,legacy,legacy,legacy,1,undefined,1,left,3,3,0,0,3,3,0,3,3,3,0,3,0,3,0,Thu Oct 19 18:53:18 2023,The main experiment item,TRUE,Edward Banda Sternbergtask.osexp,C:\Users\Edward Banda\Desktop,FALSE,mono,FALSE,18,no,white,no,yes,768,legacy,3,3,C:/Users/Edward Banda/Desktop/subject-4.csv,legacy,2 9 4,Melodramatic Milgram,4.0.5,3,y,0,left,right,left,NA,NA,1148,70417,1148,NA,NA,2,legacy,3,1024,2,48000,-16,experiment,4,even,4,92929,93978,2674,NA,93980,81296,2677,98183,99332,94981,NA,96182,73096,98183,NA,Sternberg task,3,4256,4,1024
80,80,1001,1001,#3d3846,practice,legacy,legacy,legacy,1,undefined,1,right,4,4,0,0,4,4,0,4,4,4,0,4,0,4,0,Thu Oct 19 18:53:18 2023,The main experiment item,TRUE,Edward Banda Sternbergtask.osexp,C:\Users\Edward Banda\Desktop,FALSE,mono,FALSE,18,no,white,no,yes,768,legacy,4,4,C:/Users/Edward Banda/Desktop/subject-4.csv,legacy,4 1 5,Melodramatic Milgram,4.0.5,0,n,0,right,right,right,NA,NA,750,70417,750,NA,NA,2,legacy,3,1024,2,48000,-16,experiment,4,even,2,99372,100417,2674,NA,100419,81296,2677,104622,105372,101420,NA,102621,73096,104622,NA,Sternberg task,4,5006,5,1024
83,83,969,969,#3d3846,practice,legacy,legacy,legacy,1,undefined,1,right,5,5,0,0,5,5,0,5,5,5,0,5,0,5,0,Thu Oct 19 18:53:18 2023,The main experiment item,TRUE,Edward Banda Sternbergtask.osexp,C:\Users\Edward Banda\Desktop,FALSE,mono,FALSE,18,no,white,no,yes,768,legacy,5,5,C:/Users/Edward Banda/Desktop/subject-4.csv,legacy,9 6 7 4 5,Melodramatic Milgram,4.0.5,0,n,0,right,right,right,NA,NA,813,70417,813,NA,NA,2,legacy,5,1024,2,48000,-16,experiment,4,even,3,105385,106435,2674,NA,106437,81296,2677,110640,111454,107438,NA,108639,73096,110640,NA,Sternberg task,5,5819,6,1024
85,85,1101,1101,#3d3846,practice,legacy,legacy,legacy,1,undefined,1,left,6,6,0,0,6,6,0,6,6,6,0,6,0,6,0,Thu Oct 19 18:53:18 2023,The main experiment item,TRUE,Edward Banda Sternbergtask.osexp,C:\Users\Edward Banda\Desktop,FALSE,mono,FALSE,18,no,white,no,yes,768,legacy,6,6,C:/Users/Edward Banda/Desktop/subject-4.csv,legacy,6,Melodramatic Milgram,4.0.5,1,y,0,left,right,left,NA,NA,1894,70417,1894,NA,NA,2,legacy,1,1024,2,48000,-16,experiment,4,even,6,111466,112516,2674,NA,112517,81296,2677,116720,118615,113518,NA,114719,73096,116720,NA,Sternberg task,6,7713,7,1024
87,87,1118,1118,#3d3846,practice,legacy,legacy,legacy,1,undefined,1,right,7,7,0,0,7,7,0,7,7,7,0,7,0,7,0,Thu Oct 19 18:53:18 2023,The main experiment item,TRUE,Edward Banda Sternbergtask.osexp,C:\Users\Edward Banda\Desktop,FALSE,mono,FALSE,18,no,white,no,yes,768,legacy,7,7,C:/Users/Edward Banda/Desktop/subject-4.csv,legacy,5 7 8 4 1 2,Melodramatic Milgram,4.0.5,0,n,0,right,right,right,NA,NA,1231,70417,1231,NA,NA,2,legacy,6,1024,2,48000,-16,experiment,4,even,6,118627,119681,2674,NA,119683,81296,2677,123886,125118,120684,NA,121885,73096,123886,NA,Sternberg task,7,8944,8,1024
88,88,1056,1056,#3d3846,practice,legacy,legacy,legacy,1,undefined,1,right,8,8,0,0,8,8,0,8,8,8,0,8,0,8,0,Thu Oct 19 18:53:18 2023,The main experiment item,TRUE,Edward Banda Sternbergtask.osexp,C:\Users\Edward Banda\Desktop,FALSE,mono,FALSE,18,no,white,no,yes,768,legacy,8,8,C:/Users/Edward Banda/Desktop/subject-4.csv,legacy,2 1,Melodramatic Milgram,4.0.5,0,n,0,right,right,right,NA,NA,562,70417,562,NA,NA,2,legacy,2,1024,2,48000,-16,experiment,4,even,5,125130,126172,2674,NA,126174,81296,2677,130377,130939,127175,NA,128376,73096,130377,NA,Sternberg task,8,9506,9,1024
90,90,1046,1046,#3d3846,practice,legacy,legacy,legacy,1,undefined,1,left,9,9,0,0,9,9,0,9,9,9,0,9,0,9,0,Thu Oct 19 18:53:18 2023,The main experiment item,TRUE,Edward Banda Sternbergtask.osexp,C:\Users\Edward Banda\Desktop,FALSE,mono,FALSE,18,no,white,no,yes,768,legacy,9,9,C:/Users/Edward Banda/Desktop/subject-4.csv,legacy,4 8,Melodramatic Milgram,4.0.5,1,y,0,left,right,left,NA,NA,963,70417,963,NA,NA,2,legacy,2,1024,2,48000,-16,experiment,4,even,4,130952,131991,2674,NA,131993,81296,2677,136196,137160,132994,NA,134195,73096,136196,NA,Sternberg task,9,10469,10,1024
90,90,1018,1018,#3d3846,practice,legacy,legacy,legacy,1,undefined,1,right,10,10,0,0,10,10,0,10,10,10,0,10,0,10,0,Thu Oct 19 18:53:18 2023,The main experiment item,TRUE,Edward Banda Sternbergtask.osexp,C:\Users\Edward Banda\Desktop,FALSE,mono,FALSE,18,no,white,no,yes,768,legacy,10,10,C:/Users/Edward Banda/Desktop/subject-4.csv,legacy,5,Melodramatic Milgram,4.0.5,0,n,0,right,right,right,NA,NA,733,70417,733,NA,NA,2,legacy,1,1024,2,48000,-16,experiment,4,even,3,137172,138212,2674,NA,138214,81296,2677,142417,143151,139215,NA,140416,73096,142417,NA,Sternberg task,10,11202,11,1024
91,91,1015,1015,#3d3846,practice,legacy,legacy,legacy,1,undefined,1,left,11,11,0,0,11,11,0,11,11,11,0,11,0,11,0,Thu Oct 19 18:53:18 2023,The main experiment item,TRUE,Edward Banda Sternbergtask.osexp,C:\Users\Edward Banda\Desktop,FALSE,mono,FALSE,18,no,white,no,yes,768,legacy,11,11,C:/Users/Edward Banda/Desktop/subject-4.csv,legacy,1 5 2 9,Melodramatic Milgram,4.0.5,2,y,0,left,right,left,NA,NA,984,70417,984,NA,NA,2,legacy,4,1024,2,48000,-16,experiment,4,even,5,143164,144212,2674,NA,144214,81296,2677,148417,149401,145215,NA,146416,73096,148417,NA,Sternberg task,11,12186,12,1024
92,92,972,972,#3d3846,experiment,legacy,legacy,legacy,1,undefined,1,left,12,12,0,0,12,12,0,12,12,12,0,12,0,12,0,Thu Oct 19 18:53:18 2023,The main experiment item,TRUE,Edward Banda Sternbergtask.osexp,C:\Users\Edward Banda\Desktop,FALSE,mono,FALSE,18,no,white,no,yes,768,legacy,0,11,C:/Users/Edward Banda/Desktop/subject-4.csv,legacy,8,Melodramatic Milgram,4.0.5,1,y,0,left,right,left,right,NA,457,70417,457,140914,NA,2,legacy,1,1024,2,48000,-16,experiment,4,even,8,149413,291444,2674,291328,291446,81296,2677,295649,296107,292447,150414,293648,73096,295649,NA,Sternberg task,12,12643,13,1024
92,92,1040,1040,#3d3846,experiment,legacy,legacy,legacy,1,undefined,1,left,13,13,0,0,13,13,0,13,13,13,0,13,0,13,0,Thu Oct 19 18:53:18 2023,The main experiment item,TRUE,Edward Banda Sternbergtask.osexp,C:\Users\Edward Banda\Desktop,FALSE,mono,FALSE,18,no,white,no,yes,768,legacy,1,11,C:/Users/Edward Banda/Desktop/subject-4.csv,legacy,7 1 8 5 6 2,Melodramatic Milgram,4.0.5,2,y,0,left,right,left,right,NA,1927,70417,1927,140914,NA,2,legacy,6,1024,2,48000,-16,experiment,4,even,1,296120,297168,2674,291328,297169,81296,2677,301373,303301,298171,150414,299372,73096,301373,NA,Sternberg task,13,14570,14,1024
93,93,1057,1057,#3d3846,experiment,legacy,legacy,legacy,1,undefined,1,left,14,14,0,0,14,14,0,14,14,14,0,14,0,14,0,Thu Oct 19 18:53:18 2023,The main experiment item,TRUE,Edward Banda Sternbergtask.osexp,C:\Users\Edward Banda\Desktop,FALSE,mono,FALSE,18,no,white,no,yes,768,legacy,2,11,C:/Users/Edward Banda/Desktop/subject-4.csv,legacy,8 9 5 7 1 6,Melodramatic Milgram,4.0.5,4,y,0,left,right,left,right,NA,1288,70417,1288,140914,NA,2,legacy,6,1024,2,48000,-16,experiment,4,even,7,303313,304362,2674,291328,304364,81296,2677,308567,309856,305365,150414,306566,73096,308567,NA,Sternberg task,14,15858,15,1024
93,93,1068,1068,#3d3846,experiment,legacy,legacy,legacy,1,undefined,1,left,15,15,0,0,15,15,0,15,15,15,0,15,0,15,0,Thu Oct 19 18:53:18 2023,The main experiment item,TRUE,Edward Banda Sternbergtask.osexp,C:\Users\Edward Banda\Desktop,FALSE,mono,FALSE,18,no,white,no,yes,768,legacy,3,11,C:/Users/Edward Banda/Desktop/subject-4.csv,legacy,5 7 8 2 3 8,Melodramatic Milgram,4.0.5,5,y,0,left,right,left,right,NA,1245,70417,1245,140914,NA,2,legacy,6,1024,2,48000,-16,experiment,4,even,3,309868,310921,2674,291328,310923,81296,2677,315126,316372,311924,150414,313125,73096,315126,NA,Sternberg task,15,17103,16,1024
94,94,1037,1037,#3d3846,experiment,legacy,legacy,legacy,1,undefined,1,left,16,16,0,0,16,16,0,16,16,16,0,16,0,16,0,Thu Oct 19 18:53:18 2023,The main experiment item,TRUE,Edward Banda Sternbergtask.osexp,C:\Users\Edward Banda\Desktop,FALSE,mono,FALSE,18,no,white,no,yes,768,legacy,4,11,C:/Users/Edward Banda/Desktop/subject-4.csv,legacy,3 5 4 7,Melodramatic Milgram,4.0.5,1,y,0,left,right,left,right,NA,538,70417,538,140914,NA,2,legacy,4,1024,2,48000,-16,experiment,4,even,3,316384,317435,2674,291328,317437,81296,2677,321640,322178,318438,150414,319639,73096,321640,NA,Sternberg task,16,17641,17,1024
94,94,1039,1039,#3d3846,experiment,legacy,legacy,legacy,1,undefined,1,left,17,17,0,0,17,17,0,17,17,17,0,17,0,17,0,Thu Oct 19 18:53:18 2023,The main experiment item,TRUE,Edward Banda Sternbergtask.osexp,C:\Users\Edward Banda\Desktop,FALSE,mono,FALSE,18,no,white,no,yes,768,legacy,5,11,C:/Users/Edward Banda/Desktop/subject-4.csv,legacy,8 5 3 7 4 6,Melodramatic Milgram,4.0.5,6,y,0,left,right,left,right,NA,1072,70417,1072,140914,NA,2,legacy,6,1024,2,48000,-16,experiment,4,even,6,322190,323232,2674,291328,323233,81296,2677,327436,328509,324234,150414,325435,73096,327436,NA,Sternberg task,17,18713,18,1024
94,94,1041,1041,#3d3846,experiment,legacy,legacy,legacy,1,undefined,1,right,18,18,0,0,18,18,0,18,18,18,0,18,0,18,0,Thu Oct 19 18:53:18 2023,The main experiment item,TRUE,Edward Banda Sternbergtask.osexp,C:\Users\Edward Banda\Desktop,FALSE,mono,FALSE,18,no,white,no,yes,768,legacy,6,11,C:/Users/Edward Banda/Desktop/subject-4.csv,legacy,5 3 2 6 9 8,Melodramatic Milgram,4.0.5,0,n,0,right,right,right,right,NA,1077,70417,1077,140914,NA,2,legacy,6,1024,2,48000,-16,experiment,4,even,4,328521,329561,2674,291328,329564,81296,2677,333767,334845,330565,150414,331766,73096,333767,NA,Sternberg task,18,19790,19,1024
95,95,1042,1042,#3d3846,experiment,legacy,legacy,legacy,1,undefined,1,right,19,19,0,0,19,19,0,19,19,19,0,19,0,19,0,Thu Oct 19 18:53:18 2023,The main experiment item,TRUE,Edward Banda Sternbergtask.osexp,C:\Users\Edward Banda\Desktop,FALSE,mono,FALSE,18,no,white,no,yes,768,legacy,7,11,C:/Users/Edward Banda/Desktop/subject-4.csv,legacy,4 1,Melodramatic Milgram,4.0.5,0,n,0,right,right,right,right,NA,1069,70417,1069,140914,NA,2,legacy,2,1024,2,48000,-16,experiment,4,even,6,334857,335902,2674,291328,335904,81296,2677,340107,341176,336905,150414,338106,73096,340107,NA,Sternberg task,19,20859,20,1024
95,95,1033,1033,#3d3846,experiment,legacy,legacy,legacy,1,undefined,1,left,20,20,0,0,20,20,0,20,20,20,0,20,0,20,0,Thu Oct 19 18:53:18 2023,The main experiment item,TRUE,Edward Banda Sternbergtask.osexp,C:\Users\Edward Banda\Desktop,FALSE,mono,FALSE,18,no,white,no,yes,768,legacy,8,11,C:/Users/Edward Banda/Desktop/subject-4.csv,legacy,4 6 5 8,Melodramatic Milgram,4.0.5,1,y,0,left,right,left,right,NA,848,70417,848,140914,NA,2,legacy,4,1024,2,48000,-16,experiment,4,even,4,341189,342234,2674,291328,342236,81296,2677,346439,347287,343237,150414,344438,73096,346439,NA,Sternberg task,20,21707,21,1024
95,95,1028,1028,#3d3846,experiment,legacy,legacy,legacy,1,undefined,1,right,21,21,0,0,21,21,0,21,21,21,0,21,0,21,0,Thu Oct 19 18:53:18 2023,The main experiment item,TRUE,Edward Banda Sternbergtask.osexp,C:\Users\Edward Banda\Desktop,FALSE,mono,FALSE,18,no,white,no,yes,768,legacy,9,11,C:/Users/Edward Banda/Desktop/subject-4.csv,legacy,4 2 6 9,Melodramatic Milgram,4.0.5,0,n,0,right,right,right,right,NA,912,70417,912,140914,NA,2,legacy,4,1024,2,48000,-16,experiment,4,even,7,347300,348351,2674,291328,348353,81296,2677,352556,353469,349354,150414,350555,73096,352556,NA,Sternberg task,21,22619,22,1024
95,95,1044,1044,#3d3846,experiment,legacy,legacy,legacy,1,undefined,1,right,22,22,0,0,22,22,0,22,22,22,0,22,0,22,0,Thu Oct 19 18:53:18 2023,The main experiment item,TRUE,Edward Banda Sternbergtask.osexp,C:\Users\Edward Banda\Desktop,FALSE,mono,FALSE,18,no,white,no,yes,768,legacy,10,11,C:/Users/Edward Banda/Desktop/subject-4.csv,legacy,7 1 5 6 3,Melodramatic Milgram,4.0.5,0,n,0,right,right,right,right,NA,1406,70417,1406,140914,NA,2,legacy,5,1024,2,48000,-16,experiment,4,even,8,353481,354531,2674,291328,354533,81296,2677,358736,360143,355534,150414,356735,73096,358736,NA,Sternberg task,22,24025,23,1024
95,95,1048,1048,#3d3846,experiment,legacy,legacy,legacy,1,undefined,1,right,23,23,0,0,23,23,0,23,23,23,0,23,0,23,0,Thu Oct 19 18:53:18 2023,The main experiment item,TRUE,Edward Banda Sternbergtask.osexp,C:\Users\Edward Banda\Desktop,FALSE,mono,FALSE,18,no,white,no,yes,768,legacy,11,11,C:/Users/Edward Banda/Desktop/subject-4.csv,legacy,5,Melodramatic Milgram,4.0.5,0,n,0,right,right,right,right,NA,1140,70417,1140,140914,NA,2,legacy,1,1024,2,48000,-16,experiment,4,even,8,360156,361206,2674,291328,361208,81296,2677,365412,366553,362210,150414,363411,73096,365412,NA,Sternberg task,23,25165,24,1024
96,96,1043,1043,#3d3846,experiment,legacy,legacy,legacy,1,undefined,1,right,24,24,0,0,24,24,0,24,24,24,0,24,0,24,0,Thu Oct 19 18:53:18 2023,The main experiment item,TRUE,Edward Banda Sternbergtask.osexp,C:\Users\Edward Banda\Desktop,FALSE,mono,FALSE,18,no,white,no,yes,768,legacy,12,11,C:/Users/Edward Banda/Desktop/subject-4.csv,legacy,2 5 1 4,Melodramatic Milgram,4.0.5,0,n,0,right,right,right,right,NA,922,70417,922,140914,NA,2,legacy,4,1024,2,48000,-16,experiment,4,even,6,366565,367617,2674,291328,367619,81296,2677,371822,372744,368620,150414,369821,73096,371822,NA,Sternberg task,24,26087,25,1024
96,96,1038,1038,#3d3846,experiment,legacy,legacy,legacy,1,undefined,1,right,25,25,0,0,25,25,0,25,25,25,0,25,0,25,0,Thu Oct 19 18:53:18 2023,The main experiment item,TRUE,Edward Banda Sternbergtask.osexp,C:\Users\Edward Banda\Desktop,FALSE,mono,FALSE,18,no,white,no,yes,768,legacy,13,11,C:/Users/Edward Banda/Desktop/subject-4.csv,legacy,1 8 7,Melodramatic Milgram,4.0.5,0,n,0,right,right,right,right,NA,905,70417,905,140914,NA,2,legacy,3,1024,2,48000,-16,experiment,4,even,4,372756,373799,2674,291328,373801,81296,2677,378004,378909,374802,150414,376003,73096,378004,NA,Sternberg task,25,26992,26,1024
96,96,1059,1059,#3d3846,experiment,legacy,legacy,legacy,1,undefined,1,left,26,26,0,0,26,26,0,26,26,26,0,26,0,26,0,Thu Oct 19 18:53:18 2023,The main experiment item,TRUE,Edward Banda Sternbergtask.osexp,C:\Users\Edward Banda\Desktop,FALSE,mono,FALSE,18,no,white,no,yes,768,legacy,14,11,C:/Users/Edward Banda/Desktop/subject-4.csv,legacy,7 6,Melodramatic Milgram,4.0.5,2,y,0,left,right,left,right,NA,1617,70417,1617,140914,NA,2,legacy,2,1024,2,48000,-16,experiment,4,even,6,378921,379963,2674,291328,379965,81296,2677,384168,385786,380965,150414,382167,73096,384168,NA,Sternberg task,26,28609,27,1024
96,96,1054,1054,#3d3846,experiment,legacy,legacy,legacy,1,undefined,1,left,27,27,0,0,27,27,0,27,27,27,0,27,0,27,0,Thu Oct 19 18:53:18 2023,The main experiment item,TRUE,Edward Banda Sternbergtask.osexp,C:\Users\Edward Banda\Desktop,FALSE,mono,FALSE,18,no,white,no,yes,768,legacy,15,11,C:/Users/Edward Banda/Desktop/subject-4.csv,legacy,8 7 3,Melodramatic Milgram,4.0.5,1,y,0,left,right,left,right,NA,917,70417,917,140914,NA,2,legacy,3,1024,2,48000,-16,experiment,4,even,8,385798,386844,2674,291328,386846,81296,2677,391049,391966,387847,150414,389048,73096,391049,NA,Sternberg task,27,29526,28,1024
96,96,1052,1052,#3d3846,experiment,legacy,legacy,legacy,1,undefined,1,right,28,28,0,0,28,28,0,28,28,28,0,28,0,28,0,Thu Oct 19 18:53:18 2023,The main experiment item,TRUE,Edward Banda Sternbergtask.osexp,C:\Users\Edward Banda\Desktop,FALSE,mono,FALSE,18,no,white,no,yes,768,legacy,16,11,C:/Users/Edward Banda/Desktop/subject-4.csv,legacy,1 5 3 2 8,Melodramatic Milgram,4.0.5,0,n,0,right,right,right,right,NA,985,70417,985,140914,NA,2,legacy,5,1024,2,48000,-16,experiment,4,even,4,391978,393021,2674,291328,393023,81296,2677,397226,398212,394024,150414,395225,73096,397226,NA,Sternberg task,28,30511,29,1024
96,96,1043,1043,#3d3846,experiment,legacy,legacy,legacy,1,undefined,1,right,29,29,0,0,29,29,0,29,29,29,0,29,0,29,0,Thu Oct 19 18:53:18 2023,The main experiment item,TRUE,Edward Banda Sternbergtask.osexp,C:\Users\Edward Banda\Desktop,FALSE,mono,FALSE,18,no,white,no,yes,768,legacy,17,11,C:/Users/Edward Banda/Desktop/subject-4.csv,legacy,9,Melodramatic Milgram,4.0.5,0,n,0,right,right,right,right,NA,782,70417,782,140914,NA,2,legacy,1,1024,2,48000,-16,experiment,4,even,6,398224,399261,2674,291328,399263,81296,2677,403466,404249,400264,150414,401465,73096,403466,NA,Sternberg task,29,31293,30,1024
93,93,1047,1047,#3d3846,experiment,legacy,legacy,legacy,0,undefined,0,left,30,30,0,0,30,30,0,30,30,30,0,30,0,30,0,Thu Oct 19 18:53:18 2023,The main experiment item,TRUE,Edward Banda Sternbergtask.osexp,C:\Users\Edward Banda\Desktop,FALSE,mono,FALSE,18,no,white,no,yes,768,legacy,18,11,C:/Users/Edward Banda/Desktop/subject-4.csv,legacy,9 6 2 4 1,Melodramatic Milgram,4.0.5,4,y,0,right,right,right,right,NA,1179,70417,1179,140914,NA,2,legacy,5,1024,2,48000,-16,experiment,4,even,4,404262,405309,2674,291328,405311,81296,2677,409514,410693,406312,150414,407513,73096,409514,NA,Sternberg task,29,32472,31,1024
93,93,1045,1045,#3d3846,experiment,legacy,legacy,legacy,1,undefined,1,left,31,31,0,0,31,31,0,31,31,31,0,31,0,31,0,Thu Oct 19 18:53:18 2023,The main experiment item,TRUE,Edward Banda Sternbergtask.osexp,C:\Users\Edward Banda\Desktop,FALSE,mono,FALSE,18,no,white,no,yes,768,legacy,19,11,C:/Users/Edward Banda/Desktop/subject-4.csv,legacy,6 5,Melodramatic Milgram,4.0.5,2,y,0,left,right,left,right,NA,987,70417,987,140914,NA,2,legacy,2,1024,2,48000,-16,experiment,4,even,5,404262,411757,2674,291328,411759,410705,2677,415962,416950,412760,150414,413961,73096,415962,NA,Sternberg task,30,33459,32,1024
93,93,1059,1059,#3d3846,experiment,legacy,legacy,legacy,1,undefined,1,right,32,32,0,0,32,32,0,32,32,32,0,32,0,32,0,Thu Oct 19 18:53:18 2023,The main experiment item,TRUE,Edward Banda Sternbergtask.osexp,C:\Users\Edward Banda\Desktop,FALSE,mono,FALSE,18,no,white,no,yes,768,legacy,20,11,C:/Users/Edward Banda/Desktop/subject-4.csv,legacy,2 7 5,Melodramatic Milgram,4.0.5,0,n,0,right,right,right,right,NA,1497,70417,1497,140914,NA,2,legacy,3,1024,2,48000,-16,experiment,4,even,8,416962,418006,2674,291328,418008,410705,2677,422211,423709,419009,150414,420210,73096,422211,NA,Sternberg task,31,34956,33,1024
94,94,1067,1067,#3d3846,experiment,legacy,legacy,legacy,1,undefined,1,left,33,33,0,0,33,33,0,33,33,33,0,33,0,33,0,Thu Oct 19 18:53:18 2023,The main experiment item,TRUE,Edward Banda Sternbergtask.osexp,C:\Users\Edward Banda\Desktop,FALSE,mono,FALSE,18,no,white,no,yes,768,legacy,21,11,C:/Users/Edward Banda/Desktop/subject-4.csv,legacy,4 9 7 8 5 3,Melodramatic Milgram,4.0.5,4,y,0,left,right,left,right,NA,1347,70417,1347,140914,NA,2,legacy,6,1024,2,48000,-16,experiment,4,even,8,423711,424757,2674,291328,424759,410705,2677,428962,430310,425760,150414,426961,73096,428962,NA,Sternberg task,32,36303,34,1024
94,94,1070,1070,#3d3846,experiment,legacy,legacy,legacy,1,undefined,1,right,34,34,0,0,34,34,0,34,34,34,0,34,0,34,0,Thu Oct 19 18:53:18 2023,The main experiment item,TRUE,Edward Banda Sternbergtask.osexp,C:\Users\Edward Banda\Desktop,FALSE,mono,FALSE,18,no,white,no,yes,768,legacy,22,11,C:/Users/Edward Banda/Desktop/subject-4.csv,legacy,3 9 8 1 6 4,Melodramatic Milgram,4.0.5,0,n,0,right,right,right,right,NA,1149,70417,1149,140914,NA,2,legacy,6,1024,2,48000,-16,experiment,4,even,7,430322,431374,2674,291328,431375,410705,2677,435580,436730,432377,150414,433578,73096,435580,NA,Sternberg task,33,37452,35,1024
94,94,1074,1074,#3d3846,experiment,legacy,legacy,legacy,1,undefined,1,right,35,35,0,0,35,35,0,35,35,35,0,35,0,35,0,Thu Oct 19 18:53:18 2023,The main experiment item,TRUE,Edward Banda Sternbergtask.osexp,C:\Users\Edward Banda\Desktop,FALSE,mono,FALSE,18,no,white,no,yes,768,legacy,23,11,C:/Users/Edward Banda/Desktop/subject-4.csv,legacy,2 3 8 5 6 7,Melodramatic Milgram,4.0.5,0,n,0,right,right,right,right,NA,1213,70417,1213,140914,NA,2,legacy,6,1024,2,48000,-16,experiment,4,even,1,436742,437781,2674,291328,437783,410705,2677,441986,443200,438784,150414,439985,73096,441986,NA,Sternberg task,34,38665,36,1024
94,94,1086,1086,#3d3846,experiment,legacy,legacy,legacy,1,undefined,1,right,36,36,0,0,36,36,0,36,36,36,0,36,0,36,0,Thu Oct 19 18:53:18 2023,The main experiment item,TRUE,Edward Banda Sternbergtask.osexp,C:\Users\Edward Banda\Desktop,FALSE,mono,FALSE,18,no,white,no,yes,768,legacy,24,11,C:/Users/Edward Banda/Desktop/subject-4.csv,legacy,7 4 2 8 1 9,Melodramatic Milgram,4.0.5,0,n,0,right,right,right,right,NA,1523,70417,1523,140914,NA,2,legacy,6,1024,2,48000,-16,experiment,4,even,5,443212,444246,2674,291328,444248,410705,2677,448451,449975,445249,150414,446450,73096,448451,NA,Sternberg task,35,40188,37,1024
94,94,1089,1089,#3d3846,experiment,legacy,legacy,legacy,1,undefined,1,right,37,37,0,0,37,37,0,37,37,37,0,37,0,37,0,Thu Oct 19 18:53:18 2023,The main experiment item,TRUE,Edward Banda Sternbergtask.osexp,C:\Users\Edward Banda\Desktop,FALSE,mono,FALSE,18,no,white,no,yes,768,legacy,25,11,C:/Users/Edward Banda/Desktop/subject-4.csv,legacy,1 4 9 3,Melodramatic Milgram,4.0.5,0,n,0,right,right,right,right,NA,1226,70417,1226,140914,NA,2,legacy,4,1024,2,48000,-16,experiment,4,even,5,449987,451039,2674,291328,451041,410705,2677,455244,456471,452042,150414,453243,73096,455244,NA,Sternberg task,36,41414,38,1024
94,94,1099,1099,#3d3846,experiment,legacy,legacy,legacy,1,undefined,1,left,38,38,0,0,38,38,0,38,38,38,0,38,0,38,0,Thu Oct 19 18:53:18 2023,The main experiment item,TRUE,Edward Banda Sternbergtask.osexp,C:\Users\Edward Banda\Desktop,FALSE,mono,FALSE,18,no,white,no,yes,768,legacy,26,11,C:/Users/Edward Banda/Desktop/subject-4.csv,legacy,2 4 8 5 1 3,Melodramatic Milgram,4.0.5,1,y,0,left,right,left,right,NA,1452,70417,1452,140914,NA,2,legacy,6,1024,2,48000,-16,experiment,4,even,2,456483,457541,2674,291328,457543,410705,2677,461746,463198,458544,150414,459745,73096,461746,NA,Sternberg task,37,42866,39,1024
95,95,1099,1099,#3d3846,experiment,legacy,legacy,legacy,1,undefined,1,right,39,39,0,0,39,39,0,39,39,39,0,39,0,39,0,Thu Oct 19 18:53:18 2023,The main experiment item,TRUE,Edward Banda Sternbergtask.osexp,C:\Users\Edward Banda\Desktop,FALSE,mono,FALSE,18,no,white,no,yes,768,legacy,27,11,C:/Users/Edward Banda/Desktop/subject-4.csv,legacy,9 7 4 5 8,Melodramatic Milgram,4.0.5,0,n,0,right,right,right,right,NA,1125,70417,1125,140914,NA,2,legacy,5,1024,2,48000,-16,experiment,4,even,6,463211,464248,2674,291328,464250,410705,2677,468453,469579,465251,150414,466452,73096,468453,NA,Sternberg task,38,43991,40,1024
95,95,1098,1098,#3d3846,experiment,legacy,legacy,legacy,1,undefined,1,left,40,40,0,0,40,40,0,40,40,40,0,40,0,40,0,Thu Oct 19 18:53:18 2023,The main experiment item,TRUE,Edward Banda Sternbergtask.osexp,C:\Users\Edward Banda\Desktop,FALSE,mono,FALSE,18,no,white,no,yes,768,legacy,28,11,C:/Users/Edward Banda/Desktop/subject-4.csv,legacy,2 3 7 4,Melodramatic Milgram,4.0.5,1,y,0,left,right,left,right,NA,1027,70417,1027,140914,NA,2,legacy,4,1024,2,48000,-16,experiment,4,even,2,469591,470636,2674,291328,470638,410705,2677,474841,475869,471639,150414,472840,73096,474841,NA,Sternberg task,39,45018,41,1024
95,95,1090,1090,#3d3846,experiment,legacy,legacy,legacy,1,undefined,1,right,41,41,0,0,41,41,0,41,41,41,0,41,0,41,0,Thu Oct 19 18:53:18 2023,The main experiment item,TRUE,Edward Banda Sternbergtask.osexp,C:\Users\Edward Banda\Desktop,FALSE,mono,FALSE,18,no,white,no,yes,768,legacy,29,11,C:/Users/Edward Banda/Desktop/subject-4.csv,legacy,5 3 8 7 2 4,Melodramatic Milgram,4.0.5,0,n,0,right,right,right,right,NA,765,70417,765,140914,NA,2,legacy,6,1024,2,48000,-16,experiment,4,even,9,475881,476930,2674,291328,476931,410705,2677,481134,481900,477932,150414,479133,73096,481134,NA,Sternberg task,40,45783,42,1024
95,95,1088,1088,#3d3846,experiment,legacy,legacy,legacy,1,undefined,1,left,42,42,0,0,42,42,0,42,42,42,0,42,0,42,0,Thu Oct 19 18:53:18 2023,The main experiment item,TRUE,Edward Banda Sternbergtask.osexp,C:\Users\Edward Banda\Desktop,FALSE,mono,FALSE,18,no,white,no,yes,768,legacy,30,11,C:/Users/Edward Banda/Desktop/subject-4.csv,legacy,2 4 6 9,Melodramatic Milgram,4.0.5,3,y,0,left,right,left,right,NA,1034,70417,1034,140914,NA,2,legacy,4,1024,2,48000,-16,experiment,4,even,6,481912,482951,2674,291328,482953,410705,2677,487156,488191,483954,150414,485155,73096,487156,NA,Sternberg task,41,46817,43,1024
95,95,1086,1086,#3d3846,experiment,legacy,legacy,legacy,1,undefined,1,right,43,43,0,0,43,43,0,43,43,43,0,43,0,43,0,Thu Oct 19 18:53:18 2023,The main experiment item,TRUE,Edward Banda Sternbergtask.osexp,C:\Users\Edward Banda\Desktop,FALSE,mono,FALSE,18,no,white,no,yes,768,legacy,31,11,C:/Users/Edward Banda/Desktop/subject-4.csv,legacy,5 9 2 3,Melodramatic Milgram,4.0.5,0,n,0,right,right,right,right,NA,974,70417,974,140914,NA,2,legacy,4,1024,2,48000,-16,experiment,4,even,8,488203,489242,2674,291328,489244,410705,2677,493447,494422,490245,150414,491446,73096,493447,NA,Sternberg task,42,47791,44,1024
95,95,1077,1077,#3d3846,experiment,legacy,legacy,legacy,1,undefined,1,left,44,44,0,0,44,44,0,44,44,44,0,44,0,44,0,Thu Oct 19 18:53:18 2023,The main experiment item,TRUE,Edward Banda Sternbergtask.osexp,C:\Users\Edward Banda\Desktop,FALSE,mono,FALSE,18,no,white,no,yes,768,legacy,32,11,C:/Users/Edward Banda/Desktop/subject-4.csv,legacy,2 3,Melodramatic Milgram,4.0.5,1,y,0,left,right,left,right,NA,702,70417,702,140914,NA,2,legacy,2,1024,2,48000,-16,experiment,4,even,2,494435,495475,2674,291328,495477,410705,2677,499680,500383,496478,150414,497679,73096,499680,NA,Sternberg task,43,48493,45,1024
95,95,1074,1074,#3d3846,experiment,legacy,legacy,legacy,1,undefined,1,left,45,45,0,0,45,45,0,45,45,45,0,45,0,45,0,Thu Oct 19 18:53:18 2023,The main experiment item,TRUE,Edward Banda Sternbergtask.osexp,C:\Users\Edward Banda\Desktop,FALSE,mono,FALSE,18,no,white,no,yes,768,legacy,33,11,C:/Users/Edward Banda/Desktop/subject-4.csv,legacy,8 9 6 1,Melodramatic Milgram,4.0.5,2,y,0,left,right,left,right,NA,954,70417,954,140914,NA,2,legacy,4,1024,2,48000,-16,experiment,4,even,9,500395,501444,2674,291328,501446,410705,2677,505649,506604,502447,150414,503648,73096,505649,NA,Sternberg task,44,49447,46,1024
95,95,1068,1068,#3d3846,experiment,legacy,legacy,legacy,1,undefined,1,right,46,46,0,0,46,46,0,46,46,46,0,46,0,46,0,Thu Oct 19 18:53:18 2023,The main experiment item,TRUE,Edward Banda Sternbergtask.osexp,C:\Users\Edward Banda\Desktop,FALSE,mono,FALSE,18,no,white,no,yes,768,legacy,34,11,C:/Users/Edward Banda/Desktop/subject-4.csv,legacy,4 8 1 2,Melodramatic Milgram,4.0.5,0,n,0,right,right,right,right,NA,760,70417,760,140914,NA,2,legacy,4,1024,2,48000,-16,experiment,4,even,7,506615,507669,2674,291328,507671,410705,2677,511874,512635,508672,150414,509873,73096,511874,NA,Sternberg task,45,50207,47,1024
95,95,1053,1053,#3d3846,experiment,legacy,legacy,legacy,1,undefined,1,left,47,47,0,0,47,47,0,47,47,47,0,47,0,47,0,Thu Oct 19 18:53:18 2023,The main experiment item,TRUE,Edward Banda Sternbergtask.osexp,C:\Users\Edward Banda\Desktop,FALSE,mono,FALSE,18,no,white,no,yes,768,legacy,35,11,C:/Users/Edward Banda/Desktop/subject-4.csv,legacy,4,Melodramatic Milgram,4.0.5,1,y,0,left,right,left,right,NA,383,70417,383,140914,NA,2,legacy,1,1024,2,48000,-16,experiment,4,even,4,512647,513687,2674,291328,513690,410705,2677,517893,518277,514691,150414,515892,73096,517893,NA,Sternberg task,46,50590,48,1024
95,95,1049,1049,#3d3846,experiment,legacy,legacy,legacy,1,undefined,1,right,48,48,0,0,48,48,0,48,48,48,0,48,0,48,0,Thu Oct 19 18:53:18 2023,The main experiment item,TRUE,Edward Banda Sternbergtask.osexp,C:\Users\Edward Banda\Desktop,FALSE,mono,FALSE,18,no,white,no,yes,768,legacy,36,11,C:/Users/Edward Banda/Desktop/subject-4.csv,legacy,5 7 3,Melodramatic Milgram,4.0.5,0,n,0,right,right,right,right,NA,819,70417,819,140914,NA,2,legacy,3,1024,2,48000,-16,experiment,4,even,9,518289,519331,2674,291328,519334,410705,2677,523537,524357,520335,150414,521536,73096,523537,NA,Sternberg task,47,51409,49,1024
96,96,1051,1051,#3d3846,experiment,legacy,legacy,legacy,1,undefined,1,left,49,49,0,0,49,49,0,49,49,49,0,49,0,49,0,Thu Oct 19 18:53:18 2023,The main experiment item,TRUE,Edward Banda Sternbergtask.osexp,C:\Users\Edward Banda\Desktop,FALSE,mono,FALSE,18,no,white,no,yes,768,legacy,37,11,C:/Users/Edward Banda/Desktop/subject-4.csv,legacy,6 7 8 5,Melodramatic Milgram,4.0.5,3,y,0,left,right,left,right,NA,1154,70417,1154,140914,NA,2,legacy,4,1024,2,48000,-16,experiment,4,even,8,524370,525419,2674,291328,525421,410705,2677,529624,530779,526422,150414,527623,73096,529624,NA,Sternberg task,48,52563,50,1024
96,96,1049,1049,#3d3846,experiment,legacy,legacy,legacy,1,undefined,1,left,50,50,0,0,50,50,0,50,50,50,0,50,0,50,0,Thu Oct 19 18:53:18 2023,The main experiment item,TRUE,Edward Banda Sternbergtask.osexp,C:\Users\Edward Banda\Desktop,FALSE,mono,FALSE,18,no,white,no,yes,768,legacy,38,11,C:/Users/Edward Banda/Desktop/subject-4.csv,legacy,5 2 6,Melodramatic Milgram,4.0.5,2,y,0,left,right,left,right,NA,979,70417,979,140914,NA,2,legacy,3,1024,2,48000,-16,experiment,4,even,2,530791,531836,2674,291328,531838,410705,2677,536041,537021,532839,150414,534040,73096,536041,NA,Sternberg task,49,53542,51,1024
96,96,1043,1043,#3d3846,experiment,legacy,legacy,legacy,1,undefined,1,right,51,51,0,0,51,51,0,51,51,51,0,51,0,51,0,Thu Oct 19 18:53:18 2023,The main experiment item,TRUE,Edward Banda Sternbergtask.osexp,C:\Users\Edward Banda\Desktop,FALSE,mono,FALSE,18,no,white,no,yes,768,legacy,39,11,C:/Users/Edward Banda/Desktop/subject-4.csv,legacy,6 9 5,Melodramatic Milgram,4.0.5,0,n,0,right,right,right,right,NA,728,70417,728,140914,NA,2,legacy,3,1024,2,48000,-16,experiment,4,even,8,537034,538091,2674,291328,538093,410705,2677,542298,543026,539095,150414,540297,73096,542298,NA,Sternberg task,50,54270,52,1024
96,96,1038,1038,#3d3846,experiment,legacy,legacy,legacy,1,undefined,1,left,52,52,0,0,52,52,0,52,52,52,0,52,0,52,0,Thu Oct 19 18:53:18 2023,The main experiment item,TRUE,Edward Banda Sternbergtask.osexp,C:\Users\Edward Banda\Desktop,FALSE,mono,FALSE,18,no,white,no,yes,768,legacy,40,11,C:/Users/Edward Banda/Desktop/subject-4.csv,legacy,3 4,Melodramatic Milgram,4.0.5,1,y,0,left,right,left,right,NA,767,70417,767,140914,NA,2,legacy,2,1024,2,48000,-16,experiment,4,even,3,543028,544078,2674,291328,544080,410705,2677,548283,549051,545081,150414,546282,73096,548283,NA,Sternberg task,51,55037,53,1024
96,96,1037,1037,#3d3846,experiment,legacy,legacy,legacy,1,undefined,1,left,53,53,0,0,53,53,0,53,53,53,0,53,0,53,0,Thu Oct 19 18:53:18 2023,The main experiment item,TRUE,Edward Banda Sternbergtask.osexp,C:\Users\Edward Banda\Desktop,FALSE,mono,FALSE,18,no,white,no,yes,768,legacy,41,11,C:/Users/Edward Banda/Desktop/subject-4.csv,legacy,2 8 5 1,Melodramatic Milgram,4.0.5,4,y,0,left,right,left,right,NA,972,70417,972,140914,NA,2,legacy,4,1024,2,48000,-16,experiment,4,even,1,549055,550115,2674,291328,550117,410705,2677,554321,555294,551118,150414,552320,73096,554321,NA,Sternberg task,52,56009,54,1024
96,96,1029,1029,#3d3846,experiment,legacy,legacy,legacy,1,undefined,1,right,54,54,0,0,54,54,0,54,54,54,0,54,0,54,0,Thu Oct 19 18:53:18 2023,The main experiment item,TRUE,Edward Banda Sternbergtask.osexp,C:\Users\Edward Banda\Desktop,FALSE,mono,FALSE,18,no,white,no,yes,768,legacy,42,11,C:/Users/Edward Banda/Desktop/subject-4.csv,legacy,6 8,Melodramatic Milgram,4.0.5,0,n,0,right,right,right,right,NA,612,70417,612,140914,NA,2,legacy,2,1024,2,48000,-16,experiment,4,even,9,555305,556352,2674,291328,556354,410705,2677,560557,561170,557355,150414,558556,73096,560557,NA,Sternberg task,53,56621,55,1024
96,96,1028,1028,#3d3846,experiment,legacy,legacy,legacy,1,undefined,1,left,55,55,0,0,55,55,0,55,55,55,0,55,0,55,0,Thu Oct 19 18:53:18 2023,The main experiment item,TRUE,Edward Banda Sternbergtask.osexp,C:\Users\Edward Banda\Desktop,FALSE,mono,FALSE,18,no,white,no,yes,768,legacy,43,11,C:/Users/Edward Banda/Desktop/subject-4.csv,legacy,3 5 7 1,Melodramatic Milgram,4.0.5,3,y,0,left,right,left,right,NA,962,70417,962,140914,NA,2,legacy,4,1024,2,48000,-16,experiment,4,even,7,561174,562222,2674,291328,562224,410705,2677,566427,567390,563225,150414,564426,73096,566427,NA,Sternberg task,54,57583,56,1024
96,96,1034,1034,#3d3846,experiment,legacy,legacy,legacy,1,undefined,1,right,56,56,0,0,56,56,0,56,56,56,0,56,0,56,0,Thu Oct 19 18:53:18 2023,The main experiment item,TRUE,Edward Banda Sternbergtask.osexp,C:\Users\Edward Banda\Desktop,FALSE,mono,FALSE,18,no,white,no,yes,768,legacy,44,11,C:/Users/Edward Banda/Desktop/subject-4.csv,legacy,4 2 7 6 1 3,Melodramatic Milgram,4.0.5,0,n,0,right,right,right,right,NA,1374,70417,1374,140914,NA,2,legacy,6,1024,2,48000,-16,experiment,4,even,8,567392,568437,2674,291328,568438,410705,2677,572641,574016,569439,150414,570640,73096,572641,NA,Sternberg task,55,58957,57,1024
96,96,1040,1040,#3d3846,experiment,legacy,legacy,legacy,1,undefined,1,right,57,57,0,0,57,57,0,57,57,57,0,57,0,57,0,Thu Oct 19 18:53:18 2023,The main experiment item,TRUE,Edward Banda Sternbergtask.osexp,C:\Users\Edward Banda\Desktop,FALSE,mono,FALSE,18,no,white,no,yes,768,legacy,45,11,C:/Users/Edward Banda/Desktop/subject-4.csv,legacy,8 4 3 5,Melodramatic Milgram,4.0.5,0,n,0,right,right,right,right,NA,1393,70417,1393,140914,NA,2,legacy,4,1024,2,48000,-16,experiment,4,even,6,574028,575072,2674,291328,575074,410705,2677,579277,580671,576075,150414,577276,73096,579277,NA,Sternberg task,56,60350,58,1024
96,96,1038,1038,#3d3846,experiment,legacy,legacy,legacy,1,undefined,1,right,58,58,0,0,58,58,0,58,58,58,0,58,0,58,0,Thu Oct 19 18:53:18 2023,The main experiment item,TRUE,Edward Banda Sternbergtask.osexp,C:\Users\Edward Banda\Desktop,FALSE,mono,FALSE,18,no,white,no,yes,768,legacy,46,11,C:/Users/Edward Banda/Desktop/subject-4.csv,legacy,1 7 5 2,Melodramatic Milgram,4.0.5,0,n,0,right,right,right,right,NA,900,70417,900,140914,NA,2,legacy,4,1024,2,48000,-16,experiment,4,even,3,580683,581730,2674,291328,581732,410705,2677,585935,586836,582733,150414,583934,73096,585935,NA,Sternberg task,57,61250,59,1024
96,96,1035,1035,#3d3846,experiment,legacy,legacy,legacy,1,undefined,1,left,59,59,0,0,59,59,0,59,59,59,0,59,0,59,0,Thu Oct 19 18:53:18 2023,The main experiment item,TRUE,Edward Banda Sternbergtask.osexp,C:\Users\Edward Banda\Desktop,FALSE,mono,FALSE,18,no,white,no,yes,768,legacy,47,11,C:/Users/Edward Banda/Desktop/subject-4.csv,legacy,2 6 1 7 4,Melodramatic Milgram,4.0.5,2,y,0,left,right,left,right,NA,865,70417,865,140914,NA,2,legacy,5,1024,2,48000,-16,experiment,4,even,6,586849,587896,2674,291328,587898,410705,2677,592101,592966,588899,150414,590100,73096,592101,NA,Sternberg task,58,62115,60,1024
96,96,1029,1029,#3d3846,experiment,legacy,legacy,legacy,1,undefined,1,left,60,60,0,0,60,60,0,60,60,60,0,60,0,60,0,Thu Oct 19 18:53:18 2023,The main experiment item,TRUE,Edward Banda Sternbergtask.osexp,C:\Users\Edward Banda\Desktop,FALSE,mono,FALSE,18,no,white,no,yes,768,legacy,48,11,C:/Users/Edward Banda/Desktop/subject-4.csv,legacy,6 1 2,Melodramatic Milgram,4.0.5,3,y,0,left,right,left,right,NA,702,70417,702,140914,NA,2,legacy,3,1024,2,48000,-16,experiment,4,even,2,592978,594015,2674,291328,594017,410705,2677,598220,598923,595018,150414,596219,73096,598220,NA,Sternberg task,59,62817,61,1024
96,96,1028,1028,#3d3846,experiment,legacy,legacy,legacy,1,undefined,1,left,61,61,0,0,61,61,0,61,61,61,0,61,0,61,0,Thu Oct 19 18:53:18 2023,The main experiment item,TRUE,Edward Banda Sternbergtask.osexp,C:\Users\Edward Banda\Desktop,FALSE,mono,FALSE,18,no,white,no,yes,768,legacy,49,11,C:/Users/Edward Banda/Desktop/subject-4.csv,legacy,7 4 2 6 3 5,Melodramatic Milgram,4.0.5,6,y,0,left,right,left,right,NA,940,70417,940,140914,NA,2,legacy,6,1024,2,48000,-16,experiment,4,even,5,598935,599982,2674,291328,599984,410705,2677,604187,605128,600985,150414,602186,73096,604187,NA,Sternberg task,60,63757,62,1024
96,96,1030,1030,#3d3846,experiment,legacy,legacy,legacy,1,undefined,1,right,62,62,0,0,62,62,0,62,62,62,0,62,0,62,0,Thu Oct 19 18:53:18 2023,The main experiment item,TRUE,Edward Banda Sternbergtask.osexp,C:\Users\Edward Banda\Desktop,FALSE,mono,FALSE,18,no,white,no,yes,768,legacy,50,11,C:/Users/Edward Banda/Desktop/subject-4.csv,legacy,6 8 4,Melodramatic Milgram,4.0.5,0,n,0,right,right,right,right,NA,1184,70417,1184,140914,NA,2,legacy,3,1024,2,48000,-16,experiment,4,even,1,605140,606184,2674,291328,606186,410705,2677,610389,611574,607187,150414,608388,73096,610389,NA,Sternberg task,61,64941,63,1024
96,96,1026,1026,#3d3846,experiment,legacy,legacy,legacy,1,undefined,1,right,63,63,0,0,63,63,0,63,63,63,0,63,0,63,0,Thu Oct 19 18:53:18 2023,The main experiment item,TRUE,Edward Banda Sternbergtask.osexp,C:\Users\Edward Banda\Desktop,FALSE,mono,FALSE,18,no,white,no,yes,768,legacy,51,11,C:/Users/Edward Banda/Desktop/subject-4.csv,legacy,6 3 1 7 9 8,Melodramatic Milgram,4.0.5,0,n,0,right,right,right,right,NA,763,70417,763,140914,NA,2,legacy,6,1024,2,48000,-16,experiment,4,even,4,611586,612630,2674,291328,612632,410705,2677,616835,617599,613633,150414,614834,73096,616835,NA,Sternberg task,62,65704,64,1024
96,96,1021,1021,#3d3846,experiment,legacy,legacy,legacy,1,undefined,1,left,64,64,0,0,64,64,0,64,64,64,0,64,0,64,0,Thu Oct 19 18:53:18 2023,The main experiment item,TRUE,Edward Banda Sternbergtask.osexp,C:\Users\Edward Banda\Desktop,FALSE,mono,FALSE,18,no,white,no,yes,768,legacy,52,11,C:/Users/Edward Banda/Desktop/subject-4.csv,legacy,8 3,Melodramatic Milgram,4.0.5,2,y,0,left,right,left,right,NA,670,70417,670,140914,NA,2,legacy,2,1024,2,48000,-16,experiment,4,even,3,617612,618663,2674,291328,618665,410705,2677,622868,623539,619666,150414,620867,73096,622868,NA,Sternberg task,63,66374,65,1024
96,96,1015,1015,#3d3846,experiment,legacy,legacy,legacy,1,undefined,1,left,65,65,0,0,65,65,0,65,65,65,0,65,0,65,0,Thu Oct 19 18:53:18 2023,The main experiment item,TRUE,Edward Banda Sternbergtask.osexp,C:\Users\Edward Banda\Desktop,FALSE,mono,FALSE,18,no,white,no,yes,768,legacy,53,11,C:/Users/Edward Banda/Desktop/subject-4.csv,legacy,6 2,Melodramatic Milgram,4.0.5,1,y,0,left,right,left,right,NA,643,70417,643,140914,NA,2,legacy,2,1024,2,48000,-16,experiment,4,even,6,623552,624601,2674,291328,624603,410705,2677,628806,629451,625604,150414,626805,73096,628806,NA,Sternberg task,64,67017,66,1024
97,97,1011,1011,#3d3846,experiment,legacy,legacy,legacy,1,undefined,1,right,66,66,0,0,66,66,0,66,66,66,0,66,0,66,0,Thu Oct 19 18:53:18 2023,The main experiment item,TRUE,Edward Banda Sternbergtask.osexp,C:\Users\Edward Banda\Desktop,FALSE,mono,FALSE,18,no,white,no,yes,768,legacy,54,11,C:/Users/Edward Banda/Desktop/subject-4.csv,legacy,8 9,Melodramatic Milgram,4.0.5,0,n,0,right,right,right,right,NA,769,70417,769,140914,NA,2,legacy,2,1024,2,48000,-16,experiment,4,even,5,629464,630510,2674,291328,630512,410705,2677,634715,635485,631513,150414,632714,73096,634715,NA,Sternberg task,65,67786,67,1024
97,97,1010,1010,#3d3846,experiment,legacy,legacy,legacy,1,undefined,1,left,67,67,0,0,67,67,0,67,67,67,0,67,0,67,0,Thu Oct 19 18:53:18 2023,The main experiment item,TRUE,Edward Banda Sternbergtask.osexp,C:\Users\Edward Banda\Desktop,FALSE,mono,FALSE,18,no,white,no,yes,768,legacy,55,11,C:/Users/Edward Banda/Desktop/subject-4.csv,legacy,3 9 6 2,Melodramatic Milgram,4.0.5,4,y,0,left,right,left,right,NA,898,70417,898,140914,NA,2,legacy,4,1024,2,48000,-16,experiment,4,even,2,635498,636536,2674,291328,636538,410705,2677,640741,641641,637539,150414,638740,73096,640741,NA,Sternberg task,66,68684,68,1024
97,97,1005,1005,#3d3846,experiment,legacy,legacy,legacy,1,undefined,1,right,68,68,0,0,68,68,0,68,68,68,0,68,0,68,0,Thu Oct 19 18:53:18 2023,The main experiment item,TRUE,Edward Banda Sternbergtask.osexp,C:\Users\Edward Banda\Desktop,FALSE,mono,FALSE,18,no,white,no,yes,768,legacy,56,11,C:/Users/Edward Banda/Desktop/subject-4.csv,legacy,1 3 2 6 9,Melodramatic Milgram,4.0.5,0,n,0,right,right,right,right,NA,704,70417,704,140914,NA,2,legacy,5,1024,2,48000,-16,experiment,4,even,5,641653,642706,2674,291328,642708,410705,2677,646911,647616,643709,150414,644910,73096,646911,NA,Sternberg task,67,69388,69,1024
97,97,1002,1002,#3d3846,experiment,legacy,legacy,legacy,1,undefined,1,right,69,69,0,0,69,69,0,69,69,69,0,69,0,69,0,Thu Oct 19 18:53:18 2023,The main experiment item,TRUE,Edward Banda Sternbergtask.osexp,C:\Users\Edward Banda\Desktop,FALSE,mono,FALSE,18,no,white,no,yes,768,legacy,57,11,C:/Users/Edward Banda/Desktop/subject-4.csv,legacy,6 9 7 3 8 2,Melodramatic Milgram,4.0.5,0,n,0,right,right,right,right,NA,765,70417,765,140914,NA,2,legacy,6,1024,2,48000,-16,experiment,4,even,5,647628,648671,2674,291328,648673,410705,2677,652876,653642,649674,150414,650875,73096,652876,NA,Sternberg task,68,70153,70,1024
97,97,998,998,#3d3846,experiment,legacy,legacy,legacy,1,undefined,1,left,70,70,0,0,70,70,0,70,70,70,0,70,0,70,0,Thu Oct 19 18:53:18 2023,The main experiment item,TRUE,Edward Banda Sternbergtask.osexp,C:\Users\Edward Banda\Desktop,FALSE,mono,FALSE,18,no,white,no,yes,768,legacy,58,11,C:/Users/Edward Banda/Desktop/subject-4.csv,legacy,9 4 2,Melodramatic Milgram,4.0.5,1,y,0,left,right,left,right,NA,747,70417,747,140914,NA,2,legacy,3,1024,2,48000,-16,experiment,4,even,9,653654,654693,2674,291328,654695,410705,2677,658898,659646,655696,150414,656897,73096,658898,NA,Sternberg task,69,70900,71,1024
97,97,994,994,#3d3846,experiment,legacy,legacy,legacy,1,undefined,1,left,71,71,0,0,71,71,0,71,71,71,0,71,0,71,0,Thu Oct 19 18:53:18 2023,The main experiment item,TRUE,Edward Banda Sternbergtask.osexp,C:\Users\Edward Banda\Desktop,FALSE,mono,FALSE,18,no,white,no,yes,768,legacy,59,11,C:/Users/Edward Banda/Desktop/subject-4.csv,legacy,9 1 7 2,Melodramatic Milgram,4.0.5,2,y,0,left,right,left,right,NA,671,70417,671,140914,NA,2,legacy,4,1024,2,48000,-16,experiment,4,even,1,659658,660705,2674,291328,660707,410705,2677,664910,665582,661708,150414,662909,73096,664910,NA,Sternberg task,70,71571,72,1024
97,97,995,995,#3d3846,experiment,legacy,legacy,legacy,1,undefined,1,left,72,72,0,0,72,72,0,72,72,72,0,72,0,72,0,Thu Oct 19 18:53:18 2023,The main experiment item,TRUE,Edward Banda Sternbergtask.osexp,C:\Users\Edward Banda\Desktop,FALSE,mono,FALSE,18,no,white,no,yes,768,legacy,60,11,C:/Users/Edward Banda/Desktop/subject-4.csv,legacy,3 5 9 6 2 4,Melodramatic Milgram,4.0.5,1,y,0,left,right,left,right,NA,1070,70417,1070,140914,NA,2,legacy,6,1024,2,48000,-16,experiment,4,even,3,665594,666641,2674,291328,666643,410705,2677,670846,671917,667644,150414,668845,73096,670846,NA,Sternberg task,71,72641,73,1024
97,97,990,990,#3d3846,experiment,legacy,legacy,legacy,1,undefined,1,left,73,73,0,0,73,73,0,73,73,73,0,73,0,73,0,Thu Oct 19 18:53:18 2023,The main experiment item,TRUE,Edward Banda Sternbergtask.osexp,C:\Users\Edward Banda\Desktop,FALSE,mono,FALSE,18,no,white,no,yes,768,legacy,61,11,C:/Users/Edward Banda/Desktop/subject-4.csv,legacy,7 2 3,Melodramatic Milgram,4.0.5,3,y,0,left,right,left,right,NA,689,70417,689,140914,NA,2,legacy,3,1024,2,48000,-16,experiment,4,even,3,671930,672982,2674,291328,672984,410705,2677,677187,677878,673985,150414,675186,73096,677187,NA,Sternberg task,72,73330,74,1024
96,96,1004,1004,#3d3846,experiment,legacy,legacy,legacy,0,undefined,0,left,74,74,0,0,74,74,0,74,74,74,0,74,0,74,0,Thu Oct 19 18:53:18 2023,The main experiment item,TRUE,Edward Banda Sternbergtask.osexp,C:\Users\Edward Banda\Desktop,FALSE,mono,FALSE,18,no,white,no,yes,768,legacy,62,11,C:/Users/Edward Banda/Desktop/subject-4.csv,legacy,6 9 7 4 5 1,Melodramatic Milgram,4.0.5,2,y,0,None,right,None,right,NA,2000,70417,2000,140914,NA,2,legacy,6,1024,2,48000,-16,experiment,4,even,9,677891,678939,2674,291328,678941,410705,2677,683144,685144,679942,150414,681143,73096,683144,NA,Sternberg task,72,75330,75,1024
96,96,1002,1002,#3d3846,experiment,legacy,legacy,legacy,1,undefined,1,left,75,75,0,0,75,75,0,75,75,75,0,75,0,75,0,Thu Oct 19 18:53:18 2023,The main experiment item,TRUE,Edward Banda Sternbergtask.osexp,C:\Users\Edward Banda\Desktop,FALSE,mono,FALSE,18,no,white,no,yes,768,legacy,63,11,C:/Users/Edward Banda/Desktop/subject-4.csv,legacy,9 3 1 2 5,Melodramatic Milgram,4.0.5,4,y,0,left,right,left,right,NA,889,70417,889,140914,NA,2,legacy,5,1024,2,48000,-16,experiment,4,even,2,677891,686196,2674,291328,686198,685157,2677,690401,691291,687199,150414,688400,73096,690401,NA,Sternberg task,73,76219,76,1024
96,96,999,999,#3d3846,experiment,legacy,legacy,legacy,1,undefined,1,right,76,76,0,0,76,76,0,76,76,76,0,76,0,76,0,Thu Oct 19 18:53:18 2023,The main experiment item,TRUE,Edward Banda Sternbergtask.osexp,C:\Users\Edward Banda\Desktop,FALSE,mono,FALSE,18,no,white,no,yes,768,legacy,64,11,C:/Users/Edward Banda/Desktop/subject-4.csv,legacy,1 6 4,Melodramatic Milgram,4.0.5,0,n,0,right,right,right,right,NA,748,70417,748,140914,NA,2,legacy,3,1024,2,48000,-16,experiment,4,even,7,691303,692358,2674,291328,692360,685157,2677,696563,697312,693361,150414,694562,73096,696563,NA,Sternberg task,74,76967,77,1024
96,96,1007,1007,#3d3846,experiment,legacy,legacy,legacy,1,undefined,1,left,77,77,0,0,77,77,0,77,77,77,0,77,0,77,0,Thu Oct 19 18:53:18 2023,The main experiment item,TRUE,Edward Banda Sternbergtask.osexp,C:\Users\Edward Banda\Desktop,FALSE,mono,FALSE,18,no,white,no,yes,768,legacy,65,11,C:/Users/Edward Banda/Desktop/subject-4.csv,legacy,5 2 9 6 1 7,Melodramatic Milgram,4.0.5,3,y,0,left,right,left,right,NA,1584,70417,1584,140914,NA,2,legacy,6,1024,2,48000,-16,experiment,4,even,9,697323,698370,2674,291328,698372,685157,2677,702575,704161,699373,150414,700574,73096,702575,NA,Sternberg task,75,78551,78,1024
96,96,1002,1002,#3d3846,experiment,legacy,legacy,legacy,1,undefined,1,right,78,78,0,0,78,78,0,78,78,78,0,78,0,78,0,Thu Oct 19 18:53:18 2023,The main experiment item,TRUE,Edward Banda Sternbergtask.osexp,C:\Users\Edward Banda\Desktop,FALSE,mono,FALSE,18,no,white,no,yes,768,legacy,66,11,C:/Users/Edward Banda/Desktop/subject-4.csv,legacy,1,Melodramatic Milgram,4.0.5,0,n,0,right,right,right,right,NA,636,70417,636,140914,NA,2,legacy,1,1024,2,48000,-16,experiment,4,even,7,704201,705249,2674,291328,705251,685157,2677,709454,710091,706252,150414,707453,73096,709454,NA,Sternberg task,76,79187,79,1024
96,96,997,997,#3d3846,experiment,legacy,legacy,legacy,1,undefined,1,left,79,79,0,0,79,79,0,79,79,79,0,79,0,79,0,Thu Oct 19 18:53:18 2023,The main experiment item,TRUE,Edward Banda Sternbergtask.osexp,C:\Users\Edward Banda\Desktop,FALSE,mono,FALSE,18,no,white,no,yes,768,legacy,67,11,C:/Users/Edward Banda/Desktop/subject-4.csv,legacy,9 1 6 7 8,Melodramatic Milgram,4.0.5,1,y,0,left,right,left,right,NA,627,70417,627,140914,NA,2,legacy,5,1024,2,48000,-16,experiment,4,even,9,710103,711148,2674,291328,711150,685157,2677,715353,715981,712151,150414,713352,73096,715353,NA,Sternberg task,77,79814,80,1024
96,96,996,996,#3d3846,experiment,legacy,legacy,legacy,1,undefined,1,right,80,80,0,0,80,80,0,80,80,80,0,80,0,80,0,Thu Oct 19 18:53:18 2023,The main experiment item,TRUE,Edward Banda Sternbergtask.osexp,C:\Users\Edward Banda\Desktop,FALSE,mono,FALSE,18,no,white,no,yes,768,legacy,68,11,C:/Users/Edward Banda/Desktop/subject-4.csv,legacy,6 2 9 3 8 4,Melodramatic Milgram,4.0.5,0,n,0,right,right,right,right,NA,891,70417,891,140914,NA,2,legacy,6,1024,2,48000,-16,experiment,4,even,1,715993,717034,2674,291328,717036,685157,2677,721239,722131,718036,150414,719238,73096,721239,NA,Sternberg task,78,80705,81,1024
96,96,992,992,#3d3846,experiment,legacy,legacy,legacy,1,undefined,1,right,81,81,0,0,81,81,0,81,81,81,0,81,0,81,0,Thu Oct 19 18:53:18 2023,The main experiment item,TRUE,Edward Banda Sternbergtask.osexp,C:\Users\Edward Banda\Desktop,FALSE,mono,FALSE,18,no,white,no,yes,768,legacy,69,11,C:/Users/Edward Banda/Desktop/subject-4.csv,legacy,7 1,Melodramatic Milgram,4.0.5,0,n,0,right,right,right,right,NA,675,70417,675,140914,NA,2,legacy,2,1024,2,48000,-16,experiment,4,even,8,722133,723171,2674,291328,723173,685157,2677,727376,728053,724174,150414,725375,73096,727376,NA,Sternberg task,79,81380,82,1024
96,96,993,993,#3d3846,experiment,legacy,legacy,legacy,1,undefined,1,right,82,82,0,0,82,82,0,82,82,82,0,82,0,82,0,Thu Oct 19 18:53:18 2023,The main experiment item,TRUE,Edward Banda Sternbergtask.osexp,C:\Users\Edward Banda\Desktop,FALSE,mono,FALSE,18,no,white,no,yes,768,legacy,70,11,C:/Users/Edward Banda/Desktop/subject-4.csv,legacy,2 6 4 3 9,Melodramatic Milgram,4.0.5,0,n,0,right,right,right,right,NA,1067,70417,1067,140914,NA,2,legacy,5,1024,2,48000,-16,experiment,4,even,1,728065,729110,2674,291328,729112,685157,2677,733315,734383,730113,150414,731314,73096,733315,NA,Sternberg task,80,82447,83,1024
96,96,989,989,#3d3846,experiment,legacy,legacy,legacy,1,undefined,1,right,83,83,0,0,83,83,0,83,83,83,0,83,0,83,0,Thu Oct 19 18:53:18 2023,The main experiment item,TRUE,Edward Banda Sternbergtask.osexp,C:\Users\Edward Banda\Desktop,FALSE,mono,FALSE,18,no,white,no,yes,768,legacy,71,11,C:/Users/Edward Banda/Desktop/subject-4.csv,legacy,1 7 5 2 9,Melodramatic Milgram,4.0.5,0,n,0,right,right,right,right,NA,659,70417,659,140914,NA,2,legacy,5,1024,2,48000,-16,experiment,4,even,3,734396,735450,2674,291328,735453,685157,2677,739656,740316,736454,150414,737655,73096,739656,NA,Sternberg task,81,83106,84,1024
96,96,991,991,#3d3846,experiment,legacy,legacy,legacy,1,undefined,1,left,84,84,0,0,84,84,0,84,84,84,0,84,0,84,0,Thu Oct 19 18:53:18 2023,The main experiment item,TRUE,Edward Banda Sternbergtask.osexp,C:\Users\Edward Banda\Desktop,FALSE,mono,FALSE,18,no,white,no,yes,768,legacy,72,11,C:/Users/Edward Banda/Desktop/subject-4.csv,legacy,3 9 7 6 4,Melodramatic Milgram,4.0.5,3,y,0,left,right,left,right,NA,1201,70417,1201,140914,NA,2,legacy,5,1024,2,48000,-16,experiment,4,even,7,740328,741371,2674,291328,741373,685157,2677,745576,746779,742374,150414,743575,73096,745576,NA,Sternberg task,82,84307,85,1024
96,96,990,990,#3d3846,experiment,legacy,legacy,legacy,1,undefined,1,left,85,85,0,0,85,85,0,85,85,85,0,85,0,85,0,Thu Oct 19 18:53:18 2023,The main experiment item,TRUE,Edward Banda Sternbergtask.osexp,C:\Users\Edward Banda\Desktop,FALSE,mono,FALSE,18,no,white,no,yes,768,legacy,73,11,C:/Users/Edward Banda/Desktop/subject-4.csv,legacy,4 6 2 5 1,Melodramatic Milgram,4.0.5,5,y,0,left,right,left,right,NA,908,70417,908,140914,NA,2,legacy,5,1024,2,48000,-16,experiment,4,even,1,746791,747840,2674,291328,747842,685157,2677,752045,752953,748843,150414,750044,73096,752045,NA,Sternberg task,83,85215,86,1024
96,96,985,985,#3d3846,experiment,legacy,legacy,legacy,1,undefined,1,left,86,86,0,0,86,86,0,86,86,86,0,86,0,86,0,Thu Oct 19 18:53:18 2023,The main experiment item,TRUE,Edward Banda Sternbergtask.osexp,C:\Users\Edward Banda\Desktop,FALSE,mono,FALSE,18,no,white,no,yes,768,legacy,74,11,C:/Users/Edward Banda/Desktop/subject-4.csv,legacy,4 1 5,Melodramatic Milgram,4.0.5,2,y,0,left,right,left,right,NA,493,70417,493,140914,NA,2,legacy,3,1024,2,48000,-16,experiment,4,even,1,752965,754011,2674,291328,754013,685157,2677,758216,758709,755014,150414,756215,73096,758216,NA,Sternberg task,84,85708,87,1024
96,96,985,985,#3d3846,experiment,legacy,legacy,legacy,1,undefined,1,left,87,87,0,0,87,87,0,87,87,87,0,87,0,87,0,Thu Oct 19 18:53:18 2023,The main experiment item,TRUE,Edward Banda Sternbergtask.osexp,C:\Users\Edward Banda\Desktop,FALSE,mono,FALSE,18,no,white,no,yes,768,legacy,75,11,C:/Users/Edward Banda/Desktop/subject-4.csv,legacy,6 8 9 3 4 9,Melodramatic Milgram,4.0.5,5,y,0,left,right,left,right,NA,983,70417,983,140914,NA,2,legacy,6,1024,2,48000,-16,experiment,4,even,4,758722,759775,2674,291328,759776,685157,2677,763980,764964,760778,150414,761979,73096,763980,NA,Sternberg task,85,86691,88,1024
96,96,985,985,#3d3846,experiment,legacy,legacy,legacy,1,undefined,1,right,88,88,0,0,88,88,0,88,88,88,0,88,0,88,0,Thu Oct 19 18:53:18 2023,The main experiment item,TRUE,Edward Banda Sternbergtask.osexp,C:\Users\Edward Banda\Desktop,FALSE,mono,FALSE,18,no,white,no,yes,768,legacy,76,11,C:/Users/Edward Banda/Desktop/subject-4.csv,legacy,9 5 3 2 8 6,Melodramatic Milgram,4.0.5,0,n,0,right,right,right,right,NA,1016,70417,1016,140914,NA,2,legacy,6,1024,2,48000,-16,experiment,4,even,7,765003,766052,2674,291328,766054,685157,2677,770257,771275,767055,150414,768256,73096,770257,NA,Sternberg task,86,87707,89,1024
96,96,981,981,#3d3846,experiment,legacy,legacy,legacy,1,undefined,1,left,89,89,0,0,89,89,0,89,89,89,0,89,0,89,0,Thu Oct 19 18:53:18 2023,The main experiment item,TRUE,Edward Banda Sternbergtask.osexp,C:\Users\Edward Banda\Desktop,FALSE,mono,FALSE,18,no,white,no,yes,768,legacy,77,11,C:/Users/Edward Banda/Desktop/subject-4.csv,legacy,9 8 4,Melodramatic Milgram,4.0.5,1,y,0,left,right,left,right,NA,659,70417,659,140914,NA,2,legacy,3,1024,2,48000,-16,experiment,4,even,9,771288,772325,2674,291328,772327,685157,2677,776530,777190,773328,150414,774529,73096,776530,NA,Sternberg task,87,88366,90,1024
96,96,979,979,#3d3846,experiment,legacy,legacy,legacy,1,undefined,1,left,90,90,0,0,90,90,0,90,90,90,0,90,0,90,0,Thu Oct 19 18:53:18 2023,The main experiment item,TRUE,Edward Banda Sternbergtask.osexp,C:\Users\Edward Banda\Desktop,FALSE,mono,FALSE,18,no,white,no,yes,768,legacy,78,11,C:/Users/Edward Banda/Desktop/subject-4.csv,legacy,4 1 8 7 5,Melodramatic Milgram,4.0.5,3,y,0,left,right,left,right,NA,791,70417,791,140914,NA,2,legacy,5,1024,2,48000,-16,experiment,4,even,8,777203,778255,2674,291328,778256,685157,2677,782459,783251,779257,150414,780458,73096,782459,NA,Sternberg task,88,89157,91,1024
96,96,972,972,#3d3846,experiment,legacy,legacy,legacy,1,undefined,1,left,91,91,0,0,91,91,0,91,91,91,0,91,0,91,0,Thu Oct 19 18:53:18 2023,The main experiment item,TRUE,Edward Banda Sternbergtask.osexp,C:\Users\Edward Banda\Desktop,FALSE,mono,FALSE,18,no,white,no,yes,768,legacy,79,11,C:/Users/Edward Banda/Desktop/subject-4.csv,legacy,7 1 3,Melodramatic Milgram,4.0.5,2,y,0,left,right,left,right,NA,358,70417,358,140914,NA,2,legacy,3,1024,2,48000,-16,experiment,4,even,1,783262,784334,2674,291328,784336,685157,2677,788539,788898,785337,150414,786538,73096,788539,NA,Sternberg task,89,89515,92,1024
96,96,968,968,#3d3846,experiment,legacy,legacy,legacy,1,undefined,1,left,92,92,0,0,92,92,0,92,92,92,0,92,0,92,0,Thu Oct 19 18:53:18 2023,The main experiment item,TRUE,Edward Banda Sternbergtask.osexp,C:\Users\Edward Banda\Desktop,FALSE,mono,FALSE,18,no,white,no,yes,768,legacy,80,11,C:/Users/Edward Banda/Desktop/subject-4.csv,legacy,8 9 5 6 7,Melodramatic Milgram,4.0.5,1,y,0,left,right,left,right,NA,537,70417,537,140914,NA,2,legacy,5,1024,2,48000,-16,experiment,4,even,8,788910,789954,2674,291328,789956,685157,2677,794160,794698,790958,150414,792159,73096,794160,NA,Sternberg task,90,90052,93,1024
96,96,965,965,#3d3846,experiment,legacy,legacy,legacy,1,undefined,1,right,93,93,0,0,93,93,0,93,93,93,0,93,0,93,0,Thu Oct 19 18:53:18 2023,The main experiment item,TRUE,Edward Banda Sternbergtask.osexp,C:\Users\Edward Banda\Desktop,FALSE,mono,FALSE,18,no,white,no,yes,768,legacy,81,11,C:/Users/Edward Banda/Desktop/subject-4.csv,legacy,7 1 8 4 9 3,Melodramatic Milgram,4.0.5,0,n,0,right,right,right,right,NA,690,70417,690,140914,NA,2,legacy,6,1024,2,48000,-16,experiment,4,even,6,794710,795753,2674,291328,795755,685157,2677,799958,800649,796756,150414,797957,73096,799957,NA,Sternberg task,91,90742,94,1024
96,96,964,964,#3d3846,experiment,legacy,legacy,legacy,1,undefined,1,right,94,94,0,0,94,94,0,94,94,94,0,94,0,94,0,Thu Oct 19 18:53:18 2023,The main experiment item,TRUE,Edward Banda Sternbergtask.osexp,C:\Users\Edward Banda\Desktop,FALSE,mono,FALSE,18,no,white,no,yes,768,legacy,82,11,C:/Users/Edward Banda/Desktop/subject-4.csv,legacy,7 9 1 6,Melodramatic Milgram,4.0.5,0,n,0,right,right,right,right,NA,889,70417,889,140914,NA,2,legacy,4,1024,2,48000,-16,experiment,4,even,4,800661,801698,2674,291328,801699,685157,2677,805904,806794,802701,150414,803902,73096,805904,NA,Sternberg task,92,91631,95,1024
96,96,962,962,#3d3846,experiment,legacy,legacy,legacy,1,undefined,1,right,95,95,0,0,95,95,0,95,95,95,0,95,0,95,0,Thu Oct 19 18:53:18 2023,The main experiment item,TRUE,Edward Banda Sternbergtask.osexp,C:\Users\Edward Banda\Desktop,FALSE,mono,FALSE,18,no,white,no,yes,768,legacy,83,11,C:/Users/Edward Banda/Desktop/subject-4.csv,legacy,1 4 9 2 5,Melodramatic Milgram,4.0.5,0,n,0,right,right,right,right,NA,782,70417,782,140914,NA,2,legacy,5,1024,2,48000,-16,experiment,4,even,7,806806,807847,2674,291328,807849,685157,2677,812052,812835,808850,150414,810051,73096,812052,NA,Sternberg task,93,92413,96,1024
96,96,961,961,#3d3846,experiment,legacy,legacy,legacy,1,undefined,1,right,96,96,0,0,96,96,0,96,96,96,0,96,0,96,0,Thu Oct 19 18:53:18 2023,The main experiment item,TRUE,Edward Banda Sternbergtask.osexp,C:\Users\Edward Banda\Desktop,FALSE,mono,FALSE,18,no,white,no,yes,768,legacy,84,11,C:/Users/Edward Banda/Desktop/subject-4.csv,legacy,5 2,Melodramatic Milgram,4.0.5,0,n,0,right,right,right,right,NA,896,70417,896,140914,NA,2,legacy,2,1024,2,48000,-16,experiment,4,even,7,812847,813888,2674,291328,813890,685157,2677,818093,818990,814891,150414,816092,73096,818093,NA,Sternberg task,94,93309,97,1024
96,96,964,964,#3d3846,experiment,legacy,legacy,legacy,1,undefined,1,right,97,97,0,0,97,97,0,97,97,97,0,97,0,97,0,Thu Oct 19 18:53:18 2023,The main experiment item,TRUE,Edward Banda Sternbergtask.osexp,C:\Users\Edward Banda\Desktop,FALSE,mono,FALSE,18,no,white,no,yes,768,legacy,85,11,C:/Users/Edward Banda/Desktop/subject-4.csv,legacy,7 8 6 1,Melodramatic Milgram,4.0.5,0,n,0,right,right,right,right,NA,1253,70417,1253,140914,NA,2,legacy,4,1024,2,48000,-16,experiment,4,even,3,819002,820037,2674,291328,820038,685157,2677,824241,825495,821039,150414,822240,73096,824241,NA,Sternberg task,95,94562,98,1024
96,96,965,965,#3d3846,experiment,legacy,legacy,legacy,1,undefined,1,right,98,98,0,0,98,98,0,98,98,98,0,98,0,98,0,Thu Oct 19 18:53:18 2023,The main experiment item,TRUE,Edward Banda Sternbergtask.osexp,C:\Users\Edward Banda\Desktop,FALSE,mono,FALSE,18,no,white,no,yes,768,legacy,86,11,C:/Users/Edward Banda/Desktop/subject-4.csv,legacy,2 8 9 4 1,Melodramatic Milgram,4.0.5,0,n,0,right,right,right,right,NA,997,70417,997,140914,NA,2,legacy,5,1024,2,48000,-16,experiment,4,even,5,825535,826585,2674,291328,826587,685157,2677,830791,831789,827589,150414,828790,73096,830791,NA,Sternberg task,96,95559,99,1024
97,97,964,964,#3d3846,experiment,legacy,legacy,legacy,1,undefined,1,left,99,99,0,0,99,99,0,99,99,99,0,99,0,99,0,Thu Oct 19 18:53:18 2023,The main experiment item,TRUE,Edward Banda Sternbergtask.osexp,C:\Users\Edward Banda\Desktop,FALSE,mono,FALSE,18,no,white,no,yes,768,legacy,87,11,C:/Users/Edward Banda/Desktop/subject-4.csv,legacy,7 8 4 6 9 5,Melodramatic Milgram,4.0.5,4,y,0,left,right,left,right,NA,843,70417,843,140914,NA,2,legacy,6,1024,2,48000,-16,experiment,4,even,6,831802,832850,2674,291328,832852,685157,2677,837055,837899,833853,150414,835054,73096,837055,NA,Sternberg task,97,96402,100,1024
97,97,962,962,#3d3846,experiment,legacy,legacy,legacy,1,undefined,1,right,100,100,0,0,100,100,0,100,100,100,0,100,0,100,0,Thu Oct 19 18:53:18 2023,The main experiment item,TRUE,Edward Banda Sternbergtask.osexp,C:\Users\Edward Banda\Desktop,FALSE,mono,FALSE,18,no,white,no,yes,768,legacy,88,11,C:/Users/Edward Banda/Desktop/subject-4.csv,legacy,8 5 4 2 9 6,Melodramatic Milgram,4.0.5,0,n,0,right,right,right,right,NA,772,70417,772,140914,NA,2,legacy,6,1024,2,48000,-16,experiment,4,even,3,837911,838962,2674,291328,838964,685157,2677,843167,843940,839965,150414,841166,73096,843167,NA,Sternberg task,98,97174,101,1024
97,97,960,960,#3d3846,experiment,legacy,legacy,legacy,1,undefined,1,right,101,101,0,0,101,101,0,101,101,101,0,101,0,101,0,Thu Oct 19 18:53:18 2023,The main experiment item,TRUE,Edward Banda Sternbergtask.osexp,C:\Users\Edward Banda\Desktop,FALSE,mono,FALSE,18,no,white,no,yes,768,legacy,89,11,C:/Users/Edward Banda/Desktop/subject-4.csv,legacy,7 9,Melodramatic Milgram,4.0.5,0,n,0,right,right,right,right,NA,775,70417,775,140914,NA,2,legacy,2,1024,2,48000,-16,experiment,4,even,1,843952,845004,2674,291328,845006,685157,2677,849209,849986,846007,150414,847208,73096,849209,NA,Sternberg task,99,97949,102,1024
96,96,958,958,#3d3846,experiment,legacy,legacy,legacy,0,undefined,0,left,102,102,0,0,102,102,0,102,102,102,0,102,0,102,0,Thu Oct 19 18:53:18 2023,The main experiment item,TRUE,Edward Banda Sternbergtask.osexp,C:\Users\Edward Banda\Desktop,FALSE,mono,FALSE,18,no,white,no,yes,768,legacy,90,11,C:/Users/Edward Banda/Desktop/subject-4.csv,legacy,8 1 6,Melodramatic Milgram,4.0.5,3,y,0,right,right,right,right,NA,726,70417,726,140914,NA,2,legacy,3,1024,2,48000,-16,experiment,4,even,6,849998,851039,2674,291328,851041,685157,2677,855244,855970,852042,150414,853243,73096,855244,NA,Sternberg task,99,98675,103,1024
96,96,956,956,#3d3846,experiment,legacy,legacy,legacy,1,undefined,1,right,103,103,0,0,103,103,0,103,103,103,0,103,0,103,0,Thu Oct 19 18:53:18 2023,The main experiment item,TRUE,Edward Banda Sternbergtask.osexp,C:\Users\Edward Banda\Desktop,FALSE,mono,FALSE,18,no,white,no,yes,768,legacy,91,11,C:/Users/Edward Banda/Desktop/subject-4.csv,legacy,8 2 1 4 5 9,Melodramatic Milgram,4.0.5,0,n,0,right,right,right,right,NA,752,70417,752,140914,NA,2,legacy,6,1024,2,48000,-16,experiment,4,even,7,849998,857013,2674,291328,857015,855973,2677,861218,861971,858016,150414,859217,73096,861218,NA,Sternberg task,100,99427,104,1024
96,96,951,951,#3d3846,experiment,legacy,legacy,legacy,1,undefined,1,left,104,104,0,0,104,104,0,104,104,104,0,104,0,104,0,Thu Oct 19 18:53:18 2023,The main experiment item,TRUE,Edward Banda Sternbergtask.osexp,C:\Users\Edward Banda\Desktop,FALSE,mono,FALSE,18,no,white,no,yes,768,legacy,92,11,C:/Users/Edward Banda/Desktop/subject-4.csv,legacy,7,Melodramatic Milgram,4.0.5,1,y,0,left,right,left,right,NA,476,70417,476,140914,NA,2,legacy,1,1024,2,48000,-16,experiment,4,even,7,861983,863021,2674,291328,863022,855973,2677,867225,867702,864023,150414,865224,73096,867225,NA,Sternberg task,101,99903,105,1024
96,96,952,952,#3d3846,experiment,legacy,legacy,legacy,1,undefined,1,left,105,105,0,0,105,105,0,105,105,105,0,105,0,105,0,Thu Oct 19 18:53:18 2023,The main experiment item,TRUE,Edward Banda Sternbergtask.osexp,C:\Users\Edward Banda\Desktop,FALSE,mono,FALSE,18,no,white,no,yes,768,legacy,93,11,C:/Users/Edward Banda/Desktop/subject-4.csv,legacy,6 9 3 1,Melodramatic Milgram,4.0.5,4,y,0,left,right,left,right,NA,1062,70417,1062,140914,NA,2,legacy,4,1024,2,48000,-16,experiment,4,even,1,867714,868760,2674,291328,868762,855973,2677,872965,874028,869763,150414,870964,73096,872965,NA,Sternberg task,102,100965,106,1024
95,95,951,951,#3d3846,experiment,legacy,legacy,legacy,0,undefined,0,left,106,106,0,0,106,106,0,106,106,106,0,106,0,106,0,Thu Oct 19 18:53:18 2023,The main experiment item,TRUE,Edward Banda Sternbergtask.osexp,C:\Users\Edward Banda\Desktop,FALSE,mono,FALSE,18,no,white,no,yes,768,legacy,94,11,C:/Users/Edward Banda/Desktop/subject-4.csv,legacy,9 3 8 2 1 4,Melodramatic Milgram,4.0.5,3,y,0,right,right,right,right,NA,871,70417,871,140914,NA,2,legacy,6,1024,2,48000,-16,experiment,4,even,8,874041,875100,2674,291328,875102,855973,2677,879305,880177,876103,150414,877304,73096,879305,NA,Sternberg task,102,101836,107,1024
95,95,949,949,#3d3846,experiment,legacy,legacy,legacy,1,undefined,1,left,107,107,0,0,107,107,0,107,107,107,0,107,0,107,0,Thu Oct 19 18:53:18 2023,The main experiment item,TRUE,Edward Banda Sternbergtask.osexp,C:\Users\Edward Banda\Desktop,FALSE,mono,FALSE,18,no,white,no,yes,768,legacy,95,11,C:/Users/Edward Banda/Desktop/subject-4.csv,legacy,1 4 9 3 2 5,Melodramatic Milgram,4.0.5,3,y,0,left,right,left,right,NA,708,70417,708,140914,NA,2,legacy,6,1024,2,48000,-16,experiment,4,even,9,874041,881264,2674,291328,881266,880217,2677,885469,886178,882267,150414,883468,73096,885469,NA,Sternberg task,103,102544,108,1024
95,95,951,951,#3d3846,experiment,legacy,legacy,legacy,1,undefined,1,right,108,108,0,0,108,108,0,108,108,108,0,108,0,108,0,Thu Oct 19 18:53:18 2023,The main experiment item,TRUE,Edward Banda Sternbergtask.osexp,C:\Users\Edward Banda\Desktop,FALSE,mono,FALSE,18,no,white,no,yes,768,legacy,96,11,C:/Users/Edward Banda/Desktop/subject-4.csv,legacy,1 7 8 3 9,Melodramatic Milgram,4.0.5,0,n,0,right,right,right,right,NA,1180,70417,1180,140914,NA,2,legacy,5,1024,2,48000,-16,experiment,4,even,2,886190,887237,2674,291328,887238,880217,2677,891442,892624,888240,150414,889441,73096,891442,NA,Sternberg task,104,103724,109,1024
95,95,950,950,#3d3846,experiment,legacy,legacy,legacy,1,undefined,1,right,109,109,0,0,109,109,0,109,109,109,0,109,0,109,0,Thu Oct 19 18:53:18 2023,The main experiment item,TRUE,Edward Banda Sternbergtask.osexp,C:\Users\Edward Banda\Desktop,FALSE,mono,FALSE,18,no,white,no,yes,768,legacy,97,11,C:/Users/Edward Banda/Desktop/subject-4.csv,legacy,8 6 3 4 7,Melodramatic Milgram,4.0.5,0,n,0,right,right,right,right,NA,876,70417,876,140914,NA,2,legacy,5,1024,2,48000,-16,experiment,4,even,1,892637,893688,2674,291328,893690,880217,2677,897893,898771,894691,150414,895892,73096,897893,NA,Sternberg task,105,104600,110,1024
95,95,955,955,#3d3846,experiment,legacy,legacy,legacy,1,undefined,1,right,110,110,0,0,110,110,0,110,110,110,0,110,0,110,0,Thu Oct 19 18:53:18 2023,The main experiment item,TRUE,Edward Banda Sternbergtask.osexp,C:\Users\Edward Banda\Desktop,FALSE,mono,FALSE,18,no,white,no,yes,768,legacy,98,11,C:/Users/Edward Banda/Desktop/subject-4.csv,legacy,2 8 7 9 5 3,Melodramatic Milgram,4.0.5,0,n,0,right,right,right,right,NA,1437,70417,1437,140914,NA,2,legacy,6,1024,2,48000,-16,experiment,4,even,6,898783,899824,2674,291328,899826,880217,2677,904029,905467,900827,150414,902028,73096,904029,NA,Sternberg task,106,106037,111,1024
95,95,957,957,#3d3846,experiment,legacy,legacy,legacy,1,undefined,1,right,111,111,0,0,111,111,0,111,111,111,0,111,0,111,0,Thu Oct 19 18:53:18 2023,The main experiment item,TRUE,Edward Banda Sternbergtask.osexp,C:\Users\Edward Banda\Desktop,FALSE,mono,FALSE,18,no,white,no,yes,768,legacy,99,11,C:/Users/Edward Banda/Desktop/subject-4.csv,legacy,7 6 4 8 1 2,Melodramatic Milgram,4.0.5,0,n,0,right,right,right,right,NA,1249,70417,1249,140914,NA,2,legacy,6,1024,2,48000,-16,experiment,4,even,9,905480,906526,2674,291328,906527,880217,2677,910731,911981,907529,150414,908730,73096,910731,NA,Sternberg task,107,107286,112,1024
94,94,959,959,#3d3846,experiment,legacy,legacy,legacy,0,undefined,0,left,112,112,0,0,112,112,0,112,112,112,0,112,0,112,0,Thu Oct 19 18:53:18 2023,The main experiment item,TRUE,Edward Banda Sternbergtask.osexp,C:\Users\Edward Banda\Desktop,FALSE,mono,FALSE,18,no,white,no,yes,768,legacy,100,11,C:/Users/Edward Banda/Desktop/subject-4.csv,legacy,9 5 8 1,Melodramatic Milgram,4.0.5,2,y,0,right,right,right,right,NA,1182,70417,1182,140914,NA,2,legacy,4,1024,2,48000,-16,experiment,4,even,5,911994,913038,2674,291328,913040,880217,2677,917244,918427,914042,150414,915243,73096,917244,NA,Sternberg task,107,108468,113,1024
94,94,965,965,#3d3846,experiment,legacy,legacy,legacy,1,undefined,1,right,113,113,0,0,113,113,0,113,113,113,0,113,0,113,0,Thu Oct 19 18:53:18 2023,The main experiment item,TRUE,Edward Banda Sternbergtask.osexp,C:\Users\Edward Banda\Desktop,FALSE,mono,FALSE,18,no,white,no,yes,768,legacy,101,11,C:/Users/Edward Banda/Desktop/subject-4.csv,legacy,3 4 2,Melodramatic Milgram,4.0.5,0,n,0,right,right,right,right,NA,1583,70417,1583,140914,NA,2,legacy,3,1024,2,48000,-16,experiment,4,even,5,911994,919497,2674,291328,919499,918440,2677,923702,925286,920500,150414,921701,73096,923702,NA,Sternberg task,108,110051,114,1024
94,94,966,966,#3d3846,experiment,legacy,legacy,legacy,1,undefined,1,right,114,114,0,0,114,114,0,114,114,114,0,114,0,114,0,Thu Oct 19 18:53:18 2023,The main experiment item,TRUE,Edward Banda Sternbergtask.osexp,C:\Users\Edward Banda\Desktop,FALSE,mono,FALSE,18,no,white,no,yes,768,legacy,102,11,C:/Users/Edward Banda/Desktop/subject-4.csv,legacy,1 6 4 3 9 7,Melodramatic Milgram,4.0.5,0,n,0,right,right,right,right,NA,1052,70417,1052,140914,NA,2,legacy,6,1024,2,48000,-16,experiment,4,even,8,925298,926347,2674,291328,926349,918440,2677,930552,931606,927350,150414,928551,73096,930552,NA,Sternberg task,109,111103,115,1024
94,94,964,964,#3d3846,experiment,legacy,legacy,legacy,1,undefined,1,right,115,115,0,0,115,115,0,115,115,115,0,115,0,115,0,Thu Oct 19 18:53:18 2023,The main experiment item,TRUE,Edward Banda Sternbergtask.osexp,C:\Users\Edward Banda\Desktop,FALSE,mono,FALSE,18,no,white,no,yes,768,legacy,103,11,C:/Users/Edward Banda/Desktop/subject-4.csv,legacy,3 9 1,Melodramatic Milgram,4.0.5,0,n,0,right,right,right,right,NA,744,70417,744,140914,NA,2,legacy,3,1024,2,48000,-16,experiment,4,even,7,931619,932660,2674,291328,932662,918440,2677,936865,937610,933663,150414,934864,73096,936865,NA,Sternberg task,110,111847,116,1024
94,94,964,964,#3d3846,experiment,legacy,legacy,legacy,1,undefined,1,left,116,116,0,0,116,116,0,116,116,116,0,116,0,116,0,Thu Oct 19 18:53:18 2023,The main experiment item,TRUE,Edward Banda Sternbergtask.osexp,C:\Users\Edward Banda\Desktop,FALSE,mono,FALSE,18,no,white,no,yes,768,legacy,104,11,C:/Users/Edward Banda/Desktop/subject-4.csv,legacy,8 5 1 3 9,Melodramatic Milgram,4.0.5,4,y,0,left,right,left,right,NA,1032,70417,1032,140914,NA,2,legacy,5,1024,2,48000,-16,experiment,4,even,3,937623,938671,2674,291328,938674,918440,2677,942877,943910,939675,150414,940876,73096,942877,NA,Sternberg task,111,112879,117,1024
94,94,963,963,#3d3846,experiment,legacy,legacy,legacy,1,undefined,1,left,117,117,0,0,117,117,0,117,117,117,0,117,0,117,0,Thu Oct 19 18:53:18 2023,The main experiment item,TRUE,Edward Banda Sternbergtask.osexp,C:\Users\Edward Banda\Desktop,FALSE,mono,FALSE,18,no,white,no,yes,768,legacy,105,11,C:/Users/Edward Banda/Desktop/subject-4.csv,legacy,3 4 9 6 2 9,Melodramatic Milgram,4.0.5,5,y,0,left,right,left,right,NA,819,70417,819,140914,NA,2,legacy,6,1024,2,48000,-16,experiment,4,even,2,943923,944965,2674,291328,944967,918440,2677,949170,949991,945968,150414,947169,73096,949170,NA,Sternberg task,112,113698,118,1024
94,94,963,963,#3d3846,experiment,legacy,legacy,legacy,1,undefined,1,right,118,118,0,0,118,118,0,118,118,118,0,118,0,118,0,Thu Oct 19 18:53:18 2023,The main experiment item,TRUE,Edward Banda Sternbergtask.osexp,C:\Users\Edward Banda\Desktop,FALSE,mono,FALSE,18,no,white,no,yes,768,legacy,106,11,C:/Users/Edward Banda/Desktop/subject-4.csv,legacy,6 9 4 5 2,Melodramatic Milgram,4.0.5,0,n,0,right,right,right,right,NA,906,70417,906,140914,NA,2,legacy,5,1024,2,48000,-16,experiment,4,even,1,950031,951078,2674,291328,951080,918440,2677,955283,956190,952081,150414,953282,73096,955283,NA,Sternberg task,113,114604,119,1024
95,95,965,965,#3d3846,experiment,legacy,legacy,legacy,1,undefined,1,left,119,119,0,0,119,119,0,119,119,119,0,119,0,119,0,Thu Oct 19 18:53:18 2023,The main experiment item,TRUE,Edward Banda Sternbergtask.osexp,C:\Users\Edward Banda\Desktop,FALSE,mono,FALSE,18,no,white,no,yes,768,legacy,107,11,C:/Users/Edward Banda/Desktop/subject-4.csv,legacy,4 3 2 5 8,Melodramatic Milgram,4.0.5,2,y,0,left,right,left,right,NA,1242,70417,1242,140914,NA,2,legacy,5,1024,2,48000,-16,experiment,4,even,3,956192,957237,2674,291328,957238,918440,2677,961442,962685,958240,150414,959441,73096,961442,NA,Sternberg task,114,115846,120,1024
95,95,964,964,#3d3846,experiment,legacy,legacy,legacy,1,undefined,1,right,120,120,0,0,120,120,0,120,120,120,0,120,0,120,0,Thu Oct 19 18:53:18 2023,The main experiment item,TRUE,Edward Banda Sternbergtask.osexp,C:\Users\Edward Banda\Desktop,FALSE,mono,FALSE,18,no,white,no,yes,768,legacy,108,11,C:/Users/Edward Banda/Desktop/subject-4.csv,legacy,8 4 3 9,Melodramatic Milgram,4.0.5,0,n,0,right,right,right,right,NA,832,70417,832,140914,NA,2,legacy,4,1024,2,48000,-16,experiment,4,even,5,962697,963747,2674,291328,963749,918440,2677,967952,968785,964750,150414,965951,73096,967952,NA,Sternberg task,115,116678,121,1024
95,95,963,963,#3d3846,experiment,legacy,legacy,legacy,1,undefined,1,right,121,121,0,0,121,121,0,121,121,121,0,121,0,121,0,Thu Oct 19 18:53:18 2023,The main experiment item,TRUE,Edward Banda Sternbergtask.osexp,C:\Users\Edward Banda\Desktop,FALSE,mono,FALSE,18,no,white,no,yes,768,legacy,109,11,C:/Users/Edward Banda/Desktop/subject-4.csv,legacy,8 5 7 3 6,Melodramatic Milgram,4.0.5,0,n,0,right,right,right,right,NA,877,70417,877,140914,NA,2,legacy,5,1024,2,48000,-16,experiment,4,even,9,968797,969862,2674,291328,969864,918440,2677,974067,974945,970865,150414,972066,73096,974067,NA,Sternberg task,116,117555,122,1024
95,95,960,960,#3d3846,experiment,legacy,legacy,legacy,1,undefined,1,left,122,122,0,0,122,122,0,122,122,122,0,122,0,122,0,Thu Oct 19 18:53:18 2023,The main experiment item,TRUE,Edward Banda Sternbergtask.osexp,C:\Users\Edward Banda\Desktop,FALSE,mono,FALSE,18,no,white,no,yes,768,legacy,110,11,C:/Users/Edward Banda/Desktop/subject-4.csv,legacy,6 7 9 3 1 2,Melodramatic Milgram,4.0.5,1,y,0,left,right,left,right,NA,645,70417,645,140914,NA,2,legacy,6,1024,2,48000,-16,experiment,4,even,6,974958,976009,2674,291328,976011,918440,2677,980214,980861,977012,150414,978213,73096,980214,NA,Sternberg task,117,118200,123,1024
95,95,960,960,#3d3846,experiment,legacy,legacy,legacy,1,undefined,1,right,123,123,0,0,123,123,0,123,123,123,0,123,0,123,0,Thu Oct 19 18:53:18 2023,The main experiment item,TRUE,Edward Banda Sternbergtask.osexp,C:\Users\Edward Banda\Desktop,FALSE,mono,FALSE,18,no,white,no,yes,768,legacy,111,11,C:/Users/Edward Banda/Desktop/subject-4.csv,legacy,1 4 3 6 5,Melodramatic Milgram,4.0.5,0,n,0,right,right,right,right,NA,942,70417,942,140914,NA,2,legacy,5,1024,2,48000,-16,experiment,4,even,8,980863,981913,2674,291328,981914,918440,2677,986117,987061,982915,150414,984116,73096,986117,NA,Sternberg task,118,119142,124,1024
95,95,965,965,#3d3846,experiment,legacy,legacy,legacy,1,undefined,1,left,124,124,0,0,124,124,0,124,124,124,0,124,0,124,0,Thu Oct 19 18:53:18 2023,The main experiment item,TRUE,Edward Banda Sternbergtask.osexp,C:\Users\Edward Banda\Desktop,FALSE,mono,FALSE,18,no,white,no,yes,768,legacy,112,11,C:/Users/Edward Banda/Desktop/subject-4.csv,legacy,2 5 4 8 7,Melodramatic Milgram,4.0.5,3,y,0,left,right,left,right,NA,1495,70417,1495,140914,NA,2,legacy,5,1024,2,48000,-16,experiment,4,even,4,987073,988119,2674,291328,988121,918440,2677,992324,993821,989122,150414,990323,73096,992324,NA,Sternberg task,119,120637,125,1024
95,95,964,964,#3d3846,experiment,legacy,legacy,legacy,1,undefined,1,left,125,125,0,0,125,125,0,125,125,125,0,125,0,125,0,Thu Oct 19 18:53:18 2023,The main experiment item,TRUE,Edward Banda Sternbergtask.osexp,C:\Users\Edward Banda\Desktop,FALSE,mono,FALSE,18,no,white,no,yes,768,legacy,113,11,C:/Users/Edward Banda/Desktop/subject-4.csv,legacy,3 2 1 4 7,Melodramatic Milgram,4.0.5,2,y,0,left,right,left,right,NA,842,70417,842,140914,NA,2,legacy,5,1024,2,48000,-16,experiment,4,even,2,993834,994882,2674,291328,994884,918440,2677,999087,999931,995885,150414,997086,73096,999087,NA,Sternberg task,120,121479,126,1024
95,95,963,963,#3d3846,experiment,legacy,legacy,legacy,1,undefined,1,right,126,126,0,0,126,126,0,126,126,126,0,126,0,126,0,Thu Oct 19 18:53:18 2023,The main experiment item,TRUE,Edward Banda Sternbergtask.osexp,C:\Users\Edward Banda\Desktop,FALSE,mono,FALSE,18,no,white,no,yes,768,legacy,114,11,C:/Users/Edward Banda/Desktop/subject-4.csv,legacy,7 3 2 8,Melodramatic Milgram,4.0.5,0,n,0,right,right,right,right,NA,858,70417,858,140914,NA,2,legacy,4,1024,2,48000,-16,experiment,4,even,4,999943,1000992,2674,291328,1000994,918440,2677,1005197,1006056,1001995,150414,1003196,73096,1005197,NA,Sternberg task,121,122337,127,1024
95,95,962,962,#3d3846,experiment,legacy,legacy,legacy,1,undefined,1,left,127,127,0,0,127,127,0,127,127,127,0,127,0,127,0,Thu Oct 19 18:53:18 2023,The main experiment item,TRUE,Edward Banda Sternbergtask.osexp,C:\Users\Edward Banda\Desktop,FALSE,mono,FALSE,18,no,white,no,yes,768,legacy,115,11,C:/Users/Edward Banda/Desktop/subject-4.csv,legacy,7 8 6 3 1,Melodramatic Milgram,4.0.5,5,y,0,left,right,left,right,NA,861,70417,861,140914,NA,2,legacy,5,1024,2,48000,-16,experiment,4,even,1,1006069,1007118,2674,291328,1007120,918440,2677,1011324,1012186,1008122,150414,1009323,73096,1011324,NA,Sternberg task,122,123198,128,1024
95,95,963,963,#3d3846,experiment,legacy,legacy,legacy,1,undefined,1,left,128,128,0,0,128,128,0,128,128,128,0,128,0,128,0,Thu Oct 19 18:53:18 2023,The main experiment item,TRUE,Edward Banda Sternbergtask.osexp,C:\Users\Edward Banda\Desktop,FALSE,mono,FALSE,18,no,white,no,yes,768,legacy,116,11,C:/Users/Edward Banda/Desktop/subject-4.csv,legacy,9 5 3 8 4,Melodramatic Milgram,4.0.5,1,y,0,left,right,left,right,NA,1121,70417,1121,140914,NA,2,legacy,5,1024,2,48000,-16,experiment,4,even,9,1012191,1013249,2674,291328,1013251,918440,2677,1017454,1018577,1014252,150414,1015453,73096,1017454,NA,Sternberg task,123,124319,129,1024
95,95,965,965,#3d3846,experiment,legacy,legacy,legacy,1,undefined,1,right,129,129,0,0,129,129,0,129,129,129,0,129,0,129,0,Thu Oct 19 18:53:18 2023,The main experiment item,TRUE,Edward Banda Sternbergtask.osexp,C:\Users\Edward Banda\Desktop,FALSE,mono,FALSE,18,no,white,no,yes,768,legacy,117,11,C:/Users/Edward Banda/Desktop/subject-4.csv,legacy,6 9 4 5 3 2,Melodramatic Milgram,4.0.5,0,n,0,right,right,right,right,NA,1217,70417,1217,140914,NA,2,legacy,6,1024,2,48000,-16,experiment,4,even,8,1018590,1019638,2674,291328,1019640,918440,2677,1023843,1025062,1020641,150414,1021842,73096,1023843,NA,Sternberg task,124,125536,130,1024
95,95,967,967,#3d3846,experiment,legacy,legacy,legacy,1,undefined,1,right,130,130,0,0,130,130,0,130,130,130,0,130,0,130,0,Thu Oct 19 18:53:18 2023,The main experiment item,TRUE,Edward Banda Sternbergtask.osexp,C:\Users\Edward Banda\Desktop,FALSE,mono,FALSE,18,no,white,no,yes,768,legacy,118,11,C:/Users/Edward Banda/Desktop/subject-4.csv,legacy,3 4 9 6 7 8,Melodramatic Milgram,4.0.5,0,n,0,right,right,right,right,NA,1238,70417,1238,140914,NA,2,legacy,6,1024,2,48000,-16,experiment,4,even,2,1025102,1026147,2674,291328,1026149,918440,2677,1030352,1031591,1027150,150414,1028351,73096,1030352,NA,Sternberg task,125,126774,131,1024
94,94,969,969,#3d3846,experiment,legacy,legacy,legacy,0,undefined,0,left,131,131,0,0,131,131,0,131,131,131,0,131,0,131,0,Thu Oct 19 18:53:18 2023,The main experiment item,TRUE,Edward Banda Sternbergtask.osexp,C:\Users\Edward Banda\Desktop,FALSE,mono,FALSE,18,no,white,no,yes,768,legacy,119,11,C:/Users/Edward Banda/Desktop/subject-4.csv,legacy,8 5 4 7 3 1,Melodramatic Milgram,4.0.5,2,y,0,right,right,right,right,NA,1209,70417,1209,140914,NA,2,legacy,6,1024,2,48000,-16,experiment,4,even,5,1031603,1032645,2674,291328,1032647,918440,2677,1036850,1038061,1033648,150414,1034849,73096,1036850,NA,Sternberg task,125,127983,132,1024
94,94,968,968,#3d3846,experiment,legacy,legacy,legacy,1,undefined,1,left,132,132,0,0,132,132,0,132,132,132,0,132,0,132,0,Thu Oct 19 18:53:18 2023,The main experiment item,TRUE,Edward Banda Sternbergtask.osexp,C:\Users\Edward Banda\Desktop,FALSE,mono,FALSE,18,no,white,no,yes,768,legacy,120,11,C:/Users/Edward Banda/Desktop/subject-4.csv,legacy,5 7 3 6 2,Melodramatic Milgram,4.0.5,5,y,0,left,right,left,right,NA,773,70417,773,140914,NA,2,legacy,5,1024,2,48000,-16,experiment,4,even,2,1031603,1039121,2674,291328,1039123,1038074,2677,1043326,1044100,1040124,150414,1041325,73096,1043326,NA,Sternberg task,126,128756,133,1024
94,94,969,969,#3d3846,experiment,legacy,legacy,legacy,0,undefined,0,right,133,133,0,0,133,133,0,133,133,133,0,133,0,133,0,Thu Oct 19 18:53:18 2023,The main experiment item,TRUE,Edward Banda Sternbergtask.osexp,C:\Users\Edward Banda\Desktop,FALSE,mono,FALSE,18,no,white,no,yes,768,legacy,121,11,C:/Users/Edward Banda/Desktop/subject-4.csv,legacy,6 7 5 9,Melodramatic Milgram,4.0.5,0,n,0,left,right,left,right,NA,1204,70417,1204,140914,NA,2,legacy,4,1024,2,48000,-16,experiment,4,even,2,1044112,1045155,2674,291328,1045157,1038074,2677,1049360,1050565,1046158,150414,1047359,73096,1049360,NA,Sternberg task,126,129960,134,1024
94,94,970,970,#3d3846,experiment,legacy,legacy,legacy,1,undefined,1,right,134,134,0,0,134,134,0,134,134,134,0,134,0,134,0,Thu Oct 19 18:53:18 2023,The main experiment item,TRUE,Edward Banda Sternbergtask.osexp,C:\Users\Edward Banda\Desktop,FALSE,mono,FALSE,18,no,white,no,yes,768,legacy,122,11,C:/Users/Edward Banda/Desktop/subject-4.csv,legacy,9 8 2 7 4,Melodramatic Milgram,4.0.5,0,n,0,right,right,right,right,NA,1011,70417,1011,140914,NA,2,legacy,5,1024,2,48000,-16,experiment,4,even,5,1044112,1051619,2674,291328,1051621,1050577,2677,1055824,1056836,1052622,150414,1053823,73096,1055824,NA,Sternberg task,127,130971,135,1024
94,94,970,970,#3d3846,experiment,legacy,legacy,legacy,1,undefined,1,right,135,135,0,0,135,135,0,135,135,135,0,135,0,135,0,Thu Oct 19 18:53:18 2023,The main experiment item,TRUE,Edward Banda Sternbergtask.osexp,C:\Users\Edward Banda\Desktop,FALSE,mono,FALSE,18,no,white,no,yes,768,legacy,123,11,C:/Users/Edward Banda/Desktop/subject-4.csv,legacy,2 8 9,Melodramatic Milgram,4.0.5,0,n,0,right,right,right,right,NA,1045,70417,1045,140914,NA,2,legacy,3,1024,2,48000,-16,experiment,4,even,6,1056848,1057895,2674,291328,1057896,1050577,2677,1062100,1063146,1058898,150414,1060099,73096,1062100,NA,Sternberg task,128,132016,136,1024
94,94,970,970,#3d3846,experiment,legacy,legacy,legacy,1,undefined,1,right,136,136,0,0,136,136,0,136,136,136,0,136,0,136,0,Thu Oct 19 18:53:18 2023,The main experiment item,TRUE,Edward Banda Sternbergtask.osexp,C:\Users\Edward Banda\Desktop,FALSE,mono,FALSE,18,no,white,no,yes,768,legacy,124,11,C:/Users/Edward Banda/Desktop/subject-4.csv,legacy,2 8 6 3 1,Melodramatic Milgram,4.0.5,0,n,0,right,right,right,right,NA,949,70417,949,140914,NA,2,legacy,5,1024,2,48000,-16,experiment,4,even,7,1063158,1064215,2674,291328,1064217,1050577,2677,1068420,1069370,1065218,150414,1066419,73096,1068419,NA,Sternberg task,129,132965,137,1024
93,93,968,968,#3d3846,experiment,legacy,legacy,legacy,0,undefined,0,left,137,137,0,0,137,137,0,137,137,137,0,137,0,137,0,Thu Oct 19 18:53:18 2023,The main experiment item,TRUE,Edward Banda Sternbergtask.osexp,C:\Users\Edward Banda\Desktop,FALSE,mono,FALSE,18,no,white,no,yes,768,legacy,125,11,C:/Users/Edward Banda/Desktop/subject-4.csv,legacy,4 7 6 8 2 3,Melodramatic Milgram,4.0.5,6,y,0,right,right,right,right,NA,693,70417,693,140914,NA,2,legacy,6,1024,2,48000,-16,experiment,4,even,3,1069383,1070422,2674,291328,1070423,1050577,2677,1074626,1075321,1071424,150414,1072625,73096,1074626,NA,Sternberg task,129,133658,138,1024
