"acc","accuracy","average_response_time","avg_rt","background","block","canvas_backend","clock_backend","color_backend","compensation","coordinates","correct","correct_instruction1","correct_keyboard_response","correct_response","count_ISI","count_Instructions2","count_correctFeedback","count_expSequence","count_experiment","count_experimentLoop","count_fixation","count_incorrectFeedback","count_instruction1","count_keyboard_response","count_memorySet","count_new_logger","count_practiceLoop","count_probe","count_thankYou","datetime","description","disable_garbage_collection","experiment_file","experiment_path","font_bold","font_family","font_italic","font_size","font_underline","foreground","form_clicks","fullscreen","height","keyboard_backend","live_row","live_row_practiceLoop","logfile","mouse_backend","numberSet","opensesame_codename","opensesame_version","posInSet","present","repeat_cycle","response","response_Instructions2","response_instruction1","response_keyboard_response","response_thankYou","response_time","response_time_Instructions2","response_time_instruction1","response_time_keyboard_response","response_time_thankYou","round_decimals","sampler_backend","setSize","sound_buf_size","sound_channels","sound_freq","sound_sample_size","start","subject_nr","subject_parity","target","time_ISI","time_Instructions2","time_correctFeedback","time_expSequence","time_experiment","time_experimentLoop","time_fixation","time_incorrectFeedback","time_instruction1","time_keyboard_response","time_memorySet","time_new_logger","time_practiceLoop","time_probe","time_thankYou","title","total_correct","total_response_time","total_responses","uniform_coordinates","width"
"100","100","861","861","black","practice","legacy","legacy","legacy","0","uniform","1","undefined","1","right","0","0","0","0","0","0","0","0","0","0","0","0","0","0","0","10/17/21 08:18:00","The main experiment item","yes","Sternbergtask.osexp","C:/Users/suici/Desktop/Tarleton/Fall 2021 - Graduate Studies/PSYC 5316-010 Advanced Quantitative Methods & Experiment Design/Lab 3 - the Sternberg memory scanning task (an experiment on short term memory)","no","mono","no","18","no","white","no","yes","768","legacy","0","0","C:/Users/suici/Desktop/Tarleton/Fall 2021 - Graduate Studies/PSYC 5316-010 Advanced Quantitative Methods & Experiment Design/Lab 3 - the Sternberg memory scanning task (an experiment on short term memory)/SM-subject-2.csv","legacy","2 1","Lentiform Loewenfeld","3.3.9","0","n","0","right","NA","left","right","NA","861","NA","89659","861","NA","2","legacy","2","1024","2","48000","-16","experiment","2","even","5","93582","NA","NA","91381","1397","NA","91382","NA","1400","95582","92382","96444","91059","95582","NA","Sternberg task","1","861","1","yes","1024"
"100","100","1321","1321","black","practice","legacy","legacy","legacy","0","uniform","1","undefined","1","left","1","0","1","1","0","0","1","1","0","1","1","1","0","1","0","10/17/21 08:18:00","The main experiment item","yes","Sternbergtask.osexp","C:/Users/suici/Desktop/Tarleton/Fall 2021 - Graduate Studies/PSYC 5316-010 Advanced Quantitative Methods & Experiment Design/Lab 3 - the Sternberg memory scanning task (an experiment on short term memory)","no","mono","no","18","no","white","no","yes","768","legacy","1","1","C:/Users/suici/Desktop/Tarleton/Fall 2021 - Graduate Studies/PSYC 5316-010 Advanced Quantitative Methods & Experiment Design/Lab 3 - the Sternberg memory scanning task (an experiment on short term memory)/SM-subject-2.csv","legacy","1 7 9 8 5","Lentiform Loewenfeld","3.3.9","4","y","0","left","NA","left","left","NA","1781","NA","89659","1781","NA","2","legacy","5","1024","2","48000","-16","experiment","2","even","8","99702","NA","96466","97501","1397","NA","97502","NA","1400","101702","98502","103484","91059","101702","NA","Sternberg task","2","2642","2","yes","1024"
"100","100","1127","1127","black","practice","legacy","legacy","legacy","0","uniform","1","undefined","1","left","2","0","2","2","0","0","2","2","0","2","2","2","0","2","0","10/17/21 08:18:00","The main experiment item","yes","Sternbergtask.osexp","C:/Users/suici/Desktop/Tarleton/Fall 2021 - Graduate Studies/PSYC 5316-010 Advanced Quantitative Methods & Experiment Design/Lab 3 - the Sternberg memory scanning task (an experiment on short term memory)","no","mono","no","18","no","white","no","yes","768","legacy","2","2","C:/Users/suici/Desktop/Tarleton/Fall 2021 - Graduate Studies/PSYC 5316-010 Advanced Quantitative Methods & Experiment Design/Lab 3 - the Sternberg memory scanning task (an experiment on short term memory)/SM-subject-2.csv","legacy","4 8","Lentiform Loewenfeld","3.3.9","1","y","0","left","NA","left","left","NA","739","NA","89659","739","NA","2","legacy","2","1024","2","48000","-16","experiment","2","even","4","106720","NA","103485","104519","1397","NA","104520","NA","1400","108720","105520","109459","91059","108720","NA","Sternberg task","3","3381","3","yes","1024"
"100","100","1019.5","1019.5","black","practice","legacy","legacy","legacy","0","uniform","1","undefined","1","left","3","0","3","3","0","0","3","3","0","3","3","3","0","3","0","10/17/21 08:18:00","The main experiment item","yes","Sternbergtask.osexp","C:/Users/suici/Desktop/Tarleton/Fall 2021 - Graduate Studies/PSYC 5316-010 Advanced Quantitative Methods & Experiment Design/Lab 3 - the Sternberg memory scanning task (an experiment on short term memory)","no","mono","no","18","no","white","no","yes","768","legacy","3","3","C:/Users/suici/Desktop/Tarleton/Fall 2021 - Graduate Studies/PSYC 5316-010 Advanced Quantitative Methods & Experiment Design/Lab 3 - the Sternberg memory scanning task (an experiment on short term memory)/SM-subject-2.csv","legacy","2 9 4","Lentiform Loewenfeld","3.3.9","3","y","0","left","NA","left","left","NA","697","NA","89659","697","NA","2","legacy","3","1024","2","48000","-16","experiment","2","even","4","112698","NA","109461","110497","1397","NA","110498","NA","1400","114698","111498","115395","91059","114698","NA","Sternberg task","4","4078","4","yes","1024"
"100","100","927.6","927.6","black","practice","legacy","legacy","legacy","0","uniform","1","undefined","1","right","4","0","4","4","0","0","4","4","0","4","4","4","0","4","0","10/17/21 08:18:00","The main experiment item","yes","Sternbergtask.osexp","C:/Users/suici/Desktop/Tarleton/Fall 2021 - Graduate Studies/PSYC 5316-010 Advanced Quantitative Methods & Experiment Design/Lab 3 - the Sternberg memory scanning task (an experiment on short term memory)","no","mono","no","18","no","white","no","yes","768","legacy","4","4","C:/Users/suici/Desktop/Tarleton/Fall 2021 - Graduate Studies/PSYC 5316-010 Advanced Quantitative Methods & Experiment Design/Lab 3 - the Sternberg memory scanning task (an experiment on short term memory)/SM-subject-2.csv","legacy","5","Lentiform Loewenfeld","3.3.9","0","n","0","right","NA","left","right","NA","560","NA","89659","560","NA","2","legacy","1","1024","2","48000","-16","experiment","2","even","3","118634","NA","115397","116433","1397","NA","116434","NA","1400","120634","117434","121195","91059","120634","NA","Sternberg task","5","4638","5","yes","1024"
"100","100","900","900","black","practice","legacy","legacy","legacy","0","uniform","1","undefined","1","right","5","0","5","5","0","0","5","5","0","5","5","5","0","5","0","10/17/21 08:18:00","The main experiment item","yes","Sternbergtask.osexp","C:/Users/suici/Desktop/Tarleton/Fall 2021 - Graduate Studies/PSYC 5316-010 Advanced Quantitative Methods & Experiment Design/Lab 3 - the Sternberg memory scanning task (an experiment on short term memory)","no","mono","no","18","no","white","no","yes","768","legacy","5","5","C:/Users/suici/Desktop/Tarleton/Fall 2021 - Graduate Studies/PSYC 5316-010 Advanced Quantitative Methods & Experiment Design/Lab 3 - the Sternberg memory scanning task (an experiment on short term memory)/SM-subject-2.csv","legacy","3 1 9 4","Lentiform Loewenfeld","3.3.9","0","n","0","right","NA","left","right","NA","762","NA","89659","762","NA","2","legacy","4","1024","2","48000","-16","experiment","2","even","6","124433","NA","121196","122233","1397","NA","122233","NA","1400","126433","123233","127195","91059","126433","NA","Sternberg task","6","5400","6","yes","1024"
"100","100","874.571428571","874.571428571","black","practice","legacy","legacy","legacy","0","uniform","1","undefined","1","left","6","0","6","6","0","0","6","6","0","6","6","6","0","6","0","10/17/21 08:18:00","The main experiment item","yes","Sternbergtask.osexp","C:/Users/suici/Desktop/Tarleton/Fall 2021 - Graduate Studies/PSYC 5316-010 Advanced Quantitative Methods & Experiment Design/Lab 3 - the Sternberg memory scanning task (an experiment on short term memory)","no","mono","no","18","no","white","no","yes","768","legacy","6","6","C:/Users/suici/Desktop/Tarleton/Fall 2021 - Graduate Studies/PSYC 5316-010 Advanced Quantitative Methods & Experiment Design/Lab 3 - the Sternberg memory scanning task (an experiment on short term memory)/SM-subject-2.csv","legacy","6","Lentiform Loewenfeld","3.3.9","1","y","0","left","NA","left","left","NA","722","NA","89659","722","NA","2","legacy","1","1024","2","48000","-16","experiment","2","even","6","130433","NA","127196","128232","1397","NA","128233","NA","1400","132433","129233","133155","91059","132433","NA","Sternberg task","7","6122","7","yes","1024"
"100","100","838.25","838.25","black","practice","legacy","legacy","legacy","0","uniform","1","undefined","1","right","7","0","7","7","0","0","7","7","0","7","7","7","0","7","0","10/17/21 08:18:00","The main experiment item","yes","Sternbergtask.osexp","C:/Users/suici/Desktop/Tarleton/Fall 2021 - Graduate Studies/PSYC 5316-010 Advanced Quantitative Methods & Experiment Design/Lab 3 - the Sternberg memory scanning task (an experiment on short term memory)","no","mono","no","18","no","white","no","yes","768","legacy","7","7","C:/Users/suici/Desktop/Tarleton/Fall 2021 - Graduate Studies/PSYC 5316-010 Advanced Quantitative Methods & Experiment Design/Lab 3 - the Sternberg memory scanning task (an experiment on short term memory)/SM-subject-2.csv","legacy","9 6 7 4 5","Lentiform Loewenfeld","3.3.9","0","n","0","right","NA","left","right","NA","584","NA","89659","584","NA","2","legacy","5","1024","2","48000","-16","experiment","2","even","3","136395","NA","133156","134194","1397","NA","134195","NA","1400","138395","135195","138979","91059","138395","NA","Sternberg task","8","6706","8","yes","1024"
"100","100","836.666666667","836.666666667","black","practice","legacy","legacy","legacy","0","uniform","1","undefined","1","left","8","0","8","8","0","0","8","8","0","8","8","8","0","8","0","10/17/21 08:18:00","The main experiment item","yes","Sternbergtask.osexp","C:/Users/suici/Desktop/Tarleton/Fall 2021 - Graduate Studies/PSYC 5316-010 Advanced Quantitative Methods & Experiment Design/Lab 3 - the Sternberg memory scanning task (an experiment on short term memory)","no","mono","no","18","no","white","no","yes","768","legacy","8","8","C:/Users/suici/Desktop/Tarleton/Fall 2021 - Graduate Studies/PSYC 5316-010 Advanced Quantitative Methods & Experiment Design/Lab 3 - the Sternberg memory scanning task (an experiment on short term memory)/SM-subject-2.csv","legacy","4 3 1 7 9 8","Lentiform Loewenfeld","3.3.9","1","y","0","left","NA","left","left","NA","824","NA","89659","824","NA","2","legacy","6","1024","2","48000","-16","experiment","2","even","4","142219","NA","138981","140017","1397","NA","140018","NA","1400","144219","141018","145044","91059","144219","NA","Sternberg task","9","7530","9","yes","1024"
"100","100","809.9","809.9","black","practice","legacy","legacy","legacy","0","uniform","1","undefined","1","left","9","0","9","9","0","0","9","9","0","9","9","9","0","9","0","10/17/21 08:18:00","The main experiment item","yes","Sternbergtask.osexp","C:/Users/suici/Desktop/Tarleton/Fall 2021 - Graduate Studies/PSYC 5316-010 Advanced Quantitative Methods & Experiment Design/Lab 3 - the Sternberg memory scanning task (an experiment on short term memory)","no","mono","no","18","no","white","no","yes","768","legacy","9","9","C:/Users/suici/Desktop/Tarleton/Fall 2021 - Graduate Studies/PSYC 5316-010 Advanced Quantitative Methods & Experiment Design/Lab 3 - the Sternberg memory scanning task (an experiment on short term memory)/SM-subject-2.csv","legacy","1 5 2 9","Lentiform Loewenfeld","3.3.9","2","y","0","left","NA","left","left","NA","569","NA","89659","569","NA","2","legacy","4","1024","2","48000","-16","experiment","2","even","5","148282","NA","145045","146081","1397","NA","146082","NA","1400","150282","147082","150851","91059","150282","NA","Sternberg task","10","8099","10","yes","1024"
"100","100","784.272727273","784.272727273","black","practice","legacy","legacy","legacy","0","uniform","1","undefined","1","right","10","0","10","10","0","0","10","10","0","10","10","10","0","10","0","10/17/21 08:18:00","The main experiment item","yes","Sternbergtask.osexp","C:/Users/suici/Desktop/Tarleton/Fall 2021 - Graduate Studies/PSYC 5316-010 Advanced Quantitative Methods & Experiment Design/Lab 3 - the Sternberg memory scanning task (an experiment on short term memory)","no","mono","no","18","no","white","no","yes","768","legacy","10","10","C:/Users/suici/Desktop/Tarleton/Fall 2021 - Graduate Studies/PSYC 5316-010 Advanced Quantitative Methods & Experiment Design/Lab 3 - the Sternberg memory scanning task (an experiment on short term memory)/SM-subject-2.csv","legacy","4 1 5","Lentiform Loewenfeld","3.3.9","0","n","0","right","NA","left","right","NA","528","NA","89659","528","NA","2","legacy","3","1024","2","48000","-16","experiment","2","even","2","154091","NA","150853","151890","1397","NA","151891","NA","1400","156091","152891","156619","91059","156091","NA","Sternberg task","11","8627","11","yes","1024"
"100","100","777.583333333","777.583333333","black","practice","legacy","legacy","legacy","0","uniform","1","undefined","1","right","11","0","11","11","0","0","11","11","0","11","11","11","0","11","0","10/17/21 08:18:00","The main experiment item","yes","Sternbergtask.osexp","C:/Users/suici/Desktop/Tarleton/Fall 2021 - Graduate Studies/PSYC 5316-010 Advanced Quantitative Methods & Experiment Design/Lab 3 - the Sternberg memory scanning task (an experiment on short term memory)","no","mono","no","18","no","white","no","yes","768","legacy","11","11","C:/Users/suici/Desktop/Tarleton/Fall 2021 - Graduate Studies/PSYC 5316-010 Advanced Quantitative Methods & Experiment Design/Lab 3 - the Sternberg memory scanning task (an experiment on short term memory)/SM-subject-2.csv","legacy","5 7 8 4 1 2","Lentiform Loewenfeld","3.3.9","0","n","0","right","NA","left","right","NA","704","NA","89659","704","NA","2","legacy","6","1024","2","48000","-16","experiment","2","even","6","159859","NA","156621","157658","1397","NA","157659","NA","1400","161859","158659","162564","91059","161859","NA","Sternberg task","12","9331","12","yes","1024"
"100","100","765.461538462","765.461538462","black","experiment","legacy","legacy","legacy","0","uniform","1","undefined","1","right","12","0","12","12","0","0","12","12","0","12","12","12","0","12","0","10/17/21 08:18:00","The main experiment item","yes","Sternbergtask.osexp","C:/Users/suici/Desktop/Tarleton/Fall 2021 - Graduate Studies/PSYC 5316-010 Advanced Quantitative Methods & Experiment Design/Lab 3 - the Sternberg memory scanning task (an experiment on short term memory)","no","mono","no","18","no","white","no","yes","768","legacy","0","11","C:/Users/suici/Desktop/Tarleton/Fall 2021 - Graduate Studies/PSYC 5316-010 Advanced Quantitative Methods & Experiment Design/Lab 3 - the Sternberg memory scanning task (an experiment on short term memory)/SM-subject-2.csv","legacy","7 1","Lentiform Loewenfeld","3.3.9","0","n","0","right","left","left","right","NA","620","15163","89659","620","NA","2","legacy","2","1024","2","48000","-16","experiment","2","even","8","180983","163576","162565","178782","1397","178739","178783","NA","1400","182983","179783","183603","91059","182983","NA","Sternberg task","13","9951","13","yes","1024"
"100","100","748.428571429","748.428571429","black","experiment","legacy","legacy","legacy","0","uniform","1","undefined","1","right","13","0","13","13","0","0","13","13","0","13","13","13","0","13","0","10/17/21 08:18:00","The main experiment item","yes","Sternbergtask.osexp","C:/Users/suici/Desktop/Tarleton/Fall 2021 - Graduate Studies/PSYC 5316-010 Advanced Quantitative Methods & Experiment Design/Lab 3 - the Sternberg memory scanning task (an experiment on short term memory)","no","mono","no","18","no","white","no","yes","768","legacy","1","11","C:/Users/suici/Desktop/Tarleton/Fall 2021 - Graduate Studies/PSYC 5316-010 Advanced Quantitative Methods & Experiment Design/Lab 3 - the Sternberg memory scanning task (an experiment on short term memory)/SM-subject-2.csv","legacy","2 8 9","Lentiform Loewenfeld","3.3.9","0","n","0","right","left","left","right","NA","527","15163","89659","527","NA","2","legacy","3","1024","2","48000","-16","experiment","2","even","6","186843","163576","183605","184642","1397","178739","184643","NA","1400","188844","185643","189371","91059","188844","NA","Sternberg task","14","10478","14","yes","1024"
"100","100","738.533333333","738.533333333","black","experiment","legacy","legacy","legacy","0","uniform","1","undefined","1","right","14","0","14","14","0","0","14","14","0","14","14","14","0","14","0","10/17/21 08:18:00","The main experiment item","yes","Sternbergtask.osexp","C:/Users/suici/Desktop/Tarleton/Fall 2021 - Graduate Studies/PSYC 5316-010 Advanced Quantitative Methods & Experiment Design/Lab 3 - the Sternberg memory scanning task (an experiment on short term memory)","no","mono","no","18","no","white","no","yes","768","legacy","2","11","C:/Users/suici/Desktop/Tarleton/Fall 2021 - Graduate Studies/PSYC 5316-010 Advanced Quantitative Methods & Experiment Design/Lab 3 - the Sternberg memory scanning task (an experiment on short term memory)/SM-subject-2.csv","legacy","6 3 1 7 9 8","Lentiform Loewenfeld","3.3.9","0","n","0","right","left","left","right","NA","600","15163","89659","600","NA","2","legacy","6","1024","2","48000","-16","experiment","2","even","4","192611","163576","189373","190409","1397","178739","190410","NA","1400","194611","191411","195211","91059","194611","NA","Sternberg task","15","11078","15","yes","1024"
"93.75","93.75","733.9375","733.9375","black","experiment","legacy","legacy","legacy","0","uniform","0","undefined","0","left","15","0","15","15","0","0","15","15","0","15","15","15","0","15","0","10/17/21 08:18:00","The main experiment item","yes","Sternbergtask.osexp","C:/Users/suici/Desktop/Tarleton/Fall 2021 - Graduate Studies/PSYC 5316-010 Advanced Quantitative Methods & Experiment Design/Lab 3 - the Sternberg memory scanning task (an experiment on short term memory)","no","mono","no","18","no","white","no","yes","768","legacy","3","11","C:/Users/suici/Desktop/Tarleton/Fall 2021 - Graduate Studies/PSYC 5316-010 Advanced Quantitative Methods & Experiment Design/Lab 3 - the Sternberg memory scanning task (an experiment on short term memory)/SM-subject-2.csv","legacy","5 2 6","Lentiform Loewenfeld","3.3.9","2","y","0","right","left","left","right","NA","665","15163","89659","665","NA","2","legacy","3","1024","2","48000","-16","experiment","2","even","2","198450","163576","195213","196249","1397","178739","196250","NA","1400","200450","197250","201116","91059","200450","NA","Sternberg task","15","11743","16","yes","1024"
"94.1176470588","94.1176470588","728.882352941","728.882352941","black","experiment","legacy","legacy","legacy","0","uniform","1","undefined","1","left","16","0","16","16","0","0","16","16","0","16","16","16","0","16","0","10/17/21 08:18:00","The main experiment item","yes","Sternbergtask.osexp","C:/Users/suici/Desktop/Tarleton/Fall 2021 - Graduate Studies/PSYC 5316-010 Advanced Quantitative Methods & Experiment Design/Lab 3 - the Sternberg memory scanning task (an experiment on short term memory)","no","mono","no","18","no","white","no","yes","768","legacy","4","11","C:/Users/suici/Desktop/Tarleton/Fall 2021 - Graduate Studies/PSYC 5316-010 Advanced Quantitative Methods & Experiment Design/Lab 3 - the Sternberg memory scanning task (an experiment on short term memory)/SM-subject-2.csv","legacy","2 4 8 5 1 3","Lentiform Loewenfeld","3.3.9","1","y","0","left","left","left","left","NA","648","15163","89659","648","NA","2","legacy","6","1024","2","48000","-16","experiment","2","even","2","204355","163576","195213","202154","1397","178739","202154","201117","1400","206355","203155","207003","91059","206355","NA","Sternberg task","16","12391","17","yes","1024"
"94.4444444444","94.4444444444","727.5","727.5","black","experiment","legacy","legacy","legacy","0","uniform","1","undefined","1","left","17","0","17","17","0","0","17","17","0","17","17","17","0","17","0","10/17/21 08:18:00","The main experiment item","yes","Sternbergtask.osexp","C:/Users/suici/Desktop/Tarleton/Fall 2021 - Graduate Studies/PSYC 5316-010 Advanced Quantitative Methods & Experiment Design/Lab 3 - the Sternberg memory scanning task (an experiment on short term memory)","no","mono","no","18","no","white","no","yes","768","legacy","5","11","C:/Users/suici/Desktop/Tarleton/Fall 2021 - Graduate Studies/PSYC 5316-010 Advanced Quantitative Methods & Experiment Design/Lab 3 - the Sternberg memory scanning task (an experiment on short term memory)/SM-subject-2.csv","legacy","7 1 8 5 6 2","Lentiform Loewenfeld","3.3.9","2","y","0","left","left","left","left","NA","704","15163","89659","704","NA","2","legacy","6","1024","2","48000","-16","experiment","2","even","1","210243","163576","207005","208042","1397","178739","208043","201117","1400","212243","209043","212947","91059","212243","NA","Sternberg task","17","13095","18","yes","1024"
"94.7368421053","94.7368421053","734.263157895","734.263157895","black","experiment","legacy","legacy","legacy","0","uniform","1","undefined","1","right","18","0","18","18","0","0","18","18","0","18","18","18","0","18","0","10/17/21 08:18:00","The main experiment item","yes","Sternbergtask.osexp","C:/Users/suici/Desktop/Tarleton/Fall 2021 - Graduate Studies/PSYC 5316-010 Advanced Quantitative Methods & Experiment Design/Lab 3 - the Sternberg memory scanning task (an experiment on short term memory)","no","mono","no","18","no","white","no","yes","768","legacy","6","11","C:/Users/suici/Desktop/Tarleton/Fall 2021 - Graduate Studies/PSYC 5316-010 Advanced Quantitative Methods & Experiment Design/Lab 3 - the Sternberg memory scanning task (an experiment on short term memory)/SM-subject-2.csv","legacy","6 8 4","Lentiform Loewenfeld","3.3.9","0","n","0","right","left","left","right","NA","856","15163","89659","856","NA","2","legacy","3","1024","2","48000","-16","experiment","2","even","1","216187","163576","212949","213986","1397","178739","213987","201117","1400","218187","214987","219043","91059","218187","NA","Sternberg task","18","13951","19","yes","1024"
"95","95","730.4","730.4","black","experiment","legacy","legacy","legacy","0","uniform","1","undefined","1","left","19","0","19","19","0","0","19","19","0","19","19","19","0","19","0","10/17/21 08:18:00","The main experiment item","yes","Sternbergtask.osexp","C:/Users/suici/Desktop/Tarleton/Fall 2021 - Graduate Studies/PSYC 5316-010 Advanced Quantitative Methods & Experiment Design/Lab 3 - the Sternberg memory scanning task (an experiment on short term memory)","no","mono","no","18","no","white","no","yes","768","legacy","7","11","C:/Users/suici/Desktop/Tarleton/Fall 2021 - Graduate Studies/PSYC 5316-010 Advanced Quantitative Methods & Experiment Design/Lab 3 - the Sternberg memory scanning task (an experiment on short term memory)/SM-subject-2.csv","legacy","7 8 4 6 9 5","Lentiform Loewenfeld","3.3.9","4","y","0","left","left","left","left","NA","657","15163","89659","657","NA","2","legacy","6","1024","2","48000","-16","experiment","2","even","6","222290","163576","219045","220089","1397","178739","220090","201117","1400","224290","221090","224948","91059","224290","NA","Sternberg task","19","14608","20","yes","1024"
"90.4761904762","90.4761904762","729.428571429","729.428571429","black","experiment","legacy","legacy","legacy","0","uniform","0","undefined","0","right","20","0","20","20","0","0","20","20","0","20","20","20","0","20","0","10/17/21 08:18:00","The main experiment item","yes","Sternbergtask.osexp","C:/Users/suici/Desktop/Tarleton/Fall 2021 - Graduate Studies/PSYC 5316-010 Advanced Quantitative Methods & Experiment Design/Lab 3 - the Sternberg memory scanning task (an experiment on short term memory)","no","mono","no","18","no","white","no","yes","768","legacy","8","11","C:/Users/suici/Desktop/Tarleton/Fall 2021 - Graduate Studies/PSYC 5316-010 Advanced Quantitative Methods & Experiment Design/Lab 3 - the Sternberg memory scanning task (an experiment on short term memory)/SM-subject-2.csv","legacy","5 9 2 3","Lentiform Loewenfeld","3.3.9","0","n","0","left","left","left","left","NA","710","15163","89659","710","NA","2","legacy","4","1024","2","48000","-16","experiment","2","even","8","228189","163576","224950","225988","1397","178739","225989","201117","1400","230189","226989","230899","91059","230189","NA","Sternberg task","19","15318","21","yes","1024"
"90.9090909091","90.9090909091","729","729","black","experiment","legacy","legacy","legacy","0","uniform","1","undefined","1","left","21","0","21","21","0","0","21","21","0","21","21","21","0","21","0","10/17/21 08:18:00","The main experiment item","yes","Sternbergtask.osexp","C:/Users/suici/Desktop/Tarleton/Fall 2021 - Graduate Studies/PSYC 5316-010 Advanced Quantitative Methods & Experiment Design/Lab 3 - the Sternberg memory scanning task (an experiment on short term memory)","no","mono","no","18","no","white","no","yes","768","legacy","9","11","C:/Users/suici/Desktop/Tarleton/Fall 2021 - Graduate Studies/PSYC 5316-010 Advanced Quantitative Methods & Experiment Design/Lab 3 - the Sternberg memory scanning task (an experiment on short term memory)/SM-subject-2.csv","legacy","3 5 4 7","Lentiform Loewenfeld","3.3.9","1","y","0","left","left","left","left","NA","720","15163","89659","720","NA","2","legacy","4","1024","2","48000","-16","experiment","2","even","3","234139","163576","224950","231937","1397","178739","231939","230901","1400","236139","232939","236859","91059","236139","NA","Sternberg task","20","16038","22","yes","1024"
"91.3043478261","91.3043478261","723.869565217","723.869565217","black","experiment","legacy","legacy","legacy","0","uniform","1","undefined","1","right","22","0","22","22","0","0","22","22","0","22","22","22","0","22","0","10/17/21 08:18:00","The main experiment item","yes","Sternbergtask.osexp","C:/Users/suici/Desktop/Tarleton/Fall 2021 - Graduate Studies/PSYC 5316-010 Advanced Quantitative Methods & Experiment Design/Lab 3 - the Sternberg memory scanning task (an experiment on short term memory)","no","mono","no","18","no","white","no","yes","768","legacy","10","11","C:/Users/suici/Desktop/Tarleton/Fall 2021 - Graduate Studies/PSYC 5316-010 Advanced Quantitative Methods & Experiment Design/Lab 3 - the Sternberg memory scanning task (an experiment on short term memory)/SM-subject-2.csv","legacy","7 3 2 8","Lentiform Loewenfeld","3.3.9","0","n","0","right","left","left","right","NA","611","15163","89659","611","NA","2","legacy","4","1024","2","48000","-16","experiment","2","even","4","240096","163576","236861","237895","1397","178739","237896","230901","1400","242096","238896","242707","91059","242096","NA","Sternberg task","21","16649","23","yes","1024"
"91.6666666667","91.6666666667","727.166666667","727.166666667","black","experiment","legacy","legacy","legacy","0","uniform","1","undefined","1","left","23","0","23","23","0","0","23","23","0","23","23","23","0","23","0","10/17/21 08:18:00","The main experiment item","yes","Sternbergtask.osexp","C:/Users/suici/Desktop/Tarleton/Fall 2021 - Graduate Studies/PSYC 5316-010 Advanced Quantitative Methods & Experiment Design/Lab 3 - the Sternberg memory scanning task (an experiment on short term memory)","no","mono","no","18","no","white","no","yes","768","legacy","11","11","C:/Users/suici/Desktop/Tarleton/Fall 2021 - Graduate Studies/PSYC 5316-010 Advanced Quantitative Methods & Experiment Design/Lab 3 - the Sternberg memory scanning task (an experiment on short term memory)/SM-subject-2.csv","legacy","1 4 9 3 2 5","Lentiform Loewenfeld","3.3.9","3","y","0","left","left","left","left","NA","803","15163","89659","803","NA","2","legacy","6","1024","2","48000","-16","experiment","2","even","9","245944","163576","242709","243743","1397","178739","243744","230901","1400","247944","244744","248748","91059","247944","NA","Sternberg task","22","17452","24","yes","1024"
"92","92","734.68","734.68","black","experiment","legacy","legacy","legacy","0","uniform","1","undefined","1","right","24","0","24","24","0","0","24","24","0","24","24","24","0","24","0","10/17/21 08:18:00","The main experiment item","yes","Sternbergtask.osexp","C:/Users/suici/Desktop/Tarleton/Fall 2021 - Graduate Studies/PSYC 5316-010 Advanced Quantitative Methods & Experiment Design/Lab 3 - the Sternberg memory scanning task (an experiment on short term memory)","no","mono","no","18","no","white","no","yes","768","legacy","12","11","C:/Users/suici/Desktop/Tarleton/Fall 2021 - Graduate Studies/PSYC 5316-010 Advanced Quantitative Methods & Experiment Design/Lab 3 - the Sternberg memory scanning task (an experiment on short term memory)/SM-subject-2.csv","legacy","5 3 8 7 2 4","Lentiform Loewenfeld","3.3.9","0","n","0","right","left","left","right","NA","915","15163","89659","915","NA","2","legacy","6","1024","2","48000","-16","experiment","2","even","9","251984","163576","248749","249783","1397","178739","249784","230901","1400","253984","250784","254899","91059","253984","NA","Sternberg task","23","18367","25","yes","1024"
"88.4615384615","88.4615384615","734.538461538","734.538461538","black","experiment","legacy","legacy","legacy","0","uniform","0","undefined","0","left","25","0","25","25","0","0","25","25","0","25","25","25","0","25","0","10/17/21 08:18:00","The main experiment item","yes","Sternbergtask.osexp","C:/Users/suici/Desktop/Tarleton/Fall 2021 - Graduate Studies/PSYC 5316-010 Advanced Quantitative Methods & Experiment Design/Lab 3 - the Sternberg memory scanning task (an experiment on short term memory)","no","mono","no","18","no","white","no","yes","768","legacy","13","11","C:/Users/suici/Desktop/Tarleton/Fall 2021 - Graduate Studies/PSYC 5316-010 Advanced Quantitative Methods & Experiment Design/Lab 3 - the Sternberg memory scanning task (an experiment on short term memory)/SM-subject-2.csv","legacy","4 1 5","Lentiform Loewenfeld","3.3.9","2","y","0","right","left","left","right","NA","731","15163","89659","731","NA","2","legacy","3","1024","2","48000","-16","experiment","2","even","1","258136","163576","254901","255935","1397","178739","255936","230901","1400","260136","256936","260867","91059","260136","NA","Sternberg task","23","19098","26","yes","1024"
"88.8888888889","88.8888888889","730.222222222","730.222222222","black","experiment","legacy","legacy","legacy","0","uniform","1","undefined","1","left","26","0","26","26","0","0","26","26","0","26","26","26","0","26","0","10/17/21 08:18:00","The main experiment item","yes","Sternbergtask.osexp","C:/Users/suici/Desktop/Tarleton/Fall 2021 - Graduate Studies/PSYC 5316-010 Advanced Quantitative Methods & Experiment Design/Lab 3 - the Sternberg memory scanning task (an experiment on short term memory)","no","mono","no","18","no","white","no","yes","768","legacy","14","11","C:/Users/suici/Desktop/Tarleton/Fall 2021 - Graduate Studies/PSYC 5316-010 Advanced Quantitative Methods & Experiment Design/Lab 3 - the Sternberg memory scanning task (an experiment on short term memory)/SM-subject-2.csv","legacy","5 7 8 2 3 8","Lentiform Loewenfeld","3.3.9","5","y","0","left","left","left","left","NA","618","15163","89659","618","NA","2","legacy","6","1024","2","48000","-16","experiment","2","even","3","264105","163576","254901","261904","1397","178739","261905","260869","1400","266105","262905","266723","91059","266105","NA","Sternberg task","24","19716","27","yes","1024"
"89.2857142857","89.2857142857","724.428571429","724.428571429","black","experiment","legacy","legacy","legacy","0","uniform","1","undefined","1","right","27","0","27","27","0","0","27","27","0","27","27","27","0","27","0","10/17/21 08:18:00","The main experiment item","yes","Sternbergtask.osexp","C:/Users/suici/Desktop/Tarleton/Fall 2021 - Graduate Studies/PSYC 5316-010 Advanced Quantitative Methods & Experiment Design/Lab 3 - the Sternberg memory scanning task (an experiment on short term memory)","no","mono","no","18","no","white","no","yes","768","legacy","15","11","C:/Users/suici/Desktop/Tarleton/Fall 2021 - Graduate Studies/PSYC 5316-010 Advanced Quantitative Methods & Experiment Design/Lab 3 - the Sternberg memory scanning task (an experiment on short term memory)/SM-subject-2.csv","legacy","3 9 1","Lentiform Loewenfeld","3.3.9","0","n","0","right","left","left","right","NA","568","15163","89659","568","NA","2","legacy","3","1024","2","48000","-16","experiment","2","even","7","269963","163576","266725","267762","1397","178739","267763","260869","1400","271963","268763","272531","91059","271963","NA","Sternberg task","25","20284","28","yes","1024"
"89.6551724138","89.6551724138","721.068965517","721.068965517","black","experiment","legacy","legacy","legacy","0","uniform","1","undefined","1","right","28","0","28","28","0","0","28","28","0","28","28","28","0","28","0","10/17/21 08:18:00","The main experiment item","yes","Sternbergtask.osexp","C:/Users/suici/Desktop/Tarleton/Fall 2021 - Graduate Studies/PSYC 5316-010 Advanced Quantitative Methods & Experiment Design/Lab 3 - the Sternberg memory scanning task (an experiment on short term memory)","no","mono","no","18","no","white","no","yes","768","legacy","16","11","C:/Users/suici/Desktop/Tarleton/Fall 2021 - Graduate Studies/PSYC 5316-010 Advanced Quantitative Methods & Experiment Design/Lab 3 - the Sternberg memory scanning task (an experiment on short term memory)/SM-subject-2.csv","legacy","6 9 5","Lentiform Loewenfeld","3.3.9","0","n","0","right","left","left","right","NA","627","15163","89659","627","NA","2","legacy","3","1024","2","48000","-16","experiment","2","even","8","275768","163576","272533","273567","1397","178739","273567","260869","1400","277768","274568","278395","91059","277768","NA","Sternberg task","26","20911","29","yes","1024"
"90","90","724.066666667","724.066666667","black","experiment","legacy","legacy","legacy","0","uniform","1","undefined","1","left","29","0","29","29","0","0","29","29","0","29","29","29","0","29","0","10/17/21 08:18:00","The main experiment item","yes","Sternbergtask.osexp","C:/Users/suici/Desktop/Tarleton/Fall 2021 - Graduate Studies/PSYC 5316-010 Advanced Quantitative Methods & Experiment Design/Lab 3 - the Sternberg memory scanning task (an experiment on short term memory)","no","mono","no","18","no","white","no","yes","768","legacy","17","11","C:/Users/suici/Desktop/Tarleton/Fall 2021 - Graduate Studies/PSYC 5316-010 Advanced Quantitative Methods & Experiment Design/Lab 3 - the Sternberg memory scanning task (an experiment on short term memory)/SM-subject-2.csv","legacy","8 7 3","Lentiform Loewenfeld","3.3.9","1","y","0","left","left","left","left","NA","811","15163","89659","811","NA","2","legacy","3","1024","2","48000","-16","experiment","2","even","8","281632","163576","278397","279431","1397","178739","279432","260869","1400","283632","280432","284443","91059","283632","NA","Sternberg task","27","21722","30","yes","1024"
"87.0967741935","87.0967741935","731.419354839","731.419354839","black","experiment","legacy","legacy","legacy","0","uniform","0","undefined","0","right","30","0","30","30","0","0","30","30","0","30","30","30","0","30","0","10/17/21 08:18:00","The main experiment item","yes","Sternbergtask.osexp","C:/Users/suici/Desktop/Tarleton/Fall 2021 - Graduate Studies/PSYC 5316-010 Advanced Quantitative Methods & Experiment Design/Lab 3 - the Sternberg memory scanning task (an experiment on short term memory)","no","mono","no","18","no","white","no","yes","768","legacy","18","11","C:/Users/suici/Desktop/Tarleton/Fall 2021 - Graduate Studies/PSYC 5316-010 Advanced Quantitative Methods & Experiment Design/Lab 3 - the Sternberg memory scanning task (an experiment on short term memory)/SM-subject-2.csv","legacy","2 3 8 5 6 7","Lentiform Loewenfeld","3.3.9","0","n","0","left","left","left","left","NA","952","15163","89659","952","NA","2","legacy","6","1024","2","48000","-16","experiment","2","even","1","287683","163576","284445","285482","1397","178739","285483","260869","1400","289683","286483","290635","91059","289683","NA","Sternberg task","27","22674","31","yes","1024"
"87.5","87.5","736.125","736.125","black","experiment","legacy","legacy","legacy","0","uniform","1","undefined","1","left","31","0","31","31","0","0","31","31","0","31","31","31","0","31","0","10/17/21 08:18:00","The main experiment item","yes","Sternbergtask.osexp","C:/Users/suici/Desktop/Tarleton/Fall 2021 - Graduate Studies/PSYC 5316-010 Advanced Quantitative Methods & Experiment Design/Lab 3 - the Sternberg memory scanning task (an experiment on short term memory)","no","mono","no","18","no","white","no","yes","768","legacy","19","11","C:/Users/suici/Desktop/Tarleton/Fall 2021 - Graduate Studies/PSYC 5316-010 Advanced Quantitative Methods & Experiment Design/Lab 3 - the Sternberg memory scanning task (an experiment on short term memory)/SM-subject-2.csv","legacy","9 1 7 2","Lentiform Loewenfeld","3.3.9","2","y","0","left","left","left","left","NA","882","15163","89659","882","NA","2","legacy","4","1024","2","48000","-16","experiment","2","even","1","293873","163576","284445","291672","1397","178739","291673","290637","1400","295873","292673","296755","91059","295873","NA","Sternberg task","28","23556","32","yes","1024"
"87.8787878788","87.8787878788","732.363636364","732.363636364","black","experiment","legacy","legacy","legacy","0","uniform","1","undefined","1","right","32","0","32","32","0","0","32","32","0","32","32","32","0","32","0","10/17/21 08:18:00","The main experiment item","yes","Sternbergtask.osexp","C:/Users/suici/Desktop/Tarleton/Fall 2021 - Graduate Studies/PSYC 5316-010 Advanced Quantitative Methods & Experiment Design/Lab 3 - the Sternberg memory scanning task (an experiment on short term memory)","no","mono","no","18","no","white","no","yes","768","legacy","20","11","C:/Users/suici/Desktop/Tarleton/Fall 2021 - Graduate Studies/PSYC 5316-010 Advanced Quantitative Methods & Experiment Design/Lab 3 - the Sternberg memory scanning task (an experiment on short term memory)/SM-subject-2.csv","legacy","6 8","Lentiform Loewenfeld","3.3.9","0","n","0","right","left","left","right","NA","612","15163","89659","612","NA","2","legacy","2","1024","2","48000","-16","experiment","2","even","9","299991","163576","296757","297791","1397","178739","297791","290637","1400","301991","298791","302604","91059","301991","NA","Sternberg task","29","24168","33","yes","1024"
"88.2352941176","88.2352941176","733.441176471","733.441176471","black","experiment","legacy","legacy","legacy","0","uniform","1","undefined","1","right","33","0","33","33","0","0","33","33","0","33","33","33","0","33","0","10/17/21 08:18:00","The main experiment item","yes","Sternbergtask.osexp","C:/Users/suici/Desktop/Tarleton/Fall 2021 - Graduate Studies/PSYC 5316-010 Advanced Quantitative Methods & Experiment Design/Lab 3 - the Sternberg memory scanning task (an experiment on short term memory)","no","mono","no","18","no","white","no","yes","768","legacy","21","11","C:/Users/suici/Desktop/Tarleton/Fall 2021 - Graduate Studies/PSYC 5316-010 Advanced Quantitative Methods & Experiment Design/Lab 3 - the Sternberg memory scanning task (an experiment on short term memory)/SM-subject-2.csv","legacy","1 5 3 2 8","Lentiform Loewenfeld","3.3.9","0","n","0","right","left","left","right","NA","769","15163","89659","769","NA","2","legacy","5","1024","2","48000","-16","experiment","2","even","4","305842","163576","302605","303641","1397","178739","303642","290637","1400","307842","304642","308611","91059","307842","NA","Sternberg task","30","24937","34","yes","1024"
"88.5714285714","88.5714285714","729.4","729.4","black","experiment","legacy","legacy","legacy","0","uniform","1","undefined","1","right","34","0","34","34","0","0","34","34","0","34","34","34","0","34","0","10/17/21 08:18:00","The main experiment item","yes","Sternbergtask.osexp","C:/Users/suici/Desktop/Tarleton/Fall 2021 - Graduate Studies/PSYC 5316-010 Advanced Quantitative Methods & Experiment Design/Lab 3 - the Sternberg memory scanning task (an experiment on short term memory)","no","mono","no","18","no","white","no","yes","768","legacy","22","11","C:/Users/suici/Desktop/Tarleton/Fall 2021 - Graduate Studies/PSYC 5316-010 Advanced Quantitative Methods & Experiment Design/Lab 3 - the Sternberg memory scanning task (an experiment on short term memory)/SM-subject-2.csv","legacy","3 4 2","Lentiform Loewenfeld","3.3.9","0","n","0","right","left","left","right","NA","592","15163","89659","592","NA","2","legacy","3","1024","2","48000","-16","experiment","2","even","5","311851","163576","308613","309649","1397","178739","309651","290637","1400","313851","310651","314444","91059","313851","NA","Sternberg task","31","25529","35","yes","1024"
"88.8888888889","88.8888888889","728.055555556","728.055555556","black","experiment","legacy","legacy","legacy","0","uniform","1","undefined","1","right","35","0","35","35","0","0","35","35","0","35","35","35","0","35","0","10/17/21 08:18:00","The main experiment item","yes","Sternbergtask.osexp","C:/Users/suici/Desktop/Tarleton/Fall 2021 - Graduate Studies/PSYC 5316-010 Advanced Quantitative Methods & Experiment Design/Lab 3 - the Sternberg memory scanning task (an experiment on short term memory)","no","mono","no","18","no","white","no","yes","768","legacy","23","11","C:/Users/suici/Desktop/Tarleton/Fall 2021 - Graduate Studies/PSYC 5316-010 Advanced Quantitative Methods & Experiment Design/Lab 3 - the Sternberg memory scanning task (an experiment on short term memory)/SM-subject-2.csv","legacy","1 8 7","Lentiform Loewenfeld","3.3.9","0","n","0","right","left","left","right","NA","681","15163","89659","681","NA","2","legacy","3","1024","2","48000","-16","experiment","2","even","4","317682","163576","314445","315481","1397","178739","315482","290637","1400","319682","316482","320364","91059","319682","NA","Sternberg task","32","26210","36","yes","1024"
"86.4864864865","86.4864864865","723.540540541","723.540540541","black","experiment","legacy","legacy","legacy","0","uniform","0","undefined","0","left","36","0","36","36","0","0","36","36","0","36","36","36","0","36","0","10/17/21 08:18:00","The main experiment item","yes","Sternbergtask.osexp","C:/Users/suici/Desktop/Tarleton/Fall 2021 - Graduate Studies/PSYC 5316-010 Advanced Quantitative Methods & Experiment Design/Lab 3 - the Sternberg memory scanning task (an experiment on short term memory)","no","mono","no","18","no","white","no","yes","768","legacy","24","11","C:/Users/suici/Desktop/Tarleton/Fall 2021 - Graduate Studies/PSYC 5316-010 Advanced Quantitative Methods & Experiment Design/Lab 3 - the Sternberg memory scanning task (an experiment on short term memory)/SM-subject-2.csv","legacy","3 5 7 1","Lentiform Loewenfeld","3.3.9","3","y","0","right","left","left","right","NA","561","15163","89659","561","NA","2","legacy","4","1024","2","48000","-16","experiment","2","even","7","323602","163576","320365","321401","1397","178739","321402","290637","1400","325602","322402","326163","91059","325602","NA","Sternberg task","32","26771","37","yes","1024"
"86.8421052632","86.8421052632","720.315789474","720.315789474","black","experiment","legacy","legacy","legacy","0","uniform","1","undefined","1","right","37","0","37","37","0","0","37","37","0","37","37","37","0","37","0","10/17/21 08:18:00","The main experiment item","yes","Sternbergtask.osexp","C:/Users/suici/Desktop/Tarleton/Fall 2021 - Graduate Studies/PSYC 5316-010 Advanced Quantitative Methods & Experiment Design/Lab 3 - the Sternberg memory scanning task (an experiment on short term memory)","no","mono","no","18","no","white","no","yes","768","legacy","25","11","C:/Users/suici/Desktop/Tarleton/Fall 2021 - Graduate Studies/PSYC 5316-010 Advanced Quantitative Methods & Experiment Design/Lab 3 - the Sternberg memory scanning task (an experiment on short term memory)/SM-subject-2.csv","legacy","8 5 7 3 6","Lentiform Loewenfeld","3.3.9","0","n","0","right","left","left","right","NA","601","15163","89659","601","NA","2","legacy","5","1024","2","48000","-16","experiment","2","even","9","329402","163576","320365","327201","1397","178739","327202","326165","1400","331402","328202","332004","91059","331402","NA","Sternberg task","33","27372","38","yes","1024"
"87.1794871795","87.1794871795","718.051282051","718.051282051","black","experiment","legacy","legacy","legacy","0","uniform","1","undefined","1","right","38","0","38","38","0","0","38","38","0","38","38","38","0","38","0","10/17/21 08:18:00","The main experiment item","yes","Sternbergtask.osexp","C:/Users/suici/Desktop/Tarleton/Fall 2021 - Graduate Studies/PSYC 5316-010 Advanced Quantitative Methods & Experiment Design/Lab 3 - the Sternberg memory scanning task (an experiment on short term memory)","no","mono","no","18","no","white","no","yes","768","legacy","26","11","C:/Users/suici/Desktop/Tarleton/Fall 2021 - Graduate Studies/PSYC 5316-010 Advanced Quantitative Methods & Experiment Design/Lab 3 - the Sternberg memory scanning task (an experiment on short term memory)/SM-subject-2.csv","legacy","1 3 2 6 9","Lentiform Loewenfeld","3.3.9","0","n","0","right","left","left","right","NA","632","15163","89659","632","NA","2","legacy","5","1024","2","48000","-16","experiment","2","even","5","335243","163576","332005","333042","1397","178739","333043","326165","1400","337243","334043","337876","91059","337243","NA","Sternberg task","34","28004","39","yes","1024"
"85","85","719.675","719.675","black","experiment","legacy","legacy","legacy","0","uniform","0","undefined","0","right","39","0","39","39","0","0","39","39","0","39","39","39","0","39","0","10/17/21 08:18:00","The main experiment item","yes","Sternbergtask.osexp","C:/Users/suici/Desktop/Tarleton/Fall 2021 - Graduate Studies/PSYC 5316-010 Advanced Quantitative Methods & Experiment Design/Lab 3 - the Sternberg memory scanning task (an experiment on short term memory)","no","mono","no","18","no","white","no","yes","768","legacy","27","11","C:/Users/suici/Desktop/Tarleton/Fall 2021 - Graduate Studies/PSYC 5316-010 Advanced Quantitative Methods & Experiment Design/Lab 3 - the Sternberg memory scanning task (an experiment on short term memory)/SM-subject-2.csv","legacy","7 1 8 4 9 3","Lentiform Loewenfeld","3.3.9","0","n","0","left","left","left","left","NA","783","15163","89659","783","NA","2","legacy","6","1024","2","48000","-16","experiment","2","even","6","341115","163576","337878","338914","1397","178739","338915","326165","1400","343116","339915","343899","91059","343116","NA","Sternberg task","34","28787","40","yes","1024"
"85.3658536585","85.3658536585","715.609756098","715.609756098","black","experiment","legacy","legacy","legacy","0","uniform","1","undefined","1","right","40","0","40","40","0","0","40","40","0","40","40","40","0","40","0","10/17/21 08:18:00","The main experiment item","yes","Sternbergtask.osexp","C:/Users/suici/Desktop/Tarleton/Fall 2021 - Graduate Studies/PSYC 5316-010 Advanced Quantitative Methods & Experiment Design/Lab 3 - the Sternberg memory scanning task (an experiment on short term memory)","no","mono","no","18","no","white","no","yes","768","legacy","28","11","C:/Users/suici/Desktop/Tarleton/Fall 2021 - Graduate Studies/PSYC 5316-010 Advanced Quantitative Methods & Experiment Design/Lab 3 - the Sternberg memory scanning task (an experiment on short term memory)/SM-subject-2.csv","legacy","5 7 3","Lentiform Loewenfeld","3.3.9","0","n","0","right","left","left","right","NA","553","15163","89659","553","NA","2","legacy","3","1024","2","48000","-16","experiment","2","even","9","347138","163576","337878","344937","1397","178739","344938","343901","1400","349138","345938","349692","91059","349138","NA","Sternberg task","35","29340","41","yes","1024"
"83.3333333333","83.3333333333","709.452380952","709.452380952","black","experiment","legacy","legacy","legacy","0","uniform","0","undefined","0","left","41","0","41","41","0","0","41","41","0","41","41","41","0","41","0","10/17/21 08:18:00","The main experiment item","yes","Sternbergtask.osexp","C:/Users/suici/Desktop/Tarleton/Fall 2021 - Graduate Studies/PSYC 5316-010 Advanced Quantitative Methods & Experiment Design/Lab 3 - the Sternberg memory scanning task (an experiment on short term memory)","no","mono","no","18","no","white","no","yes","768","legacy","29","11","C:/Users/suici/Desktop/Tarleton/Fall 2021 - Graduate Studies/PSYC 5316-010 Advanced Quantitative Methods & Experiment Design/Lab 3 - the Sternberg memory scanning task (an experiment on short term memory)/SM-subject-2.csv","legacy","6 5","Lentiform Loewenfeld","3.3.9","2","y","0","right","left","left","right","NA","457","15163","89659","457","NA","2","legacy","2","1024","2","48000","-16","experiment","2","even","5","352930","163576","349693","350729","1397","178739","350730","343901","1400","354930","351730","355387","91059","354930","NA","Sternberg task","35","29797","42","yes","1024"
"81.3953488372","81.3953488372","725.325581395","725.325581395","black","experiment","legacy","legacy","legacy","0","uniform","0","undefined","0","left","42","0","42","42","0","0","42","42","0","42","42","42","0","42","0","10/17/21 08:18:00","The main experiment item","yes","Sternbergtask.osexp","C:/Users/suici/Desktop/Tarleton/Fall 2021 - Graduate Studies/PSYC 5316-010 Advanced Quantitative Methods & Experiment Design/Lab 3 - the Sternberg memory scanning task (an experiment on short term memory)","no","mono","no","18","no","white","no","yes","768","legacy","30","11","C:/Users/suici/Desktop/Tarleton/Fall 2021 - Graduate Studies/PSYC 5316-010 Advanced Quantitative Methods & Experiment Design/Lab 3 - the Sternberg memory scanning task (an experiment on short term memory)/SM-subject-2.csv","legacy","4 7 6 8 2 3","Lentiform Loewenfeld","3.3.9","6","y","0","right","left","left","right","NA","1392","15163","89659","1392","NA","2","legacy","6","1024","2","48000","-16","experiment","2","even","3","358627","163576","349693","356426","1397","178739","356427","355389","1400","360627","357427","362020","91059","360627","NA","Sternberg task","35","31189","43","yes","1024"
"79.5454545455","79.5454545455","722.159090909","722.159090909","black","experiment","legacy","legacy","legacy","0","uniform","0","undefined","0","right","43","0","43","43","0","0","43","43","0","43","43","43","0","43","0","10/17/21 08:18:00","The main experiment item","yes","Sternbergtask.osexp","C:/Users/suici/Desktop/Tarleton/Fall 2021 - Graduate Studies/PSYC 5316-010 Advanced Quantitative Methods & Experiment Design/Lab 3 - the Sternberg memory scanning task (an experiment on short term memory)","no","mono","no","18","no","white","no","yes","768","legacy","31","11","C:/Users/suici/Desktop/Tarleton/Fall 2021 - Graduate Studies/PSYC 5316-010 Advanced Quantitative Methods & Experiment Design/Lab 3 - the Sternberg memory scanning task (an experiment on short term memory)/SM-subject-2.csv","legacy","9 5 3 2 8 6","Lentiform Loewenfeld","3.3.9","0","n","0","left","left","left","left","NA","586","15163","89659","586","NA","2","legacy","6","1024","2","48000","-16","experiment","2","even","7","365258","163576","349693","363057","1397","178739","363058","362021","1400","367258","364058","367844","91059","367258","NA","Sternberg task","35","31775","44","yes","1024"
"77.7777777778","77.7777777778","723.866666667","723.866666667","black","experiment","legacy","legacy","legacy","0","uniform","0","undefined","0","right","44","0","44","44","0","0","44","44","0","44","44","44","0","44","0","10/17/21 08:18:00","The main experiment item","yes","Sternbergtask.osexp","C:/Users/suici/Desktop/Tarleton/Fall 2021 - Graduate Studies/PSYC 5316-010 Advanced Quantitative Methods & Experiment Design/Lab 3 - the Sternberg memory scanning task (an experiment on short term memory)","no","mono","no","18","no","white","no","yes","768","legacy","32","11","C:/Users/suici/Desktop/Tarleton/Fall 2021 - Graduate Studies/PSYC 5316-010 Advanced Quantitative Methods & Experiment Design/Lab 3 - the Sternberg memory scanning task (an experiment on short term memory)/SM-subject-2.csv","legacy","6 9 7 3 8 2","Lentiform Loewenfeld","3.3.9","0","n","0","left","left","left","left","NA","799","15163","89659","799","NA","2","legacy","6","1024","2","48000","-16","experiment","2","even","5","371084","163576","349693","368883","1397","178739","368884","367846","1400","373084","369884","373883","91059","373084","NA","Sternberg task","35","32574","45","yes","1024"
"78.2608695652","78.2608695652","721.02173913","721.02173913","black","experiment","legacy","legacy","legacy","0","uniform","1","undefined","1","right","45","0","45","45","0","0","45","45","0","45","45","45","0","45","0","10/17/21 08:18:00","The main experiment item","yes","Sternbergtask.osexp","C:/Users/suici/Desktop/Tarleton/Fall 2021 - Graduate Studies/PSYC 5316-010 Advanced Quantitative Methods & Experiment Design/Lab 3 - the Sternberg memory scanning task (an experiment on short term memory)","no","mono","no","18","no","white","no","yes","768","legacy","33","11","C:/Users/suici/Desktop/Tarleton/Fall 2021 - Graduate Studies/PSYC 5316-010 Advanced Quantitative Methods & Experiment Design/Lab 3 - the Sternberg memory scanning task (an experiment on short term memory)/SM-subject-2.csv","legacy","8 6 3 4 7","Lentiform Loewenfeld","3.3.9","0","n","0","right","left","left","right","NA","593","15163","89659","593","NA","2","legacy","5","1024","2","48000","-16","experiment","2","even","1","377122","163576","349693","374921","1397","178739","374922","373885","1400","379122","375922","379716","91059","379122","NA","Sternberg task","36","33167","46","yes","1024"
"76.5957446809","76.5957446809","715.127659574","715.127659574","black","experiment","legacy","legacy","legacy","0","uniform","0","undefined","0","left","46","0","46","46","0","0","46","46","0","46","46","46","0","46","0","10/17/21 08:18:00","The main experiment item","yes","Sternbergtask.osexp","C:/Users/suici/Desktop/Tarleton/Fall 2021 - Graduate Studies/PSYC 5316-010 Advanced Quantitative Methods & Experiment Design/Lab 3 - the Sternberg memory scanning task (an experiment on short term memory)","no","mono","no","18","no","white","no","yes","768","legacy","34","11","C:/Users/suici/Desktop/Tarleton/Fall 2021 - Graduate Studies/PSYC 5316-010 Advanced Quantitative Methods & Experiment Design/Lab 3 - the Sternberg memory scanning task (an experiment on short term memory)/SM-subject-2.csv","legacy","7","Lentiform Loewenfeld","3.3.9","1","y","0","right","left","left","right","NA","444","15163","89659","444","NA","2","legacy","1","1024","2","48000","-16","experiment","2","even","7","382951","163576","379717","380750","1397","178739","380751","373885","1400","384951","381751","385396","91059","384951","NA","Sternberg task","36","33611","47","yes","1024"
"77.0833333333","77.0833333333","728.125","728.125","black","experiment","legacy","legacy","legacy","0","uniform","1","undefined","1","right","47","0","47","47","0","0","47","47","0","47","47","47","0","47","0","10/17/21 08:18:00","The main experiment item","yes","Sternbergtask.osexp","C:/Users/suici/Desktop/Tarleton/Fall 2021 - Graduate Studies/PSYC 5316-010 Advanced Quantitative Methods & Experiment Design/Lab 3 - the Sternberg memory scanning task (an experiment on short term memory)","no","mono","no","18","no","white","no","yes","768","legacy","35","11","C:/Users/suici/Desktop/Tarleton/Fall 2021 - Graduate Studies/PSYC 5316-010 Advanced Quantitative Methods & Experiment Design/Lab 3 - the Sternberg memory scanning task (an experiment on short term memory)/SM-subject-2.csv","legacy","6 7 5 9","Lentiform Loewenfeld","3.3.9","0","n","0","right","left","left","right","NA","1339","15163","89659","1339","NA","2","legacy","4","1024","2","48000","-16","experiment","2","even","2","388632","163576","379717","386431","1397","178739","386432","385397","1400","390632","387432","391971","91059","390632","NA","Sternberg task","37","34950","48","yes","1024"
"77.5510204082","77.5510204082","726.224489796","726.224489796","black","experiment","legacy","legacy","legacy","0","uniform","1","undefined","1","right","48","0","48","48","0","0","48","48","0","48","48","48","0","48","0","10/17/21 08:18:00","The main experiment item","yes","Sternbergtask.osexp","C:/Users/suici/Desktop/Tarleton/Fall 2021 - Graduate Studies/PSYC 5316-010 Advanced Quantitative Methods & Experiment Design/Lab 3 - the Sternberg memory scanning task (an experiment on short term memory)","no","mono","no","18","no","white","no","yes","768","legacy","36","11","C:/Users/suici/Desktop/Tarleton/Fall 2021 - Graduate Studies/PSYC 5316-010 Advanced Quantitative Methods & Experiment Design/Lab 3 - the Sternberg memory scanning task (an experiment on short term memory)/SM-subject-2.csv","legacy","2 7 5","Lentiform Loewenfeld","3.3.9","0","n","0","right","left","left","right","NA","635","15163","89659","635","NA","2","legacy","3","1024","2","48000","-16","experiment","2","even","8","395208","163576","391973","393007","1397","178739","393008","385397","1400","397208","394008","397843","91059","397208","NA","Sternberg task","38","35585","49","yes","1024"
"78","78","737.84","737.84","black","experiment","legacy","legacy","legacy","0","uniform","1","undefined","1","left","49","0","49","49","0","0","49","49","0","49","49","49","0","49","0","10/17/21 08:18:00","The main experiment item","yes","Sternbergtask.osexp","C:/Users/suici/Desktop/Tarleton/Fall 2021 - Graduate Studies/PSYC 5316-010 Advanced Quantitative Methods & Experiment Design/Lab 3 - the Sternberg memory scanning task (an experiment on short term memory)","no","mono","no","18","no","white","no","yes","768","legacy","37","11","C:/Users/suici/Desktop/Tarleton/Fall 2021 - Graduate Studies/PSYC 5316-010 Advanced Quantitative Methods & Experiment Design/Lab 3 - the Sternberg memory scanning task (an experiment on short term memory)/SM-subject-2.csv","legacy","2 4 6 9","Lentiform Loewenfeld","3.3.9","3","y","0","left","left","left","left","NA","1307","15163","89659","1307","NA","2","legacy","4","1024","2","48000","-16","experiment","2","even","6","401080","163576","397845","398879","1397","178739","398880","385397","1400","403080","399880","404388","91059","403080","NA","Sternberg task","39","36892","50","yes","1024"
"78.431372549","78.431372549","738.960784314","738.960784314","black","experiment","legacy","legacy","legacy","0","uniform","1","undefined","1","left","50","0","50","50","0","0","50","50","0","50","50","50","0","50","0","10/17/21 08:18:00","The main experiment item","yes","Sternbergtask.osexp","C:/Users/suici/Desktop/Tarleton/Fall 2021 - Graduate Studies/PSYC 5316-010 Advanced Quantitative Methods & Experiment Design/Lab 3 - the Sternberg memory scanning task (an experiment on short term memory)","no","mono","no","18","no","white","no","yes","768","legacy","38","11","C:/Users/suici/Desktop/Tarleton/Fall 2021 - Graduate Studies/PSYC 5316-010 Advanced Quantitative Methods & Experiment Design/Lab 3 - the Sternberg memory scanning task (an experiment on short term memory)/SM-subject-2.csv","legacy","2 6 1 7 4","Lentiform Loewenfeld","3.3.9","2","y","0","left","left","left","left","NA","795","15163","89659","795","NA","2","legacy","5","1024","2","48000","-16","experiment","2","even","6","407624","163576","404389","405423","1397","178739","405424","385397","1400","409624","406424","410419","91059","409624","NA","Sternberg task","40","37687","51","yes","1024"
"78.8461538462","78.8461538462","746.365384615","746.365384615","black","experiment","legacy","legacy","legacy","0","uniform","1","undefined","1","right","51","0","51","51","0","0","51","51","0","51","51","51","0","51","0","10/17/21 08:18:00","The main experiment item","yes","Sternbergtask.osexp","C:/Users/suici/Desktop/Tarleton/Fall 2021 - Graduate Studies/PSYC 5316-010 Advanced Quantitative Methods & Experiment Design/Lab 3 - the Sternberg memory scanning task (an experiment on short term memory)","no","mono","no","18","no","white","no","yes","768","legacy","39","11","C:/Users/suici/Desktop/Tarleton/Fall 2021 - Graduate Studies/PSYC 5316-010 Advanced Quantitative Methods & Experiment Design/Lab 3 - the Sternberg memory scanning task (an experiment on short term memory)/SM-subject-2.csv","legacy","6 2 9 3 8 4","Lentiform Loewenfeld","3.3.9","0","n","0","right","left","left","right","NA","1124","15163","89659","1124","NA","2","legacy","6","1024","2","48000","-16","experiment","2","even","1","413655","163576","410421","411455","1397","178739","411455","385397","1400","415655","412455","416779","91059","415655","NA","Sternberg task","41","38811","52","yes","1024"
"79.2452830189","79.2452830189","756.056603774","756.056603774","black","experiment","legacy","legacy","legacy","0","uniform","1","undefined","1","left","52","0","52","52","0","0","52","52","0","52","52","52","0","52","0","10/17/21 08:18:00","The main experiment item","yes","Sternbergtask.osexp","C:/Users/suici/Desktop/Tarleton/Fall 2021 - Graduate Studies/PSYC 5316-010 Advanced Quantitative Methods & Experiment Design/Lab 3 - the Sternberg memory scanning task (an experiment on short term memory)","no","mono","no","18","no","white","no","yes","768","legacy","40","11","C:/Users/suici/Desktop/Tarleton/Fall 2021 - Graduate Studies/PSYC 5316-010 Advanced Quantitative Methods & Experiment Design/Lab 3 - the Sternberg memory scanning task (an experiment on short term memory)/SM-subject-2.csv","legacy","7 6","Lentiform Loewenfeld","3.3.9","2","y","0","left","left","left","left","NA","1260","15163","89659","1260","NA","2","legacy","2","1024","2","48000","-16","experiment","2","even","6","420015","163576","416781","417814","1397","178739","417815","385397","1400","422015","418815","423276","91059","422015","NA","Sternberg task","42","40071","53","yes","1024"
"79.6296296296","79.6296296296","762.277777778","762.277777778","black","experiment","legacy","legacy","legacy","0","uniform","1","undefined","1","left","53","0","53","53","0","0","53","53","0","53","53","53","0","53","0","10/17/21 08:18:00","The main experiment item","yes","Sternbergtask.osexp","C:/Users/suici/Desktop/Tarleton/Fall 2021 - Graduate Studies/PSYC 5316-010 Advanced Quantitative Methods & Experiment Design/Lab 3 - the Sternberg memory scanning task (an experiment on short term memory)","no","mono","no","18","no","white","no","yes","768","legacy","41","11","C:/Users/suici/Desktop/Tarleton/Fall 2021 - Graduate Studies/PSYC 5316-010 Advanced Quantitative Methods & Experiment Design/Lab 3 - the Sternberg memory scanning task (an experiment on short term memory)/SM-subject-2.csv","legacy","8 9 5 7 1 6","Lentiform Loewenfeld","3.3.9","4","y","0","left","left","left","left","NA","1092","15163","89659","1092","NA","2","legacy","6","1024","2","48000","-16","experiment","2","even","7","426511","163576","423277","424311","1397","178739","424311","385397","1400","428511","425311","429604","91059","428511","NA","Sternberg task","43","41163","54","yes","1024"
"80","80","771.309090909","771.309090909","black","experiment","legacy","legacy","legacy","0","uniform","1","undefined","1","left","54","0","54","54","0","0","54","54","0","54","54","54","0","54","0","10/17/21 08:18:00","The main experiment item","yes","Sternbergtask.osexp","C:/Users/suici/Desktop/Tarleton/Fall 2021 - Graduate Studies/PSYC 5316-010 Advanced Quantitative Methods & Experiment Design/Lab 3 - the Sternberg memory scanning task (an experiment on short term memory)","no","mono","no","18","no","white","no","yes","768","legacy","42","11","C:/Users/suici/Desktop/Tarleton/Fall 2021 - Graduate Studies/PSYC 5316-010 Advanced Quantitative Methods & Experiment Design/Lab 3 - the Sternberg memory scanning task (an experiment on short term memory)/SM-subject-2.csv","legacy","9 4 2","Lentiform Loewenfeld","3.3.9","1","y","0","left","left","left","left","NA","1259","15163","89659","1259","NA","2","legacy","3","1024","2","48000","-16","experiment","2","even","9","432840","163576","429605","430639","1397","178739","430640","385397","1400","434840","431640","436100","91059","434840","NA","Sternberg task","44","42422","55","yes","1024"
"80.3571428571","80.3571428571","770.964285714","770.964285714","black","experiment","legacy","legacy","legacy","0","uniform","1","undefined","1","left","55","0","55","55","0","0","55","55","0","55","55","55","0","55","0","10/17/21 08:18:00","The main experiment item","yes","Sternbergtask.osexp","C:/Users/suici/Desktop/Tarleton/Fall 2021 - Graduate Studies/PSYC 5316-010 Advanced Quantitative Methods & Experiment Design/Lab 3 - the Sternberg memory scanning task (an experiment on short term memory)","no","mono","no","18","no","white","no","yes","768","legacy","43","11","C:/Users/suici/Desktop/Tarleton/Fall 2021 - Graduate Studies/PSYC 5316-010 Advanced Quantitative Methods & Experiment Design/Lab 3 - the Sternberg memory scanning task (an experiment on short term memory)/SM-subject-2.csv","legacy","6 9 7 4 5 1","Lentiform Loewenfeld","3.3.9","2","y","0","left","left","left","left","NA","752","15163","89659","752","NA","2","legacy","6","1024","2","48000","-16","experiment","2","even","9","439339","163576","436102","437138","1397","178739","437139","385397","1400","441339","438139","442091","91059","441339","NA","Sternberg task","45","43174","56","yes","1024"
"80.701754386","80.701754386","769.122807018","769.122807018","black","experiment","legacy","legacy","legacy","0","uniform","1","undefined","1","left","56","0","56","56","0","0","56","56","0","56","56","56","0","56","0","10/17/21 08:18:00","The main experiment item","yes","Sternbergtask.osexp","C:/Users/suici/Desktop/Tarleton/Fall 2021 - Graduate Studies/PSYC 5316-010 Advanced Quantitative Methods & Experiment Design/Lab 3 - the Sternberg memory scanning task (an experiment on short term memory)","no","mono","no","18","no","white","no","yes","768","legacy","44","11","C:/Users/suici/Desktop/Tarleton/Fall 2021 - Graduate Studies/PSYC 5316-010 Advanced Quantitative Methods & Experiment Design/Lab 3 - the Sternberg memory scanning task (an experiment on short term memory)/SM-subject-2.csv","legacy","9 1 6 7 8","Lentiform Loewenfeld","3.3.9","1","y","0","left","left","left","left","NA","666","15163","89659","666","NA","2","legacy","5","1024","2","48000","-16","experiment","2","even","9","445330","163576","442093","443130","1397","178739","443130","385397","1400","447330","444130","447996","91059","447330","NA","Sternberg task","46","43840","57","yes","1024"
"81.0344827586","81.0344827586","772.413793103","772.413793103","black","experiment","legacy","legacy","legacy","0","uniform","1","undefined","1","left","57","0","57","57","0","0","57","57","0","57","57","57","0","57","0","10/17/21 08:18:00","The main experiment item","yes","Sternbergtask.osexp","C:/Users/suici/Desktop/Tarleton/Fall 2021 - Graduate Studies/PSYC 5316-010 Advanced Quantitative Methods & Experiment Design/Lab 3 - the Sternberg memory scanning task (an experiment on short term memory)","no","mono","no","18","no","white","no","yes","768","legacy","45","11","C:/Users/suici/Desktop/Tarleton/Fall 2021 - Graduate Studies/PSYC 5316-010 Advanced Quantitative Methods & Experiment Design/Lab 3 - the Sternberg memory scanning task (an experiment on short term memory)/SM-subject-2.csv","legacy","5 2 9 6 1 7","Lentiform Loewenfeld","3.3.9","3","y","0","left","left","left","left","NA","960","15163","89659","960","NA","2","legacy","6","1024","2","48000","-16","experiment","2","even","9","451235","163576","447998","449034","1397","178739","449035","385397","1400","453235","450035","454195","91059","453235","NA","Sternberg task","47","44800","58","yes","1024"
"79.6610169492","79.6610169492","772.220338983","772.220338983","black","experiment","legacy","legacy","legacy","0","uniform","0","undefined","0","right","58","0","58","58","0","0","58","58","0","58","58","58","0","58","0","10/17/21 08:18:00","The main experiment item","yes","Sternbergtask.osexp","C:/Users/suici/Desktop/Tarleton/Fall 2021 - Graduate Studies/PSYC 5316-010 Advanced Quantitative Methods & Experiment Design/Lab 3 - the Sternberg memory scanning task (an experiment on short term memory)","no","mono","no","18","no","white","no","yes","768","legacy","46","11","C:/Users/suici/Desktop/Tarleton/Fall 2021 - Graduate Studies/PSYC 5316-010 Advanced Quantitative Methods & Experiment Design/Lab 3 - the Sternberg memory scanning task (an experiment on short term memory)/SM-subject-2.csv","legacy","2 8 7 9 5 3","Lentiform Loewenfeld","3.3.9","0","n","0","left","left","left","left","NA","761","15163","89659","761","NA","2","legacy","6","1024","2","48000","-16","experiment","2","even","6","457434","163576","454197","455233","1397","178739","455234","385397","1400","459434","456234","460196","91059","459434","NA","Sternberg task","47","45561","59","yes","1024"
"78.3333333333","78.3333333333","792.683333333","792.683333333","black","experiment","legacy","legacy","legacy","0","uniform","0","undefined","0","right","59","0","59","59","0","0","59","59","0","59","59","59","0","59","0","10/17/21 08:18:00","The main experiment item","yes","Sternbergtask.osexp","C:/Users/suici/Desktop/Tarleton/Fall 2021 - Graduate Studies/PSYC 5316-010 Advanced Quantitative Methods & Experiment Design/Lab 3 - the Sternberg memory scanning task (an experiment on short term memory)","no","mono","no","18","no","white","no","yes","768","legacy","47","11","C:/Users/suici/Desktop/Tarleton/Fall 2021 - Graduate Studies/PSYC 5316-010 Advanced Quantitative Methods & Experiment Design/Lab 3 - the Sternberg memory scanning task (an experiment on short term memory)/SM-subject-2.csv","legacy","3 9 8 1 6 4","Lentiform Loewenfeld","3.3.9","0","n","0","None","left","left","None","NA","2000","15163","89659","2000","NA","2","legacy","6","1024","2","48000","-16","experiment","2","even","7","463438","163576","454197","461237","1397","178739","461238","460198","1400","465438","462238","467438","91059","465438","NA","Sternberg task","47","47561","60","yes","1024"
"78.6885245902","78.6885245902","794.081967213","794.081967213","black","experiment","legacy","legacy","legacy","0","uniform","1","undefined","1","right","60","0","60","60","0","0","60","60","0","60","60","60","0","60","0","10/17/21 08:18:00","The main experiment item","yes","Sternbergtask.osexp","C:/Users/suici/Desktop/Tarleton/Fall 2021 - Graduate Studies/PSYC 5316-010 Advanced Quantitative Methods & Experiment Design/Lab 3 - the Sternberg memory scanning task (an experiment on short term memory)","no","mono","no","18","no","white","no","yes","768","legacy","48","11","C:/Users/suici/Desktop/Tarleton/Fall 2021 - Graduate Studies/PSYC 5316-010 Advanced Quantitative Methods & Experiment Design/Lab 3 - the Sternberg memory scanning task (an experiment on short term memory)/SM-subject-2.csv","legacy","2 8 6 3 1","Lentiform Loewenfeld","3.3.9","0","n","0","right","left","left","right","NA","878","15163","89659","878","NA","2","legacy","5","1024","2","48000","-16","experiment","2","even","7","470677","163576","454197","468477","1397","178739","468477","467440","1400","472677","469477","473555","91059","472677","NA","Sternberg task","48","48439","61","yes","1024"
"79.0322580645","79.0322580645","797.677419355","797.677419355","black","experiment","legacy","legacy","legacy","0","uniform","1","undefined","1","right","61","0","61","61","0","0","61","61","0","61","61","61","0","61","0","10/17/21 08:18:00","The main experiment item","yes","Sternbergtask.osexp","C:/Users/suici/Desktop/Tarleton/Fall 2021 - Graduate Studies/PSYC 5316-010 Advanced Quantitative Methods & Experiment Design/Lab 3 - the Sternberg memory scanning task (an experiment on short term memory)","no","mono","no","18","no","white","no","yes","768","legacy","49","11","C:/Users/suici/Desktop/Tarleton/Fall 2021 - Graduate Studies/PSYC 5316-010 Advanced Quantitative Methods & Experiment Design/Lab 3 - the Sternberg memory scanning task (an experiment on short term memory)/SM-subject-2.csv","legacy","4 2 7 6 1 3","Lentiform Loewenfeld","3.3.9","0","n","0","right","left","left","right","NA","1017","15163","89659","1017","NA","2","legacy","6","1024","2","48000","-16","experiment","2","even","8","476794","163576","473557","474593","1397","178739","474594","467440","1400","478794","475594","479811","91059","478794","NA","Sternberg task","49","49456","62","yes","1024"
"77.7777777778","77.7777777778","816.761904762","816.761904762","black","experiment","legacy","legacy","legacy","0","uniform","0","undefined","0","left","62","0","62","62","0","0","62","62","0","62","62","62","0","62","0","10/17/21 08:18:00","The main experiment item","yes","Sternbergtask.osexp","C:/Users/suici/Desktop/Tarleton/Fall 2021 - Graduate Studies/PSYC 5316-010 Advanced Quantitative Methods & Experiment Design/Lab 3 - the Sternberg memory scanning task (an experiment on short term memory)","no","mono","no","18","no","white","no","yes","768","legacy","50","11","C:/Users/suici/Desktop/Tarleton/Fall 2021 - Graduate Studies/PSYC 5316-010 Advanced Quantitative Methods & Experiment Design/Lab 3 - the Sternberg memory scanning task (an experiment on short term memory)/SM-subject-2.csv","legacy","4 6 2 5 1","Lentiform Loewenfeld","3.3.9","5","y","0","None","left","left","None","NA","2000","15163","89659","2000","NA","2","legacy","5","1024","2","48000","-16","experiment","2","even","1","483051","163576","479813","480849","1397","178739","480851","467440","1400","485051","481851","487051","91059","485051","NA","Sternberg task","49","51456","63","yes","1024"
"78.125","78.125","816.65625","816.65625","black","experiment","legacy","legacy","legacy","0","uniform","1","undefined","1","right","63","0","63","63","0","0","63","63","0","63","63","63","0","63","0","10/17/21 08:18:00","The main experiment item","yes","Sternbergtask.osexp","C:/Users/suici/Desktop/Tarleton/Fall 2021 - Graduate Studies/PSYC 5316-010 Advanced Quantitative Methods & Experiment Design/Lab 3 - the Sternberg memory scanning task (an experiment on short term memory)","no","mono","no","18","no","white","no","yes","768","legacy","51","11","C:/Users/suici/Desktop/Tarleton/Fall 2021 - Graduate Studies/PSYC 5316-010 Advanced Quantitative Methods & Experiment Design/Lab 3 - the Sternberg memory scanning task (an experiment on short term memory)/SM-subject-2.csv","legacy","9 8 2 7 4","Lentiform Loewenfeld","3.3.9","0","n","0","right","left","left","right","NA","810","15163","89659","810","NA","2","legacy","5","1024","2","48000","-16","experiment","2","even","5","490289","163576","479813","488088","1397","178739","488089","487052","1400","492289","489089","493100","91059","492289","NA","Sternberg task","50","52266","64","yes","1024"
"78.4615384615","78.4615384615","814.353846154","814.353846154","black","experiment","legacy","legacy","legacy","0","uniform","1","undefined","1","right","64","0","64","64","0","0","64","64","0","64","64","64","0","64","0","10/17/21 08:18:00","The main experiment item","yes","Sternbergtask.osexp","C:/Users/suici/Desktop/Tarleton/Fall 2021 - Graduate Studies/PSYC 5316-010 Advanced Quantitative Methods & Experiment Design/Lab 3 - the Sternberg memory scanning task (an experiment on short term memory)","no","mono","no","18","no","white","no","yes","768","legacy","52","11","C:/Users/suici/Desktop/Tarleton/Fall 2021 - Graduate Studies/PSYC 5316-010 Advanced Quantitative Methods & Experiment Design/Lab 3 - the Sternberg memory scanning task (an experiment on short term memory)/SM-subject-2.csv","legacy","3 4 9 6 7 8","Lentiform Loewenfeld","3.3.9","0","n","0","right","left","left","right","NA","667","15163","89659","667","NA","2","legacy","6","1024","2","48000","-16","experiment","2","even","2","496336","163576","493101","494135","1397","178739","494136","487052","1400","498336","495136","499004","91059","498336","NA","Sternberg task","51","52933","65","yes","1024"
"78.7878787879","78.7878787879","813.590909091","813.590909091","black","experiment","legacy","legacy","legacy","0","uniform","1","undefined","1","right","65","0","65","65","0","0","65","65","0","65","65","65","0","65","0","10/17/21 08:18:00","The main experiment item","yes","Sternbergtask.osexp","C:/Users/suici/Desktop/Tarleton/Fall 2021 - Graduate Studies/PSYC 5316-010 Advanced Quantitative Methods & Experiment Design/Lab 3 - the Sternberg memory scanning task (an experiment on short term memory)","no","mono","no","18","no","white","no","yes","768","legacy","53","11","C:/Users/suici/Desktop/Tarleton/Fall 2021 - Graduate Studies/PSYC 5316-010 Advanced Quantitative Methods & Experiment Design/Lab 3 - the Sternberg memory scanning task (an experiment on short term memory)/SM-subject-2.csv","legacy","9","Lentiform Loewenfeld","3.3.9","0","n","0","right","left","left","right","NA","764","15163","89659","764","NA","2","legacy","1","1024","2","48000","-16","experiment","2","even","6","502239","163576","499005","500038","1397","178739","500039","487052","1400","504239","501039","505003","91059","504239","NA","Sternberg task","52","53697","66","yes","1024"
"79.1044776119","79.1044776119","816.52238806","816.52238806","black","experiment","legacy","legacy","legacy","0","uniform","1","undefined","1","left","66","0","66","66","0","0","66","66","0","66","66","66","0","66","0","10/17/21 08:18:00","The main experiment item","yes","Sternbergtask.osexp","C:/Users/suici/Desktop/Tarleton/Fall 2021 - Graduate Studies/PSYC 5316-010 Advanced Quantitative Methods & Experiment Design/Lab 3 - the Sternberg memory scanning task (an experiment on short term memory)","no","mono","no","18","no","white","no","yes","768","legacy","54","11","C:/Users/suici/Desktop/Tarleton/Fall 2021 - Graduate Studies/PSYC 5316-010 Advanced Quantitative Methods & Experiment Design/Lab 3 - the Sternberg memory scanning task (an experiment on short term memory)/SM-subject-2.csv","legacy","9 3 1 2 5","Lentiform Loewenfeld","3.3.9","4","y","0","left","left","left","left","NA","1010","15163","89659","1010","NA","2","legacy","5","1024","2","48000","-16","experiment","2","even","2","508241","163576","505005","506041","1397","178739","506041","487052","1400","510241","507041","511252","91059","510241","NA","Sternberg task","53","54707","67","yes","1024"
"79.4117647059","79.4117647059","820.411764706","820.411764706","black","experiment","legacy","legacy","legacy","0","uniform","1","undefined","1","left","67","0","67","67","0","0","67","67","0","67","67","67","0","67","0","10/17/21 08:18:00","The main experiment item","yes","Sternbergtask.osexp","C:/Users/suici/Desktop/Tarleton/Fall 2021 - Graduate Studies/PSYC 5316-010 Advanced Quantitative Methods & Experiment Design/Lab 3 - the Sternberg memory scanning task (an experiment on short term memory)","no","mono","no","18","no","white","no","yes","768","legacy","55","11","C:/Users/suici/Desktop/Tarleton/Fall 2021 - Graduate Studies/PSYC 5316-010 Advanced Quantitative Methods & Experiment Design/Lab 3 - the Sternberg memory scanning task (an experiment on short term memory)/SM-subject-2.csv","legacy","8 5 1 3 9","Lentiform Loewenfeld","3.3.9","4","y","0","left","left","left","left","NA","1081","15163","89659","1081","NA","2","legacy","5","1024","2","48000","-16","experiment","2","even","3","514490","163576","511253","512290","1397","178739","512290","487052","1400","516490","513290","517571","91059","516490","NA","Sternberg task","54","55788","68","yes","1024"
"79.7101449275","79.7101449275","823.072463768","823.072463768","black","experiment","legacy","legacy","legacy","0","uniform","1","undefined","1","left","68","0","68","68","0","0","68","68","0","68","68","68","0","68","0","10/17/21 08:18:00","The main experiment item","yes","Sternbergtask.osexp","C:/Users/suici/Desktop/Tarleton/Fall 2021 - Graduate Studies/PSYC 5316-010 Advanced Quantitative Methods & Experiment Design/Lab 3 - the Sternberg memory scanning task (an experiment on short term memory)","no","mono","no","18","no","white","no","yes","768","legacy","56","11","C:/Users/suici/Desktop/Tarleton/Fall 2021 - Graduate Studies/PSYC 5316-010 Advanced Quantitative Methods & Experiment Design/Lab 3 - the Sternberg memory scanning task (an experiment on short term memory)/SM-subject-2.csv","legacy","8 3","Lentiform Loewenfeld","3.3.9","2","y","0","left","left","left","left","NA","1004","15163","89659","1004","NA","2","legacy","2","1024","2","48000","-16","experiment","2","even","3","520807","163576","517573","518606","1397","178739","518607","487052","1400","522807","519607","523811","91059","522807","NA","Sternberg task","55","56792","69","yes","1024"
"80","80","821.285714286","821.285714286","black","experiment","legacy","legacy","legacy","0","uniform","1","undefined","1","right","69","0","69","69","0","0","69","69","0","69","69","69","0","69","0","10/17/21 08:18:00","The main experiment item","yes","Sternbergtask.osexp","C:/Users/suici/Desktop/Tarleton/Fall 2021 - Graduate Studies/PSYC 5316-010 Advanced Quantitative Methods & Experiment Design/Lab 3 - the Sternberg memory scanning task (an experiment on short term memory)","no","mono","no","18","no","white","no","yes","768","legacy","57","11","C:/Users/suici/Desktop/Tarleton/Fall 2021 - Graduate Studies/PSYC 5316-010 Advanced Quantitative Methods & Experiment Design/Lab 3 - the Sternberg memory scanning task (an experiment on short term memory)/SM-subject-2.csv","legacy","6 9 4 5 2","Lentiform Loewenfeld","3.3.9","0","n","0","right","left","left","right","NA","698","15163","89659","698","NA","2","legacy","5","1024","2","48000","-16","experiment","2","even","1","527049","163576","523813","524848","1397","178739","524849","487052","1400","529049","525849","529748","91059","529049","NA","Sternberg task","56","57490","70","yes","1024"
"80.2816901408","80.2816901408","821.929577465","821.929577465","black","experiment","legacy","legacy","legacy","0","uniform","1","undefined","1","left","70","0","70","70","0","0","70","70","0","70","70","70","0","70","0","10/17/21 08:18:00","The main experiment item","yes","Sternbergtask.osexp","C:/Users/suici/Desktop/Tarleton/Fall 2021 - Graduate Studies/PSYC 5316-010 Advanced Quantitative Methods & Experiment Design/Lab 3 - the Sternberg memory scanning task (an experiment on short term memory)","no","mono","no","18","no","white","no","yes","768","legacy","58","11","C:/Users/suici/Desktop/Tarleton/Fall 2021 - Graduate Studies/PSYC 5316-010 Advanced Quantitative Methods & Experiment Design/Lab 3 - the Sternberg memory scanning task (an experiment on short term memory)/SM-subject-2.csv","legacy","2 3 7 4","Lentiform Loewenfeld","3.3.9","1","y","0","left","left","left","left","NA","867","15163","89659","867","NA","2","legacy","4","1024","2","48000","-16","experiment","2","even","2","532984","163576","529749","530783","1397","178739","530784","487052","1400","534984","531784","535851","91059","534984","NA","Sternberg task","57","58357","71","yes","1024"
"80.5555555556","80.5555555556","817.666666667","817.666666667","black","experiment","legacy","legacy","legacy","0","uniform","1","undefined","1","right","71","0","71","71","0","0","71","71","0","71","71","71","0","71","0","10/17/21 08:18:00","The main experiment item","yes","Sternbergtask.osexp","C:/Users/suici/Desktop/Tarleton/Fall 2021 - Graduate Studies/PSYC 5316-010 Advanced Quantitative Methods & Experiment Design/Lab 3 - the Sternberg memory scanning task (an experiment on short term memory)","no","mono","no","18","no","white","no","yes","768","legacy","59","11","C:/Users/suici/Desktop/Tarleton/Fall 2021 - Graduate Studies/PSYC 5316-010 Advanced Quantitative Methods & Experiment Design/Lab 3 - the Sternberg memory scanning task (an experiment on short term memory)/SM-subject-2.csv","legacy","7 1 5 6 3","Lentiform Loewenfeld","3.3.9","0","n","0","right","left","left","right","NA","515","15163","89659","515","NA","2","legacy","5","1024","2","48000","-16","experiment","2","even","8","539088","163576","535853","536887","1397","178739","536888","487052","1400","541088","537888","541604","91059","541088","NA","Sternberg task","58","58872","72","yes","1024"
"80.8219178082","80.8219178082","819.534246575","819.534246575","black","experiment","legacy","legacy","legacy","0","uniform","1","undefined","1","left","72","0","72","72","0","0","72","72","0","72","72","72","0","72","0","10/17/21 08:18:00","The main experiment item","yes","Sternbergtask.osexp","C:/Users/suici/Desktop/Tarleton/Fall 2021 - Graduate Studies/PSYC 5316-010 Advanced Quantitative Methods & Experiment Design/Lab 3 - the Sternberg memory scanning task (an experiment on short term memory)","no","mono","no","18","no","white","no","yes","768","legacy","60","11","C:/Users/suici/Desktop/Tarleton/Fall 2021 - Graduate Studies/PSYC 5316-010 Advanced Quantitative Methods & Experiment Design/Lab 3 - the Sternberg memory scanning task (an experiment on short term memory)/SM-subject-2.csv","legacy","3 2 1 4 7","Lentiform Loewenfeld","3.3.9","2","y","0","left","left","left","left","NA","954","15163","89659","954","NA","2","legacy","5","1024","2","48000","-16","experiment","2","even","2","544841","163576","541606","542640","1397","178739","542641","487052","1400","546841","543641","547796","91059","546841","NA","Sternberg task","59","59826","73","yes","1024"
"81.0810810811","81.0810810811","816.783783784","816.783783784","black","experiment","legacy","legacy","legacy","0","uniform","1","undefined","1","right","73","0","73","73","0","0","73","73","0","73","73","73","0","73","0","10/17/21 08:18:00","The main experiment item","yes","Sternbergtask.osexp","C:/Users/suici/Desktop/Tarleton/Fall 2021 - Graduate Studies/PSYC 5316-010 Advanced Quantitative Methods & Experiment Design/Lab 3 - the Sternberg memory scanning task (an experiment on short term memory)","no","mono","no","18","no","white","no","yes","768","legacy","61","11","C:/Users/suici/Desktop/Tarleton/Fall 2021 - Graduate Studies/PSYC 5316-010 Advanced Quantitative Methods & Experiment Design/Lab 3 - the Sternberg memory scanning task (an experiment on short term memory)/SM-subject-2.csv","legacy","5 2","Lentiform Loewenfeld","3.3.9","0","n","0","right","left","left","right","NA","616","15163","89659","616","NA","2","legacy","2","1024","2","48000","-16","experiment","2","even","7","551035","163576","547798","548834","1397","178739","548835","487052","1400","553035","549835","553651","91059","553035","NA","Sternberg task","60","60442","74","yes","1024"
"81.3333333333","81.3333333333","816.453333333","816.453333333","black","experiment","legacy","legacy","legacy","0","uniform","1","undefined","1","left","74","0","74","74","0","0","74","74","0","74","74","74","0","74","0","10/17/21 08:18:00","The main experiment item","yes","Sternbergtask.osexp","C:/Users/suici/Desktop/Tarleton/Fall 2021 - Graduate Studies/PSYC 5316-010 Advanced Quantitative Methods & Experiment Design/Lab 3 - the Sternberg memory scanning task (an experiment on short term memory)","no","mono","no","18","no","white","no","yes","768","legacy","62","11","C:/Users/suici/Desktop/Tarleton/Fall 2021 - Graduate Studies/PSYC 5316-010 Advanced Quantitative Methods & Experiment Design/Lab 3 - the Sternberg memory scanning task (an experiment on short term memory)/SM-subject-2.csv","legacy","4 3 2 5 8","Lentiform Loewenfeld","3.3.9","2","y","0","left","left","left","left","NA","792","15163","89659","792","NA","2","legacy","5","1024","2","48000","-16","experiment","2","even","3","556891","163576","553653","554689","1397","178739","554691","487052","1400","558891","555691","559683","91059","558891","NA","Sternberg task","61","61234","75","yes","1024"
"81.5789473684","81.5789473684","816.657894737","816.657894737","black","experiment","legacy","legacy","legacy","0","uniform","1","undefined","1","right","75","0","75","75","0","0","75","75","0","75","75","75","0","75","0","10/17/21 08:18:00","The main experiment item","yes","Sternbergtask.osexp","C:/Users/suici/Desktop/Tarleton/Fall 2021 - Graduate Studies/PSYC 5316-010 Advanced Quantitative Methods & Experiment Design/Lab 3 - the Sternberg memory scanning task (an experiment on short term memory)","no","mono","no","18","no","white","no","yes","768","legacy","63","11","C:/Users/suici/Desktop/Tarleton/Fall 2021 - Graduate Studies/PSYC 5316-010 Advanced Quantitative Methods & Experiment Design/Lab 3 - the Sternberg memory scanning task (an experiment on short term memory)/SM-subject-2.csv","legacy","1 6 4","Lentiform Loewenfeld","3.3.9","0","n","0","right","left","left","right","NA","832","15163","89659","832","NA","2","legacy","3","1024","2","48000","-16","experiment","2","even","7","562923","163576","559685","560722","1397","178739","560723","487052","1400","564923","561723","565756","91059","564923","NA","Sternberg task","62","62066","76","yes","1024"
"81.8181818182","81.8181818182","813.532467532","813.532467532","black","experiment","legacy","legacy","legacy","0","uniform","1","undefined","1","right","76","0","76","76","0","0","76","76","0","76","76","76","0","76","0","10/17/21 08:18:00","The main experiment item","yes","Sternbergtask.osexp","C:/Users/suici/Desktop/Tarleton/Fall 2021 - Graduate Studies/PSYC 5316-010 Advanced Quantitative Methods & Experiment Design/Lab 3 - the Sternberg memory scanning task (an experiment on short term memory)","no","mono","no","18","no","white","no","yes","768","legacy","64","11","C:/Users/suici/Desktop/Tarleton/Fall 2021 - Graduate Studies/PSYC 5316-010 Advanced Quantitative Methods & Experiment Design/Lab 3 - the Sternberg memory scanning task (an experiment on short term memory)/SM-subject-2.csv","legacy","2 6 4 3 9","Lentiform Loewenfeld","3.3.9","0","n","0","right","left","left","right","NA","576","15163","89659","576","NA","2","legacy","5","1024","2","48000","-16","experiment","2","even","1","568995","163576","565758","566794","1397","178739","566795","487052","1400","570995","567795","571572","91059","570995","NA","Sternberg task","63","62642","77","yes","1024"
"82.0512820513","82.0512820513","810.564102564","810.564102564","black","experiment","legacy","legacy","legacy","0","uniform","1","undefined","1","right","77","0","77","77","0","0","77","77","0","77","77","77","0","77","0","10/17/21 08:18:00","The main experiment item","yes","Sternbergtask.osexp","C:/Users/suici/Desktop/Tarleton/Fall 2021 - Graduate Studies/PSYC 5316-010 Advanced Quantitative Methods & Experiment Design/Lab 3 - the Sternberg memory scanning task (an experiment on short term memory)","no","mono","no","18","no","white","no","yes","768","legacy","65","11","C:/Users/suici/Desktop/Tarleton/Fall 2021 - Graduate Studies/PSYC 5316-010 Advanced Quantitative Methods & Experiment Design/Lab 3 - the Sternberg memory scanning task (an experiment on short term memory)/SM-subject-2.csv","legacy","2 8 9 4 1","Lentiform Loewenfeld","3.3.9","0","n","0","right","left","left","right","NA","582","15163","89659","582","NA","2","legacy","5","1024","2","48000","-16","experiment","2","even","5","574813","163576","571574","572612","1397","178739","572613","487052","1400","576813","573613","577396","91059","576813","NA","Sternberg task","64","63224","78","yes","1024"
"82.2784810127","82.2784810127","812.063291139","812.063291139","black","experiment","legacy","legacy","legacy","0","uniform","1","undefined","1","left","78","0","78","78","0","0","78","78","0","78","78","78","0","78","0","10/17/21 08:18:00","The main experiment item","yes","Sternbergtask.osexp","C:/Users/suici/Desktop/Tarleton/Fall 2021 - Graduate Studies/PSYC 5316-010 Advanced Quantitative Methods & Experiment Design/Lab 3 - the Sternberg memory scanning task (an experiment on short term memory)","no","mono","no","18","no","white","no","yes","768","legacy","66","11","C:/Users/suici/Desktop/Tarleton/Fall 2021 - Graduate Studies/PSYC 5316-010 Advanced Quantitative Methods & Experiment Design/Lab 3 - the Sternberg memory scanning task (an experiment on short term memory)/SM-subject-2.csv","legacy","8 1 6","Lentiform Loewenfeld","3.3.9","3","y","0","left","left","left","left","NA","929","15163","89659","929","NA","2","legacy","3","1024","2","48000","-16","experiment","2","even","6","580634","163576","577397","578434","1397","178739","578434","487052","1400","582634","579434","583563","91059","582634","NA","Sternberg task","65","64153","79","yes","1024"
"82.5","82.5","812.3125","812.3125","black","experiment","legacy","legacy","legacy","0","uniform","1","undefined","1","left","79","0","79","79","0","0","79","79","0","79","79","79","0","79","0","10/17/21 08:18:00","The main experiment item","yes","Sternbergtask.osexp","C:/Users/suici/Desktop/Tarleton/Fall 2021 - Graduate Studies/PSYC 5316-010 Advanced Quantitative Methods & Experiment Design/Lab 3 - the Sternberg memory scanning task (an experiment on short term memory)","no","mono","no","18","no","white","no","yes","768","legacy","67","11","C:/Users/suici/Desktop/Tarleton/Fall 2021 - Graduate Studies/PSYC 5316-010 Advanced Quantitative Methods & Experiment Design/Lab 3 - the Sternberg memory scanning task (an experiment on short term memory)/SM-subject-2.csv","legacy","9 6 2 4 1","Lentiform Loewenfeld","3.3.9","4","y","0","left","left","left","left","NA","832","15163","89659","832","NA","2","legacy","5","1024","2","48000","-16","experiment","2","even","4","586803","163576","583565","584602","1397","178739","584602","487052","1400","588803","585603","589635","91059","588803","NA","Sternberg task","66","64985","80","yes","1024"
"81.4814814815","81.4814814815","809.987654321","809.987654321","black","experiment","legacy","legacy","legacy","0","uniform","0","undefined","0","left","80","0","80","80","0","0","80","80","0","80","80","80","0","80","0","10/17/21 08:18:00","The main experiment item","yes","Sternbergtask.osexp","C:/Users/suici/Desktop/Tarleton/Fall 2021 - Graduate Studies/PSYC 5316-010 Advanced Quantitative Methods & Experiment Design/Lab 3 - the Sternberg memory scanning task (an experiment on short term memory)","no","mono","no","18","no","white","no","yes","768","legacy","68","11","C:/Users/suici/Desktop/Tarleton/Fall 2021 - Graduate Studies/PSYC 5316-010 Advanced Quantitative Methods & Experiment Design/Lab 3 - the Sternberg memory scanning task (an experiment on short term memory)/SM-subject-2.csv","legacy","4 9 7 8 5 3","Lentiform Loewenfeld","3.3.9","4","y","0","right","left","left","right","NA","624","15163","89659","624","NA","2","legacy","6","1024","2","48000","-16","experiment","2","even","8","592875","163576","589637","590674","1397","178739","590675","487052","1400","594875","591675","595500","91059","594875","NA","Sternberg task","66","65609","81","yes","1024"
"81.7073170732","81.7073170732","811.243902439","811.243902439","black","experiment","legacy","legacy","legacy","0","uniform","1","undefined","1","right","81","0","81","81","0","0","81","81","0","81","81","81","0","81","0","10/17/21 08:18:00","The main experiment item","yes","Sternbergtask.osexp","C:/Users/suici/Desktop/Tarleton/Fall 2021 - Graduate Studies/PSYC 5316-010 Advanced Quantitative Methods & Experiment Design/Lab 3 - the Sternberg memory scanning task (an experiment on short term memory)","no","mono","no","18","no","white","no","yes","768","legacy","69","11","C:/Users/suici/Desktop/Tarleton/Fall 2021 - Graduate Studies/PSYC 5316-010 Advanced Quantitative Methods & Experiment Design/Lab 3 - the Sternberg memory scanning task (an experiment on short term memory)/SM-subject-2.csv","legacy","6 9 4 5 3 2","Lentiform Loewenfeld","3.3.9","0","n","0","right","left","left","right","NA","913","15163","89659","913","NA","2","legacy","6","1024","2","48000","-16","experiment","2","even","8","598738","163576","589637","596537","1397","178739","596538","595501","1400","600738","597538","601651","91059","600738","NA","Sternberg task","67","66522","82","yes","1024"
"81.9277108434","81.9277108434","810.445783133","810.445783133","black","experiment","legacy","legacy","legacy","0","uniform","1","undefined","1","left","82","0","82","82","0","0","82","82","0","82","82","82","0","82","0","10/17/21 08:18:00","The main experiment item","yes","Sternbergtask.osexp","C:/Users/suici/Desktop/Tarleton/Fall 2021 - Graduate Studies/PSYC 5316-010 Advanced Quantitative Methods & Experiment Design/Lab 3 - the Sternberg memory scanning task (an experiment on short term memory)","no","mono","no","18","no","white","no","yes","768","legacy","70","11","C:/Users/suici/Desktop/Tarleton/Fall 2021 - Graduate Studies/PSYC 5316-010 Advanced Quantitative Methods & Experiment Design/Lab 3 - the Sternberg memory scanning task (an experiment on short term memory)/SM-subject-2.csv","legacy","3 4 9 6 2 9","Lentiform Loewenfeld","3.3.9","5","y","0","left","left","left","left","NA","745","15163","89659","745","NA","2","legacy","6","1024","2","48000","-16","experiment","2","even","2","604890","163576","601653","602689","1397","178739","602690","595501","1400","606890","603690","607636","91059","606890","NA","Sternberg task","68","67267","83","yes","1024"
"82.1428571429","82.1428571429","809.19047619","809.19047619","black","experiment","legacy","legacy","legacy","0","uniform","1","undefined","1","right","83","0","83","83","0","0","83","83","0","83","83","83","0","83","0","10/17/21 08:18:00","The main experiment item","yes","Sternbergtask.osexp","C:/Users/suici/Desktop/Tarleton/Fall 2021 - Graduate Studies/PSYC 5316-010 Advanced Quantitative Methods & Experiment Design/Lab 3 - the Sternberg memory scanning task (an experiment on short term memory)","no","mono","no","18","no","white","no","yes","768","legacy","71","11","C:/Users/suici/Desktop/Tarleton/Fall 2021 - Graduate Studies/PSYC 5316-010 Advanced Quantitative Methods & Experiment Design/Lab 3 - the Sternberg memory scanning task (an experiment on short term memory)/SM-subject-2.csv","legacy","7 8 6 1","Lentiform Loewenfeld","3.3.9","0","n","0","right","left","left","right","NA","705","15163","89659","705","NA","2","legacy","4","1024","2","48000","-16","experiment","2","even","3","610874","163576","607637","608673","1397","178739","608674","595501","1400","612874","609674","613579","91059","612874","NA","Sternberg task","69","67972","84","yes","1024"
