acc,accuracy,average_response_time,avg_rt,background,block,canvas_backend,clock_backend,color_backend,compensation,coordinates,correct,correct_instruction1,correct_keyboard_response,correct_response,count_ISI,count_correct_feedback,count_exp_sequence,count_experiment,count_experiment_loop,count_fixation,count_incorrect_feedback,count_instruction1,count_instructions2,count_keyboard_response,count_logger,count_memory_set,count_practice_loop,count_probe,count_thankyou,datetime,description,disable_garbage_collection,experiment_path,font_bold,font_family,font_italic,font_size,font_underline,foreground,form_clicks,fullscreen,height,keyboard_backend,live_row,live_row_practice_loop,logfile,mouse_backend,numberSet,opensesame_codename,opensesame_version,posInSet,present,repeat_cycle,response,response_instruction1,response_instructions2,response_keyboard_response,response_thankyou,response_time,response_time_instruction1,response_time_instructions2,response_time_keyboard_response,response_time_thankyou,round_decimals,sampler_backend,setSize,sound_buf_size,sound_channels,sound_freq,sound_sample_size,start,subject_nr,subject_parity,target,time_ISI,time_correct_feedback,time_exp_sequence,time_experiment,time_experiment_loop,time_fixation,time_incorrect_feedback,time_instruction1,time_instructions2,time_keyboard_response,time_logger,time_memory_set,time_practice_loop,time_probe,time_thankyou,title,total_correct,total_response_time,total_responses,uniform_coordinates,width
0,0,688,688,black,practice,legacy,legacy,legacy,0,uniform,0,undefined,0,left,0,0,0,0,0,0,0,0,0,0,0,0,0,0,0,Mon Oct 16 14:29:53 2023,The main experiment item,yes,/Users/Thingtwo/Desktop/SternbergTask.osexp,no,mono,no,18,no,white,no,yes,768,legacy,0,0,/Users/Thingtwo/Desktop/Advanced Quant. Sternberg/NC-subject-4.csv,legacy,2 9 4,Lentiform Loewenfeld,3.3.14,3,y,0,right,right,NA,right,NA,688,3203,NA,688,NA,2,legacy,3,1024,2,48000,-16,experiment,4,even,4,6708,NA,4463,1108,NA,4468,NA,1137,NA,8722,9418,5486,4356,8722,NA,Sternberg Task,0,688,1,yes,1024
50,50,702,702,black,practice,legacy,legacy,legacy,0,uniform,1,undefined,1,right,1,1,1,0,0,1,1,0,0,1,1,1,0,1,0,Mon Oct 16 14:29:53 2023,The main experiment item,yes,/Users/Thingtwo/Desktop/SternbergTask.osexp,no,mono,no,18,no,white,no,yes,768,legacy,1,1,/Users/Thingtwo/Desktop/Advanced Quant. Sternberg/NC-subject-4.csv,legacy,9 6 7 4 5,Lentiform Loewenfeld,3.3.14,0,n,0,right,right,NA,right,NA,716,3203,NA,716,NA,2,legacy,5,1024,2,48000,-16,experiment,4,even,3,12744,NA,10514,1108,NA,10519,9439,1137,NA,14755,15472,11529,4356,14755,NA,Sternberg Task,1,1404,2,yes,1024
66.66666666666667,66.66666666666667,667.3333333333334,667.3333333333334,black,practice,legacy,legacy,legacy,0,uniform,1,undefined,1,left,2,2,2,0,0,2,2,0,0,2,2,2,0,2,0,Mon Oct 16 14:29:53 2023,The main experiment item,yes,/Users/Thingtwo/Desktop/SternbergTask.osexp,no,mono,no,18,no,white,no,yes,768,legacy,2,2,/Users/Thingtwo/Desktop/Advanced Quant. Sternberg/NC-subject-4.csv,legacy,4 3 1 7 9 8,Lentiform Loewenfeld,3.3.14,1,y,0,left,right,NA,left,NA,598,3203,NA,598,NA,2,legacy,6,1024,2,48000,-16,experiment,4,even,4,18774,15477,16542,1108,NA,16547,9439,1137,NA,20785,21384,17559,4356,20785,NA,Sternberg Task,2,2002,3,yes,1024
75,75,623.25,623.25,black,practice,legacy,legacy,legacy,0,uniform,1,undefined,1,right,3,3,3,0,0,3,3,0,0,3,3,3,0,3,0,Mon Oct 16 14:29:53 2023,The main experiment item,yes,/Users/Thingtwo/Desktop/SternbergTask.osexp,no,mono,no,18,no,white,no,yes,768,legacy,3,3,/Users/Thingtwo/Desktop/Advanced Quant. Sternberg/NC-subject-4.csv,legacy,2 1,Lentiform Loewenfeld,3.3.14,0,n,0,right,right,NA,right,NA,491,3203,NA,491,NA,2,legacy,2,1024,2,48000,-16,experiment,4,even,5,24687,21389,22456,1108,NA,22461,9439,1137,NA,26698,27189,23472,4356,26698,NA,Sternberg Task,3,2493,4,yes,1024
80,80,682.4,682.4,black,practice,legacy,legacy,legacy,0,uniform,1,undefined,1,left,4,4,4,0,0,4,4,0,0,4,4,4,0,4,0,Mon Oct 16 14:29:53 2023,The main experiment item,yes,/Users/Thingtwo/Desktop/SternbergTask.osexp,no,mono,no,18,no,white,no,yes,768,legacy,4,4,/Users/Thingtwo/Desktop/Advanced Quant. Sternberg/NC-subject-4.csv,legacy,4 8,Lentiform Loewenfeld,3.3.14,1,y,0,left,right,NA,left,NA,919,3203,NA,919,NA,2,legacy,2,1024,2,48000,-16,experiment,4,even,4,30480,27194,28253,1108,NA,28259,9439,1137,NA,32489,33409,29267,4356,32489,NA,Sternberg Task,4,3412,5,yes,1024
83.33333333333333,83.33333333333333,664.1666666666666,664.1666666666666,black,practice,legacy,legacy,legacy,0,uniform,1,undefined,1,left,5,5,5,0,0,5,5,0,0,5,5,5,0,5,0,Mon Oct 16 14:29:53 2023,The main experiment item,yes,/Users/Thingtwo/Desktop/SternbergTask.osexp,no,mono,no,18,no,white,no,yes,768,legacy,5,5,/Users/Thingtwo/Desktop/Advanced Quant. Sternberg/NC-subject-4.csv,legacy,1 5 2 9,Lentiform Loewenfeld,3.3.14,2,y,0,left,right,NA,left,NA,573,3203,NA,573,NA,2,legacy,4,1024,2,48000,-16,experiment,4,even,5,36710,33414,34486,1108,NA,34491,9439,1137,NA,38721,39294,35500,4356,38720,NA,Sternberg Task,5,3985,6,yes,1024
71.42857142857143,71.42857142857143,670.2857142857143,670.2857142857143,black,practice,legacy,legacy,legacy,0,uniform,0,undefined,0,right,6,6,6,0,0,6,6,0,0,6,6,6,0,6,0,Mon Oct 16 14:29:53 2023,The main experiment item,yes,/Users/Thingtwo/Desktop/SternbergTask.osexp,no,mono,no,18,no,white,no,yes,768,legacy,6,6,/Users/Thingtwo/Desktop/Advanced Quant. Sternberg/NC-subject-4.csv,legacy,5 7 8 4 1 2,Lentiform Loewenfeld,3.3.14,0,n,0,left,right,NA,left,NA,707,3203,NA,707,NA,2,legacy,6,1024,2,48000,-16,experiment,4,even,6,42596,39300,40372,1108,NA,40377,9439,1137,NA,44606,45314,41386,4356,44606,NA,Sternberg Task,5,4692,7,yes,1024
75,75,639.375,639.375,black,practice,legacy,legacy,legacy,0,uniform,1,undefined,1,right,7,7,7,0,0,7,7,0,0,7,7,7,0,7,0,Mon Oct 16 14:29:53 2023,The main experiment item,yes,/Users/Thingtwo/Desktop/SternbergTask.osexp,no,mono,no,18,no,white,no,yes,768,legacy,7,7,/Users/Thingtwo/Desktop/Advanced Quant. Sternberg/NC-subject-4.csv,legacy,4 1 5,Lentiform Loewenfeld,3.3.14,0,n,0,right,right,NA,right,NA,423,3203,NA,423,NA,2,legacy,3,1024,2,48000,-16,experiment,4,even,2,48614,39300,46388,1108,NA,46393,45320,1137,NA,50623,51047,47402,4356,50623,NA,Sternberg Task,6,5115,8,yes,1024
66.66666666666667,66.66666666666667,621.2222222222222,621.2222222222222,black,practice,legacy,legacy,legacy,0,uniform,0,undefined,0,right,8,8,8,0,0,8,8,0,0,8,8,8,0,8,0,Mon Oct 16 14:29:53 2023,The main experiment item,yes,/Users/Thingtwo/Desktop/SternbergTask.osexp,no,mono,no,18,no,white,no,yes,768,legacy,8,8,/Users/Thingtwo/Desktop/Advanced Quant. Sternberg/NC-subject-4.csv,legacy,5,Lentiform Loewenfeld,3.3.14,0,n,0,left,right,NA,left,NA,476,3203,NA,476,NA,2,legacy,1,1024,2,48000,-16,experiment,4,even,3,54342,51052,52117,1108,NA,52122,45320,1137,NA,56350,56827,53131,4356,56350,NA,Sternberg Task,6,5591,9,yes,1024
70,70,613.1,613.1,black,practice,legacy,legacy,legacy,0,uniform,1,undefined,1,left,9,9,9,0,0,9,9,0,0,9,9,9,0,9,0,Mon Oct 16 14:29:53 2023,The main experiment item,yes,/Users/Thingtwo/Desktop/SternbergTask.osexp,no,mono,no,18,no,white,no,yes,768,legacy,9,9,/Users/Thingtwo/Desktop/Advanced Quant. Sternberg/NC-subject-4.csv,legacy,1 7 9 8 5,Lentiform Loewenfeld,3.3.14,4,y,0,left,right,NA,left,NA,540,3203,NA,540,NA,2,legacy,5,1024,2,48000,-16,experiment,4,even,8,60125,51052,57894,1108,NA,57899,56832,1137,NA,62136,62677,58911,4356,62136,NA,Sternberg Task,7,6131,10,yes,1024
72.72727272727273,72.72727272727273,608.1818181818181,608.1818181818181,black,practice,legacy,legacy,legacy,0,uniform,1,undefined,1,right,10,10,10,0,0,10,10,0,0,10,10,10,0,10,0,Mon Oct 16 14:29:53 2023,The main experiment item,yes,/Users/Thingtwo/Desktop/SternbergTask.osexp,no,mono,no,18,no,white,no,yes,768,legacy,10,10,/Users/Thingtwo/Desktop/Advanced Quant. Sternberg/NC-subject-4.csv,legacy,3 1 9 4,Lentiform Loewenfeld,3.3.14,0,n,0,right,right,NA,right,NA,559,3203,NA,559,NA,2,legacy,4,1024,2,48000,-16,experiment,4,even,6,65979,62683,63748,1108,NA,63753,56832,1137,NA,67990,68550,64765,4356,67989,NA,Sternberg Task,8,6690,11,yes,1024
75,75,587.9166666666666,587.9166666666666,black,practice,legacy,legacy,legacy,0,uniform,1,undefined,1,left,11,11,11,0,0,11,11,0,0,11,11,11,0,11,0,Mon Oct 16 14:29:53 2023,The main experiment item,yes,/Users/Thingtwo/Desktop/SternbergTask.osexp,no,mono,no,18,no,white,no,yes,768,legacy,11,11,/Users/Thingtwo/Desktop/Advanced Quant. Sternberg/NC-subject-4.csv,legacy,6,Lentiform Loewenfeld,3.3.14,1,y,0,left,right,NA,left,NA,365,3203,NA,365,NA,2,legacy,1,1024,2,48000,-16,experiment,4,even,6,71847,68555,69616,1108,NA,69621,56832,1137,NA,73857,74223,70632,4356,73857,NA,Sternberg Task,9,7055,12,yes,1024
76.92307692307692,76.92307692307692,606,606,black,experiment,legacy,legacy,legacy,0,uniform,1,undefined,1,left,12,12,12,0,0,12,12,0,0,12,12,12,0,12,0,Mon Oct 16 14:29:53 2023,The main experiment item,yes,/Users/Thingtwo/Desktop/SternbergTask.osexp,no,mono,no,18,no,white,no,yes,768,legacy,0,11,/Users/Thingtwo/Desktop/Advanced Quant. Sternberg/NC-subject-4.csv,legacy,6 8 9 3 4 9,Lentiform Loewenfeld,3.3.14,5,y,0,left,right,left,left,NA,823,3203,71670,823,NA,2,legacy,6,1024,2,48000,-16,experiment,4,even,4,149210,74229,146980,1108,146948,146984,56832,1137,75276,151222,152047,147996,4356,151221,NA,Sternberg Task,10,7878,13,yes,1024
78.57142857142857,78.57142857142857,595.5,595.5,black,experiment,legacy,legacy,legacy,0,uniform,1,undefined,1,left,13,13,13,0,0,13,13,0,0,13,13,13,0,13,0,Mon Oct 16 14:29:53 2023,The main experiment item,yes,/Users/Thingtwo/Desktop/SternbergTask.osexp,no,mono,no,18,no,white,no,yes,768,legacy,1,11,/Users/Thingtwo/Desktop/Advanced Quant. Sternberg/NC-subject-4.csv,legacy,8 9 5 6 7,Lentiform Loewenfeld,3.3.14,1,y,0,left,right,left,left,NA,459,3203,71670,459,NA,2,legacy,5,1024,2,48000,-16,experiment,4,even,8,155355,152052,153122,1108,146948,153127,56832,1137,75276,157366,157826,154139,4356,157366,NA,Sternberg Task,11,8337,14,yes,1024
80,80,585,585,black,experiment,legacy,legacy,legacy,0,uniform,1,undefined,1,right,14,14,14,0,0,14,14,0,0,14,14,14,0,14,0,Mon Oct 16 14:29:53 2023,The main experiment item,yes,/Users/Thingtwo/Desktop/SternbergTask.osexp,no,mono,no,18,no,white,no,yes,768,legacy,2,11,/Users/Thingtwo/Desktop/Advanced Quant. Sternberg/NC-subject-4.csv,legacy,2 7 5,Lentiform Loewenfeld,3.3.14,0,n,0,right,right,left,right,NA,438,3203,71670,438,NA,2,legacy,3,1024,2,48000,-16,experiment,4,even,8,161124,157832,158897,1108,146948,158901,56832,1137,75276,163134,163573,159911,4356,163134,NA,Sternberg Task,12,8775,15,yes,1024
81.25,81.25,577.5625,577.5625,black,experiment,legacy,legacy,legacy,0,uniform,1,undefined,1,right,15,15,15,0,0,15,15,0,0,15,15,15,0,15,0,Mon Oct 16 14:29:53 2023,The main experiment item,yes,/Users/Thingtwo/Desktop/SternbergTask.osexp,no,mono,no,18,no,white,no,yes,768,legacy,3,11,/Users/Thingtwo/Desktop/Advanced Quant. Sternberg/NC-subject-4.csv,legacy,4 2 6 9,Lentiform Loewenfeld,3.3.14,0,n,0,right,right,left,right,NA,466,3203,71670,466,NA,2,legacy,4,1024,2,48000,-16,experiment,4,even,7,166873,163579,164644,1108,146948,164649,56832,1137,75276,168884,169351,165660,4356,168884,NA,Sternberg Task,13,9241,16,yes,1024
82.35294118,82.35294118,576.1176470588235,576.1176470588235,black,experiment,legacy,legacy,legacy,0,uniform,1,undefined,1,right,16,16,16,0,0,16,16,0,0,16,16,16,0,16,0,Mon Oct 16 14:29:53 2023,The main experiment item,yes,/Users/Thingtwo/Desktop/SternbergTask.osexp,no,mono,no,18,no,white,no,yes,768,legacy,4,11,/Users/Thingtwo/Desktop/Advanced Quant. Sternberg/NC-subject-4.csv,legacy,8 6 3 4 7,Lentiform Loewenfeld,3.3.14,0,n,0,right,right,left,right,NA,553,3203,71670,553,NA,2,legacy,5,1024,2,48000,-16,experiment,4,even,1,172651,169357,170422,1108,146948,170427,56832,1137,75276,174663,175218,171438,4356,174662,NA,Sternberg Task,14,9794,17,yes,1024
77.77777777777777,77.77777777777777,583.1111111111111,583.1111111111111,black,experiment,legacy,legacy,legacy,0,uniform,0,undefined,0,left,17,17,17,0,0,17,17,0,0,17,17,17,0,17,0,Mon Oct 16 14:29:53 2023,The main experiment item,yes,/Users/Thingtwo/Desktop/SternbergTask.osexp,no,mono,no,18,no,white,no,yes,768,legacy,5,11,/Users/Thingtwo/Desktop/Advanced Quant. Sternberg/NC-subject-4.csv,legacy,2 8 5 1,Lentiform Loewenfeld,3.3.14,4,y,0,right,right,left,right,NA,702,3203,71670,702,NA,2,legacy,4,1024,2,48000,-16,experiment,4,even,1,178517,175223,176287,1108,146948,176292,56832,1137,75276,180528,181232,177304,4356,180528,NA,Sternberg Task,14,10496,18,yes,1024
78.94736842105263,78.94736842105263,595.3157894736842,595.3157894736842,black,experiment,legacy,legacy,legacy,0,uniform,1,undefined,1,right,18,18,18,0,0,18,18,0,0,18,18,18,0,18,0,Mon Oct 16 14:29:53 2023,The main experiment item,yes,/Users/Thingtwo/Desktop/SternbergTask.osexp,no,mono,no,18,no,white,no,yes,768,legacy,6,11,/Users/Thingtwo/Desktop/Advanced Quant. Sternberg/NC-subject-4.csv,legacy,1 7 5 2,Lentiform Loewenfeld,3.3.14,0,n,0,right,right,left,right,NA,815,3203,71670,815,NA,2,legacy,4,1024,2,48000,-16,experiment,4,even,3,184530,175223,182302,1108,146948,182307,181237,1137,75276,186539,187355,183317,4356,186539,NA,Sternberg Task,15,11311,19,yes,1024
80,80,585,585,black,experiment,legacy,legacy,legacy,0,uniform,1,undefined,1,left,19,19,19,0,0,19,19,0,0,19,19,19,0,19,0,Mon Oct 16 14:29:53 2023,The main experiment item,yes,/Users/Thingtwo/Desktop/SternbergTask.osexp,no,mono,no,18,no,white,no,yes,768,legacy,7,11,/Users/Thingtwo/Desktop/Advanced Quant. Sternberg/NC-subject-4.csv,legacy,4,Lentiform Loewenfeld,3.3.14,1,y,0,left,right,left,left,NA,389,3203,71670,389,NA,2,legacy,1,1024,2,48000,-16,experiment,4,even,4,190656,187362,188426,1108,146948,188431,181237,1137,75276,192666,193056,189443,4356,192666,NA,Sternberg Task,16,11700,20,yes,1024
76.19047619047619,76.19047619047619,601.3809523809524,601.3809523809524,black,experiment,legacy,legacy,legacy,0,uniform,0,undefined,0,right,20,20,20,0,0,20,20,0,0,20,20,20,0,20,0,Mon Oct 16 14:29:53 2023,The main experiment item,yes,/Users/Thingtwo/Desktop/SternbergTask.osexp,no,mono,no,18,no,white,no,yes,768,legacy,8,11,/Users/Thingtwo/Desktop/Advanced Quant. Sternberg/NC-subject-4.csv,legacy,2 8 9 4 1,Lentiform Loewenfeld,3.3.14,0,n,0,left,right,left,left,NA,929,3203,71670,929,NA,2,legacy,5,1024,2,48000,-16,experiment,4,even,5,196357,193061,194126,1108,146948,194131,181237,1137,75276,198368,199298,195141,4356,198368,NA,Sternberg Task,16,12629,21,yes,1024
77.27272727272727,77.27272727272727,607,607,black,experiment,legacy,legacy,legacy,0,uniform,1,undefined,1,left,21,21,21,0,0,21,21,0,0,21,21,21,0,21,0,Mon Oct 16 14:29:53 2023,The main experiment item,yes,/Users/Thingtwo/Desktop/SternbergTask.osexp,no,mono,no,18,no,white,no,yes,768,legacy,9,11,/Users/Thingtwo/Desktop/Advanced Quant. Sternberg/NC-subject-4.csv,legacy,6 7 9 3 1 2,Lentiform Loewenfeld,3.3.14,1,y,0,left,right,left,left,NA,725,3203,71670,725,NA,2,legacy,6,1024,2,48000,-16,experiment,4,even,6,202597,193061,200367,1108,146948,200372,199304,1137,75276,204607,205334,201384,4356,204607,NA,Sternberg Task,17,13354,22,yes,1024
78.26086956521739,78.26086956521739,599.9130434782609,599.9130434782609,black,experiment,legacy,legacy,legacy,0,uniform,1,undefined,1,left,22,22,22,0,0,22,22,0,0,22,22,22,0,22,0,Mon Oct 16 14:29:53 2023,The main experiment item,yes,/Users/Thingtwo/Desktop/SternbergTask.osexp,no,mono,no,18,no,white,no,yes,768,legacy,10,11,/Users/Thingtwo/Desktop/Advanced Quant. Sternberg/NC-subject-4.csv,legacy,8 9 5 7 1 6,Lentiform Loewenfeld,3.3.14,4,y,0,left,right,left,left,NA,444,3203,71670,444,NA,2,legacy,6,1024,2,48000,-16,experiment,4,even,7,208635,205340,206405,1108,146948,206410,199304,1137,75276,210645,211090,207421,4356,210645,NA,Sternberg Task,18,13798,23,yes,1024
79.16666666666667,79.16666666666667,603.7916666666666,603.7916666666666,black,experiment,legacy,legacy,legacy,0,uniform,1,undefined,1,left,23,23,23,0,0,23,23,0,0,23,23,23,0,23,0,Mon Oct 16 14:29:53 2023,The main experiment item,yes,/Users/Thingtwo/Desktop/SternbergTask.osexp,no,mono,no,18,no,white,no,yes,768,legacy,11,11,/Users/Thingtwo/Desktop/Advanced Quant. Sternberg/NC-subject-4.csv,legacy,8 5 4 7 3 1,Lentiform Loewenfeld,3.3.14,2,y,0,left,right,left,left,NA,693,3203,71670,693,NA,2,legacy,6,1024,2,48000,-16,experiment,4,even,5,214389,211095,212157,1108,146948,212162,199304,1137,75276,216401,217095,213174,4356,216400,NA,Sternberg Task,19,14491,24,yes,1024
80,80,600.52,600.52,black,experiment,legacy,legacy,legacy,0,uniform,1,undefined,1,left,24,24,24,0,0,24,24,0,0,24,24,24,0,24,0,Mon Oct 16 14:29:53 2023,The main experiment item,yes,/Users/Thingtwo/Desktop/SternbergTask.osexp,no,mono,no,18,no,white,no,yes,768,legacy,12,11,/Users/Thingtwo/Desktop/Advanced Quant. Sternberg/NC-subject-4.csv,legacy,8 3,Lentiform Loewenfeld,3.3.14,2,y,0,left,right,left,left,NA,522,3203,71670,522,NA,2,legacy,2,1024,2,48000,-16,experiment,4,even,3,220395,217100,218164,1108,146948,218169,199304,1137,75276,222406,222929,219180,4356,222406,NA,Sternberg Task,20,15013,25,yes,1024
76.92307692307692,76.92307692307692,619.4230769230769,619.4230769230769,black,experiment,legacy,legacy,legacy,0,uniform,0,undefined,0,right,25,25,25,0,0,25,25,0,0,25,25,25,0,25,0,Mon Oct 16 14:29:53 2023,The main experiment item,yes,/Users/Thingtwo/Desktop/SternbergTask.osexp,no,mono,no,18,no,white,no,yes,768,legacy,13,11,/Users/Thingtwo/Desktop/Advanced Quant. Sternberg/NC-subject-4.csv,legacy,1 6 4 3 9 7,Lentiform Loewenfeld,3.3.14,0,n,0,left,right,left,left,NA,1092,3203,71670,1092,NA,2,legacy,6,1024,2,48000,-16,experiment,4,even,8,226229,222934,223998,1108,146948,224003,199304,1137,75276,228240,229333,225014,4356,228239,NA,Sternberg Task,20,16105,26,yes,1024
77.77777777777777,77.77777777777777,621.1111111111111,621.1111111111111,black,experiment,legacy,legacy,legacy,0,uniform,1,undefined,1,left,26,26,26,0,0,26,26,0,0,26,26,26,0,26,0,Mon Oct 16 14:29:53 2023,The main experiment item,yes,/Users/Thingtwo/Desktop/SternbergTask.osexp,no,mono,no,18,no,white,no,yes,768,legacy,14,11,/Users/Thingtwo/Desktop/Advanced Quant. Sternberg/NC-subject-4.csv,legacy,5 2 6,Lentiform Loewenfeld,3.3.14,2,y,0,left,right,left,left,NA,665,3203,71670,665,NA,2,legacy,3,1024,2,48000,-16,experiment,4,even,2,232629,222934,230399,1108,146948,230403,229338,1137,75276,234639,235306,231415,4356,234639,NA,Sternberg Task,21,16770,27,yes,1024
78.57142857142857,78.57142857142857,624.6428571428571,624.6428571428571,black,experiment,legacy,legacy,legacy,0,uniform,1,undefined,1,right,27,27,27,0,0,27,27,0,0,27,27,27,0,27,0,Mon Oct 16 14:29:53 2023,The main experiment item,yes,/Users/Thingtwo/Desktop/SternbergTask.osexp,no,mono,no,18,no,white,no,yes,768,legacy,15,11,/Users/Thingtwo/Desktop/Advanced Quant. Sternberg/NC-subject-4.csv,legacy,8 5 7 3 6,Lentiform Loewenfeld,3.3.14,0,n,0,right,right,left,right,NA,720,3203,71670,720,NA,2,legacy,5,1024,2,48000,-16,experiment,4,even,9,238607,235311,236374,1108,146948,236379,229338,1137,75276,240616,241337,237393,4356,240616,NA,Sternberg Task,22,17490,28,yes,1024
79.31034483,79.31034483,625.1379310344828,625.1379310344828,black,experiment,legacy,legacy,legacy,0,uniform,1,undefined,1,left,28,28,28,0,0,28,28,0,0,28,28,28,0,28,0,Mon Oct 16 14:29:53 2023,The main experiment item,yes,/Users/Thingtwo/Desktop/SternbergTask.osexp,no,mono,no,18,no,white,no,yes,768,legacy,16,11,/Users/Thingtwo/Desktop/Advanced Quant. Sternberg/NC-subject-4.csv,legacy,6 7 8 5,Lentiform Loewenfeld,3.3.14,3,y,0,left,right,left,left,NA,639,3203,71670,639,NA,2,legacy,4,1024,2,48000,-16,experiment,4,even,8,244638,241343,242406,1108,146948,242411,229338,1137,75276,246652,247292,243423,4356,246652,NA,Sternberg Task,23,18129,29,yes,1024
80,80,619.6666666666666,619.6666666666666,black,experiment,legacy,legacy,legacy,0,uniform,1,undefined,1,left,29,29,29,0,0,29,29,0,0,29,29,29,0,29,0,Mon Oct 16 14:29:53 2023,The main experiment item,yes,/Users/Thingtwo/Desktop/SternbergTask.osexp,no,mono,no,18,no,white,no,yes,768,legacy,17,11,/Users/Thingtwo/Desktop/Advanced Quant. Sternberg/NC-subject-4.csv,legacy,6 2,Lentiform Loewenfeld,3.3.14,1,y,0,left,right,left,left,NA,461,3203,71670,461,NA,2,legacy,2,1024,2,48000,-16,experiment,4,even,6,250592,247299,248363,1108,146948,248367,229338,1137,75276,252602,253064,249378,4356,252602,NA,Sternberg Task,24,18590,30,yes,1024
80.64516129032258,80.64516129032258,620.1290322580645,620.1290322580645,black,experiment,legacy,legacy,legacy,0,uniform,1,undefined,1,right,30,30,30,0,0,30,30,0,0,30,30,30,0,30,0,Mon Oct 16 14:29:53 2023,The main experiment item,yes,/Users/Thingtwo/Desktop/SternbergTask.osexp,no,mono,no,18,no,white,no,yes,768,legacy,18,11,/Users/Thingtwo/Desktop/Advanced Quant. Sternberg/NC-subject-4.csv,legacy,2 8 9,Lentiform Loewenfeld,3.3.14,0,n,0,right,right,left,right,NA,634,3203,71670,634,NA,2,legacy,3,1024,2,48000,-16,experiment,4,even,6,256365,253070,254134,1108,146948,254139,229338,1137,75276,258377,259012,255151,4356,258376,NA,Sternberg Task,25,19224,31,yes,1024
78.125,78.125,619.65625,619.65625,black,experiment,legacy,legacy,legacy,0,uniform,0,undefined,0,right,31,31,31,0,0,31,31,0,0,31,31,31,0,31,0,Mon Oct 16 14:29:53 2023,The main experiment item,yes,/Users/Thingtwo/Desktop/SternbergTask.osexp,no,mono,no,18,no,white,no,yes,768,legacy,19,11,/Users/Thingtwo/Desktop/Advanced Quant. Sternberg/NC-subject-4.csv,legacy,9 7 4 5 8,Lentiform Loewenfeld,3.3.14,0,n,0,left,right,left,left,NA,605,3203,71670,605,NA,2,legacy,5,1024,2,48000,-16,experiment,4,even,6,262311,259019,260081,1108,146948,260086,229338,1137,75276,264322,264928,261097,4356,264322,NA,Sternberg Task,25,19829,32,yes,1024
78.78787878787878,78.78787878787878,649.5757575757576,649.5757575757576,black,experiment,legacy,legacy,legacy,0,uniform,1,undefined,1,right,32,32,32,0,0,32,32,0,0,32,32,32,0,32,0,Mon Oct 16 14:29:53 2023,The main experiment item,yes,/Users/Thingtwo/Desktop/SternbergTask.osexp,no,mono,no,18,no,white,no,yes,768,legacy,20,11,/Users/Thingtwo/Desktop/Advanced Quant. Sternberg/NC-subject-4.csv,legacy,4 2 7 6 1 3,Lentiform Loewenfeld,3.3.14,0,n,0,right,right,left,right,NA,1607,3203,71670,1607,NA,2,legacy,6,1024,2,48000,-16,experiment,4,even,8,268224,259019,265994,1108,146948,265999,264933,1137,75276,270234,271842,267010,4356,270234,NA,Sternberg Task,26,21436,33,yes,1024
76.47058823529412,76.47058823529412,640.1176470588235,640.1176470588235,black,experiment,legacy,legacy,legacy,0,uniform,0,undefined,0,right,33,33,33,0,0,33,33,0,0,33,33,33,0,33,0,Mon Oct 16 14:29:53 2023,The main experiment item,yes,/Users/Thingtwo/Desktop/SternbergTask.osexp,no,mono,no,18,no,white,no,yes,768,legacy,21,11,/Users/Thingtwo/Desktop/Advanced Quant. Sternberg/NC-subject-4.csv,legacy,4 1,Lentiform Loewenfeld,3.3.14,0,n,0,left,right,left,left,NA,328,3203,71670,328,NA,2,legacy,2,1024,2,48000,-16,experiment,4,even,6,275140,271847,272912,1108,146948,272917,264933,1137,75276,277152,277481,273928,4356,277152,NA,Sternberg Task,26,21764,34,yes,1024
77.14285714285714,77.14285714285714,642.4,642.4,black,experiment,legacy,legacy,legacy,0,uniform,1,undefined,1,right,34,34,34,0,0,34,34,0,0,34,34,34,0,34,0,Mon Oct 16 14:29:53 2023,The main experiment item,yes,/Users/Thingtwo/Desktop/SternbergTask.osexp,no,mono,no,18,no,white,no,yes,768,legacy,22,11,/Users/Thingtwo/Desktop/Advanced Quant. Sternberg/NC-subject-4.csv,legacy,7 8 6 1,Lentiform Loewenfeld,3.3.14,0,n,0,right,right,left,right,NA,720,3203,71670,720,NA,2,legacy,4,1024,2,48000,-16,experiment,4,even,3,280780,271847,278550,1108,146948,278554,277487,1137,75276,282790,283512,279566,4356,282790,NA,Sternberg Task,27,22484,35,yes,1024
77.77777777777777,77.77777777777777,639.2222222222222,639.2222222222222,black,experiment,legacy,legacy,legacy,0,uniform,1,undefined,1,right,35,35,35,0,0,35,35,0,0,35,35,35,0,35,0,Mon Oct 16 14:29:53 2023,The main experiment item,yes,/Users/Thingtwo/Desktop/SternbergTask.osexp,no,mono,no,18,no,white,no,yes,768,legacy,23,11,/Users/Thingtwo/Desktop/Advanced Quant. Sternberg/NC-subject-4.csv,legacy,5,Lentiform Loewenfeld,3.3.14,0,n,0,right,right,left,right,NA,528,3203,71670,528,NA,2,legacy,1,1024,2,48000,-16,experiment,4,even,8,286812,283517,284581,1108,146948,284586,277487,1137,75276,288822,289351,285597,4356,288822,NA,Sternberg Task,28,23012,36,yes,1024
75.67567567567568,75.67567567567568,639.8648648648649,639.8648648648649,black,experiment,legacy,legacy,legacy,0,uniform,0,undefined,0,left,36,36,36,0,0,36,36,0,0,36,36,36,0,36,0,Mon Oct 16 14:29:53 2023,The main experiment item,yes,/Users/Thingtwo/Desktop/SternbergTask.osexp,no,mono,no,18,no,white,no,yes,768,legacy,24,11,/Users/Thingtwo/Desktop/Advanced Quant. Sternberg/NC-subject-4.csv,legacy,7 2 3,Lentiform Loewenfeld,3.3.14,3,y,0,right,right,left,right,NA,663,3203,71670,663,NA,2,legacy,3,1024,2,48000,-16,experiment,4,even,3,292652,289358,290421,1108,146948,290426,277487,1137,75276,294662,295326,291437,4356,294662,NA,Sternberg Task,28,23675,37,yes,1024
76.31578947,76.31578947,639.0263157894736,639.0263157894736,black,experiment,legacy,legacy,legacy,0,uniform,1,undefined,1,left,37,37,37,0,0,37,37,0,0,37,37,37,0,37,0,Mon Oct 16 14:29:53 2023,The main experiment item,yes,/Users/Thingtwo/Desktop/SternbergTask.osexp,no,mono,no,18,no,white,no,yes,768,legacy,25,11,/Users/Thingtwo/Desktop/Advanced Quant. Sternberg/NC-subject-4.csv,legacy,4 6 5 8,Lentiform Loewenfeld,3.3.14,1,y,0,left,right,left,left,NA,608,3203,71670,608,NA,2,legacy,4,1024,2,48000,-16,experiment,4,even,4,298629,289358,296396,1108,146948,296401,295331,1137,75276,300639,301247,297413,4356,300639,NA,Sternberg Task,29,24283,38,yes,1024
76.92307692307692,76.92307692307692,635.5897435897435,635.5897435897435,black,experiment,legacy,legacy,legacy,0,uniform,1,undefined,1,right,38,38,38,0,0,38,38,0,0,38,38,38,0,38,0,Mon Oct 16 14:29:53 2023,The main experiment item,yes,/Users/Thingtwo/Desktop/SternbergTask.osexp,no,mono,no,18,no,white,no,yes,768,legacy,26,11,/Users/Thingtwo/Desktop/Advanced Quant. Sternberg/NC-subject-4.csv,legacy,1 8 7,Lentiform Loewenfeld,3.3.14,0,n,0,right,right,left,right,NA,505,3203,71670,505,NA,2,legacy,3,1024,2,48000,-16,experiment,4,even,4,304548,301253,302318,1108,146948,302323,295331,1137,75276,306560,307066,303335,4356,306560,NA,Sternberg Task,30,24788,39,yes,1024
77.5,77.5,630.325,630.325,black,experiment,legacy,legacy,legacy,0,uniform,1,undefined,1,left,39,39,39,0,0,39,39,0,0,39,39,39,0,39,0,Mon Oct 16 14:29:53 2023,The main experiment item,yes,/Users/Thingtwo/Desktop/SternbergTask.osexp,no,mono,no,18,no,white,no,yes,768,legacy,27,11,/Users/Thingtwo/Desktop/Advanced Quant. Sternberg/NC-subject-4.csv,legacy,3 5 7 1,Lentiform Loewenfeld,3.3.14,3,y,0,left,right,left,left,NA,425,3203,71670,425,NA,2,legacy,4,1024,2,48000,-16,experiment,4,even,7,310363,307071,308132,1108,146948,308137,295331,1137,75276,312375,312801,309148,4356,312374,NA,Sternberg Task,31,25213,40,yes,1024
75.60975609756098,75.60975609756098,638.6829268292682,638.6829268292682,black,experiment,legacy,legacy,legacy,0,uniform,0,undefined,0,right,40,40,40,0,0,40,40,0,0,40,40,40,0,40,0,Mon Oct 16 14:29:53 2023,The main experiment item,yes,/Users/Thingtwo/Desktop/SternbergTask.osexp,no,mono,no,18,no,white,no,yes,768,legacy,28,11,/Users/Thingtwo/Desktop/Advanced Quant. Sternberg/NC-subject-4.csv,legacy,1 4 9 3,Lentiform Loewenfeld,3.3.14,0,n,0,left,right,left,left,NA,973,3203,71670,973,NA,2,legacy,4,1024,2,48000,-16,experiment,4,even,5,316101,312807,313871,1108,146948,313875,295331,1137,75276,318112,319086,314886,4356,318112,NA,Sternberg Task,31,26186,41,yes,1024
76.19047619047619,76.19047619047619,649.0952380952381,649.0952380952381,black,experiment,legacy,legacy,legacy,0,uniform,1,undefined,1,right,41,41,41,0,0,41,41,0,0,41,41,41,0,41,0,Mon Oct 16 14:29:53 2023,The main experiment item,yes,/Users/Thingtwo/Desktop/SternbergTask.osexp,no,mono,no,18,no,white,no,yes,768,legacy,29,11,/Users/Thingtwo/Desktop/Advanced Quant. Sternberg/NC-subject-4.csv,legacy,8 5 4 2 9 6,Lentiform Loewenfeld,3.3.14,0,n,0,right,right,left,right,NA,1076,3203,71670,1076,NA,2,legacy,6,1024,2,48000,-16,experiment,4,even,3,322384,312807,320155,1108,146948,320159,319091,1137,75276,324394,325472,321170,4356,324394,NA,Sternberg Task,32,27262,42,yes,1024
76.74418604651163,76.74418604651163,645.7906976744187,645.7906976744187,black,experiment,legacy,legacy,legacy,0,uniform,1,undefined,1,right,42,42,42,0,0,42,42,0,0,42,42,42,0,42,0,Mon Oct 16 14:29:53 2023,The main experiment item,yes,/Users/Thingtwo/Desktop/SternbergTask.osexp,no,mono,no,18,no,white,no,yes,768,legacy,30,11,/Users/Thingtwo/Desktop/Advanced Quant. Sternberg/NC-subject-4.csv,legacy,6 9 7 3 8 2,Lentiform Loewenfeld,3.3.14,0,n,0,right,right,left,right,NA,507,3203,71670,507,NA,2,legacy,6,1024,2,48000,-16,experiment,4,even,5,328766,325477,326540,1108,146948,326544,319091,1137,75276,330777,331285,327554,4356,330776,NA,Sternberg Task,33,27769,43,yes,1024
77.27272727272727,77.27272727272727,647.2727272727273,647.2727272727273,black,experiment,legacy,legacy,legacy,0,uniform,1,undefined,1,left,43,43,43,0,0,43,43,0,0,43,43,43,0,43,0,Mon Oct 16 14:29:53 2023,The main experiment item,yes,/Users/Thingtwo/Desktop/SternbergTask.osexp,no,mono,no,18,no,white,no,yes,768,legacy,31,11,/Users/Thingtwo/Desktop/Advanced Quant. Sternberg/NC-subject-4.csv,legacy,2 3,Lentiform Loewenfeld,3.3.14,1,y,0,left,right,left,left,NA,711,3203,71670,711,NA,2,legacy,2,1024,2,48000,-16,experiment,4,even,2,334582,331290,332353,1108,146948,332358,319091,1137,75276,336592,337304,333369,4356,336592,NA,Sternberg Task,34,28480,44,yes,1024
77.77777777777777,77.77777777777777,651.8444444444444,651.8444444444444,black,experiment,legacy,legacy,legacy,0,uniform,1,undefined,1,left,44,44,44,0,0,44,44,0,0,44,44,44,0,44,0,Mon Oct 16 14:29:53 2023,The main experiment item,yes,/Users/Thingtwo/Desktop/SternbergTask.osexp,no,mono,no,18,no,white,no,yes,768,legacy,32,11,/Users/Thingtwo/Desktop/Advanced Quant. Sternberg/NC-subject-4.csv,legacy,7 8 6 3 1,Lentiform Loewenfeld,3.3.14,5,y,0,left,right,left,left,NA,853,3203,71670,853,NA,2,legacy,5,1024,2,48000,-16,experiment,4,even,1,340601,337309,338372,1108,146948,338377,319091,1137,75276,342611,343465,339388,4356,342611,NA,Sternberg Task,35,29333,45,yes,1024
78.26086956521739,78.26086956521739,648.1956522,648.1956522,black,experiment,legacy,legacy,legacy,0,uniform,1,undefined,1,left,45,45,45,0,0,45,45,0,0,45,45,45,0,45,0,Mon Oct 16 14:29:53 2023,The main experiment item,yes,/Users/Thingtwo/Desktop/SternbergTask.osexp,no,mono,no,18,no,white,no,yes,768,legacy,33,11,/Users/Thingtwo/Desktop/Advanced Quant. Sternberg/NC-subject-4.csv,legacy,9 5 3 8 4,Lentiform Loewenfeld,3.3.14,1,y,0,left,right,left,left,NA,484,3203,71670,484,NA,2,legacy,5,1024,2,48000,-16,experiment,4,even,9,346762,343471,344533,1108,146948,344538,319091,1137,75276,348773,349258,345549,4356,348773,NA,Sternberg Task,36,29817,46,yes,1024
78.72340425531915,78.72340425531915,650.4255319148937,650.4255319148937,black,experiment,legacy,legacy,legacy,0,uniform,1,undefined,1,right,46,46,46,0,0,46,46,0,0,46,46,46,0,46,0,Mon Oct 16 14:29:53 2023,The main experiment item,yes,/Users/Thingtwo/Desktop/SternbergTask.osexp,no,mono,no,18,no,white,no,yes,768,legacy,34,11,/Users/Thingtwo/Desktop/Advanced Quant. Sternberg/NC-subject-4.csv,legacy,6 8 4,Lentiform Loewenfeld,3.3.14,0,n,0,right,right,left,right,NA,753,3203,71670,753,NA,2,legacy,3,1024,2,48000,-16,experiment,4,even,1,352554,349263,350326,1108,146948,350331,319091,1137,75276,354565,355319,351341,4356,354564,NA,Sternberg Task,37,30570,47,yes,1024
77.08333333333333,77.08333333333333,647.5833333333334,647.5833333333334,black,experiment,legacy,legacy,legacy,0,uniform,0,undefined,0,left,47,47,47,0,0,47,47,0,0,47,47,47,0,47,0,Mon Oct 16 14:29:53 2023,The main experiment item,yes,/Users/Thingtwo/Desktop/SternbergTask.osexp,no,mono,no,18,no,white,no,yes,768,legacy,35,11,/Users/Thingtwo/Desktop/Advanced Quant. Sternberg/NC-subject-4.csv,legacy,8 1 6,Lentiform Loewenfeld,3.3.14,3,y,0,right,right,left,right,NA,514,3203,71670,514,NA,2,legacy,3,1024,2,48000,-16,experiment,4,even,6,358620,355327,356390,1108,146948,356395,319091,1137,75276,360625,361141,357406,4356,360625,NA,Sternberg Task,37,31084,48,yes,1024
77.55102040816327,77.55102040816327,653.0408163265306,653.0408163265306,black,experiment,legacy,legacy,legacy,0,uniform,1,undefined,1,left,48,48,48,0,0,48,48,0,0,48,48,48,0,48,0,Mon Oct 16 14:29:53 2023,The main experiment item,yes,/Users/Thingtwo/Desktop/SternbergTask.osexp,no,mono,no,18,no,white,no,yes,768,legacy,36,11,/Users/Thingtwo/Desktop/Advanced Quant. Sternberg/NC-subject-4.csv,legacy,5 7 8 2 3 8,Lentiform Loewenfeld,3.3.14,5,y,0,left,right,left,left,NA,915,3203,71670,915,NA,2,legacy,6,1024,2,48000,-16,experiment,4,even,3,364439,355327,362210,1108,146948,362214,361147,1137,75276,366448,367364,363224,4356,366448,NA,Sternberg Task,38,31999,49,yes,1024
78,78,652.12,652.12,black,experiment,legacy,legacy,legacy,0,uniform,1,undefined,1,left,49,49,49,0,0,49,49,0,0,49,49,49,0,49,0,Mon Oct 16 14:29:53 2023,The main experiment item,yes,/Users/Thingtwo/Desktop/SternbergTask.osexp,no,mono,no,18,no,white,no,yes,768,legacy,37,11,/Users/Thingtwo/Desktop/Advanced Quant. Sternberg/NC-subject-4.csv,legacy,4 7 6 8 2 3,Lentiform Loewenfeld,3.3.14,6,y,0,left,right,left,left,NA,607,3203,71670,607,NA,2,legacy,6,1024,2,48000,-16,experiment,4,even,3,370662,367369,368434,1108,146948,368438,361147,1137,75276,372672,373280,369447,4356,372672,NA,Sternberg Task,39,32606,50,yes,1024
78.43137254901961,78.43137254901961,654.8823529411765,654.8823529411765,black,experiment,legacy,legacy,legacy,0,uniform,1,undefined,1,left,50,50,50,0,0,50,50,0,0,50,50,50,0,50,0,Mon Oct 16 14:29:53 2023,The main experiment item,yes,/Users/Thingtwo/Desktop/SternbergTask.osexp,no,mono,no,18,no,white,no,yes,768,legacy,38,11,/Users/Thingtwo/Desktop/Advanced Quant. Sternberg/NC-subject-4.csv,legacy,9 1 6 7 8,Lentiform Loewenfeld,3.3.14,1,y,0,left,right,left,left,NA,793,3203,71670,793,NA,2,legacy,5,1024,2,48000,-16,experiment,4,even,9,376584,373286,374353,1108,146948,374358,361147,1137,75276,378596,379390,375370,4356,378596,NA,Sternberg Task,40,33399,51,yes,1024
78.84615384615384,78.84615384615384,661.3653846153846,661.3653846153846,black,experiment,legacy,legacy,legacy,0,uniform,1,undefined,1,left,51,51,51,0,0,51,51,0,0,51,51,51,0,51,0,Mon Oct 16 14:29:53 2023,The main experiment item,yes,/Users/Thingtwo/Desktop/SternbergTask.osexp,no,mono,no,18,no,white,no,yes,768,legacy,39,11,/Users/Thingtwo/Desktop/Advanced Quant. Sternberg/NC-subject-4.csv,legacy,8 5 1 3 9,Lentiform Loewenfeld,3.3.14,4,y,0,left,right,left,left,NA,992,3203,71670,992,NA,2,legacy,5,1024,2,48000,-16,experiment,4,even,3,382689,379396,380458,1108,146948,380463,361147,1137,75276,384701,385695,381474,4356,384701,NA,Sternberg Task,41,34391,52,yes,1024
79.24528301886792,79.24528301886792,657.2452830188679,657.2452830188679,black,experiment,legacy,legacy,legacy,0,uniform,1,undefined,1,right,52,52,52,0,0,52,52,0,0,52,52,52,0,52,0,Mon Oct 16 14:29:53 2023,The main experiment item,yes,/Users/Thingtwo/Desktop/SternbergTask.osexp,no,mono,no,18,no,white,no,yes,768,legacy,40,11,/Users/Thingtwo/Desktop/Advanced Quant. Sternberg/NC-subject-4.csv,legacy,3 4 9 6 7 8,Lentiform Loewenfeld,3.3.14,0,n,0,right,right,left,right,NA,443,3203,71670,443,NA,2,legacy,6,1024,2,48000,-16,experiment,4,even,2,388992,385700,386763,1108,146948,386768,361147,1137,75276,391002,391446,387779,4356,391002,NA,Sternberg Task,42,34834,53,yes,1024
79.62962962962963,79.62962962962963,654.5370370370371,654.5370370370371,black,experiment,legacy,legacy,legacy,0,uniform,1,undefined,1,right,53,53,53,0,0,53,53,0,0,53,53,53,0,53,0,Mon Oct 16 14:29:53 2023,The main experiment item,yes,/Users/Thingtwo/Desktop/SternbergTask.osexp,no,mono,no,18,no,white,no,yes,768,legacy,41,11,/Users/Thingtwo/Desktop/Advanced Quant. Sternberg/NC-subject-4.csv,legacy,7 1,Lentiform Loewenfeld,3.3.14,0,n,0,right,right,left,right,NA,511,3203,71670,511,NA,2,legacy,2,1024,2,48000,-16,experiment,4,even,8,394743,391452,392513,1108,146948,392518,361147,1137,75276,396754,397266,393529,4356,396754,NA,Sternberg Task,43,35345,54,yes,1024
80,80,656.5818181818182,656.5818181818182,black,experiment,legacy,legacy,legacy,0,uniform,1,undefined,1,right,54,54,54,0,0,54,54,0,0,54,54,54,0,54,0,Mon Oct 16 14:29:53 2023,The main experiment item,yes,/Users/Thingtwo/Desktop/SternbergTask.osexp,no,mono,no,18,no,white,no,yes,768,legacy,42,11,/Users/Thingtwo/Desktop/Advanced Quant. Sternberg/NC-subject-4.csv,legacy,6 2 9 3 8 4,Lentiform Loewenfeld,3.3.14,0,n,0,right,right,left,right,NA,767,3203,71670,767,NA,2,legacy,6,1024,2,48000,-16,experiment,4,even,1,400566,397271,398335,1108,146948,398339,361147,1137,75276,402576,403345,399350,4356,402576,NA,Sternberg Task,44,36112,55,yes,1024
80.35714285714286,80.35714285714286,657.5535714285714,657.5535714285714,black,experiment,legacy,legacy,legacy,0,uniform,1,undefined,1,left,55,55,55,0,0,55,55,0,0,55,55,55,0,55,0,Mon Oct 16 14:29:53 2023,The main experiment item,yes,/Users/Thingtwo/Desktop/SternbergTask.osexp,no,mono,no,18,no,white,no,yes,768,legacy,43,11,/Users/Thingtwo/Desktop/Advanced Quant. Sternberg/NC-subject-4.csv,legacy,3 5 4 7,Lentiform Loewenfeld,3.3.14,1,y,0,left,right,left,left,NA,711,3203,71670,711,NA,2,legacy,4,1024,2,48000,-16,experiment,4,even,3,406639,403350,404412,1108,146948,404417,361147,1137,75276,408650,409363,405427,4356,408650,NA,Sternberg Task,45,36823,56,yes,1024
80.70175438596492,80.70175438596492,656.6842105263158,656.6842105263158,black,experiment,legacy,legacy,legacy,0,uniform,1,undefined,1,right,56,56,56,0,0,56,56,0,0,56,56,56,0,56,0,Mon Oct 16 14:29:53 2023,The main experiment item,yes,/Users/Thingtwo/Desktop/SternbergTask.osexp,no,mono,no,18,no,white,no,yes,768,legacy,44,11,/Users/Thingtwo/Desktop/Advanced Quant. Sternberg/NC-subject-4.csv,legacy,3 9 1,Lentiform Loewenfeld,3.3.14,0,n,0,right,right,left,right,NA,608,3203,71670,608,NA,2,legacy,3,1024,2,48000,-16,experiment,4,even,7,412661,409369,410433,1108,146948,410438,361147,1137,75276,414672,415282,411448,4356,414672,NA,Sternberg Task,46,37431,57,yes,1024
79.31034483,79.31034483,663.3793103448276,663.3793103448276,black,experiment,legacy,legacy,legacy,0,uniform,0,undefined,0,right,57,57,57,0,0,57,57,0,0,57,57,57,0,57,0,Mon Oct 16 14:29:53 2023,The main experiment item,yes,/Users/Thingtwo/Desktop/SternbergTask.osexp,no,mono,no,18,no,white,no,yes,768,legacy,45,11,/Users/Thingtwo/Desktop/Advanced Quant. Sternberg/NC-subject-4.csv,legacy,6 9 4 5 2,Lentiform Loewenfeld,3.3.14,0,n,0,left,right,left,left,NA,1045,3203,71670,1045,NA,2,legacy,5,1024,2,48000,-16,experiment,4,even,1,418581,415287,416351,1108,146948,416356,361147,1137,75276,420592,421638,417368,4356,420592,NA,Sternberg Task,46,38476,58,yes,1024
79.66101694915254,79.66101694915254,665.5254237288135,665.5254237288135,black,experiment,legacy,legacy,legacy,0,uniform,1,undefined,1,right,58,58,58,0,0,58,58,0,0,58,58,58,0,58,0,Mon Oct 16 14:29:53 2023,The main experiment item,yes,/Users/Thingtwo/Desktop/SternbergTask.osexp,no,mono,no,18,no,white,no,yes,768,legacy,46,11,/Users/Thingtwo/Desktop/Advanced Quant. Sternberg/NC-subject-4.csv,legacy,1 7 5 2 9,Lentiform Loewenfeld,3.3.14,0,n,0,right,right,left,right,NA,790,3203,71670,790,NA,2,legacy,5,1024,2,48000,-16,experiment,4,even,3,424939,415287,422710,1108,146948,422715,421644,1137,75276,426950,427742,423725,4356,426950,NA,Sternberg Task,47,39266,59,yes,1024
80,80,666.4333333333333,666.4333333333333,black,experiment,legacy,legacy,legacy,0,uniform,1,undefined,1,left,59,59,59,0,0,59,59,0,0,59,59,59,0,59,0,Mon Oct 16 14:29:53 2023,The main experiment item,yes,/Users/Thingtwo/Desktop/SternbergTask.osexp,no,mono,no,18,no,white,no,yes,768,legacy,47,11,/Users/Thingtwo/Desktop/Advanced Quant. Sternberg/NC-subject-4.csv,legacy,4 1 8 7 5,Lentiform Loewenfeld,3.3.14,3,y,0,left,right,left,left,NA,720,3203,71670,720,NA,2,legacy,5,1024,2,48000,-16,experiment,4,even,8,431052,427747,428820,1108,146948,428826,421644,1137,75276,433063,433784,429839,4356,433063,NA,Sternberg Task,48,39986,60,yes,1024
80.32786885245902,80.32786885245902,671.6557377,671.6557377,black,experiment,legacy,legacy,legacy,0,uniform,1,undefined,1,right,60,60,60,0,0,60,60,0,0,60,60,60,0,60,0,Mon Oct 16 14:29:53 2023,The main experiment item,yes,/Users/Thingtwo/Desktop/SternbergTask.osexp,no,mono,no,18,no,white,no,yes,768,legacy,48,11,/Users/Thingtwo/Desktop/Advanced Quant. Sternberg/NC-subject-4.csv,legacy,2 8 6 3 1,Lentiform Loewenfeld,3.3.14,0,n,0,right,right,left,right,NA,985,3203,71670,985,NA,2,legacy,5,1024,2,48000,-16,experiment,4,even,7,437083,433790,434853,1108,146948,434858,421644,1137,75276,439094,440080,435869,4356,439094,NA,Sternberg Task,49,40971,61,yes,1024
80.64516129032258,80.64516129032258,667.5322580645161,667.5322580645161,black,experiment,legacy,legacy,legacy,0,uniform,1,undefined,1,left,61,61,61,0,0,61,61,0,0,61,61,61,0,61,0,Mon Oct 16 14:29:53 2023,The main experiment item,yes,/Users/Thingtwo/Desktop/SternbergTask.osexp,no,mono,no,18,no,white,no,yes,768,legacy,49,11,/Users/Thingtwo/Desktop/Advanced Quant. Sternberg/NC-subject-4.csv,legacy,2 5 4 8 7,Lentiform Loewenfeld,3.3.14,3,y,0,left,right,left,left,NA,416,3203,71670,416,NA,2,legacy,5,1024,2,48000,-16,experiment,4,even,4,443376,440086,441149,1108,146948,441154,421644,1137,75276,445388,445805,442163,4356,445388,NA,Sternberg Task,50,41387,62,yes,1024
79.36507936507937,79.36507936507937,665.968254,665.968254,black,experiment,legacy,legacy,legacy,0,uniform,0,undefined,0,left,62,62,62,0,0,62,62,0,0,62,62,62,0,62,0,Mon Oct 16 14:29:53 2023,The main experiment item,yes,/Users/Thingtwo/Desktop/SternbergTask.osexp,no,mono,no,18,no,white,no,yes,768,legacy,50,11,/Users/Thingtwo/Desktop/Advanced Quant. Sternberg/NC-subject-4.csv,legacy,3 4 9 6 2 9,Lentiform Loewenfeld,3.3.14,5,y,0,right,right,left,right,NA,569,3203,71670,569,NA,2,legacy,6,1024,2,48000,-16,experiment,4,even,2,449109,445811,446876,1108,146948,446881,421644,1137,75276,451119,451689,447892,4356,451119,NA,Sternberg Task,50,41956,63,yes,1024
79.6875,79.6875,665.828125,665.828125,black,experiment,legacy,legacy,legacy,0,uniform,1,undefined,1,right,63,63,63,0,0,63,63,0,0,63,63,63,0,63,0,Mon Oct 16 14:29:53 2023,The main experiment item,yes,/Users/Thingtwo/Desktop/SternbergTask.osexp,no,mono,no,18,no,white,no,yes,768,legacy,51,11,/Users/Thingtwo/Desktop/Advanced Quant. Sternberg/NC-subject-4.csv,legacy,1 3 2 6 9,Lentiform Loewenfeld,3.3.14,0,n,0,right,right,left,right,NA,657,3203,71670,657,NA,2,legacy,5,1024,2,48000,-16,experiment,4,even,5,454992,445811,452759,1108,146948,452764,451695,1137,75276,457002,457660,453777,4356,457002,NA,Sternberg Task,51,42613,64,yes,1024
80,80,667.2923076923076,667.2923076923076,black,experiment,legacy,legacy,legacy,0,uniform,1,undefined,1,left,64,64,64,0,0,64,64,0,0,64,64,64,0,64,0,Mon Oct 16 14:29:53 2023,The main experiment item,yes,/Users/Thingtwo/Desktop/SternbergTask.osexp,no,mono,no,18,no,white,no,yes,768,legacy,52,11,/Users/Thingtwo/Desktop/Advanced Quant. Sternberg/NC-subject-4.csv,legacy,9 1 7 2,Lentiform Loewenfeld,3.3.14,2,y,0,left,right,left,left,NA,761,3203,71670,761,NA,2,legacy,4,1024,2,48000,-16,experiment,4,even,1,460961,457666,458732,1108,146948,458737,451695,1137,75276,462969,463731,459747,4356,462969,NA,Sternberg Task,52,43374,65,yes,1024
80.3030303,80.3030303,665.1060606060606,665.1060606060606,black,experiment,legacy,legacy,legacy,0,uniform,1,undefined,1,left,65,65,65,0,0,65,65,0,0,65,65,65,0,65,0,Mon Oct 16 14:29:53 2023,The main experiment item,yes,/Users/Thingtwo/Desktop/SternbergTask.osexp,no,mono,no,18,no,white,no,yes,768,legacy,53,11,/Users/Thingtwo/Desktop/Advanced Quant. Sternberg/NC-subject-4.csv,legacy,7 1 3,Lentiform Loewenfeld,3.3.14,2,y,0,left,right,left,left,NA,523,3203,71670,523,NA,2,legacy,3,1024,2,48000,-16,experiment,4,even,1,467029,463735,464797,1108,146948,464802,451695,1137,75276,469039,469563,465814,4356,469039,NA,Sternberg Task,53,43897,66,yes,1024
80.59701492537313,80.59701492537313,666.2238806,666.2238806,black,experiment,legacy,legacy,legacy,0,uniform,1,undefined,1,right,66,66,66,0,0,66,66,0,0,66,66,66,0,66,0,Mon Oct 16 14:29:53 2023,The main experiment item,yes,/Users/Thingtwo/Desktop/SternbergTask.osexp,no,mono,no,18,no,white,no,yes,768,legacy,54,11,/Users/Thingtwo/Desktop/Advanced Quant. Sternberg/NC-subject-4.csv,legacy,3 9 8 1 6 4,Lentiform Loewenfeld,3.3.14,0,n,0,right,right,left,right,NA,740,3203,71670,740,NA,2,legacy,6,1024,2,48000,-16,experiment,4,even,7,472858,469568,470629,1108,146948,470634,451695,1137,75276,474868,475608,471644,4356,474868,NA,Sternberg Task,54,44637,67,yes,1024
79.41176470588235,79.41176470588235,663.4558823529412,663.4558823529412,black,experiment,legacy,legacy,legacy,0,uniform,0,undefined,0,left,67,67,67,0,0,67,67,0,0,67,67,67,0,67,0,Mon Oct 16 14:29:53 2023,The main experiment item,yes,/Users/Thingtwo/Desktop/SternbergTask.osexp,no,mono,no,18,no,white,no,yes,768,legacy,55,11,/Users/Thingtwo/Desktop/Advanced Quant. Sternberg/NC-subject-4.csv,legacy,7 6,Lentiform Loewenfeld,3.3.14,2,y,0,right,right,left,right,NA,478,3203,71670,478,NA,2,legacy,2,1024,2,48000,-16,experiment,4,even,6,478908,475614,476678,1108,146948,476683,451695,1137,75276,480920,481399,477695,4356,480920,NA,Sternberg Task,54,45115,68,yes,1024
79.71014492753623,79.71014492753623,665.3623188405797,665.3623188405797,black,experiment,legacy,legacy,legacy,0,uniform,1,undefined,1,right,68,68,68,0,0,68,68,0,0,68,68,68,0,68,0,Mon Oct 16 14:29:53 2023,The main experiment item,yes,/Users/Thingtwo/Desktop/SternbergTask.osexp,no,mono,no,18,no,white,no,yes,768,legacy,56,11,/Users/Thingtwo/Desktop/Advanced Quant. Sternberg/NC-subject-4.csv,legacy,7 4 2 8 1 9,Lentiform Loewenfeld,3.3.14,0,n,0,right,right,left,right,NA,795,3203,71670,795,NA,2,legacy,6,1024,2,48000,-16,experiment,4,even,5,484700,475614,482470,1108,146948,482474,481405,1137,75276,486711,487507,483485,4356,486710,NA,Sternberg Task,55,45910,69,yes,1024
80,80,663.3285714285714,663.3285714285714,black,experiment,legacy,legacy,legacy,0,uniform,1,undefined,1,left,69,69,69,0,0,69,69,0,0,69,69,69,0,69,0,Mon Oct 16 14:29:53 2023,The main experiment item,yes,/Users/Thingtwo/Desktop/SternbergTask.osexp,no,mono,no,18,no,white,no,yes,768,legacy,57,11,/Users/Thingtwo/Desktop/Advanced Quant. Sternberg/NC-subject-4.csv,legacy,7 8 4 6 9 5,Lentiform Loewenfeld,3.3.14,4,y,0,left,right,left,left,NA,523,3203,71670,523,NA,2,legacy,6,1024,2,48000,-16,experiment,4,even,6,490805,487512,488577,1108,146948,488582,481405,1137,75276,492816,493340,489592,4356,492816,NA,Sternberg Task,56,46433,70,yes,1024
78.87323943661971,78.87323943661971,660.5211267605633,660.5211267605633,black,experiment,legacy,legacy,legacy,0,uniform,0,undefined,0,right,70,70,70,0,0,70,70,0,0,70,70,70,0,70,0,Mon Oct 16 14:29:53 2023,The main experiment item,yes,/Users/Thingtwo/Desktop/SternbergTask.osexp,no,mono,no,18,no,white,no,yes,768,legacy,58,11,/Users/Thingtwo/Desktop/Advanced Quant. Sternberg/NC-subject-4.csv,legacy,8 4 3 5,Lentiform Loewenfeld,3.3.14,0,n,0,left,right,left,left,NA,464,3203,71670,464,NA,2,legacy,4,1024,2,48000,-16,experiment,4,even,6,496638,493346,494407,1108,146948,494411,481405,1137,75276,498648,499114,495424,4356,498648,NA,Sternberg Task,56,46897,71,yes,1024
79.16666666666667,79.16666666666667,658.4166666666666,658.4166666666666,black,experiment,legacy,legacy,legacy,0,uniform,1,undefined,1,right,71,71,71,0,0,71,71,0,0,71,71,71,0,71,0,Mon Oct 16 14:29:53 2023,The main experiment item,yes,/Users/Thingtwo/Desktop/SternbergTask.osexp,no,mono,no,18,no,white,no,yes,768,legacy,59,11,/Users/Thingtwo/Desktop/Advanced Quant. Sternberg/NC-subject-4.csv,legacy,1 6 4,Lentiform Loewenfeld,3.3.14,0,n,0,right,right,left,right,NA,509,3203,71670,509,NA,2,legacy,3,1024,2,48000,-16,experiment,4,even,7,502411,493346,500182,1108,146948,500186,499119,1137,75276,504421,504931,501197,4356,504421,NA,Sternberg Task,57,47406,72,yes,1024
79.45205479452055,79.45205479452055,656.0547945,656.0547945,black,experiment,legacy,legacy,legacy,0,uniform,1,undefined,1,right,72,72,72,0,0,72,72,0,0,72,72,72,0,72,0,Mon Oct 16 14:29:53 2023,The main experiment item,yes,/Users/Thingtwo/Desktop/SternbergTask.osexp,no,mono,no,18,no,white,no,yes,768,legacy,60,11,/Users/Thingtwo/Desktop/Advanced Quant. Sternberg/NC-subject-4.csv,legacy,3 4 2,Lentiform Loewenfeld,3.3.14,0,n,0,right,right,left,right,NA,486,3203,71670,486,NA,2,legacy,3,1024,2,48000,-16,experiment,4,even,5,508231,504937,506001,1108,146948,506006,499119,1137,75276,510241,510728,507018,4356,510241,NA,Sternberg Task,58,47892,73,yes,1024
79.72972972972973,79.72972972972973,656.1216216216217,656.1216216216217,black,experiment,legacy,legacy,legacy,0,uniform,1,undefined,1,right,73,73,73,0,0,73,73,0,0,73,73,73,0,73,0,Mon Oct 16 14:29:53 2023,The main experiment item,yes,/Users/Thingtwo/Desktop/SternbergTask.osexp,no,mono,no,18,no,white,no,yes,768,legacy,61,11,/Users/Thingtwo/Desktop/Advanced Quant. Sternberg/NC-subject-4.csv,legacy,8 4 3 9,Lentiform Loewenfeld,3.3.14,0,n,0,right,right,left,right,NA,661,3203,71670,661,NA,2,legacy,4,1024,2,48000,-16,experiment,4,even,5,514032,510734,511802,1108,146948,511807,499119,1137,75276,516043,516706,512819,4356,516043,NA,Sternberg Task,59,48553,74,yes,1024
80,80,654.6933333333334,654.6933333333334,black,experiment,legacy,legacy,legacy,0,uniform,1,undefined,1,right,74,74,74,0,0,74,74,0,0,74,74,74,0,74,0,Mon Oct 16 14:29:53 2023,The main experiment item,yes,/Users/Thingtwo/Desktop/SternbergTask.osexp,no,mono,no,18,no,white,no,yes,768,legacy,62,11,/Users/Thingtwo/Desktop/Advanced Quant. Sternberg/NC-subject-4.csv,legacy,9 8 2 7 4,Lentiform Loewenfeld,3.3.14,0,n,0,right,right,left,right,NA,549,3203,71670,549,NA,2,legacy,5,1024,2,48000,-16,experiment,4,even,5,520007,516711,517777,1108,146948,517781,499119,1137,75276,522018,522568,518793,4356,522017,NA,Sternberg Task,60,49102,75,yes,1024
80.26315789473684,80.26315789473684,655.3421052631579,655.3421052631579,black,experiment,legacy,legacy,legacy,0,uniform,1,undefined,1,right,75,75,75,0,0,75,75,0,0,75,75,75,0,75,0,Mon Oct 16 14:29:53 2023,The main experiment item,yes,/Users/Thingtwo/Desktop/SternbergTask.osexp,no,mono,no,18,no,white,no,yes,768,legacy,63,11,/Users/Thingtwo/Desktop/Advanced Quant. Sternberg/NC-subject-4.csv,legacy,8 2 1 4 5 9,Lentiform Loewenfeld,3.3.14,0,n,0,right,right,left,right,NA,704,3203,71670,704,NA,2,legacy,6,1024,2,48000,-16,experiment,4,even,7,525867,522574,523637,1108,146948,523642,499119,1137,75276,527877,528582,524653,4356,527877,NA,Sternberg Task,61,49806,76,yes,1024
79.22077922077922,79.22077922077922,656.038961,656.038961,black,experiment,legacy,legacy,legacy,0,uniform,0,undefined,0,left,76,76,76,0,0,76,76,0,0,76,76,76,0,76,0,Mon Oct 16 14:29:53 2023,The main experiment item,yes,/Users/Thingtwo/Desktop/SternbergTask.osexp,no,mono,no,18,no,white,no,yes,768,legacy,64,11,/Users/Thingtwo/Desktop/Advanced Quant. Sternberg/NC-subject-4.csv,legacy,7,Lentiform Loewenfeld,3.3.14,1,y,0,right,right,left,right,NA,709,3203,71670,709,NA,2,legacy,1,1024,2,48000,-16,experiment,4,even,7,531880,528588,529652,1108,146948,529656,499119,1137,75276,533892,534603,530667,4356,533892,NA,Sternberg Task,61,50515,77,yes,1024
79.48717948717949,79.48717948717949,656.8717948717949,656.8717948717949,black,experiment,legacy,legacy,legacy,0,uniform,1,undefined,1,right,77,77,77,0,0,77,77,0,0,77,77,77,0,77,0,Mon Oct 16 14:29:53 2023,The main experiment item,yes,/Users/Thingtwo/Desktop/SternbergTask.osexp,no,mono,no,18,no,white,no,yes,768,legacy,65,11,/Users/Thingtwo/Desktop/Advanced Quant. Sternberg/NC-subject-4.csv,legacy,6 3 1 7 9 8,Lentiform Loewenfeld,3.3.14,0,n,0,right,right,left,right,NA,721,3203,71670,721,NA,2,legacy,6,1024,2,48000,-16,experiment,4,even,4,537903,528588,535674,1108,146948,535679,534609,1137,75276,539913,540636,536687,4356,539913,NA,Sternberg Task,62,51236,78,yes,1024
79.74683544303798,79.74683544303798,659.6835443037975,659.6835443037975,black,experiment,legacy,legacy,legacy,0,uniform,1,undefined,1,right,78,78,78,0,0,78,78,0,0,78,78,78,0,78,0,Mon Oct 16 14:29:53 2023,The main experiment item,yes,/Users/Thingtwo/Desktop/SternbergTask.osexp,no,mono,no,18,no,white,no,yes,768,legacy,66,11,/Users/Thingtwo/Desktop/Advanced Quant. Sternberg/NC-subject-4.csv,legacy,4 8 1 2,Lentiform Loewenfeld,3.3.14,0,n,0,right,right,left,right,NA,879,3203,71670,879,NA,2,legacy,4,1024,2,48000,-16,experiment,4,even,7,543934,540641,541704,1108,146948,541709,534609,1137,75276,545945,546826,542720,4356,545945,NA,Sternberg Task,63,52115,79,yes,1024
80,80,658.7,658.7,black,experiment,legacy,legacy,legacy,0,uniform,1,undefined,1,right,79,79,79,0,0,79,79,0,0,79,79,79,0,79,0,Mon Oct 16 14:29:53 2023,The main experiment item,yes,/Users/Thingtwo/Desktop/SternbergTask.osexp,no,mono,no,18,no,white,no,yes,768,legacy,67,11,/Users/Thingtwo/Desktop/Advanced Quant. Sternberg/NC-subject-4.csv,legacy,9 5 3 2 8 6,Lentiform Loewenfeld,3.3.14,0,n,0,right,right,left,right,NA,581,3203,71670,581,NA,2,legacy,6,1024,2,48000,-16,experiment,4,even,7,550122,546831,547895,1108,146948,547900,534609,1137,75276,552132,552714,548909,4356,552132,NA,Sternberg Task,64,52696,80,yes,1024
79.01234567901234,79.01234567901234,658.5555555555555,658.5555555555555,black,experiment,legacy,legacy,legacy,0,uniform,0,undefined,0,left,80,80,80,0,0,80,80,0,0,80,80,80,0,80,0,Mon Oct 16 14:29:53 2023,The main experiment item,yes,/Users/Thingtwo/Desktop/SternbergTask.osexp,no,mono,no,18,no,white,no,yes,768,legacy,68,11,/Users/Thingtwo/Desktop/Advanced Quant. Sternberg/NC-subject-4.csv,legacy,7 4 2 6 3 5,Lentiform Loewenfeld,3.3.14,6,y,0,right,right,left,right,NA,647,3203,71670,647,NA,2,legacy,6,1024,2,48000,-16,experiment,4,even,5,556017,552720,553784,1108,146948,553789,534609,1137,75276,558027,558675,554802,4356,558027,NA,Sternberg Task,64,53343,81,yes,1024
79.26829268292683,79.26829268292683,658.6097561,658.6097561,black,experiment,legacy,legacy,legacy,0,uniform,1,undefined,1,right,81,81,81,0,0,81,81,0,0,81,81,81,0,81,0,Mon Oct 16 14:29:53 2023,The main experiment item,yes,/Users/Thingtwo/Desktop/SternbergTask.osexp,no,mono,no,18,no,white,no,yes,768,legacy,69,11,/Users/Thingtwo/Desktop/Advanced Quant. Sternberg/NC-subject-4.csv,legacy,6 8,Lentiform Loewenfeld,3.3.14,0,n,0,right,right,left,right,NA,663,3203,71670,663,NA,2,legacy,2,1024,2,48000,-16,experiment,4,even,9,561979,552720,559747,1108,146948,559752,558681,1137,75276,563989,564653,560763,4356,563989,NA,Sternberg Task,65,54006,82,yes,1024
79.51807228915662,79.51807228915662,660.4216867469879,660.4216867469879,black,experiment,legacy,legacy,legacy,0,uniform,1,undefined,1,left,82,82,82,0,0,82,82,0,0,82,82,82,0,82,0,Mon Oct 16 14:29:53 2023,The main experiment item,yes,/Users/Thingtwo/Desktop/SternbergTask.osexp,no,mono,no,18,no,white,no,yes,768,legacy,70,11,/Users/Thingtwo/Desktop/Advanced Quant. Sternberg/NC-subject-4.csv,legacy,9 6 2 4 1,Lentiform Loewenfeld,3.3.14,4,y,0,left,right,left,left,NA,809,3203,71670,809,NA,2,legacy,5,1024,2,48000,-16,experiment,4,even,4,567953,564658,565722,1108,146948,565727,558681,1137,75276,569963,570773,566739,4356,569963,NA,Sternberg Task,66,54815,83,yes,1024
79.76190476190476,79.76190476190476,663.5595238095239,663.5595238095239,black,experiment,legacy,legacy,legacy,0,uniform,1,undefined,1,left,83,83,83,0,0,83,83,0,0,83,83,83,0,83,0,Mon Oct 16 14:29:53 2023,The main experiment item,yes,/Users/Thingtwo/Desktop/SternbergTask.osexp,no,mono,no,18,no,white,no,yes,768,legacy,71,11,/Users/Thingtwo/Desktop/Advanced Quant. Sternberg/NC-subject-4.csv,legacy,5 7 3 6 2,Lentiform Loewenfeld,3.3.14,5,y,0,left,right,left,left,NA,924,3203,71670,924,NA,2,legacy,5,1024,2,48000,-16,experiment,4,even,2,574075,570778,571842,1108,146948,571846,558681,1137,75276,576086,577011,572859,4356,576086,NA,Sternberg Task,67,55739,84,yes,1024
80,80,662.9411764705883,662.9411764705883,black,experiment,legacy,legacy,legacy,0,uniform,1,undefined,1,left,84,84,84,0,0,84,84,0,0,84,84,84,0,84,0,Mon Oct 16 14:29:53 2023,The main experiment item,yes,/Users/Thingtwo/Desktop/SternbergTask.osexp,no,mono,no,18,no,white,no,yes,768,legacy,72,11,/Users/Thingtwo/Desktop/Advanced Quant. Sternberg/NC-subject-4.csv,legacy,6 1 2,Lentiform Loewenfeld,3.3.14,3,y,0,left,right,left,left,NA,611,3203,71670,611,NA,2,legacy,3,1024,2,48000,-16,experiment,4,even,2,580309,577017,578079,1108,146948,578084,558681,1137,75276,582319,582931,579095,4356,582319,NA,Sternberg Task,68,56350,85,yes,1024
79.06976744186046,79.06976744186046,664.3139534883721,664.3139534883721,black,experiment,legacy,legacy,legacy,0,uniform,0,undefined,0,left,85,85,85,0,0,85,85,0,0,85,85,85,0,85,0,Mon Oct 16 14:29:53 2023,The main experiment item,yes,/Users/Thingtwo/Desktop/SternbergTask.osexp,no,mono,no,18,no,white,no,yes,768,legacy,73,11,/Users/Thingtwo/Desktop/Advanced Quant. Sternberg/NC-subject-4.csv,legacy,4 6 2 5 1,Lentiform Loewenfeld,3.3.14,5,y,0,right,right,left,right,NA,781,3203,71670,781,NA,2,legacy,5,1024,2,48000,-16,experiment,4,even,1,586229,582937,584000,1108,146948,584004,558681,1137,75276,588239,589021,585016,4356,588239,NA,Sternberg Task,68,57131,86,yes,1024
79.31034483,79.31034483,664.5747126436781,664.5747126436781,black,experiment,legacy,legacy,legacy,0,uniform,1,undefined,1,left,86,86,86,0,0,86,86,0,0,86,86,86,0,86,0,Mon Oct 16 14:29:53 2023,The main experiment item,yes,/Users/Thingtwo/Desktop/SternbergTask.osexp,no,mono,no,18,no,white,no,yes,768,legacy,74,11,/Users/Thingtwo/Desktop/Advanced Quant. Sternberg/NC-subject-4.csv,legacy,9 8 4,Lentiform Loewenfeld,3.3.14,1,y,0,left,right,left,left,NA,687,3203,71670,687,NA,2,legacy,3,1024,2,48000,-16,experiment,4,even,9,592320,582937,590091,1108,146948,590096,589028,1137,75276,594330,595019,591106,4356,594330,NA,Sternberg Task,69,57818,87,yes,1024
78.40909091,78.40909091,666.1022727272727,666.1022727272727,black,experiment,legacy,legacy,legacy,0,uniform,0,undefined,0,right,87,87,87,0,0,87,87,0,0,87,87,87,0,87,0,Mon Oct 16 14:29:53 2023,The main experiment item,yes,/Users/Thingtwo/Desktop/SternbergTask.osexp,no,mono,no,18,no,white,no,yes,768,legacy,75,11,/Users/Thingtwo/Desktop/Advanced Quant. Sternberg/NC-subject-4.csv,legacy,6 7 5 9,Lentiform Loewenfeld,3.3.14,0,n,0,left,right,left,left,NA,799,3203,71670,799,NA,2,legacy,4,1024,2,48000,-16,experiment,4,even,2,598315,595024,596088,1108,146948,596092,589028,1137,75276,600327,601127,597102,4356,600326,NA,Sternberg Task,69,58617,88,yes,1024
78.65168539325843,78.65168539325843,662.5056179775281,662.5056179775281,black,experiment,legacy,legacy,legacy,0,uniform,1,undefined,1,right,88,88,88,0,0,88,88,0,0,88,88,88,0,88,0,Mon Oct 16 14:29:53 2023,The main experiment item,yes,/Users/Thingtwo/Desktop/SternbergTask.osexp,no,mono,no,18,no,white,no,yes,768,legacy,76,11,/Users/Thingtwo/Desktop/Advanced Quant. Sternberg/NC-subject-4.csv,legacy,9,Lentiform Loewenfeld,3.3.14,0,n,0,right,right,left,right,NA,346,3203,71670,346,NA,2,legacy,1,1024,2,48000,-16,experiment,4,even,6,604431,595024,602197,1108,146948,602202,601134,1137,75276,606441,606789,603213,4356,606441,NA,Sternberg Task,70,58963,89,yes,1024
78.88888888888889,78.88888888888889,666.1888888888889,666.1888888888889,black,experiment,legacy,legacy,legacy,0,uniform,1,undefined,1,left,89,89,89,0,0,89,89,0,0,89,89,89,0,89,0,Mon Oct 16 14:29:53 2023,The main experiment item,yes,/Users/Thingtwo/Desktop/SternbergTask.osexp,no,mono,no,18,no,white,no,yes,768,legacy,77,11,/Users/Thingtwo/Desktop/Advanced Quant. Sternberg/NC-subject-4.csv,legacy,4 1 5,Lentiform Loewenfeld,3.3.14,2,y,0,left,right,left,left,NA,994,3203,71670,994,NA,2,legacy,3,1024,2,48000,-16,experiment,4,even,1,610086,606794,607857,1108,146948,607862,601134,1137,75276,612097,613093,608872,4356,612097,NA,Sternberg Task,71,59957,90,yes,1024
79.12087912087912,79.12087912087912,666.3076923076923,666.3076923076923,black,experiment,legacy,legacy,legacy,0,uniform,1,undefined,1,left,90,90,90,0,0,90,90,0,0,90,90,90,0,90,0,Mon Oct 16 14:29:53 2023,The main experiment item,yes,/Users/Thingtwo/Desktop/SternbergTask.osexp,no,mono,no,18,no,white,no,yes,768,legacy,78,11,/Users/Thingtwo/Desktop/Advanced Quant. Sternberg/NC-subject-4.csv,legacy,2 3 7 4,Lentiform Loewenfeld,3.3.14,1,y,0,left,right,left,left,NA,677,3203,71670,677,NA,2,legacy,4,1024,2,48000,-16,experiment,4,even,2,616390,613097,614161,1108,146948,614166,601134,1137,75276,618401,619079,615177,4356,618401,NA,Sternberg Task,72,60634,91,yes,1024
79.34782608695652,79.34782608695652,666.2391304347826,666.2391304347826,black,experiment,legacy,legacy,legacy,0,uniform,1,undefined,1,left,91,91,91,0,0,91,91,0,0,91,91,91,0,91,0,Mon Oct 16 14:29:53 2023,The main experiment item,yes,/Users/Thingtwo/Desktop/SternbergTask.osexp,no,mono,no,18,no,white,no,yes,768,legacy,79,11,/Users/Thingtwo/Desktop/Advanced Quant. Sternberg/NC-subject-4.csv,legacy,3 5 9 6 2 4,Lentiform Loewenfeld,3.3.14,1,y,0,left,right,left,left,NA,660,3203,71670,660,NA,2,legacy,6,1024,2,48000,-16,experiment,4,even,3,622382,619085,620151,1108,146948,620156,601134,1137,75276,624393,625055,621167,4356,624393,NA,Sternberg Task,73,61294,92,yes,1024
79.56989247311827,79.56989247311827,665.483871,665.483871,black,experiment,legacy,legacy,legacy,0,uniform,1,undefined,1,left,92,92,92,0,0,92,92,0,0,92,92,92,0,92,0,Mon Oct 16 14:29:53 2023,The main experiment item,yes,/Users/Thingtwo/Desktop/SternbergTask.osexp,no,mono,no,18,no,white,no,yes,768,legacy,80,11,/Users/Thingtwo/Desktop/Advanced Quant. Sternberg/NC-subject-4.csv,legacy,6 9 3 1,Lentiform Loewenfeld,3.3.14,4,y,0,left,right,left,left,NA,596,3203,71670,596,NA,2,legacy,4,1024,2,48000,-16,experiment,4,even,1,628352,625060,626124,1108,146948,626128,601134,1137,75276,630361,630958,627140,4356,630361,NA,Sternberg Task,74,61890,93,yes,1024
78.72340425531915,78.72340425531915,663.4893617021277,663.4893617021277,black,experiment,legacy,legacy,legacy,0,uniform,0,undefined,0,right,93,93,93,0,0,93,93,0,0,93,93,93,0,93,0,Mon Oct 16 14:29:53 2023,The main experiment item,yes,/Users/Thingtwo/Desktop/SternbergTask.osexp,no,mono,no,18,no,white,no,yes,768,legacy,81,11,/Users/Thingtwo/Desktop/Advanced Quant. Sternberg/NC-subject-4.csv,legacy,5 3 2 6 9 8,Lentiform Loewenfeld,3.3.14,0,n,0,left,right,left,left,NA,478,3203,71670,478,NA,2,legacy,6,1024,2,48000,-16,experiment,4,even,4,634260,630964,632029,1108,146948,632034,601134,1137,75276,636270,636749,633047,4356,636270,NA,Sternberg Task,74,62368,94,yes,1024
78.94736842105263,78.94736842105263,663.1263157894737,663.1263157894737,black,experiment,legacy,legacy,legacy,0,uniform,1,undefined,1,right,94,94,94,0,0,94,94,0,0,94,94,94,0,94,0,Mon Oct 16 14:29:53 2023,The main experiment item,yes,/Users/Thingtwo/Desktop/SternbergTask.osexp,no,mono,no,18,no,white,no,yes,768,legacy,82,11,/Users/Thingtwo/Desktop/Advanced Quant. Sternberg/NC-subject-4.csv,legacy,5 9 2 3,Lentiform Loewenfeld,3.3.14,0,n,0,right,right,left,right,NA,629,3203,71670,629,NA,2,legacy,4,1024,2,48000,-16,experiment,4,even,8,640049,630964,637818,1108,146948,637823,636755,1137,75276,642059,642690,638834,4356,642059,NA,Sternberg Task,75,62997,95,yes,1024
79.16666666666667,79.16666666666667,663.6145833333334,663.6145833333334,black,experiment,legacy,legacy,legacy,0,uniform,1,undefined,1,right,95,95,95,0,0,95,95,0,0,95,95,95,0,95,0,Mon Oct 16 14:29:53 2023,The main experiment item,yes,/Users/Thingtwo/Desktop/SternbergTask.osexp,no,mono,no,18,no,white,no,yes,768,legacy,83,11,/Users/Thingtwo/Desktop/Advanced Quant. Sternberg/NC-subject-4.csv,legacy,1 5 3 2 8,Lentiform Loewenfeld,3.3.14,0,n,0,right,right,left,right,NA,710,3203,71670,710,NA,2,legacy,5,1024,2,48000,-16,experiment,4,even,4,645988,642696,643759,1108,146948,643764,636755,1137,75276,647998,648709,644775,4356,647998,NA,Sternberg Task,76,63707,96,yes,1024
79.38144329896907,79.38144329896907,662.5463917525773,662.5463917525773,black,experiment,legacy,legacy,legacy,0,uniform,1,undefined,1,left,96,96,96,0,0,96,96,0,0,96,96,96,0,96,0,Mon Oct 16 14:29:53 2023,The main experiment item,yes,/Users/Thingtwo/Desktop/SternbergTask.osexp,no,mono,no,18,no,white,no,yes,768,legacy,84,11,/Users/Thingtwo/Desktop/Advanced Quant. Sternberg/NC-subject-4.csv,legacy,2 4 6 9,Lentiform Loewenfeld,3.3.14,3,y,0,left,right,left,left,NA,560,3203,71670,560,NA,2,legacy,4,1024,2,48000,-16,experiment,4,even,6,652008,648715,649779,1108,146948,649783,636755,1137,75276,654018,654579,650794,4356,654018,NA,Sternberg Task,77,64267,97,yes,1024
79.59183673469387,79.59183673469387,662.8571428571429,662.8571428571429,black,experiment,legacy,legacy,legacy,0,uniform,1,undefined,1,left,97,97,97,0,0,97,97,0,0,97,97,97,0,97,0,Mon Oct 16 14:29:53 2023,The main experiment item,yes,/Users/Thingtwo/Desktop/SternbergTask.osexp,no,mono,no,18,no,white,no,yes,768,legacy,85,11,/Users/Thingtwo/Desktop/Advanced Quant. Sternberg/NC-subject-4.csv,legacy,9 3 1 2 5,Lentiform Loewenfeld,3.3.14,4,y,0,left,right,left,left,NA,693,3203,71670,693,NA,2,legacy,5,1024,2,48000,-16,experiment,4,even,2,657887,654585,655648,1108,146948,655653,636755,1137,75276,659897,660592,656665,4356,659897,NA,Sternberg Task,78,64960,98,yes,1024
79.79797979797979,79.79797979797979,661.8888888888889,661.8888888888889,black,experiment,legacy,legacy,legacy,0,uniform,1,undefined,1,right,98,98,98,0,0,98,98,0,0,98,98,98,0,98,0,Mon Oct 16 14:29:53 2023,The main experiment item,yes,/Users/Thingtwo/Desktop/SternbergTask.osexp,no,mono,no,18,no,white,no,yes,768,legacy,86,11,/Users/Thingtwo/Desktop/Advanced Quant. Sternberg/NC-subject-4.csv,legacy,7 9,Lentiform Loewenfeld,3.3.14,0,n,0,right,right,left,right,NA,567,3203,71670,567,NA,2,legacy,2,1024,2,48000,-16,experiment,4,even,1,663893,660599,661662,1108,146948,661667,636755,1137,75276,665904,666473,662677,4356,665903,NA,Sternberg Task,79,65527,99,yes,1024
80,80,662.71,662.71,black,experiment,legacy,legacy,legacy,0,uniform,1,undefined,1,left,99,99,99,0,0,99,99,0,0,99,99,99,0,99,0,Mon Oct 16 14:29:53 2023,The main experiment item,yes,/Users/Thingtwo/Desktop/SternbergTask.osexp,no,mono,no,18,no,white,no,yes,768,legacy,87,11,/Users/Thingtwo/Desktop/Advanced Quant. Sternberg/NC-subject-4.csv,legacy,8 9 6 1,Lentiform Loewenfeld,3.3.14,2,y,0,left,right,left,left,NA,744,3203,71670,744,NA,2,legacy,4,1024,2,48000,-16,experiment,4,even,9,669772,666478,667542,1108,146948,667546,636755,1137,75276,671784,672530,668558,4356,671784,NA,Sternberg Task,80,66271,100,yes,1024
80.1980198,80.1980198,660.8811881188119,660.8811881188119,black,experiment,legacy,legacy,legacy,0,uniform,1,undefined,1,left,100,100,100,0,0,100,100,0,0,100,100,100,0,100,0,Mon Oct 16 14:29:53 2023,The main experiment item,yes,/Users/Thingtwo/Desktop/SternbergTask.osexp,no,mono,no,18,no,white,no,yes,768,legacy,88,11,/Users/Thingtwo/Desktop/Advanced Quant. Sternberg/NC-subject-4.csv,legacy,3 4,Lentiform Loewenfeld,3.3.14,1,y,0,left,right,left,left,NA,478,3203,71670,478,NA,2,legacy,2,1024,2,48000,-16,experiment,4,even,3,675834,672535,673596,1108,146948,673600,636755,1137,75276,677844,678324,674612,4356,677844,NA,Sternberg Task,81,66749,101,yes,1024
80.39215686,80.39215686,661.9313725490196,661.9313725490196,black,experiment,legacy,legacy,legacy,0,uniform,1,undefined,1,right,101,101,101,0,0,101,101,0,0,101,101,101,0,101,0,Mon Oct 16 14:29:53 2023,The main experiment item,yes,/Users/Thingtwo/Desktop/SternbergTask.osexp,no,mono,no,18,no,white,no,yes,768,legacy,89,11,/Users/Thingtwo/Desktop/Advanced Quant. Sternberg/NC-subject-4.csv,legacy,7 3 2 8,Lentiform Loewenfeld,3.3.14,0,n,0,right,right,left,right,NA,768,3203,71670,768,NA,2,legacy,4,1024,2,48000,-16,experiment,4,even,4,681625,678330,679394,1108,146948,679398,636755,1137,75276,683636,684405,680413,4356,683636,NA,Sternberg Task,82,67517,102,yes,1024
79.61165049,79.61165049,664.3203883495146,664.3203883495146,black,experiment,legacy,legacy,legacy,0,uniform,0,undefined,0,left,102,102,102,0,0,102,102,0,0,102,102,102,0,102,0,Mon Oct 16 14:29:53 2023,The main experiment item,yes,/Users/Thingtwo/Desktop/SternbergTask.osexp,no,mono,no,18,no,white,no,yes,768,legacy,90,11,/Users/Thingtwo/Desktop/Advanced Quant. Sternberg/NC-subject-4.csv,legacy,4 9 7 8 5 3,Lentiform Loewenfeld,3.3.14,4,y,0,right,right,left,right,NA,908,3203,71670,908,NA,2,legacy,6,1024,2,48000,-16,experiment,4,even,8,687706,684411,685474,1108,146948,685479,636755,1137,75276,689717,690627,686492,4356,689717,NA,Sternberg Task,82,68425,103,yes,1024
79.80769231,79.80769231,664.8365384615385,664.8365384615385,black,experiment,legacy,legacy,legacy,0,uniform,1,undefined,1,left,103,103,103,0,0,103,103,0,0,103,103,103,0,103,0,Mon Oct 16 14:29:53 2023,The main experiment item,yes,/Users/Thingtwo/Desktop/SternbergTask.osexp,no,mono,no,18,no,white,no,yes,768,legacy,91,11,/Users/Thingtwo/Desktop/Advanced Quant. Sternberg/NC-subject-4.csv,legacy,8 7 3,Lentiform Loewenfeld,3.3.14,1,y,0,left,right,left,left,NA,718,3203,71670,718,NA,2,legacy,3,1024,2,48000,-16,experiment,4,even,8,693926,684411,691696,1108,146948,691700,690632,1137,75276,695935,696654,692712,4356,695935,NA,Sternberg Task,83,69143,104,yes,1024
79.04761904761905,79.04761904761905,665.3619047619047,665.3619047619047,black,experiment,legacy,legacy,legacy,0,uniform,0,undefined,0,right,104,104,104,0,0,104,104,0,0,104,104,104,0,104,0,Mon Oct 16 14:29:53 2023,The main experiment item,yes,/Users/Thingtwo/Desktop/SternbergTask.osexp,no,mono,no,18,no,white,no,yes,768,legacy,92,11,/Users/Thingtwo/Desktop/Advanced Quant. Sternberg/NC-subject-4.csv,legacy,7 1 8 4 9 3,Lentiform Loewenfeld,3.3.14,0,n,0,left,right,left,left,NA,720,3203,71670,720,NA,2,legacy,6,1024,2,48000,-16,experiment,4,even,6,699954,696660,697725,1108,146948,697729,690632,1137,75276,701964,702685,698741,4356,701964,NA,Sternberg Task,83,69863,105,yes,1024
79.24528301886792,79.24528301886792,665.7547169811321,665.7547169811321,black,experiment,legacy,legacy,legacy,0,uniform,1,undefined,1,right,105,105,105,0,0,105,105,0,0,105,105,105,0,105,0,Mon Oct 16 14:29:53 2023,The main experiment item,yes,/Users/Thingtwo/Desktop/SternbergTask.osexp,no,mono,no,18,no,white,no,yes,768,legacy,93,11,/Users/Thingtwo/Desktop/Advanced Quant. Sternberg/NC-subject-4.csv,legacy,2 8 7 9 5 3,Lentiform Loewenfeld,3.3.14,0,n,0,right,right,left,right,NA,707,3203,71670,707,NA,2,legacy,6,1024,2,48000,-16,experiment,4,even,6,705984,696660,703755,1108,146948,703760,702691,1137,75276,707994,708701,704771,4356,707994,NA,Sternberg Task,84,70570,106,yes,1024
78.50467289719626,78.50467289719626,665.8785046728972,665.8785046728972,black,experiment,legacy,legacy,legacy,0,uniform,0,undefined,0,right,106,106,106,0,0,106,106,0,0,106,106,106,0,106,0,Mon Oct 16 14:29:53 2023,The main experiment item,yes,/Users/Thingtwo/Desktop/SternbergTask.osexp,no,mono,no,18,no,white,no,yes,768,legacy,94,11,/Users/Thingtwo/Desktop/Advanced Quant. Sternberg/NC-subject-4.csv,legacy,7 6 4 8 1 2,Lentiform Loewenfeld,3.3.14,0,n,0,left,right,left,left,NA,679,3203,71670,679,NA,2,legacy,6,1024,2,48000,-16,experiment,4,even,9,712000,708707,709772,1108,146948,709777,702691,1137,75276,714010,714690,710787,4356,714010,NA,Sternberg Task,84,71249,107,yes,1024
78.70370370370371,78.70370370370371,668.4259259,668.4259259,black,experiment,legacy,legacy,legacy,0,uniform,1,undefined,1,left,107,107,107,0,0,107,107,0,0,107,107,107,0,107,0,Mon Oct 16 14:29:53 2023,The main experiment item,yes,/Users/Thingtwo/Desktop/SternbergTask.osexp,no,mono,no,18,no,white,no,yes,768,legacy,95,11,/Users/Thingtwo/Desktop/Advanced Quant. Sternberg/NC-subject-4.csv,legacy,3 9 7 6 4,Lentiform Loewenfeld,3.3.14,3,y,0,left,right,left,left,NA,941,3203,71670,941,NA,2,legacy,5,1024,2,48000,-16,experiment,4,even,7,717986,708707,715760,1108,146948,715765,714696,1137,75276,719997,720940,716773,4356,719997,NA,Sternberg Task,85,72190,108,yes,1024
78.89908256880734,78.89908256880734,666.8990825688073,666.8990825688073,black,experiment,legacy,legacy,legacy,0,uniform,1,undefined,1,left,108,108,108,0,0,108,108,0,0,108,108,108,0,108,0,Mon Oct 16 14:29:53 2023,The main experiment item,yes,/Users/Thingtwo/Desktop/SternbergTask.osexp,no,mono,no,18,no,white,no,yes,768,legacy,96,11,/Users/Thingtwo/Desktop/Advanced Quant. Sternberg/NC-subject-4.csv,legacy,9 4 2,Lentiform Loewenfeld,3.3.14,1,y,0,left,right,left,left,NA,502,3203,71670,502,NA,2,legacy,3,1024,2,48000,-16,experiment,4,even,9,724233,720945,722006,1108,146948,722011,714696,1137,75276,726244,726747,723020,4356,726244,NA,Sternberg Task,86,72692,109,yes,1024
79.09090909,79.09090909,665.0272727272727,665.0272727272727,black,experiment,legacy,legacy,legacy,0,uniform,1,undefined,1,left,109,109,109,0,0,109,109,0,0,109,109,109,0,109,0,Mon Oct 16 14:29:53 2023,The main experiment item,yes,/Users/Thingtwo/Desktop/SternbergTask.osexp,no,mono,no,18,no,white,no,yes,768,legacy,97,11,/Users/Thingtwo/Desktop/Advanced Quant. Sternberg/NC-subject-4.csv,legacy,8,Lentiform Loewenfeld,3.3.14,1,y,0,left,right,left,left,NA,461,3203,71670,461,NA,2,legacy,1,1024,2,48000,-16,experiment,4,even,8,730041,726753,727813,1108,146948,727817,714696,1137,75276,732052,732514,728828,4356,732052,NA,Sternberg Task,87,73153,110,yes,1024
79.27927927927928,79.27927927927928,663.8738738738739,663.8738738738739,black,experiment,legacy,legacy,legacy,0,uniform,1,undefined,1,right,110,110,110,0,0,110,110,0,0,110,110,110,0,110,0,Mon Oct 16 14:29:53 2023,The main experiment item,yes,/Users/Thingtwo/Desktop/SternbergTask.osexp,no,mono,no,18,no,white,no,yes,768,legacy,98,11,/Users/Thingtwo/Desktop/Advanced Quant. Sternberg/NC-subject-4.csv,legacy,2 6 4 3 9,Lentiform Loewenfeld,3.3.14,0,n,0,right,right,left,right,NA,537,3203,71670,537,NA,2,legacy,5,1024,2,48000,-16,experiment,4,even,1,735817,732519,733586,1108,146948,733591,714696,1137,75276,737828,738367,734603,4356,737828,NA,Sternberg Task,88,73690,111,yes,1024
79.46428571428571,79.46428571428571,662.6339285714286,662.6339285714286,black,experiment,legacy,legacy,legacy,0,uniform,1,undefined,1,left,111,111,111,0,0,111,111,0,0,111,111,111,0,111,0,Mon Oct 16 14:29:53 2023,The main experiment item,yes,/Users/Thingtwo/Desktop/SternbergTask.osexp,no,mono,no,18,no,white,no,yes,768,legacy,99,11,/Users/Thingtwo/Desktop/Advanced Quant. Sternberg/NC-subject-4.csv,legacy,1 4 9 3 2 5,Lentiform Loewenfeld,3.3.14,3,y,0,left,right,left,left,NA,525,3203,71670,525,NA,2,legacy,6,1024,2,48000,-16,experiment,4,even,9,741666,738372,739436,1108,146948,739441,714696,1137,75276,743677,744203,740451,4356,743677,NA,Sternberg Task,89,74215,112,yes,1024
79.64601769911505,79.64601769911505,662.0353982300885,662.0353982300885,black,experiment,legacy,legacy,legacy,0,uniform,1,undefined,1,right,112,112,112,0,0,112,112,0,0,112,112,112,0,112,0,Mon Oct 16 14:29:53 2023,The main experiment item,yes,/Users/Thingtwo/Desktop/SternbergTask.osexp,no,mono,no,18,no,white,no,yes,768,legacy,100,11,/Users/Thingtwo/Desktop/Advanced Quant. Sternberg/NC-subject-4.csv,legacy,1 7 8 3 9,Lentiform Loewenfeld,3.3.14,0,n,0,right,right,left,right,NA,595,3203,71670,595,NA,2,legacy,5,1024,2,48000,-16,experiment,4,even,2,747498,744209,745269,1108,146948,745274,714696,1137,75276,749504,750100,746285,4356,749503,NA,Sternberg Task,90,74810,113,yes,1024
79.82456140350877,79.82456140350877,662.1491228070175,662.1491228070175,black,experiment,legacy,legacy,legacy,0,uniform,1,undefined,1,left,113,113,113,0,0,113,113,0,0,113,113,113,0,113,0,Mon Oct 16 14:29:53 2023,The main experiment item,yes,/Users/Thingtwo/Desktop/SternbergTask.osexp,no,mono,no,18,no,white,no,yes,768,legacy,101,11,/Users/Thingtwo/Desktop/Advanced Quant. Sternberg/NC-subject-4.csv,legacy,2 4 8 5 1 3,Lentiform Loewenfeld,3.3.14,1,y,0,left,right,left,left,NA,675,3203,71670,675,NA,2,legacy,6,1024,2,48000,-16,experiment,4,even,2,753403,750105,751170,1108,146948,751174,714696,1137,75276,755413,756089,752186,4356,755413,NA,Sternberg Task,91,75485,114,yes,1024
80,80,660.0173913043478,660.0173913043478,black,experiment,legacy,legacy,legacy,0,uniform,1,undefined,1,right,114,114,114,0,0,114,114,0,0,114,114,114,0,114,0,Mon Oct 16 14:29:53 2023,The main experiment item,yes,/Users/Thingtwo/Desktop/SternbergTask.osexp,no,mono,no,18,no,white,no,yes,768,legacy,102,11,/Users/Thingtwo/Desktop/Advanced Quant. Sternberg/NC-subject-4.csv,legacy,7 9 1 6,Lentiform Loewenfeld,3.3.14,0,n,0,right,right,left,right,NA,417,3203,71670,417,NA,2,legacy,4,1024,2,48000,-16,experiment,4,even,4,759388,756095,757159,1108,146948,757164,714696,1137,75276,761399,761817,758176,4356,761399,NA,Sternberg Task,92,75902,115,yes,1024
79.31034483,79.31034483,661.0258620689655,661.0258620689655,black,experiment,legacy,legacy,legacy,0,uniform,0,undefined,0,right,115,115,115,0,0,115,115,0,0,115,115,115,0,115,0,Mon Oct 16 14:29:53 2023,The main experiment item,yes,/Users/Thingtwo/Desktop/SternbergTask.osexp,no,mono,no,18,no,white,no,yes,768,legacy,103,11,/Users/Thingtwo/Desktop/Advanced Quant. Sternberg/NC-subject-4.csv,legacy,6 9 4 5 3 2,Lentiform Loewenfeld,3.3.14,0,n,0,left,right,left,left,NA,777,3203,71670,777,NA,2,legacy,6,1024,2,48000,-16,experiment,4,even,8,765116,761822,762887,1108,146948,762892,714696,1137,75276,767125,767903,763904,4356,767125,NA,Sternberg Task,92,76679,116,yes,1024
79.48717948717949,79.48717948717949,660.4957264957264,660.4957264957264,black,experiment,legacy,legacy,legacy,0,uniform,1,undefined,1,right,116,116,116,0,0,116,116,0,0,116,116,116,0,116,0,Mon Oct 16 14:29:53 2023,The main experiment item,yes,/Users/Thingtwo/Desktop/SternbergTask.osexp,no,mono,no,18,no,white,no,yes,768,legacy,104,11,/Users/Thingtwo/Desktop/Advanced Quant. Sternberg/NC-subject-4.csv,legacy,5 7 3,Lentiform Loewenfeld,3.3.14,0,n,0,right,right,left,right,NA,599,3203,71670,599,NA,2,legacy,3,1024,2,48000,-16,experiment,4,even,9,771201,761822,768971,1108,146948,768976,767909,1137,75276,773212,773813,769987,4356,773211,NA,Sternberg Task,93,77278,117,yes,1024
79.66101694915254,79.66101694915254,659.0084745762712,659.0084745762712,black,experiment,legacy,legacy,legacy,0,uniform,1,undefined,1,left,117,117,117,0,0,117,117,0,0,117,117,117,0,117,0,Mon Oct 16 14:29:53 2023,The main experiment item,yes,/Users/Thingtwo/Desktop/SternbergTask.osexp,no,mono,no,18,no,white,no,yes,768,legacy,105,11,/Users/Thingtwo/Desktop/Advanced Quant. Sternberg/NC-subject-4.csv,legacy,2 6 1 7 4,Lentiform Loewenfeld,3.3.14,2,y,0,left,right,left,left,NA,485,3203,71670,485,NA,2,legacy,5,1024,2,48000,-16,experiment,4,even,6,777113,773818,774881,1108,146948,774886,767909,1137,75276,779123,779610,775898,4356,779123,NA,Sternberg Task,94,77763,118,yes,1024
79.83193277310924,79.83193277310924,659.092437,659.092437,black,experiment,legacy,legacy,legacy,0,uniform,1,undefined,1,right,118,118,118,0,0,118,118,0,0,118,118,118,0,118,0,Mon Oct 16 14:29:53 2023,The main experiment item,yes,/Users/Thingtwo/Desktop/SternbergTask.osexp,no,mono,no,18,no,white,no,yes,768,legacy,106,11,/Users/Thingtwo/Desktop/Advanced Quant. Sternberg/NC-subject-4.csv,legacy,1,Lentiform Loewenfeld,3.3.14,0,n,0,right,right,left,right,NA,669,3203,71670,669,NA,2,legacy,1,1024,2,48000,-16,experiment,4,even,7,782908,779615,780678,1108,146948,780683,767909,1137,75276,784918,785588,781694,4356,784918,NA,Sternberg Task,95,78432,119,yes,1024
80,80,659.3583333333333,659.3583333333333,black,experiment,legacy,legacy,legacy,0,uniform,1,undefined,1,left,119,119,119,0,0,119,119,0,0,119,119,119,0,119,0,Mon Oct 16 14:29:53 2023,The main experiment item,yes,/Users/Thingtwo/Desktop/SternbergTask.osexp,no,mono,no,18,no,white,no,yes,768,legacy,107,11,/Users/Thingtwo/Desktop/Advanced Quant. Sternberg/NC-subject-4.csv,legacy,3 2 1 4 7,Lentiform Loewenfeld,3.3.14,2,y,0,left,right,left,left,NA,691,3203,71670,691,NA,2,legacy,5,1024,2,48000,-16,experiment,4,even,2,788885,785595,786656,1108,146948,786661,767909,1137,75276,790894,791587,787672,4356,790894,NA,Sternberg Task,96,79123,120,yes,1024
80.16528925619835,80.16528925619835,658.0743801652893,658.0743801652893,black,experiment,legacy,legacy,legacy,0,uniform,1,undefined,1,left,120,120,120,0,0,120,120,0,0,120,120,120,0,120,0,Mon Oct 16 14:29:53 2023,The main experiment item,yes,/Users/Thingtwo/Desktop/SternbergTask.osexp,no,mono,no,18,no,white,no,yes,768,legacy,108,11,/Users/Thingtwo/Desktop/Advanced Quant. Sternberg/NC-subject-4.csv,legacy,9 5 8 1,Lentiform Loewenfeld,3.3.14,2,y,0,left,right,left,left,NA,504,3203,71670,504,NA,2,legacy,4,1024,2,48000,-16,experiment,4,even,5,794886,791592,792657,1108,146948,792662,767909,1137,75276,796897,797403,793673,4356,796897,NA,Sternberg Task,97,79627,121,yes,1024
79.50819672131148,79.50819672131148,656.8196721311475,656.8196721311475,black,experiment,legacy,legacy,legacy,0,uniform,0,undefined,0,left,121,121,121,0,0,121,121,0,0,121,121,121,0,121,0,Mon Oct 16 14:29:53 2023,The main experiment item,yes,/Users/Thingtwo/Desktop/SternbergTask.osexp,no,mono,no,18,no,white,no,yes,768,legacy,109,11,/Users/Thingtwo/Desktop/Advanced Quant. Sternberg/NC-subject-4.csv,legacy,8 5 3 7 4 6,Lentiform Loewenfeld,3.3.14,6,y,0,right,right,left,right,NA,505,3203,71670,505,NA,2,legacy,6,1024,2,48000,-16,experiment,4,even,6,800704,797408,798473,1108,146948,798478,767909,1137,75276,802714,803221,799490,4356,802714,NA,Sternberg Task,97,80132,122,yes,1024
79.67479674796748,79.67479674796748,655.2032520325204,655.2032520325204,black,experiment,legacy,legacy,legacy,0,uniform,1,undefined,1,right,122,122,122,0,0,122,122,0,0,122,122,122,0,122,0,Mon Oct 16 14:29:53 2023,The main experiment item,yes,/Users/Thingtwo/Desktop/SternbergTask.osexp,no,mono,no,18,no,white,no,yes,768,legacy,110,11,/Users/Thingtwo/Desktop/Advanced Quant. Sternberg/NC-subject-4.csv,legacy,6 9 5,Lentiform Loewenfeld,3.3.14,0,n,0,right,right,left,right,NA,458,3203,71670,458,NA,2,legacy,3,1024,2,48000,-16,experiment,4,even,8,806518,797408,804287,1108,146948,804291,803226,1137,75276,808527,808987,805302,4356,808527,NA,Sternberg Task,98,80590,123,yes,1024
79.03225806451613,79.03225806451613,654.5403225806451,654.5403225806451,black,experiment,legacy,legacy,legacy,0,uniform,0,undefined,0,left,123,123,123,0,0,123,123,0,0,123,123,123,0,123,0,Mon Oct 16 14:29:53 2023,The main experiment item,yes,/Users/Thingtwo/Desktop/SternbergTask.osexp,no,mono,no,18,no,white,no,yes,768,legacy,111,11,/Users/Thingtwo/Desktop/Advanced Quant. Sternberg/NC-subject-4.csv,legacy,7 1 8 5 6 2,Lentiform Loewenfeld,3.3.14,2,y,0,right,right,left,right,NA,573,3203,71670,573,NA,2,legacy,6,1024,2,48000,-16,experiment,4,even,1,812288,808992,810056,1108,146948,810061,803226,1137,75276,814298,814872,811073,4356,814298,NA,Sternberg Task,98,81163,124,yes,1024
79.2,79.2,654.912,654.912,black,experiment,legacy,legacy,legacy,0,uniform,1,undefined,1,left,124,124,124,0,0,124,124,0,0,124,124,124,0,124,0,Mon Oct 16 14:29:53 2023,The main experiment item,yes,/Users/Thingtwo/Desktop/SternbergTask.osexp,no,mono,no,18,no,white,no,yes,768,legacy,112,11,/Users/Thingtwo/Desktop/Advanced Quant. Sternberg/NC-subject-4.csv,legacy,5 2 9 6 1 7,Lentiform Loewenfeld,3.3.14,3,y,0,left,right,left,left,NA,701,3203,71670,701,NA,2,legacy,6,1024,2,48000,-16,experiment,4,even,9,818174,808992,815944,1108,146948,815948,814878,1137,75276,820185,820888,816959,4356,820185,NA,Sternberg Task,99,81864,125,yes,1024
79.36507936507937,79.36507936507937,653.1746031746031,653.1746031746031,black,experiment,legacy,legacy,legacy,0,uniform,1,undefined,1,left,125,125,125,0,0,125,125,0,0,125,125,125,0,125,0,Mon Oct 16 14:29:53 2023,The main experiment item,yes,/Users/Thingtwo/Desktop/SternbergTask.osexp,no,mono,no,18,no,white,no,yes,768,legacy,113,11,/Users/Thingtwo/Desktop/Advanced Quant. Sternberg/NC-subject-4.csv,legacy,4 3 2 5 8,Lentiform Loewenfeld,3.3.14,2,y,0,left,right,left,left,NA,436,3203,71670,436,NA,2,legacy,5,1024,2,48000,-16,experiment,4,even,3,824185,820893,821956,1108,146948,821961,814878,1137,75276,826196,826633,822972,4356,826195,NA,Sternberg Task,100,82300,126,yes,1024
79.52755906,79.52755906,652.6614173228346,652.6614173228346,black,experiment,legacy,legacy,legacy,0,uniform,1,undefined,1,right,126,126,126,0,0,126,126,0,0,126,126,126,0,126,0,Mon Oct 16 14:29:53 2023,The main experiment item,yes,/Users/Thingtwo/Desktop/SternbergTask.osexp,no,mono,no,18,no,white,no,yes,768,legacy,114,11,/Users/Thingtwo/Desktop/Advanced Quant. Sternberg/NC-subject-4.csv,legacy,5 2,Lentiform Loewenfeld,3.3.14,0,n,0,right,right,left,right,NA,588,3203,71670,588,NA,2,legacy,2,1024,2,48000,-16,experiment,4,even,7,829931,826638,827701,1108,146948,827706,814878,1137,75276,831941,832531,828717,4356,831941,NA,Sternberg Task,101,82888,127,yes,1024
79.6875,79.6875,651.7578125,651.7578125,black,experiment,legacy,legacy,legacy,0,uniform,1,undefined,1,right,127,127,127,0,0,127,127,0,0,127,127,127,0,127,0,Mon Oct 16 14:29:53 2023,The main experiment item,yes,/Users/Thingtwo/Desktop/SternbergTask.osexp,no,mono,no,18,no,white,no,yes,768,legacy,115,11,/Users/Thingtwo/Desktop/Advanced Quant. Sternberg/NC-subject-4.csv,legacy,2 5 1 4,Lentiform Loewenfeld,3.3.14,0,n,0,right,right,left,right,NA,537,3203,71670,537,NA,2,legacy,4,1024,2,48000,-16,experiment,4,even,6,835830,832536,833599,1108,146948,833604,814878,1137,75276,837840,838378,834615,4356,837840,NA,Sternberg Task,102,83425,128,yes,1024
79.06976744186046,79.06976744186046,651.0852713178294,651.0852713178294,black,experiment,legacy,legacy,legacy,0,uniform,0,undefined,0,left,128,128,128,0,0,128,128,0,0,128,128,128,0,128,0,Mon Oct 16 14:29:53 2023,The main experiment item,yes,/Users/Thingtwo/Desktop/SternbergTask.osexp,no,mono,no,18,no,white,no,yes,768,legacy,116,11,/Users/Thingtwo/Desktop/Advanced Quant. Sternberg/NC-subject-4.csv,legacy,9 3 8 2 1 4,Lentiform Loewenfeld,3.3.14,3,y,0,right,right,left,right,NA,565,3203,71670,565,NA,2,legacy,6,1024,2,48000,-16,experiment,4,even,8,841679,838383,839447,1108,146948,839452,814878,1137,75276,843689,844255,840465,4356,843689,NA,Sternberg Task,102,83990,129,yes,1024
79.23076923076923,79.23076923076923,650.6769230769231,650.6769230769231,black,experiment,legacy,legacy,legacy,0,uniform,1,undefined,1,right,129,129,129,0,0,129,129,0,0,129,129,129,0,129,0,Mon Oct 16 14:29:53 2023,The main experiment item,yes,/Users/Thingtwo/Desktop/SternbergTask.osexp,no,mono,no,18,no,white,no,yes,768,legacy,117,11,/Users/Thingtwo/Desktop/Advanced Quant. Sternberg/NC-subject-4.csv,legacy,1 4 3 6 5,Lentiform Loewenfeld,3.3.14,0,n,0,right,right,left,right,NA,598,3203,71670,598,NA,2,legacy,5,1024,2,48000,-16,experiment,4,even,8,847557,838383,845326,1108,146948,845331,844262,1137,75276,849567,850167,846342,4356,849567,NA,Sternberg Task,103,84588,130,yes,1024
79.38931297709924,79.38931297709924,651.4961832061068,651.4961832061068,black,experiment,legacy,legacy,legacy,0,uniform,1,undefined,1,right,130,130,130,0,0,130,130,0,0,130,130,130,0,130,0,Mon Oct 16 14:29:53 2023,The main experiment item,yes,/Users/Thingtwo/Desktop/SternbergTask.osexp,no,mono,no,18,no,white,no,yes,768,legacy,118,11,/Users/Thingtwo/Desktop/Advanced Quant. Sternberg/NC-subject-4.csv,legacy,1 4 9 2 5,Lentiform Loewenfeld,3.3.14,0,n,0,right,right,left,right,NA,758,3203,71670,758,NA,2,legacy,5,1024,2,48000,-16,experiment,4,even,7,853469,850172,851239,1108,146948,851244,844262,1137,75276,855478,856237,852255,4356,855477,NA,Sternberg Task,104,85346,131,yes,1024
78.78787878787878,78.78787878787878,661.7121212121212,661.7121212121212,black,experiment,legacy,legacy,legacy,0,uniform,0,undefined,0,right,131,131,131,0,0,131,131,0,0,131,131,131,0,131,0,Mon Oct 16 14:29:53 2023,The main experiment item,yes,/Users/Thingtwo/Desktop/SternbergTask.osexp,no,mono,no,18,no,white,no,yes,768,legacy,119,11,/Users/Thingtwo/Desktop/Advanced Quant. Sternberg/NC-subject-4.csv,legacy,7 1 5 6 3,Lentiform Loewenfeld,3.3.14,0,n,0,None,right,left,None,NA,2000,3203,71670,2000,NA,2,legacy,5,1024,2,48000,-16,experiment,4,even,8,859536,856243,857307,1108,146948,857311,844262,1137,75276,861547,863547,858323,4356,861547,NA,Sternberg Task,104,87346,132,yes,1024
78.94736842105263,78.94736842105263,661.6165413533835,661.6165413533835,black,experiment,legacy,legacy,legacy,0,uniform,1,undefined,1,left,132,132,132,0,0,132,132,0,0,132,132,132,0,132,0,Mon Oct 16 14:29:53 2023,The main experiment item,yes,/Users/Thingtwo/Desktop/SternbergTask.osexp,no,mono,no,18,no,white,no,yes,768,legacy,120,11,/Users/Thingtwo/Desktop/Advanced Quant. Sternberg/NC-subject-4.csv,legacy,6 9 7 4 5 1,Lentiform Loewenfeld,3.3.14,2,y,0,left,right,left,left,NA,649,3203,71670,649,NA,2,legacy,6,1024,2,48000,-16,experiment,4,even,9,866847,856243,864618,1108,146948,864623,863553,1137,75276,868858,869508,865634,4356,868857,NA,Sternberg Task,105,87995,133,yes,1024
79.10447761,79.10447761,660.8805970149253,660.8805970149253,black,experiment,legacy,legacy,legacy,0,uniform,1,undefined,1,right,133,133,133,0,0,133,133,0,0,133,133,133,0,133,0,Mon Oct 16 14:29:53 2023,The main experiment item,yes,/Users/Thingtwo/Desktop/SternbergTask.osexp,no,mono,no,18,no,white,no,yes,768,legacy,121,11,/Users/Thingtwo/Desktop/Advanced Quant. Sternberg/NC-subject-4.csv,legacy,5 3 8 7 2 4,Lentiform Loewenfeld,3.3.14,0,n,0,right,right,left,right,NA,563,3203,71670,563,NA,2,legacy,6,1024,2,48000,-16,experiment,4,even,9,872807,869514,870578,1108,146948,870583,863553,1137,75276,874818,875382,871594,4356,874817,NA,Sternberg Task,106,88558,134,yes,1024
79.25925925925925,79.25925925925925,659.762963,659.762963,black,experiment,legacy,legacy,legacy,0,uniform,1,undefined,1,right,134,134,134,0,0,134,134,0,0,134,134,134,0,134,0,Mon Oct 16 14:29:53 2023,The main experiment item,yes,/Users/Thingtwo/Desktop/SternbergTask.osexp,no,mono,no,18,no,white,no,yes,768,legacy,122,11,/Users/Thingtwo/Desktop/Advanced Quant. Sternberg/NC-subject-4.csv,legacy,2 3 8 5 6 7,Lentiform Loewenfeld,3.3.14,0,n,0,right,right,left,right,NA,510,3203,71670,510,NA,2,legacy,6,1024,2,48000,-16,experiment,4,even,1,878683,875388,876454,1108,146948,876458,863553,1137,75276,880693,881204,877470,4356,880693,NA,Sternberg Task,107,89068,135,yes,1024
79.41176470588235,79.41176470588235,663.2205882352941,663.2205882352941,black,experiment,legacy,legacy,legacy,0,uniform,1,undefined,1,left,135,135,135,0,0,135,135,0,0,135,135,135,0,135,0,Mon Oct 16 14:29:53 2023,The main experiment item,yes,/Users/Thingtwo/Desktop/SternbergTask.osexp,no,mono,no,18,no,white,no,yes,768,legacy,123,11,/Users/Thingtwo/Desktop/Advanced Quant. Sternberg/NC-subject-4.csv,legacy,3 9 6 2,Lentiform Loewenfeld,3.3.14,4,y,0,left,right,left,left,NA,1130,3203,71670,1130,NA,2,legacy,4,1024,2,48000,-16,experiment,4,even,2,884499,881209,882273,1108,146948,882278,863553,1137,75276,886509,887640,883287,4356,886509,NA,Sternberg Task,108,90198,136,yes,1024
79.56204379562044,79.56204379562044,664.5839416058394,664.5839416058394,black,experiment,legacy,legacy,legacy,0,uniform,1,undefined,1,right,136,136,136,0,0,136,136,0,0,136,136,136,0,136,0,Mon Oct 16 14:29:53 2023,The main experiment item,yes,/Users/Thingtwo/Desktop/SternbergTask.osexp,no,mono,no,18,no,white,no,yes,768,legacy,124,11,/Users/Thingtwo/Desktop/Advanced Quant. Sternberg/NC-subject-4.csv,legacy,8 9,Lentiform Loewenfeld,3.3.14,0,n,0,right,right,left,right,NA,850,3203,71670,850,NA,2,legacy,2,1024,2,48000,-16,experiment,4,even,5,890940,887646,888711,1108,146948,888716,863553,1137,75276,892951,893803,889727,4356,892950,NA,Sternberg Task,109,91048,137,yes,1024
78.98550724637681,78.98550724637681,662.0869565217391,662.0869565217391,black,experiment,legacy,legacy,legacy,0,uniform,0,undefined,0,left,137,137,137,0,0,137,137,0,0,137,137,137,0,137,0,Mon Oct 16 14:29:53 2023,The main experiment item,yes,/Users/Thingtwo/Desktop/SternbergTask.osexp,no,mono,no,18,no,white,no,yes,768,legacy,125,11,/Users/Thingtwo/Desktop/Advanced Quant. Sternberg/NC-subject-4.csv,legacy,6 5,Lentiform Loewenfeld,3.3.14,2,y,0,right,right,left,right,NA,320,3203,71670,320,NA,2,legacy,2,1024,2,48000,-16,experiment,4,even,5,897103,893808,894872,1108,146948,894877,863553,1137,75276,899113,899435,895889,4356,899113,NA,Sternberg Task,109,91368,138,yes,1024