"acc","accuracy","average_response_time","avg_rt","background","block","canvas_backend","clock_backend","color_backend","correct","correct_instruction1_sketchpad","correct_keyboard_keyboard_response","correct_response","count__logger","count_correctfeeback_sketchpad","count_exp_sequence","count_experiment","count_experimentloop","count_fixation_sketchpad","count_incorrectfeedback_sketchpad","count_instruction1_sketchpad","count_instruction2_sketchpad","count_isi_sketchpad","count_keyboard_keyboard_response","count_memoryset_sketchpad","count_practice_loop","count_probe_sketchpad","count_thankyou_sketchpad","datetime","description","disable_garbage_collection","experiment_file","experiment_path","font_bold","font_family","font_italic","font_size","font_underline","foreground","form_clicks","fullscreen","height","keyboard_backend","live_row","live_row_practice_loop","logfile","mouse_backend","numberSet","opensesame_codename","opensesame_version","posInSet","present","repeat_cycle","response","response_instruction1_sketchpad","response_instruction2_sketchpad","response_keyboard_keyboard_response","response_thankyou_sketchpad","response_time","response_time_instruction1_sketchpad","response_time_instruction2_sketchpad","response_time_keyboard_keyboard_response","response_time_thankyou_sketchpad","round_decimals","sampler_backend","setSize","sound_buf_size","sound_channels","sound_freq","sound_sample_size","start","subject_nr","subject_parity","target","time__logger","time_correctfeeback_sketchpad","time_exp_sequence","time_experiment","time_experimentloop","time_fixation_sketchpad","time_incorrectfeedback_sketchpad","time_instruction1_sketchpad","time_instruction2_sketchpad","time_isi_sketchpad","time_keyboard_keyboard_response","time_memoryset_sketchpad","time_practice_loop","time_probe_sketchpad","time_thankyou_sketchpad","title","total_correct","total_response_time","total_responses","width"
"100","100","747","747","#3d3846","practice","legacy","legacy","legacy","1","undefined","1","right","0","0","0","0","0","0","0","0","0","0","0","0","0","0","0","Sun Oct 22 14:14:44 2023","The main experiment item","False","Sternbergtask.osexp","C:\Users\User\Desktop","False","mono","False","18","no","white","no","yes","768","legacy","0","0","C:/Users/User/Desktop/subject-4.csv","legacy","5 7 8 4 1 2","Melodramatic Milgram","4.0.5","0","n","0","right","right","NA","right","NA","747.0","1380","NA","747","NA","2","legacy","6","1024","2","48000","-16","experiment","4","even","6","8749","NA","3796","2061","NA","3798","NA","2067","NA","6000","8002","4799","3448","8001","NA","Sternberg task","1","747.0","1","1024"
"50","50","739","739","#3d3846","practice","legacy","legacy","legacy","0","undefined","0","right","1","1","1","0","0","1","1","0","0","1","1","1","0","1","0","Sun Oct 22 14:14:44 2023","The main experiment item","False","Sternbergtask.osexp","C:\Users\User\Desktop","False","mono","False","18","no","white","no","yes","768","legacy","1","1","C:/Users/User/Desktop/subject-4.csv","legacy","3 1 9 4","Melodramatic Milgram","4.0.5","0","n","0","left","right","NA","left","NA","732.0","1380","NA","732","NA","2","legacy","4","1024","2","48000","-16","experiment","4","even","6","14786","8781","9849","2061","NA","9850","NA","2067","NA","12052","14053","10851","3448","14053","NA","Sternberg task","1","1479.0","2","1024"
"66","66","710","710","#3d3846","practice","legacy","legacy","legacy","1","undefined","1","left","2","2","2","0","0","2","2","0","0","2","2","2","0","2","0","Sun Oct 22 14:14:44 2023","The main experiment item","False","Sternbergtask.osexp","C:\Users\User\Desktop","False","mono","False","18","no","white","no","yes","768","legacy","2","2","C:/Users/User/Desktop/subject-4.csv","legacy","6","Melodramatic Milgram","4.0.5","1","y","0","left","right","NA","left","NA","651.0","1380","NA","651","NA","2","legacy","1","1024","2","48000","-16","experiment","4","even","6","20712","8781","15855","2061","NA","15857","14792","2067","NA","18059","20061","16858","3448","20060","NA","Sternberg task","2","2130.0","3","1024"
"75","75","653","653","#3d3846","practice","legacy","legacy","legacy","1","undefined","1","left","3","3","3","0","0","3","3","0","0","3","3","3","0","3","0","Sun Oct 22 14:14:44 2023","The main experiment item","False","Sternbergtask.osexp","C:\Users\User\Desktop","False","mono","False","18","no","white","no","yes","768","legacy","3","3","C:/Users/User/Desktop/subject-4.csv","legacy","4 3 1 7 9 8","Melodramatic Milgram","4.0.5","1","y","0","left","right","NA","left","NA","483.0","1380","NA","483","NA","2","legacy","6","1024","2","48000","-16","experiment","4","even","4","26475","20719","21787","2061","NA","21788","14792","2067","NA","23990","25991","22789","3448","25991","NA","Sternberg task","3","2613.0","4","1024"
"60","60","922","922","#3d3846","practice","legacy","legacy","legacy","0","undefined","0","right","4","4","4","0","0","4","4","0","0","4","4","4","0","4","0","Sun Oct 22 14:14:44 2023","The main experiment item","False","Sternbergtask.osexp","C:\Users\User\Desktop","False","mono","False","18","no","white","no","yes","768","legacy","4","4","C:/Users/User/Desktop/subject-4.csv","legacy","4 1 5","Melodramatic Milgram","4.0.5","0","n","0","None","right","NA","None","NA","2000.0","1380","NA","2000","NA","2","legacy","3","1024","2","48000","-16","experiment","4","even","2","265373","26481","27545","2061","NA","27547","14792","2067","NA","29749","263373","28548","3448","31750","NA","Sternberg task","3","4613.0","5","1024"
"66","66","840","840","#3d3846","practice","legacy","legacy","legacy","1","undefined","1","left","5","5","5","0","0","5","5","0","0","5","5","5","0","5","0","Sun Oct 22 14:14:44 2023","The main experiment item","False","Sternbergtask.osexp","C:\Users\User\Desktop","False","mono","False","18","no","white","no","yes","768","legacy","5","5","C:/Users/User/Desktop/subject-4.csv","legacy","4 8","Melodramatic Milgram","4.0.5","1","y","0","left","right","NA","left","NA","428.0","1380","NA","428","NA","2","legacy","2","1024","2","48000","-16","experiment","4","even","4","271084","26481","266451","2061","NA","266452","265379","2067","NA","268654","270656","267453","3448","270655","NA","Sternberg task","4","5041.0","6","1024"
"71","71","835","835","#3d3846","practice","legacy","legacy","legacy","1","undefined","1","right","6","6","6","0","0","6","6","0","0","6","6","6","0","6","0","Sun Oct 22 14:14:44 2023","The main experiment item","False","Sternbergtask.osexp","C:\Users\User\Desktop","False","mono","False","18","no","white","no","yes","768","legacy","6","6","C:/Users/User/Desktop/subject-4.csv","legacy","9 6 7 4 5","Melodramatic Milgram","4.0.5","0","n","0","right","right","NA","right","NA","808.0","1380","NA","808","NA","2","legacy","5","1024","2","48000","-16","experiment","4","even","3","277168","271090","272156","2061","NA","272157","265379","2067","NA","274359","276360","273158","3448","276360","NA","Sternberg task","5","5849.0","7","1024"
"62","62","772","772","#3d3846","practice","legacy","legacy","legacy","0","undefined","0","right","7","7","7","0","0","7","7","0","0","7","7","7","0","7","0","Sun Oct 22 14:14:44 2023","The main experiment item","False","Sternbergtask.osexp","C:\Users\User\Desktop","False","mono","False","18","no","white","no","yes","768","legacy","7","7","C:/Users/User/Desktop/subject-4.csv","legacy","5","Melodramatic Milgram","4.0.5","0","n","0","left","right","NA","left","NA","327.0","1380","NA","327","NA","2","legacy","1","1024","2","48000","-16","experiment","4","even","3","282772","277174","278240","2061","NA","278241","265379","2067","NA","280444","282445","279242","3448","282445","NA","Sternberg task","5","6176.0","8","1024"
"66","66","744","744","#3d3846","practice","legacy","legacy","legacy","1","undefined","1","right","8","8","8","0","0","8","8","0","0","8","8","8","0","8","0","Sun Oct 22 14:14:44 2023","The main experiment item","False","Sternbergtask.osexp","C:\Users\User\Desktop","False","mono","False","18","no","white","no","yes","768","legacy","8","8","C:/Users/User/Desktop/subject-4.csv","legacy","2 1","Melodramatic Milgram","4.0.5","0","n","0","right","right","NA","right","NA","524.0","1380","NA","524","NA","2","legacy","2","1024","2","48000","-16","experiment","4","even","5","288570","277174","283843","2061","NA","283843","282778","2067","NA","286045","288046","284844","3448","288046","NA","Sternberg task","6","6700.0","9","1024"
"70","70","755","755","#3d3846","practice","legacy","legacy","legacy","1","undefined","1","left","9","9","9","0","0","9","9","0","0","9","9","9","0","9","0","Sun Oct 22 14:14:44 2023","The main experiment item","False","Sternbergtask.osexp","C:\Users\User\Desktop","False","mono","False","18","no","white","no","yes","768","legacy","9","9","C:/Users/User/Desktop/subject-4.csv","legacy","1 5 2 9","Melodramatic Milgram","4.0.5","2","y","0","left","right","NA","left","NA","856.0","1380","NA","856","NA","2","legacy","4","1024","2","48000","-16","experiment","4","even","5","294700","288577","289640","2061","NA","289641","282778","2067","NA","291843","293844","290642","3448","293844","NA","Sternberg task","7","7556.0","10","1024"
"72","72","758","758","#3d3846","practice","legacy","legacy","legacy","1","undefined","1","left","10","10","10","0","0","10","10","0","0","10","10","10","0","10","0","Sun Oct 22 14:14:44 2023","The main experiment item","False","Sternbergtask.osexp","C:\Users\User\Desktop","False","mono","False","18","no","white","no","yes","768","legacy","10","10","C:/Users/User/Desktop/subject-4.csv","legacy","2 9 4","Melodramatic Milgram","4.0.5","3","y","0","left","right","NA","left","NA","792.0","1380","NA","792","NA","2","legacy","3","1024","2","48000","-16","experiment","4","even","4","300769","294707","295772","2061","NA","295774","282778","2067","NA","297976","299977","296775","3448","299977","NA","Sternberg task","8","8348.0","11","1024"
"66","66","766","766","#3d3846","practice","legacy","legacy","legacy","0","undefined","0","left","11","11","11","0","0","11","11","0","0","11","11","11","0","11","0","Sun Oct 22 14:14:44 2023","The main experiment item","False","Sternbergtask.osexp","C:\Users\User\Desktop","False","mono","False","18","no","white","no","yes","768","legacy","11","11","C:/Users/User/Desktop/subject-4.csv","legacy","1 7 9 8 5","Melodramatic Milgram","4.0.5","4","y","0","right","right","NA","right","NA","848.0","1380","NA","848","NA","2","legacy","5","1024","2","48000","-16","experiment","4","even","8","306900","300775","301848","2061","NA","301849","282778","2067","NA","304051","306052","302850","3448","306052","NA","Sternberg task","8","9196.0","12","1024"
"69","69","752","752","#3d3846","experiment","legacy","legacy","legacy","1","undefined","1","left","12","12","12","0","0","12","12","0","0","12","12","12","0","12","0","Sun Oct 22 14:14:44 2023","The main experiment item","False","Sternbergtask.osexp","C:\Users\User\Desktop","False","mono","False","18","no","white","no","yes","768","legacy","0","11","C:/Users/User/Desktop/subject-4.csv","legacy","4 1 5","Melodramatic Milgram","4.0.5","2","y","0","left","right","left","left","NA","587.0","1380","1316","587","NA","2","legacy","3","1024","2","48000","-16","experiment","4","even","1","314071","300775","309279","2061","309225","309280","306907","2067","307909","311482","313484","310281","3448","313483","NA","Sternberg task","9","9783.0","13","1024"
"64","64","742","742","#3d3846","experiment","legacy","legacy","legacy","0","undefined","0","left","13","13","13","0","0","13","13","0","0","13","13","13","0","13","0","Sun Oct 22 14:14:44 2023","The main experiment item","False","Sternbergtask.osexp","C:\Users\User\Desktop","False","mono","False","18","no","white","no","yes","768","legacy","1","11","C:/Users/User/Desktop/subject-4.csv","legacy","4 6 2 5 1","Melodramatic Milgram","4.0.5","5","y","0","right","right","left","right","NA","609.0","1380","1316","609","NA","2","legacy","5","1024","2","48000","-16","experiment","4","even","1","319953","314078","315138","2061","309225","315140","306907","2067","307909","317342","319343","316141","3448","319343","NA","Sternberg task","9","10392.0","14","1024"
"66","66","734","734","#3d3846","experiment","legacy","legacy","legacy","1","undefined","1","right","14","14","14","0","0","14","14","0","0","14","14","14","0","14","0","Sun Oct 22 14:14:44 2023","The main experiment item","False","Sternbergtask.osexp","C:\Users\User\Desktop","False","mono","False","18","no","white","no","yes","768","legacy","2","11","C:/Users/User/Desktop/subject-4.csv","legacy","5 2","Melodramatic Milgram","4.0.5","0","n","0","right","right","left","right","NA","623.0","1380","1316","623","NA","2","legacy","2","1024","2","48000","-16","experiment","4","even","7","325850","314078","321022","2061","309225","321023","319960","2067","307909","323225","325226","322024","3448","325226","NA","Sternberg task","10","11015.0","15","1024"
"68","68","749","749","#3d3846","experiment","legacy","legacy","legacy","1","undefined","1","right","15","15","15","0","0","15","15","0","0","15","15","15","0","15","0","Sun Oct 22 14:14:44 2023","The main experiment item","False","Sternbergtask.osexp","C:\Users\User\Desktop","False","mono","False","18","no","white","no","yes","768","legacy","3","11","C:/Users/User/Desktop/subject-4.csv","legacy","6 8","Melodramatic Milgram","4.0.5","0","n","0","right","right","left","right","NA","976.0","1380","1316","976","NA","2","legacy","2","1024","2","48000","-16","experiment","4","even","9","332106","325856","326925","2061","309225","326926","319960","2067","307909","329128","331129","327927","3448","331129","NA","Sternberg task","11","11991.0","16","1024"
"70","70","739","739","#3d3846","experiment","legacy","legacy","legacy","1","undefined","1","left","16","16","16","0","0","16","16","0","0","16","16","16","0","16","0","Sun Oct 22 14:14:44 2023","The main experiment item","False","Sternbergtask.osexp","C:\Users\User\Desktop","False","mono","False","18","no","white","no","yes","768","legacy","4","11","C:/Users/User/Desktop/subject-4.csv","legacy","2 3","Melodramatic Milgram","4.0.5","1","y","0","left","right","left","left","NA","585.0","1380","1316","585","NA","2","legacy","2","1024","2","48000","-16","experiment","4","even","2","337970","332112","333180","2061","309225","333181","319960","2067","307909","335383","337384","334182","3448","337384","NA","Sternberg task","12","12576.0","17","1024"
"72","72","756","756","#3d3846","experiment","legacy","legacy","legacy","1","undefined","1","left","17","17","17","0","0","17","17","0","0","17","17","17","0","17","0","Sun Oct 22 14:14:44 2023","The main experiment item","False","Sternbergtask.osexp","C:\Users\User\Desktop","False","mono","False","18","no","white","no","yes","768","legacy","5","11","C:/Users/User/Desktop/subject-4.csv","legacy","6 2","Melodramatic Milgram","4.0.5","1","y","0","left","right","left","left","NA","1042.0","1380","1316","1042","NA","2","legacy","2","1024","2","48000","-16","experiment","4","even","6","344289","337976","339042","2061","309225","339043","319960","2067","307909","341245","343247","340044","3448","343247","NA","Sternberg task","13","13618.0","18","1024"
"73","73","746","746","#3d3846","experiment","legacy","legacy","legacy","1","undefined","1","left","18","18","18","0","0","18","18","0","0","18","18","18","0","18","0","Sun Oct 22 14:14:44 2023","The main experiment item","False","Sternbergtask.osexp","C:\Users\User\Desktop","False","mono","False","18","no","white","no","yes","768","legacy","6","11","C:/Users/User/Desktop/subject-4.csv","legacy","9 4 2","Melodramatic Milgram","4.0.5","1","y","0","left","right","left","left","NA","567.0","1380","1316","567","NA","2","legacy","3","1024","2","48000","-16","experiment","4","even","9","350131","344296","345359","2061","309225","345360","319960","2067","307909","347563","349564","346361","3448","349564","NA","Sternberg task","14","14185.0","19","1024"
"75","75","739","739","#3d3846","experiment","legacy","legacy","legacy","1","undefined","1","left","19","19","19","0","0","19","19","0","0","19","19","19","0","19","0","Sun Oct 22 14:14:44 2023","The main experiment item","False","Sternbergtask.osexp","C:\Users\User\Desktop","False","mono","False","18","no","white","no","yes","768","legacy","7","11","C:/Users/User/Desktop/subject-4.csv","legacy","8 9 5 7 1 6","Melodramatic Milgram","4.0.5","4","y","0","left","right","left","left","NA","597.0","1380","1316","597","NA","2","legacy","6","1024","2","48000","-16","experiment","4","even","7","356003","350137","351201","2061","309225","351201","319960","2067","307909","353404","355405","352203","3448","355405","NA","Sternberg task","15","14782.0","20","1024"
"76","76","739","739","#3d3846","experiment","legacy","legacy","legacy","1","undefined","1","right","20","20","20","0","0","20","20","0","0","20","20","20","0","20","0","Sun Oct 22 14:14:44 2023","The main experiment item","False","Sternbergtask.osexp","C:\Users\User\Desktop","False","mono","False","18","no","white","no","yes","768","legacy","8","11","C:/Users/User/Desktop/subject-4.csv","legacy","1 7 8 3 9","Melodramatic Milgram","4.0.5","0","n","0","right","right","left","right","NA","754.0","1380","1316","754","NA","2","legacy","5","1024","2","48000","-16","experiment","4","even","2","362032","356009","357073","2061","309225","357075","319960","2067","307909","359277","361278","358076","3448","361278","NA","Sternberg task","16","15536.0","21","1024"
"77","77","743","743","#3d3846","experiment","legacy","legacy","legacy","1","undefined","1","left","21","21","21","0","0","21","21","0","0","21","21","21","0","21","0","Sun Oct 22 14:14:44 2023","The main experiment item","False","Sternbergtask.osexp","C:\Users\User\Desktop","False","mono","False","18","no","white","no","yes","768","legacy","9","11","C:/Users/User/Desktop/subject-4.csv","legacy","3 9 7 6 4","Melodramatic Milgram","4.0.5","3","y","0","left","right","left","left","NA","830.0","1380","1316","830","NA","2","legacy","5","1024","2","48000","-16","experiment","4","even","7","368138","362039","363102","2061","309225","363103","319960","2067","307909","365305","367307","364104","3448","367306","NA","Sternberg task","17","16366.0","22","1024"
"78","78","750","750","#3d3846","experiment","legacy","legacy","legacy","1","undefined","1","right","22","22","22","0","0","22","22","0","0","22","22","22","0","22","0","Sun Oct 22 14:14:44 2023","The main experiment item","False","Sternbergtask.osexp","C:\Users\User\Desktop","False","mono","False","18","no","white","no","yes","768","legacy","10","11","C:/Users/User/Desktop/subject-4.csv","legacy","7 9 1 6","Melodramatic Milgram","4.0.5","0","n","0","right","right","left","right","NA","904.0","1380","1316","904","NA","2","legacy","4","1024","2","48000","-16","experiment","4","even","4","374315","368145","369207","2061","309225","369208","319960","2067","307909","371410","373411","370209","3448","373411","NA","Sternberg task","18","17270.0","23","1024"
"79","79","746","746","#3d3846","experiment","legacy","legacy","legacy","1","undefined","1","right","23","23","23","0","0","23","23","0","0","23","23","23","0","23","0","Sun Oct 22 14:14:44 2023","The main experiment item","False","Sternbergtask.osexp","C:\Users\User\Desktop","False","mono","False","18","no","white","no","yes","768","legacy","11","11","C:/Users/User/Desktop/subject-4.csv","legacy","8 9","Melodramatic Milgram","4.0.5","0","n","0","right","right","left","right","NA","643.0","1380","1316","643","NA","2","legacy","2","1024","2","48000","-16","experiment","4","even","5","380236","374321","375388","2061","309225","375390","319960","2067","307909","377592","379593","376391","3448","379593","NA","Sternberg task","19","17913.0","24","1024"
"76","76","762","762","#3d3846","experiment","legacy","legacy","legacy","0","undefined","0","right","24","24","24","0","0","24","24","0","0","24","24","24","0","24","0","Sun Oct 22 14:14:44 2023","The main experiment item","False","Sternbergtask.osexp","C:\Users\User\Desktop","False","mono","False","18","no","white","no","yes","768","legacy","12","11","C:/Users/User/Desktop/subject-4.csv","legacy","8 5 4 2 9 6","Melodramatic Milgram","4.0.5","0","n","0","left","right","left","left","NA","1154.0","1380","1316","1154","NA","2","legacy","6","1024","2","48000","-16","experiment","4","even","3","386675","380243","381316","2061","309225","381317","319960","2067","307909","383519","385521","382318","3448","385521","NA","Sternberg task","19","19067.0","25","1024"
"76","76","765","765","#3d3846","experiment","legacy","legacy","legacy","1","undefined","1","right","25","25","25","0","0","25","25","0","0","25","25","25","0","25","0","Sun Oct 22 14:14:44 2023","The main experiment item","False","Sternbergtask.osexp","C:\Users\User\Desktop","False","mono","False","18","no","white","no","yes","768","legacy","13","11","C:/Users/User/Desktop/subject-4.csv","legacy","1 6 4 3 9 7","Melodramatic Milgram","4.0.5","0","n","0","right","right","left","right","NA","846.0","1380","1316","846","NA","2","legacy","6","1024","2","48000","-16","experiment","4","even","8","392793","380243","387741","2061","309225","387743","386682","2067","307909","389945","391946","388744","3448","391946","NA","Sternberg task","20","19913.0","26","1024"
"77","77","771","771","#3d3846","experiment","legacy","legacy","legacy","1","undefined","1","right","26","26","26","0","0","26","26","0","0","26","26","26","0","26","0","Sun Oct 22 14:14:44 2023","The main experiment item","False","Sternbergtask.osexp","C:\Users\User\Desktop","False","mono","False","18","no","white","no","yes","768","legacy","14","11","C:/Users/User/Desktop/subject-4.csv","legacy","1 8 7","Melodramatic Milgram","4.0.5","0","n","0","right","right","left","right","NA","915.0","1380","1316","915","NA","2","legacy","3","1024","2","48000","-16","experiment","4","even","4","398983","392799","393863","2061","309225","393864","386682","2067","307909","396066","398067","394865","3448","398067","NA","Sternberg task","21","20828.0","27","1024"
"78","78","778","778","#3d3846","experiment","legacy","legacy","legacy","1","undefined","1","left","27","27","27","0","0","27","27","0","0","27","27","27","0","27","0","Sun Oct 22 14:14:44 2023","The main experiment item","False","Sternbergtask.osexp","C:\Users\User\Desktop","False","mono","False","18","no","white","no","yes","768","legacy","15","11","C:/Users/User/Desktop/subject-4.csv","legacy","2 8 5 1","Melodramatic Milgram","4.0.5","4","y","0","left","right","left","left","NA","958.0","1380","1316","958","NA","2","legacy","4","1024","2","48000","-16","experiment","4","even","1","405207","398985","400044","2061","309225","400045","386682","2067","307909","402247","404248","401046","3448","404248","NA","Sternberg task","22","21786.0","28","1024"
"79","79","776","776","#3d3846","experiment","legacy","legacy","legacy","1","undefined","1","left","28","28","28","0","0","28","28","0","0","28","28","28","0","28","0","Sun Oct 22 14:14:44 2023","The main experiment item","False","Sternbergtask.osexp","C:\Users\User\Desktop","False","mono","False","18","no","white","no","yes","768","legacy","16","11","C:/Users/User/Desktop/subject-4.csv","legacy","6 1 2","Melodramatic Milgram","4.0.5","3","y","0","left","right","left","left","NA","741.0","1380","1316","741","NA","2","legacy","3","1024","2","48000","-16","experiment","4","even","2","411224","405213","406278","2061","309225","406279","386682","2067","307909","408481","410483","407280","3448","410483","NA","Sternberg task","23","22527.0","29","1024"
"80","80","772","772","#3d3846","experiment","legacy","legacy","legacy","1","undefined","1","right","29","29","29","0","0","29","29","0","0","29","29","29","0","29","0","Sun Oct 22 14:14:44 2023","The main experiment item","False","Sternbergtask.osexp","C:\Users\User\Desktop","False","mono","False","18","no","white","no","yes","768","legacy","17","11","C:/Users/User/Desktop/subject-4.csv","legacy","2 8 9 4 1","Melodramatic Milgram","4.0.5","0","n","0","right","right","left","right","NA","658.0","1380","1316","658","NA","2","legacy","5","1024","2","48000","-16","experiment","4","even","5","417160","411230","412298","2061","309225","412299","386682","2067","307909","414501","416502","413300","3448","416502","NA","Sternberg task","24","23185.0","30","1024"
"80","80","796","796","#3d3846","experiment","legacy","legacy","legacy","1","undefined","1","right","30","30","30","0","0","30","30","0","0","30","30","30","0","30","0","Sun Oct 22 14:14:44 2023","The main experiment item","False","Sternbergtask.osexp","C:\Users\User\Desktop","False","mono","False","18","no","white","no","yes","768","legacy","18","11","C:/Users/User/Desktop/subject-4.csv","legacy","8 2 1 4 5 9","Melodramatic Milgram","4.0.5","0","n","0","right","right","left","right","NA","1521.0","1380","1316","1521","NA","2","legacy","6","1024","2","48000","-16","experiment","4","even","7","423958","417167","418231","2061","309225","418232","386682","2067","307909","420435","422436","419234","3448","422436","NA","Sternberg task","25","24706.0","31","1024"
"81","81","792","792","#3d3846","experiment","legacy","legacy","legacy","1","undefined","1","right","31","31","31","0","0","31","31","0","0","31","31","31","0","31","0","Sun Oct 22 14:14:44 2023","The main experiment item","False","Sternbergtask.osexp","C:\Users\User\Desktop","False","mono","False","18","no","white","no","yes","768","legacy","19","11","C:/Users/User/Desktop/subject-4.csv","legacy","1 4 9 3","Melodramatic Milgram","4.0.5","0","n","0","right","right","left","right","NA","649.0","1380","1316","649","NA","2","legacy","4","1024","2","48000","-16","experiment","4","even","5","429896","423964","425042","2061","309225","425043","386682","2067","307909","427245","429246","426044","3448","429246","NA","Sternberg task","26","25355.0","32","1024"
"81","81","786","786","#3d3846","experiment","legacy","legacy","legacy","1","undefined","1","left","32","32","32","0","0","32","32","0","0","32","32","32","0","32","0","Sun Oct 22 14:14:44 2023","The main experiment item","False","Sternbergtask.osexp","C:\Users\User\Desktop","False","mono","False","18","no","white","no","yes","768","legacy","20","11","C:/Users/User/Desktop/subject-4.csv","legacy","6 7 9 3 1 2","Melodramatic Milgram","4.0.5","1","y","0","left","right","left","left","NA","610.0","1380","1316","610","NA","2","legacy","6","1024","2","48000","-16","experiment","4","even","6","435780","429902","430966","2061","309225","430967","386682","2067","307909","433169","435170","431968","3448","435170","NA","Sternberg task","27","25965.0","33","1024"
"79","79","785","785","#3d3846","experiment","legacy","legacy","legacy","0","undefined","0","left","33","33","33","0","0","33","33","0","0","33","33","33","0","33","0","Sun Oct 22 14:14:44 2023","The main experiment item","False","Sternbergtask.osexp","C:\Users\User\Desktop","False","mono","False","18","no","white","no","yes","768","legacy","21","11","C:/Users/User/Desktop/subject-4.csv","legacy","6 9 3 1","Melodramatic Milgram","4.0.5","4","y","0","right","right","left","right","NA","751.0","1380","1316","751","NA","2","legacy","4","1024","2","48000","-16","experiment","4","even","1","441803","435787","436847","2061","309225","436848","386682","2067","307909","439050","441051","437849","3448","441051","NA","Sternberg task","27","26716.0","34","1024"
"80","80","786","786","#3d3846","experiment","legacy","legacy","legacy","1","undefined","1","left","34","34","34","0","0","34","34","0","0","34","34","34","0","34","0","Sun Oct 22 14:14:44 2023","The main experiment item","False","Sternbergtask.osexp","C:\Users\User\Desktop","False","mono","False","18","no","white","no","yes","768","legacy","22","11","C:/Users/User/Desktop/subject-4.csv","legacy","2 4 8 5 1 3","Melodramatic Milgram","4.0.5","1","y","0","left","right","left","left","NA","813.0","1380","1316","813","NA","2","legacy","6","1024","2","48000","-16","experiment","4","even","2","447889","435787","442872","2061","309225","442873","441809","2067","307909","445075","447076","443874","3448","447076","NA","Sternberg task","28","27529.0","35","1024"
"80","80","792","792","#3d3846","experiment","legacy","legacy","legacy","1","undefined","1","right","35","35","35","0","0","35","35","0","0","35","35","35","0","35","0","Sun Oct 22 14:14:44 2023","The main experiment item","False","Sternbergtask.osexp","C:\Users\User\Desktop","False","mono","False","18","no","white","no","yes","768","legacy","23","11","C:/Users/User/Desktop/subject-4.csv","legacy","8 4 3 9","Melodramatic Milgram","4.0.5","0","n","0","right","right","left","right","NA","993.0","1380","1316","993","NA","2","legacy","4","1024","2","48000","-16","experiment","4","even","5","454157","447896","448960","2061","309225","448961","441809","2067","307909","451163","453164","449962","3448","453164","NA","Sternberg task","29","28522.0","36","1024"
"81","81","804","804","#3d3846","experiment","legacy","legacy","legacy","1","undefined","1","right","36","36","36","0","0","36","36","0","0","36","36","36","0","36","0","Sun Oct 22 14:14:44 2023","The main experiment item","False","Sternbergtask.osexp","C:\Users\User\Desktop","False","mono","False","18","no","white","no","yes","768","legacy","24","11","C:/Users/User/Desktop/subject-4.csv","legacy","9 5 3 2 8 6","Melodramatic Milgram","4.0.5","0","n","0","right","right","left","right","NA","1229.0","1380","1316","1229","NA","2","legacy","6","1024","2","48000","-16","experiment","4","even","7","460660","454164","455227","2061","309225","455228","441809","2067","307909","457430","459431","456229","3448","459431","NA","Sternberg task","30","29751.0","37","1024"
"81","81","817","817","#3d3846","experiment","legacy","legacy","legacy","1","undefined","1","right","37","37","37","0","0","37","37","0","0","37","37","37","0","37","0","Sun Oct 22 14:14:44 2023","The main experiment item","False","Sternbergtask.osexp","C:\Users\User\Desktop","False","mono","False","18","no","white","no","yes","768","legacy","25","11","C:/Users/User/Desktop/subject-4.csv","legacy","6 9 4 5 3 2","Melodramatic Milgram","4.0.5","0","n","0","right","right","left","right","NA","1314.0","1380","1316","1314","NA","2","legacy","6","1024","2","48000","-16","experiment","4","even","8","467250","460667","461731","2061","309225","461732","441809","2067","307909","463934","465936","462733","3448","465935","NA","Sternberg task","31","31065.0","38","1024"
"82","82","813","813","#3d3846","experiment","legacy","legacy","legacy","1","undefined","1","left","38","38","38","0","0","38","38","0","0","38","38","38","0","38","0","Sun Oct 22 14:14:44 2023","The main experiment item","False","Sternbergtask.osexp","C:\Users\User\Desktop","False","mono","False","18","no","white","no","yes","768","legacy","26","11","C:/Users/User/Desktop/subject-4.csv","legacy","9 1 6 7 8","Melodramatic Milgram","4.0.5","1","y","0","left","right","left","left","NA","642.0","1380","1316","642","NA","2","legacy","5","1024","2","48000","-16","experiment","4","even","9","473165","467256","468318","2061","309225","468319","441809","2067","307909","470521","472522","469320","3448","472522","NA","Sternberg task","32","31707.0","39","1024"
"82","82","812","812","#3d3846","experiment","legacy","legacy","legacy","1","undefined","1","left","39","39","39","0","0","39","39","0","0","39","39","39","0","39","0","Sun Oct 22 14:14:44 2023","The main experiment item","False","Sternbergtask.osexp","C:\Users\User\Desktop","False","mono","False","18","no","white","no","yes","768","legacy","27","11","C:/Users/User/Desktop/subject-4.csv","legacy","7 6","Melodramatic Milgram","4.0.5","2","y","0","left","right","left","left","NA","798.0","1380","1316","798","NA","2","legacy","2","1024","2","48000","-16","experiment","4","even","6","479244","473171","474241","2061","309225","474242","441809","2067","307909","476444","478446","475243","3448","478445","NA","Sternberg task","33","32505.0","40","1024"
"82","82","812","812","#3d3846","experiment","legacy","legacy","legacy","1","undefined","1","left","40","40","40","0","0","40","40","0","0","40","40","40","0","40","0","Sun Oct 22 14:14:44 2023","The main experiment item","False","Sternbergtask.osexp","C:\Users\User\Desktop","False","mono","False","18","no","white","no","yes","768","legacy","28","11","C:/Users/User/Desktop/subject-4.csv","legacy","2 5 4 8 7","Melodramatic Milgram","4.0.5","3","y","0","left","right","left","left","NA","788.0","1380","1316","788","NA","2","legacy","5","1024","2","48000","-16","experiment","4","even","4","485307","479251","480315","2061","309225","480316","441809","2067","307909","482518","484519","481317","3448","484519","NA","Sternberg task","34","33293.0","41","1024"
"83","83","810","810","#3d3846","experiment","legacy","legacy","legacy","1","undefined","1","right","41","41","41","0","0","41","41","0","0","41","41","41","0","41","0","Sun Oct 22 14:14:44 2023","The main experiment item","False","Sternbergtask.osexp","C:\Users\User\Desktop","False","mono","False","18","no","white","no","yes","768","legacy","29","11","C:/Users/User/Desktop/subject-4.csv","legacy","6 2 9 3 8 4","Melodramatic Milgram","4.0.5","0","n","0","right","right","left","right","NA","732.0","1380","1316","732","NA","2","legacy","6","1024","2","48000","-16","experiment","4","even","1","491315","485314","486377","2061","309225","486378","441809","2067","307909","488580","490582","487379","3448","490582","NA","Sternberg task","35","34025.0","42","1024"
"83","83","811","811","#3d3846","experiment","legacy","legacy","legacy","1","undefined","1","right","42","42","42","0","0","42","42","0","0","42","42","42","0","42","0","Sun Oct 22 14:14:44 2023","The main experiment item","False","Sternbergtask.osexp","C:\Users\User\Desktop","False","mono","False","18","no","white","no","yes","768","legacy","30","11","C:/Users/User/Desktop/subject-4.csv","legacy","2 8 9","Melodramatic Milgram","4.0.5","0","n","0","right","right","left","right","NA","875.0","1380","1316","875","NA","2","legacy","3","1024","2","48000","-16","experiment","4","even","6","497465","491321","492384","2061","309225","492386","441809","2067","307909","494588","496589","493387","3448","496589","NA","Sternberg task","36","34900.0","43","1024"
"84","84","808","808","#3d3846","experiment","legacy","legacy","legacy","1","undefined","1","right","43","43","43","0","0","43","43","0","0","43","43","43","0","43","0","Sun Oct 22 14:14:44 2023","The main experiment item","False","Sternbergtask.osexp","C:\Users\User\Desktop","False","mono","False","18","no","white","no","yes","768","legacy","31","11","C:/Users/User/Desktop/subject-4.csv","legacy","4 8 1 2","Melodramatic Milgram","4.0.5","0","n","0","right","right","left","right","NA","675.0","1380","1316","675","NA","2","legacy","4","1024","2","48000","-16","experiment","4","even","7","503414","497471","498534","2061","309225","498535","441809","2067","307909","500737","502738","499536","3448","502738","NA","Sternberg task","37","35575.0","44","1024"
"84","84","807","807","#3d3846","experiment","legacy","legacy","legacy","1","undefined","1","right","44","44","44","0","0","44","44","0","0","44","44","44","0","44","0","Sun Oct 22 14:14:44 2023","The main experiment item","False","Sternbergtask.osexp","C:\Users\User\Desktop","False","mono","False","18","no","white","no","yes","768","legacy","32","11","C:/Users/User/Desktop/subject-4.csv","legacy","7 1 8 4 9 3","Melodramatic Milgram","4.0.5","0","n","0","right","right","left","right","NA","755.0","1380","1316","755","NA","2","legacy","6","1024","2","48000","-16","experiment","4","even","6","509444","503420","504484","2061","309225","504485","441809","2067","307909","506687","508688","505486","3448","508688","NA","Sternberg task","38","36330.0","45","1024"
"84","84","822","822","#3d3846","experiment","legacy","legacy","legacy","1","undefined","1","left","45","45","45","0","0","45","45","0","0","45","45","45","0","45","0","Sun Oct 22 14:14:44 2023","The main experiment item","False","Sternbergtask.osexp","C:\Users\User\Desktop","False","mono","False","18","no","white","no","yes","768","legacy","33","11","C:/Users/User/Desktop/subject-4.csv","legacy","3 2 1 4 7","Melodramatic Milgram","4.0.5","2","y","0","left","right","left","left","NA","1518.0","1380","1316","1518","NA","2","legacy","5","1024","2","48000","-16","experiment","4","even","2","516241","509450","510519","2061","309225","510520","441809","2067","307909","512722","514723","511521","3448","514723","NA","Sternberg task","39","37848.0","46","1024"
"85","85","822","822","#3d3846","experiment","legacy","legacy","legacy","1","undefined","1","right","46","46","46","0","0","46","46","0","0","46","46","46","0","46","0","Sun Oct 22 14:14:44 2023","The main experiment item","False","Sternbergtask.osexp","C:\Users\User\Desktop","False","mono","False","18","no","white","no","yes","768","legacy","34","11","C:/Users/User/Desktop/subject-4.csv","legacy","3 4 2","Melodramatic Milgram","4.0.5","0","n","0","right","right","left","right","NA","801.0","1380","1316","801","NA","2","legacy","3","1024","2","48000","-16","experiment","4","even","5","522321","516248","517316","2061","309225","517317","441809","2067","307909","519519","521520","518318","3448","521520","NA","Sternberg task","40","38649.0","47","1024"
"85","85","826","826","#3d3846","experiment","legacy","legacy","legacy","1","undefined","1","left","47","47","47","0","0","47","47","0","0","47","47","47","0","47","0","Sun Oct 22 14:14:44 2023","The main experiment item","False","Sternbergtask.osexp","C:\Users\User\Desktop","False","mono","False","18","no","white","no","yes","768","legacy","35","11","C:/Users/User/Desktop/subject-4.csv","legacy","9 8 4","Melodramatic Milgram","4.0.5","1","y","0","left","right","left","left","NA","1024.0","1380","1316","1024","NA","2","legacy","3","1024","2","48000","-16","experiment","4","even","9","528625","522327","523396","2061","309225","523397","441809","2067","307909","525599","527600","524398","3448","527600","NA","Sternberg task","41","39673.0","48","1024"
"85","85","828","828","#3d3846","experiment","legacy","legacy","legacy","1","undefined","1","left","48","48","48","0","0","48","48","0","0","48","48","48","0","48","0","Sun Oct 22 14:14:44 2023","The main experiment item","False","Sternbergtask.osexp","C:\Users\User\Desktop","False","mono","False","18","no","white","no","yes","768","legacy","36","11","C:/Users/User/Desktop/subject-4.csv","legacy","4 1 8 7 5","Melodramatic Milgram","4.0.5","3","y","0","left","right","left","left","NA","917.0","1380","1316","917","NA","2","legacy","5","1024","2","48000","-16","experiment","4","even","8","534815","528628","529694","2061","309225","529695","441809","2067","307909","531897","533898","530696","3448","533898","NA","Sternberg task","42","40590.0","49","1024"
"86","86","823","823","#3d3846","experiment","legacy","legacy","legacy","1","undefined","1","left","49","49","49","0","0","49","49","0","0","49","49","49","0","49","0","Sun Oct 22 14:14:44 2023","The main experiment item","False","Sternbergtask.osexp","C:\Users\User\Desktop","False","mono","False","18","no","white","no","yes","768","legacy","37","11","C:/Users/User/Desktop/subject-4.csv","legacy","8 9 5 6 7","Melodramatic Milgram","4.0.5","1","y","0","left","right","left","left","NA","592.0","1380","1316","592","NA","2","legacy","5","1024","2","48000","-16","experiment","4","even","8","540681","534822","535884","2061","309225","535885","441809","2067","307909","538087","540088","536886","3448","540088","NA","Sternberg task","43","41182.0","50","1024"
"86","86","823","823","#3d3846","experiment","legacy","legacy","legacy","1","undefined","1","left","50","50","50","0","0","50","50","0","0","50","50","50","0","50","0","Sun Oct 22 14:14:44 2023","The main experiment item","False","Sternbergtask.osexp","C:\Users\User\Desktop","False","mono","False","18","no","white","no","yes","768","legacy","38","11","C:/Users/User/Desktop/subject-4.csv","legacy","1 4 9 3 2 5","Melodramatic Milgram","4.0.5","3","y","0","left","right","left","left","NA","797.0","1380","1316","797","NA","2","legacy","6","1024","2","48000","-16","experiment","4","even","9","546753","540687","541751","2061","309225","541752","441809","2067","307909","543954","545955","542753","3448","545955","NA","Sternberg task","44","41979.0","51","1024"
"86","86","816","816","#3d3846","experiment","legacy","legacy","legacy","1","undefined","1","left","51","51","51","0","0","51","51","0","0","51","51","51","0","51","0","Sun Oct 22 14:14:44 2023","The main experiment item","False","Sternbergtask.osexp","C:\Users\User\Desktop","False","mono","False","18","no","white","no","yes","768","legacy","39","11","C:/Users/User/Desktop/subject-4.csv","legacy","7","Melodramatic Milgram","4.0.5","1","y","0","left","right","left","left","NA","492.0","1380","1316","492","NA","2","legacy","1","1024","2","48000","-16","experiment","4","even","7","552517","546759","547820","2061","309225","547821","441809","2067","307909","550023","552024","548822","3448","552024","NA","Sternberg task","45","42471.0","52","1024"
"86","86","812","812","#3d3846","experiment","legacy","legacy","legacy","1","undefined","1","left","52","52","52","0","0","52","52","0","0","52","52","52","0","52","0","Sun Oct 22 14:14:44 2023","The main experiment item","False","Sternbergtask.osexp","C:\Users\User\Desktop","False","mono","False","18","no","white","no","yes","768","legacy","40","11","C:/Users/User/Desktop/subject-4.csv","legacy","9 5 8 1","Melodramatic Milgram","4.0.5","2","y","0","left","right","left","left","NA","596.0","1380","1316","596","NA","2","legacy","4","1024","2","48000","-16","experiment","4","even","5","558394","552523","553593","2061","309225","553594","441809","2067","307909","555796","557797","554595","3448","557797","NA","Sternberg task","46","43067.0","53","1024"
"87","87","812","812","#3d3846","experiment","legacy","legacy","legacy","1","undefined","1","right","53","53","53","0","0","53","53","0","0","53","53","53","0","53","0","Sun Oct 22 14:14:44 2023","The main experiment item","False","Sternbergtask.osexp","C:\Users\User\Desktop","False","mono","False","18","no","white","no","yes","768","legacy","41","11","C:/Users/User/Desktop/subject-4.csv","legacy","6 8 4","Melodramatic Milgram","4.0.5","0","n","0","right","right","left","right","NA","833.0","1380","1316","833","NA","2","legacy","3","1024","2","48000","-16","experiment","4","even","1","564504","558400","559466","2061","309225","559468","441809","2067","307909","561670","563671","560469","3448","563671","NA","Sternberg task","47","43900.0","54","1024"
"87","87","810","810","#3d3846","experiment","legacy","legacy","legacy","1","undefined","1","right","54","54","54","0","0","54","54","0","0","54","54","54","0","54","0","Sun Oct 22 14:14:44 2023","The main experiment item","False","Sternbergtask.osexp","C:\Users\User\Desktop","False","mono","False","18","no","white","no","yes","768","legacy","42","11","C:/Users/User/Desktop/subject-4.csv","legacy","7 9","Melodramatic Milgram","4.0.5","0","n","0","right","right","left","right","NA","657.0","1380","1316","657","NA","2","legacy","2","1024","2","48000","-16","experiment","4","even","1","570443","564510","565581","2061","309225","565582","441809","2067","307909","567784","569785","566583","3448","569785","NA","Sternberg task","48","44557.0","55","1024"
"87","87","809","809","#3d3846","experiment","legacy","legacy","legacy","1","undefined","1","left","55","55","55","0","0","55","55","0","0","55","55","55","0","55","0","Sun Oct 22 14:14:44 2023","The main experiment item","False","Sternbergtask.osexp","C:\Users\User\Desktop","False","mono","False","18","no","white","no","yes","768","legacy","43","11","C:/Users/User/Desktop/subject-4.csv","legacy","3 5 9 6 2 4","Melodramatic Milgram","4.0.5","1","y","0","left","right","left","left","NA","771.0","1380","1316","771","NA","2","legacy","6","1024","2","48000","-16","experiment","4","even","3","576497","570449","571520","2061","309225","571521","441809","2067","307909","573723","575725","572522","3448","575724","NA","Sternberg task","49","45328.0","56","1024"
"87","87","804","804","#3d3846","experiment","legacy","legacy","legacy","1","undefined","1","left","56","56","56","0","0","56","56","0","0","56","56","56","0","56","0","Sun Oct 22 14:14:44 2023","The main experiment item","False","Sternbergtask.osexp","C:\Users\User\Desktop","False","mono","False","18","no","white","no","yes","768","legacy","44","11","C:/Users/User/Desktop/subject-4.csv","legacy","2 3 7 4","Melodramatic Milgram","4.0.5","1","y","0","left","right","left","left","NA","512.0","1380","1316","512","NA","2","legacy","4","1024","2","48000","-16","experiment","4","even","2","582286","576504","577568","2061","309225","577570","441809","2067","307909","579772","581773","578571","3448","581773","NA","Sternberg task","50","45840.0","57","1024"
"87","87","804","804","#3d3846","experiment","legacy","legacy","legacy","1","undefined","1","left","57","57","57","0","0","57","57","0","0","57","57","57","0","57","0","Sun Oct 22 14:14:44 2023","The main experiment item","False","Sternbergtask.osexp","C:\Users\User\Desktop","False","mono","False","18","no","white","no","yes","768","legacy","45","11","C:/Users/User/Desktop/subject-4.csv","legacy","2 4 6 9","Melodramatic Milgram","4.0.5","3","y","0","left","right","left","left","NA","806.0","1380","1316","806","NA","2","legacy","4","1024","2","48000","-16","experiment","4","even","6","588368","582292","583356","2061","309225","583357","441809","2067","307909","585559","587561","584358","3448","587561","NA","Sternberg task","51","46646.0","58","1024"
"86","86","809","809","#3d3846","experiment","legacy","legacy","legacy","0","undefined","0","right","58","58","58","0","0","58","58","0","0","58","58","58","0","58","0","Sun Oct 22 14:14:44 2023","The main experiment item","False","Sternbergtask.osexp","C:\Users\User\Desktop","False","mono","False","18","no","white","no","yes","768","legacy","46","11","C:/Users/User/Desktop/subject-4.csv","legacy","7 4 2 8 1 9","Melodramatic Milgram","4.0.5","0","n","0","left","right","left","left","NA","1100.0","1380","1316","1100","NA","2","legacy","6","1024","2","48000","-16","experiment","4","even","5","594741","588374","589437","2061","309225","589438","441809","2067","307909","591640","593641","590439","3448","593641","NA","Sternberg task","51","47746.0","59","1024"
"86","86","805","805","#3d3846","experiment","legacy","legacy","legacy","1","undefined","1","right","59","59","59","0","0","59","59","0","0","59","59","59","0","59","0","Sun Oct 22 14:14:44 2023","The main experiment item","False","Sternbergtask.osexp","C:\Users\User\Desktop","False","mono","False","18","no","white","no","yes","768","legacy","47","11","C:/Users/User/Desktop/subject-4.csv","legacy","6 9 5","Melodramatic Milgram","4.0.5","0","n","0","right","right","left","right","NA","579.0","1380","1316","579","NA","2","legacy","3","1024","2","48000","-16","experiment","4","even","8","600592","588374","595810","2061","309225","595811","594748","2067","307909","598012","600013","596811","3448","600013","NA","Sternberg task","52","48325.0","60","1024"
"86","86","800","800","#3d3846","experiment","legacy","legacy","legacy","1","undefined","1","left","60","60","60","0","0","60","60","0","0","60","60","60","0","60","0","Sun Oct 22 14:14:44 2023","The main experiment item","False","Sternbergtask.osexp","C:\Users\User\Desktop","False","mono","False","18","no","white","no","yes","768","legacy","48","11","C:/Users/User/Desktop/subject-4.csv","legacy","9 6 2 4 1","Melodramatic Milgram","4.0.5","4","y","0","left","right","left","left","NA","496.0","1380","1316","496","NA","2","legacy","5","1024","2","48000","-16","experiment","4","even","4","606365","600599","601665","2061","309225","601666","594748","2067","307909","603868","605869","602667","3448","605869","NA","Sternberg task","53","48821.0","61","1024"
"85","85","817","817","#3d3846","experiment","legacy","legacy","legacy","0","undefined","0","right","61","61","61","0","0","61","61","0","0","61","61","61","0","61","0","Sun Oct 22 14:14:44 2023","The main experiment item","False","Sternbergtask.osexp","C:\Users\User\Desktop","False","mono","False","18","no","white","no","yes","768","legacy","49","11","C:/Users/User/Desktop/subject-4.csv","legacy","8 4 3 5","Melodramatic Milgram","4.0.5","0","n","0","left","right","left","left","NA","1874.0","1380","1316","1874","NA","2","legacy","4","1024","2","48000","-16","experiment","4","even","6","613520","606372","607439","2061","309225","607440","594748","2067","307909","609643","611645","608442","3448","611644","NA","Sternberg task","53","50695.0","62","1024"
"85","85","810","810","#3d3846","experiment","legacy","legacy","legacy","1","undefined","1","left","62","62","62","0","0","62","62","0","0","62","62","62","0","62","0","Sun Oct 22 14:14:44 2023","The main experiment item","False","Sternbergtask.osexp","C:\Users\User\Desktop","False","mono","False","18","no","white","no","yes","768","legacy","50","11","C:/Users/User/Desktop/subject-4.csv","legacy","4 9 7 8 5 3","Melodramatic Milgram","4.0.5","4","y","0","left","right","left","left","NA","360.0","1380","1316","360","NA","2","legacy","6","1024","2","48000","-16","experiment","4","even","8","619145","606372","614580","2061","309225","614581","613526","2067","307909","616783","618784","615582","3448","618784","NA","Sternberg task","54","51055.0","63","1024"
"84","84","817","817","#3d3846","experiment","legacy","legacy","legacy","0","undefined","0","right","63","63","63","0","0","63","63","0","0","63","63","63","0","63","0","Sun Oct 22 14:14:44 2023","The main experiment item","False","Sternbergtask.osexp","C:\Users\User\Desktop","False","mono","False","18","no","white","no","yes","768","legacy","51","11","C:/Users/User/Desktop/subject-4.csv","legacy","1 5 3 2 8","Melodramatic Milgram","4.0.5","0","n","0","left","right","left","left","NA","1233.0","1380","1316","1233","NA","2","legacy","5","1024","2","48000","-16","experiment","4","even","4","625654","619151","620215","2061","309225","620216","613526","2067","307909","622418","624420","621217","3448","624420","NA","Sternberg task","54","52288.0","64","1024"
"84","84","816","816","#3d3846","experiment","legacy","legacy","legacy","1","undefined","1","left","64","64","64","0","0","64","64","0","0","64","64","64","0","64","0","Sun Oct 22 14:14:44 2023","The main experiment item","False","Sternbergtask.osexp","C:\Users\User\Desktop","False","mono","False","18","no","white","no","yes","768","legacy","52","11","C:/Users/User/Desktop/subject-4.csv","legacy","8 1 6","Melodramatic Milgram","4.0.5","3","y","0","left","right","left","left","NA","780.0","1380","1316","780","NA","2","legacy","3","1024","2","48000","-16","experiment","4","even","6","631711","619151","626726","2061","309225","626727","625660","2067","307909","628929","630930","627728","3448","630930","NA","Sternberg task","55","53068.0","65","1024"
"84","84","812","812","#3d3846","experiment","legacy","legacy","legacy","1","undefined","1","left","65","65","65","0","0","65","65","0","0","65","65","65","0","65","0","Sun Oct 22 14:14:44 2023","The main experiment item","False","Sternbergtask.osexp","C:\Users\User\Desktop","False","mono","False","18","no","white","no","yes","768","legacy","53","11","C:/Users/User/Desktop/subject-4.csv","legacy","4 6 5 8","Melodramatic Milgram","4.0.5","1","y","0","left","right","left","left","NA","556.0","1380","1316","556","NA","2","legacy","4","1024","2","48000","-16","experiment","4","even","4","637543","631717","632783","2061","309225","632784","625660","2067","307909","634986","636987","633785","3448","636987","NA","Sternberg task","56","53624.0","66","1024"
"83","83","813","813","#3d3846","experiment","legacy","legacy","legacy","0","undefined","0","left","66","66","66","0","0","66","66","0","0","66","66","66","0","66","0","Sun Oct 22 14:14:44 2023","The main experiment item","False","Sternbergtask.osexp","C:\Users\User\Desktop","False","mono","False","18","no","white","no","yes","768","legacy","54","11","C:/Users/User/Desktop/subject-4.csv","legacy","8 5 3 7 4 6","Melodramatic Milgram","4.0.5","6","y","0","right","right","left","right","NA","883.0","1380","1316","883","NA","2","legacy","6","1024","2","48000","-16","experiment","4","even","6","643697","637550","638610","2061","309225","638611","625660","2067","307909","640813","642814","639612","3448","642814","NA","Sternberg task","56","54507.0","67","1024"
"83","83","810","810","#3d3846","experiment","legacy","legacy","legacy","1","undefined","1","left","67","67","67","0","0","67","67","0","0","67","67","67","0","67","0","Sun Oct 22 14:14:44 2023","The main experiment item","False","Sternbergtask.osexp","C:\Users\User\Desktop","False","mono","False","18","no","white","no","yes","768","legacy","55","11","C:/Users/User/Desktop/subject-4.csv","legacy","6 5","Melodramatic Milgram","4.0.5","2","y","0","left","right","left","left","NA","602.0","1380","1316","602","NA","2","legacy","2","1024","2","48000","-16","experiment","4","even","5","649575","637550","644768","2061","309225","644769","643704","2067","307909","646971","648972","645770","3448","648972","NA","Sternberg task","57","55109.0","68","1024"
"84","84","813","813","#3d3846","experiment","legacy","legacy","legacy","1","undefined","1","left","68","68","68","0","0","68","68","0","0","68","68","68","0","68","0","Sun Oct 22 14:14:44 2023","The main experiment item","False","Sternbergtask.osexp","C:\Users\User\Desktop","False","mono","False","18","no","white","no","yes","768","legacy","56","11","C:/Users/User/Desktop/subject-4.csv","legacy","7 8 4 6 9 5","Melodramatic Milgram","4.0.5","4","y","0","left","right","left","left","NA","1023.0","1380","1316","1023","NA","2","legacy","6","1024","2","48000","-16","experiment","4","even","6","655871","649581","650644","2061","309225","650645","643704","2067","307909","652847","654848","651646","3448","654848","NA","Sternberg task","58","56132.0","69","1024"
"84","84","812","812","#3d3846","experiment","legacy","legacy","legacy","1","undefined","1","left","69","69","69","0","0","69","69","0","0","69","69","69","0","69","0","Sun Oct 22 14:14:44 2023","The main experiment item","False","Sternbergtask.osexp","C:\Users\User\Desktop","False","mono","False","18","no","white","no","yes","768","legacy","57","11","C:/Users/User/Desktop/subject-4.csv","legacy","9 3 8 2 1 4","Melodramatic Milgram","4.0.5","3","y","0","left","right","left","left","NA","709.0","1380","1316","709","NA","2","legacy","6","1024","2","48000","-16","experiment","4","even","8","661862","655878","656948","2061","309225","656949","643704","2067","307909","659151","661152","657950","3448","661152","NA","Sternberg task","59","56841.0","70","1024"
"84","84","810","810","#3d3846","experiment","legacy","legacy","legacy","1","undefined","1","right","70","70","70","0","0","70","70","0","0","70","70","70","0","70","0","Sun Oct 22 14:14:44 2023","The main experiment item","False","Sternbergtask.osexp","C:\Users\User\Desktop","False","mono","False","18","no","white","no","yes","768","legacy","58","11","C:/Users/User/Desktop/subject-4.csv","legacy","3 4 9 6 7 8","Melodramatic Milgram","4.0.5","0","n","0","right","right","left","right","NA","712.0","1380","1316","712","NA","2","legacy","6","1024","2","48000","-16","experiment","4","even","2","667851","661868","662935","2061","309225","662936","643704","2067","307909","665138","667139","663937","3448","667139","NA","Sternberg task","60","57553.0","71","1024"
"84","84","810","810","#3d3846","experiment","legacy","legacy","legacy","1","undefined","1","right","71","71","71","0","0","71","71","0","0","71","71","71","0","71","0","Sun Oct 22 14:14:44 2023","The main experiment item","False","Sternbergtask.osexp","C:\Users\User\Desktop","False","mono","False","18","no","white","no","yes","768","legacy","59","11","C:/Users/User/Desktop/subject-4.csv","legacy","1 7 5 2 9","Melodramatic Milgram","4.0.5","0","n","0","right","right","left","right","NA","803.0","1380","1316","803","NA","2","legacy","5","1024","2","48000","-16","experiment","4","even","3","673931","667857","668923","2061","309225","668924","643704","2067","307909","671126","673127","669925","3448","673127","NA","Sternberg task","61","58356.0","72","1024"
"84","84","812","812","#3d3846","experiment","legacy","legacy","legacy","1","undefined","1","left","72","72","72","0","0","72","72","0","0","72","72","72","0","72","0","Sun Oct 22 14:14:44 2023","The main experiment item","False","Sternbergtask.osexp","C:\Users\User\Desktop","False","mono","False","18","no","white","no","yes","768","legacy","60","11","C:/Users/User/Desktop/subject-4.csv","legacy","9 3 1 2 5","Melodramatic Milgram","4.0.5","4","y","0","left","right","left","left","NA","991.0","1380","1316","991","NA","2","legacy","5","1024","2","48000","-16","experiment","4","even","2","680197","673937","675003","2061","309225","675003","643704","2067","307909","677205","679206","676004","3448","679206","NA","Sternberg task","62","59347.0","73","1024"
"85","85","812","812","#3d3846","experiment","legacy","legacy","legacy","1","undefined","1","right","73","73","73","0","0","73","73","0","0","73","73","73","0","73","0","Sun Oct 22 14:14:44 2023","The main experiment item","False","Sternbergtask.osexp","C:\Users\User\Desktop","False","mono","False","18","no","white","no","yes","768","legacy","61","11","C:/Users/User/Desktop/subject-4.csv","legacy","3 9 8 1 6 4","Melodramatic Milgram","4.0.5","0","n","0","right","right","left","right","NA","808.0","1380","1316","808","NA","2","legacy","6","1024","2","48000","-16","experiment","4","even","7","686275","680204","681263","2061","309225","681264","643704","2067","307909","683466","685467","682265","3448","685467","NA","Sternberg task","63","60155.0","74","1024"
"85","85","814","814","#3d3846","experiment","legacy","legacy","legacy","1","undefined","1","left","74","74","74","0","0","74","74","0","0","74","74","74","0","74","0","Sun Oct 22 14:14:44 2023","The main experiment item","False","Sternbergtask.osexp","C:\Users\User\Desktop","False","mono","False","18","no","white","no","yes","768","legacy","62","11","C:/Users/User/Desktop/subject-4.csv","legacy","3 4 9 6 2 9","Melodramatic Milgram","4.0.5","5","y","0","left","right","left","left","NA","965.0","1380","1316","965","NA","2","legacy","6","1024","2","48000","-16","experiment","4","even","2","692516","686282","687346","2061","309225","687347","643704","2067","307909","689549","691550","688348","3448","691550","NA","Sternberg task","64","61120.0","75","1024"
"85","85","816","816","#3d3846","experiment","legacy","legacy","legacy","1","undefined","1","right","75","75","75","0","0","75","75","0","0","75","75","75","0","75","0","Sun Oct 22 14:14:44 2023","The main experiment item","False","Sternbergtask.osexp","C:\Users\User\Desktop","False","mono","False","18","no","white","no","yes","768","legacy","63","11","C:/Users/User/Desktop/subject-4.csv","legacy","1 6 4","Melodramatic Milgram","4.0.5","0","n","0","right","right","left","right","NA","943.0","1380","1316","943","NA","2","legacy","3","1024","2","48000","-16","experiment","4","even","7","698703","692521","693555","2061","309225","693556","643704","2067","307909","695758","697759","694557","3448","697759","NA","Sternberg task","65","62063.0","76","1024"
"85","85","814","814","#3d3846","experiment","legacy","legacy","legacy","1","undefined","1","right","76","76","76","0","0","76","76","0","0","76","76","76","0","76","0","Sun Oct 22 14:14:44 2023","The main experiment item","False","Sternbergtask.osexp","C:\Users\User\Desktop","False","mono","False","18","no","white","no","yes","768","legacy","64","11","C:/Users/User/Desktop/subject-4.csv","legacy","1 7 5 2","Melodramatic Milgram","4.0.5","0","n","0","right","right","left","right","NA","662.0","1380","1316","662","NA","2","legacy","4","1024","2","48000","-16","experiment","4","even","3","704644","698709","699778","2061","309225","699779","643704","2067","307909","701981","703982","700780","3448","703982","NA","Sternberg task","66","62725.0","77","1024"
"85","85","814","814","#3d3846","experiment","legacy","legacy","legacy","1","undefined","1","right","77","77","77","0","0","77","77","0","0","77","77","77","0","77","0","Sun Oct 22 14:14:44 2023","The main experiment item","False","Sternbergtask.osexp","C:\Users\User\Desktop","False","mono","False","18","no","white","no","yes","768","legacy","65","11","C:/Users/User/Desktop/subject-4.csv","legacy","8 6 3 4 7","Melodramatic Milgram","4.0.5","0","n","0","right","right","left","right","NA","784.0","1380","1316","784","NA","2","legacy","5","1024","2","48000","-16","experiment","4","even","1","710709","704651","705719","2061","309225","705720","643704","2067","307909","707922","709924","706721","3448","709924","NA","Sternberg task","67","63509.0","78","1024"
"86","86","816","816","#3d3846","experiment","legacy","legacy","legacy","1","undefined","1","left","78","78","78","0","0","78","78","0","0","78","78","78","0","78","0","Sun Oct 22 14:14:44 2023","The main experiment item","False","Sternbergtask.osexp","C:\Users\User\Desktop","False","mono","False","18","no","white","no","yes","768","legacy","66","11","C:/Users/User/Desktop/subject-4.csv","legacy","5 7 8 2 3 8","Melodramatic Milgram","4.0.5","5","y","0","left","right","left","left","NA","972.0","1380","1316","972","NA","2","legacy","6","1024","2","48000","-16","experiment","4","even","3","716958","710715","711780","2061","309225","711781","643704","2067","307909","713984","715985","712782","3448","715985","NA","Sternberg task","68","64481.0","79","1024"
"86","86","812","812","#3d3846","experiment","legacy","legacy","legacy","1","undefined","1","left","79","79","79","0","0","79","79","0","0","79","79","79","0","79","0","Sun Oct 22 14:14:44 2023","The main experiment item","False","Sternbergtask.osexp","C:\Users\User\Desktop","False","mono","False","18","no","white","no","yes","768","legacy","67","11","C:/Users/User/Desktop/subject-4.csv","legacy","6 9 7 4 5 1","Melodramatic Milgram","4.0.5","2","y","0","left","right","left","left","NA","542.0","1380","1316","542","NA","2","legacy","6","1024","2","48000","-16","experiment","4","even","9","722778","716965","718030","2061","309225","718032","643704","2067","307909","720234","722235","719033","3448","722235","NA","Sternberg task","69","65023.0","80","1024"
"86","86","813","813","#3d3846","experiment","legacy","legacy","legacy","1","undefined","1","right","80","80","80","0","0","80","80","0","0","80","80","80","0","80","0","Sun Oct 22 14:14:44 2023","The main experiment item","False","Sternbergtask.osexp","C:\Users\User\Desktop","False","mono","False","18","no","white","no","yes","768","legacy","68","11","C:/Users/User/Desktop/subject-4.csv","legacy","6 3 1 7 9 8","Melodramatic Milgram","4.0.5","0","n","0","right","right","left","right","NA","867.0","1380","1316","867","NA","2","legacy","6","1024","2","48000","-16","experiment","4","even","4","728928","722785","723854","2061","309225","723855","643704","2067","307909","726058","728060","724857","3448","728060","NA","Sternberg task","70","65890.0","81","1024"
"86","86","821","821","#3d3846","experiment","legacy","legacy","legacy","1","undefined","1","right","81","81","81","0","0","81","81","0","0","81","81","81","0","81","0","Sun Oct 22 14:14:44 2023","The main experiment item","False","Sternbergtask.osexp","C:\Users\User\Desktop","False","mono","False","18","no","white","no","yes","768","legacy","69","11","C:/Users/User/Desktop/subject-4.csv","legacy","1 4 9 2 5","Melodramatic Milgram","4.0.5","0","n","0","right","right","left","right","NA","1475.0","1380","1316","1475","NA","2","legacy","5","1024","2","48000","-16","experiment","4","even","7","735677","728935","729997","2061","309225","729998","643704","2067","307909","732200","734201","730999","3448","734201","NA","Sternberg task","71","67365.0","82","1024"
"86","86","816","816","#3d3846","experiment","legacy","legacy","legacy","1","undefined","1","left","82","82","82","0","0","82","82","0","0","82","82","82","0","82","0","Sun Oct 22 14:14:44 2023","The main experiment item","False","Sternbergtask.osexp","C:\Users\User\Desktop","False","mono","False","18","no","white","no","yes","768","legacy","70","11","C:/Users/User/Desktop/subject-4.csv","legacy","4","Melodramatic Milgram","4.0.5","1","y","0","left","right","left","left","NA","402.0","1380","1316","402","NA","2","legacy","1","1024","2","48000","-16","experiment","4","even","4","741351","735683","736744","2061","309225","736745","643704","2067","307909","738947","740948","737746","3448","740948","NA","Sternberg task","72","67767.0","83","1024"
"86","86","815","815","#3d3846","experiment","legacy","legacy","legacy","1","undefined","1","right","83","83","83","0","0","83","83","0","0","83","83","83","0","83","0","Sun Oct 22 14:14:44 2023","The main experiment item","False","Sternbergtask.osexp","C:\Users\User\Desktop","False","mono","False","18","no","white","no","yes","768","legacy","71","11","C:/Users/User/Desktop/subject-4.csv","legacy","2 8 6 3 1","Melodramatic Milgram","4.0.5","0","n","0","right","right","left","right","NA","743.0","1380","1316","743","NA","2","legacy","5","1024","2","48000","-16","experiment","4","even","7","747369","741353","742421","2061","309225","742422","643704","2067","307909","744624","746625","743423","3448","746625","NA","Sternberg task","73","68510.0","84","1024"
"87","87","814","814","#3d3846","experiment","legacy","legacy","legacy","1","undefined","1","right","84","84","84","0","0","84","84","0","0","84","84","84","0","84","0","Sun Oct 22 14:14:44 2023","The main experiment item","False","Sternbergtask.osexp","C:\Users\User\Desktop","False","mono","False","18","no","white","no","yes","768","legacy","72","11","C:/Users/User/Desktop/subject-4.csv","legacy","1 3 2 6 9","Melodramatic Milgram","4.0.5","0","n","0","right","right","left","right","NA","692.0","1380","1316","692","NA","2","legacy","5","1024","2","48000","-16","experiment","4","even","5","753349","747375","748451","2061","309225","748453","643704","2067","307909","750655","752656","749454","3448","752656","NA","Sternberg task","74","69202.0","85","1024"
"87","87","810","810","#3d3846","experiment","legacy","legacy","legacy","1","undefined","1","left","85","85","85","0","0","85","85","0","0","85","85","85","0","85","0","Sun Oct 22 14:14:44 2023","The main experiment item","False","Sternbergtask.osexp","C:\Users\User\Desktop","False","mono","False","18","no","white","no","yes","768","legacy","73","11","C:/Users/User/Desktop/subject-4.csv","legacy","3 5 4 7","Melodramatic Milgram","4.0.5","1","y","0","left","right","left","left","NA","484.0","1380","1316","484","NA","2","legacy","4","1024","2","48000","-16","experiment","4","even","3","759107","753355","754419","2061","309225","754420","643704","2067","307909","756622","758623","755421","3448","758623","NA","Sternberg task","75","69686.0","86","1024"
"86","86","807","807","#3d3846","experiment","legacy","legacy","legacy","0","undefined","0","left","86","86","86","0","0","86","86","0","0","86","86","86","0","86","0","Sun Oct 22 14:14:44 2023","The main experiment item","False","Sternbergtask.osexp","C:\Users\User\Desktop","False","mono","False","18","no","white","no","yes","768","legacy","74","11","C:/Users/User/Desktop/subject-4.csv","legacy","4 7 6 8 2 3","Melodramatic Milgram","4.0.5","6","y","0","right","right","left","right","NA","603.0","1380","1316","603","NA","2","legacy","6","1024","2","48000","-16","experiment","4","even","3","764982","759114","760175","2061","309225","760176","643704","2067","307909","762378","764379","761177","3448","764379","NA","Sternberg task","75","70289.0","87","1024"
"86","86","806","806","#3d3846","experiment","legacy","legacy","legacy","1","undefined","1","right","87","87","87","0","0","87","87","0","0","87","87","87","0","87","0","Sun Oct 22 14:14:44 2023","The main experiment item","False","Sternbergtask.osexp","C:\Users\User\Desktop","False","mono","False","18","no","white","no","yes","768","legacy","75","11","C:/Users/User/Desktop/subject-4.csv","legacy","6 9 4 5 2","Melodramatic Milgram","4.0.5","0","n","0","right","right","left","right","NA","716.0","1380","1316","716","NA","2","legacy","5","1024","2","48000","-16","experiment","4","even","1","770972","759114","766051","2061","309225","766052","764988","2067","307909","768255","770256","767053","3448","770256","NA","Sternberg task","76","71005.0","88","1024"
"86","86","804","804","#3d3846","experiment","legacy","legacy","legacy","1","undefined","1","right","88","88","88","0","0","88","88","0","0","88","88","88","0","88","0","Sun Oct 22 14:14:44 2023","The main experiment item","False","Sternbergtask.osexp","C:\Users\User\Desktop","False","mono","False","18","no","white","no","yes","768","legacy","76","11","C:/Users/User/Desktop/subject-4.csv","legacy","2 3 8 5 6 7","Melodramatic Milgram","4.0.5","0","n","0","right","right","left","right","NA","633.0","1380","1316","633","NA","2","legacy","6","1024","2","48000","-16","experiment","4","even","1","776878","770979","772041","2061","309225","772042","764988","2067","307909","774244","776245","773043","3448","776245","NA","Sternberg task","77","71638.0","89","1024"
"86","86","803","803","#3d3846","experiment","legacy","legacy","legacy","1","undefined","1","right","89","89","89","0","0","89","89","0","0","89","89","89","0","89","0","Sun Oct 22 14:14:44 2023","The main experiment item","False","Sternbergtask.osexp","C:\Users\User\Desktop","False","mono","False","18","no","white","no","yes","768","legacy","77","11","C:/Users/User/Desktop/subject-4.csv","legacy","4 1","Melodramatic Milgram","4.0.5","0","n","0","right","right","left","right","NA","679.0","1380","1316","679","NA","2","legacy","2","1024","2","48000","-16","experiment","4","even","6","782833","776885","777949","2061","309225","777950","764988","2067","307909","780153","782154","778952","3448","782154","NA","Sternberg task","78","72317.0","90","1024"
"86","86","801","801","#3d3846","experiment","legacy","legacy","legacy","1","undefined","1","right","90","90","90","0","0","90","90","0","0","90","90","90","0","90","0","Sun Oct 22 14:14:44 2023","The main experiment item","False","Sternbergtask.osexp","C:\Users\User\Desktop","False","mono","False","18","no","white","no","yes","768","legacy","78","11","C:/Users/User/Desktop/subject-4.csv","legacy","2 6 4 3 9","Melodramatic Milgram","4.0.5","0","n","0","right","right","left","right","NA","645.0","1380","1316","645","NA","2","legacy","5","1024","2","48000","-16","experiment","4","even","1","788756","782840","783906","2061","309225","783907","764988","2067","307909","786109","788110","784908","3448","788110","NA","Sternberg task","79","72962.0","91","1024"
"86","86","799","799","#3d3846","experiment","legacy","legacy","legacy","1","undefined","1","left","91","91","91","0","0","91","91","0","0","91","91","91","0","91","0","Sun Oct 22 14:14:44 2023","The main experiment item","False","Sternbergtask.osexp","C:\Users\User\Desktop","False","mono","False","18","no","white","no","yes","768","legacy","79","11","C:/Users/User/Desktop/subject-4.csv","legacy","5 2 6","Melodramatic Milgram","4.0.5","2","y","0","left","right","left","left","NA","564.0","1380","1316","564","NA","2","legacy","3","1024","2","48000","-16","experiment","4","even","2","794601","788763","789833","2061","309225","789834","764988","2067","307909","792036","794037","790835","3448","794037","NA","Sternberg task","80","73526.0","92","1024"
"87","87","806","806","#3d3846","experiment","legacy","legacy","legacy","1","undefined","1","left","92","92","92","0","0","92","92","0","0","92","92","92","0","92","0","Sun Oct 22 14:14:44 2023","The main experiment item","False","Sternbergtask.osexp","C:\Users\User\Desktop","False","mono","False","18","no","white","no","yes","768","legacy","80","11","C:/Users/User/Desktop/subject-4.csv","legacy","8 5 4 7 3 1","Melodramatic Milgram","4.0.5","2","y","0","left","right","left","left","NA","1479.0","1380","1316","1479","NA","2","legacy","6","1024","2","48000","-16","experiment","4","even","5","801351","794608","795667","2061","309225","795668","764988","2067","307909","797870","799871","796669","3448","799871","NA","Sternberg task","81","75005.0","93","1024"
"87","87","806","806","#3d3846","experiment","legacy","legacy","legacy","1","undefined","1","right","93","93","93","0","0","93","93","0","0","93","93","93","0","93","0","Sun Oct 22 14:14:44 2023","The main experiment item","False","Sternbergtask.osexp","C:\Users\User\Desktop","False","mono","False","18","no","white","no","yes","768","legacy","81","11","C:/Users/User/Desktop/subject-4.csv","legacy","5 3 2 6 9 8","Melodramatic Milgram","4.0.5","0","n","0","right","right","left","right","NA","794.0","1380","1316","794","NA","2","legacy","6","1024","2","48000","-16","experiment","4","even","4","807417","801357","802418","2061","309225","802419","764988","2067","307909","804621","806622","803420","3448","806622","NA","Sternberg task","82","75799.0","94","1024"
"87","87","808","808","#3d3846","experiment","legacy","legacy","legacy","1","undefined","1","left","94","94","94","0","0","94","94","0","0","94","94","94","0","94","0","Sun Oct 22 14:14:44 2023","The main experiment item","False","Sternbergtask.osexp","C:\Users\User\Desktop","False","mono","False","18","no","white","no","yes","768","legacy","82","11","C:/Users/User/Desktop/subject-4.csv","legacy","8 5 1 3 9","Melodramatic Milgram","4.0.5","4","y","0","left","right","left","left","NA","1050.0","1380","1316","1050","NA","2","legacy","5","1024","2","48000","-16","experiment","4","even","3","813745","807423","808490","2061","309225","808491","764988","2067","307909","810693","812695","809492","3448","812695","NA","Sternberg task","83","76849.0","95","1024"
"87","87","808","808","#3d3846","experiment","legacy","legacy","legacy","1","undefined","1","right","95","95","95","0","0","95","95","0","0","95","95","95","0","95","0","Sun Oct 22 14:14:44 2023","The main experiment item","False","Sternbergtask.osexp","C:\Users\User\Desktop","False","mono","False","18","no","white","no","yes","768","legacy","83","11","C:/Users/User/Desktop/subject-4.csv","legacy","4 2 7 6 1 3","Melodramatic Milgram","4.0.5","0","n","0","right","right","left","right","NA","791.0","1380","1316","791","NA","2","legacy","6","1024","2","48000","-16","experiment","4","even","8","819814","813752","814817","2061","309225","814819","764988","2067","307909","817021","819022","815820","3448","819022","NA","Sternberg task","84","77640.0","96","1024"
"87","87","808","808","#3d3846","experiment","legacy","legacy","legacy","1","undefined","1","right","96","96","96","0","0","96","96","0","0","96","96","96","0","96","0","Sun Oct 22 14:14:44 2023","The main experiment item","False","Sternbergtask.osexp","C:\Users\User\Desktop","False","mono","False","18","no","white","no","yes","768","legacy","84","11","C:/Users/User/Desktop/subject-4.csv","legacy","2 7 5","Melodramatic Milgram","4.0.5","0","n","0","right","right","left","right","NA","750.0","1380","1316","750","NA","2","legacy","3","1024","2","48000","-16","experiment","4","even","8","825841","819820","820886","2061","309225","820887","764988","2067","307909","823089","825090","821888","3448","825090","NA","Sternberg task","85","78390.0","97","1024"
"86","86","810","810","#3d3846","experiment","legacy","legacy","legacy","0","undefined","0","right","97","97","97","0","0","97","97","0","0","97","97","97","0","97","0","Sun Oct 22 14:14:44 2023","The main experiment item","False","Sternbergtask.osexp","C:\Users\User\Desktop","False","mono","False","18","no","white","no","yes","768","legacy","85","11","C:/Users/User/Desktop/subject-4.csv","legacy","6 9 7 3 8 2","Melodramatic Milgram","4.0.5","0","n","0","left","right","left","left","NA","1086.0","1380","1316","1086","NA","2","legacy","6","1024","2","48000","-16","experiment","4","even","5","832202","825847","826912","2061","309225","826913","764988","2067","307909","829115","831116","827914","3448","831116","NA","Sternberg task","85","79476.0","98","1024"
"85","85","822","822","#3d3846","experiment","legacy","legacy","legacy","0","undefined","0","left","98","98","98","0","0","98","98","0","0","98","98","98","0","98","0","Sun Oct 22 14:14:44 2023","The main experiment item","False","Sternbergtask.osexp","C:\Users\User\Desktop","False","mono","False","18","no","white","no","yes","768","legacy","86","11","C:/Users/User/Desktop/subject-4.csv","legacy","2 6 1 7 4","Melodramatic Milgram","4.0.5","2","y","0","None","right","left","None","NA","2000.0","1380","1316","2000","NA","2","legacy","5","1024","2","48000","-16","experiment","4","even","6","1041488","825847","833274","2061","309225","833275","832209","2067","307909","835477","1039488","834276","3448","837478","NA","Sternberg task","85","81476.0","99","1024"
"86","86","822","822","#3d3846","experiment","legacy","legacy","legacy","1","undefined","1","right","99","99","99","0","0","99","99","0","0","99","99","99","0","99","0","Sun Oct 22 14:14:44 2023","The main experiment item","False","Sternbergtask.osexp","C:\Users\User\Desktop","False","mono","False","18","no","white","no","yes","768","legacy","87","11","C:/Users/User/Desktop/subject-4.csv","legacy","5 7 3","Melodramatic Milgram","4.0.5","0","n","0","right","right","left","right","NA","814.0","1380","1316","814","NA","2","legacy","3","1024","2","48000","-16","experiment","4","even","9","1047584","825847","1042565","2061","309225","1042566","1041494","2067","307909","1044768","1046769","1043567","3448","1046769","NA","Sternberg task","86","82290.0","100","1024"
"85","85","823","823","#3d3846","experiment","legacy","legacy","legacy","0","undefined","0","left","100","100","100","0","0","100","100","0","0","100","100","100","0","100","0","Sun Oct 22 14:14:44 2023","The main experiment item","False","Sternbergtask.osexp","C:\Users\User\Desktop","False","mono","False","18","no","white","no","yes","768","legacy","88","11","C:/Users/User/Desktop/subject-4.csv","legacy","6 8 9 3 4 9","Melodramatic Milgram","4.0.5","5","y","0","right","right","left","right","NA","896.0","1380","1316","896","NA","2","legacy","6","1024","2","48000","-16","experiment","4","even","4","1053758","1047590","1048656","2061","309225","1048656","1041494","2067","307909","1050860","1052861","1049658","3448","1052861","NA","Sternberg task","86","83186.0","101","1024"
"84","84","826","826","#3d3846","experiment","legacy","legacy","legacy","0","undefined","0","right","101","101","101","0","0","101","101","0","0","101","101","101","0","101","0","Sun Oct 22 14:14:44 2023","The main experiment item","False","Sternbergtask.osexp","C:\Users\User\Desktop","False","mono","False","18","no","white","no","yes","768","legacy","89","11","C:/Users/User/Desktop/subject-4.csv","legacy","2 8 7 9 5 3","Melodramatic Milgram","4.0.5","0","n","0","left","right","left","left","NA","1089.0","1380","1316","1089","NA","2","legacy","6","1024","2","48000","-16","experiment","4","even","6","1060122","1047590","1054828","2061","309225","1054829","1053765","2067","307909","1057031","1059032","1055830","3448","1059032","NA","Sternberg task","86","84275.0","102","1024"
"84","84","823","823","#3d3846","experiment","legacy","legacy","legacy","1","undefined","1","right","102","102","102","0","0","102","102","0","0","102","102","102","0","102","0","Sun Oct 22 14:14:44 2023","The main experiment item","False","Sternbergtask.osexp","C:\Users\User\Desktop","False","mono","False","18","no","white","no","yes","768","legacy","90","11","C:/Users/User/Desktop/subject-4.csv","legacy","7 1","Melodramatic Milgram","4.0.5","0","n","0","right","right","left","right","NA","595.0","1380","1316","595","NA","2","legacy","2","1024","2","48000","-16","experiment","4","even","8","1065994","1047590","1061194","2061","309225","1061195","1060129","2067","307909","1063397","1065398","1062196","3448","1065398","NA","Sternberg task","87","84870.0","103","1024"
"84","84","824","824","#3d3846","experiment","legacy","legacy","legacy","1","undefined","1","left","103","103","103","0","0","103","103","0","0","103","103","103","0","103","0","Sun Oct 22 14:14:44 2023","The main experiment item","False","Sternbergtask.osexp","C:\Users\User\Desktop","False","mono","False","18","no","white","no","yes","768","legacy","91","11","C:/Users/User/Desktop/subject-4.csv","legacy","7 8 6 3 1","Melodramatic Milgram","4.0.5","5","y","0","left","right","left","left","NA","902.0","1380","1316","902","NA","2","legacy","5","1024","2","48000","-16","experiment","4","even","1","1072166","1066000","1067060","2061","309225","1067061","1060129","2067","307909","1069263","1071263","1068061","3448","1071263","NA","Sternberg task","88","85772.0","104","1024"
"84","84","822","822","#3d3846","experiment","legacy","legacy","legacy","1","undefined","1","left","104","104","104","0","0","104","104","0","0","104","104","104","0","104","0","Sun Oct 22 14:14:44 2023","The main experiment item","False","Sternbergtask.osexp","C:\Users\User\Desktop","False","mono","False","18","no","white","no","yes","768","legacy","92","11","C:/Users/User/Desktop/subject-4.csv","legacy","9 5 3 8 4","Melodramatic Milgram","4.0.5","1","y","0","left","right","left","left","NA","631.0","1380","1316","631","NA","2","legacy","5","1024","2","48000","-16","experiment","4","even","9","1078074","1072172","1073238","2061","309225","1073239","1060129","2067","307909","1075441","1077442","1074240","3448","1077442","NA","Sternberg task","89","86403.0","105","1024"
"83","83","825","825","#3d3846","experiment","legacy","legacy","legacy","0","undefined","0","left","105","105","105","0","0","105","105","0","0","105","105","105","0","105","0","Sun Oct 22 14:14:44 2023","The main experiment item","False","Sternbergtask.osexp","C:\Users\User\Desktop","False","mono","False","18","no","white","no","yes","768","legacy","93","11","C:/Users/User/Desktop/subject-4.csv","legacy","5 7 3 6 2","Melodramatic Milgram","4.0.5","5","y","0","right","right","left","right","NA","1145.0","1380","1316","1145","NA","2","legacy","5","1024","2","48000","-16","experiment","4","even","2","1084491","1078080","1079141","2061","309225","1079142","1060129","2067","307909","1081344","1083345","1080143","3448","1083345","NA","Sternberg task","89","87548.0","106","1024"
"84","84","823","823","#3d3846","experiment","legacy","legacy","legacy","1","undefined","1","left","106","106","106","0","0","106","106","0","0","106","106","106","0","106","0","Sun Oct 22 14:14:44 2023","The main experiment item","False","Sternbergtask.osexp","C:\Users\User\Desktop","False","mono","False","18","no","white","no","yes","768","legacy","94","11","C:/Users/User/Desktop/subject-4.csv","legacy","7 2 3","Melodramatic Milgram","4.0.5","3","y","0","left","right","left","left","NA","552.0","1380","1316","552","NA","2","legacy","3","1024","2","48000","-16","experiment","4","even","3","1090324","1078080","1085566","2061","309225","1085568","1084497","2067","307909","1087770","1089771","1086569","3448","1089771","NA","Sternberg task","90","88100.0","107","1024"
"83","83","834","834","#3d3846","experiment","legacy","legacy","legacy","0","undefined","0","right","107","107","107","0","0","107","107","0","0","107","107","107","0","107","0","Sun Oct 22 14:14:44 2023","The main experiment item","False","Sternbergtask.osexp","C:\Users\User\Desktop","False","mono","False","18","no","white","no","yes","768","legacy","95","11","C:/Users/User/Desktop/subject-4.csv","legacy","1 4 3 6 5","Melodramatic Milgram","4.0.5","0","n","0","None","right","left","None","NA","2000.0","1380","1316","2000","NA","2","legacy","5","1024","2","48000","-16","experiment","4","even","8","1097596","1090330","1091392","2061","309225","1091393","1084497","2067","307909","1093595","1095596","1092394","3448","1095596","NA","Sternberg task","90","90100.0","108","1024"
"82","82","838","838","#3d3846","experiment","legacy","legacy","legacy","0","undefined","0","right","108","108","108","0","0","108","108","0","0","108","108","108","0","108","0","Sun Oct 22 14:14:44 2023","The main experiment item","False","Sternbergtask.osexp","C:\Users\User\Desktop","False","mono","False","18","no","white","no","yes","768","legacy","96","11","C:/Users/User/Desktop/subject-4.csv","legacy","9 8 2 7 4","Melodramatic Milgram","4.0.5","0","n","0","left","right","left","left","NA","1322.0","1380","1316","1322","NA","2","legacy","5","1024","2","48000","-16","experiment","4","even","5","1104195","1090330","1098668","2061","309225","1098669","1097603","2067","307909","1100871","1102872","1099670","3448","1102872","NA","Sternberg task","90","91422.0","109","1024"
"82","82","837","837","#3d3846","experiment","legacy","legacy","legacy","1","undefined","1","left","109","109","109","0","0","109","109","0","0","109","109","109","0","109","0","Sun Oct 22 14:14:44 2023","The main experiment item","False","Sternbergtask.osexp","C:\Users\User\Desktop","False","mono","False","18","no","white","no","yes","768","legacy","97","11","C:/Users/User/Desktop/subject-4.csv","legacy","5 2 9 6 1 7","Melodramatic Milgram","4.0.5","3","y","0","left","right","left","left","NA","710.0","1380","1316","710","NA","2","legacy","6","1024","2","48000","-16","experiment","4","even","9","1110180","1090330","1105264","2061","309225","1105266","1104201","2067","307909","1107468","1109469","1106267","3448","1109469","NA","Sternberg task","91","92132.0","110","1024"
"82","82","836","836","#3d3846","experiment","legacy","legacy","legacy","1","undefined","1","right","110","110","110","0","0","110","110","0","0","110","110","110","0","110","0","Sun Oct 22 14:14:44 2023","The main experiment item","False","Sternbergtask.osexp","C:\Users\User\Desktop","False","mono","False","18","no","white","no","yes","768","legacy","98","11","C:/Users/User/Desktop/subject-4.csv","legacy","1","Melodramatic Milgram","4.0.5","0","n","0","right","right","left","right","NA","689.0","1380","1316","689","NA","2","legacy","1","1024","2","48000","-16","experiment","4","even","7","1116150","1110186","1111256","2061","309225","1111257","1104201","2067","307909","1113459","1115461","1112258","3448","1115460","NA","Sternberg task","92","92821.0","111","1024"
"83","83","835","835","#3d3846","experiment","legacy","legacy","legacy","1","undefined","1","left","111","111","111","0","0","111","111","0","0","111","111","111","0","111","0","Sun Oct 22 14:14:44 2023","The main experiment item","False","Sternbergtask.osexp","C:\Users\User\Desktop","False","mono","False","18","no","white","no","yes","768","legacy","99","11","C:/Users/User/Desktop/subject-4.csv","legacy","8 9 6 1","Melodramatic Milgram","4.0.5","2","y","0","left","right","left","left","NA","712.0","1380","1316","712","NA","2","legacy","4","1024","2","48000","-16","experiment","4","even","9","1122139","1116157","1117223","2061","309225","1117224","1104201","2067","307909","1119426","1121426","1118225","3448","1121426","NA","Sternberg task","93","93533.0","112","1024"
"83","83","831","831","#3d3846","experiment","legacy","legacy","legacy","1","undefined","1","left","112","112","112","0","0","112","112","0","0","112","112","112","0","112","0","Sun Oct 22 14:14:44 2023","The main experiment item","False","Sternbergtask.osexp","C:\Users\User\Desktop","False","mono","False","18","no","white","no","yes","768","legacy","100","11","C:/Users/User/Desktop/subject-4.csv","legacy","8","Melodramatic Milgram","4.0.5","1","y","0","left","right","left","left","NA","472.0","1380","1316","472","NA","2","legacy","1","1024","2","48000","-16","experiment","4","even","8","1127879","1122145","1123201","2061","309225","1123202","1104201","2067","307909","1125404","1127406","1124203","3448","1127405","NA","Sternberg task","94","94005.0","113","1024"
"83","83","832","832","#3d3846","experiment","legacy","legacy","legacy","1","undefined","1","left","113","113","113","0","0","113","113","0","0","113","113","113","0","113","0","Sun Oct 22 14:14:44 2023","The main experiment item","False","Sternbergtask.osexp","C:\Users\User\Desktop","False","mono","False","18","no","white","no","yes","768","legacy","101","11","C:/Users/User/Desktop/subject-4.csv","legacy","4 3 2 5 8","Melodramatic Milgram","4.0.5","2","y","0","left","right","left","left","NA","928.0","1380","1316","928","NA","2","legacy","5","1024","2","48000","-16","experiment","4","even","3","1134083","1127885","1128950","2061","309225","1128951","1104201","2067","307909","1131153","1133154","1129952","3448","1133154","NA","Sternberg task","95","94933.0","114","1024"
"83","83","837","837","#3d3846","experiment","legacy","legacy","legacy","1","undefined","1","right","114","114","114","0","0","114","114","0","0","114","114","114","0","114","0","Sun Oct 22 14:14:44 2023","The main experiment item","False","Sternbergtask.osexp","C:\Users\User\Desktop","False","mono","False","18","no","white","no","yes","768","legacy","102","11","C:/Users/User/Desktop/subject-4.csv","legacy","9 7 4 5 8","Melodramatic Milgram","4.0.5","0","n","0","right","right","left","right","NA","1404.0","1380","1316","1404","NA","2","legacy","5","1024","2","48000","-16","experiment","4","even","6","1140772","1134089","1135163","2061","309225","1135164","1104201","2067","307909","1137366","1139367","1136165","3448","1139367","NA","Sternberg task","96","96337.0","115","1024"
"83","83","837","837","#3d3846","experiment","legacy","legacy","legacy","1","undefined","1","left","115","115","115","0","0","115","115","0","0","115","115","115","0","115","0","Sun Oct 22 14:14:44 2023","The main experiment item","False","Sternbergtask.osexp","C:\Users\User\Desktop","False","mono","False","18","no","white","no","yes","768","legacy","103","11","C:/Users/User/Desktop/subject-4.csv","legacy","7 1 8 5 6 2","Melodramatic Milgram","4.0.5","2","y","0","left","right","left","left","NA","760.0","1380","1316","760","NA","2","legacy","6","1024","2","48000","-16","experiment","4","even","1","1146817","1140779","1141850","2061","309225","1141852","1104201","2067","307909","1144054","1146056","1142853","3448","1146056","NA","Sternberg task","97","97097.0","116","1024"
"83","83","836","836","#3d3846","experiment","legacy","legacy","legacy","1","undefined","1","right","116","116","116","0","0","116","116","0","0","116","116","116","0","116","0","Sun Oct 22 14:14:44 2023","The main experiment item","False","Sternbergtask.osexp","C:\Users\User\Desktop","False","mono","False","18","no","white","no","yes","768","legacy","104","11","C:/Users/User/Desktop/subject-4.csv","legacy","2 5 1 4","Melodramatic Milgram","4.0.5","0","n","0","right","right","left","right","NA","797.0","1380","1316","797","NA","2","legacy","4","1024","2","48000","-16","experiment","4","even","6","1152893","1146823","1147892","2061","309225","1147893","1104201","2067","307909","1150095","1152096","1148894","3448","1152096","NA","Sternberg task","98","97894.0","117","1024"
"83","83","837","837","#3d3846","experiment","legacy","legacy","legacy","1","undefined","1","right","117","117","117","0","0","117","117","0","0","117","117","117","0","117","0","Sun Oct 22 14:14:44 2023","The main experiment item","False","Sternbergtask.osexp","C:\Users\User\Desktop","False","mono","False","18","no","white","no","yes","768","legacy","105","11","C:/Users/User/Desktop/subject-4.csv","legacy","9","Melodramatic Milgram","4.0.5","0","n","0","right","right","left","right","NA","948.0","1380","1316","948","NA","2","legacy","1","1024","2","48000","-16","experiment","4","even","6","1159114","1152899","1153961","2061","309225","1153962","1104201","2067","307909","1156164","1158165","1154963","3448","1158165","NA","Sternberg task","99","98842.0","118","1024"
"84","84","839","839","#3d3846","experiment","legacy","legacy","legacy","1","undefined","1","left","118","118","118","0","0","118","118","0","0","118","118","118","0","118","0","Sun Oct 22 14:14:44 2023","The main experiment item","False","Sternbergtask.osexp","C:\Users\User\Desktop","False","mono","False","18","no","white","no","yes","768","legacy","106","11","C:/Users/User/Desktop/subject-4.csv","legacy","3 9 6 2","Melodramatic Milgram","4.0.5","4","y","0","left","right","left","left","NA","1016.0","1380","1316","1016","NA","2","legacy","4","1024","2","48000","-16","experiment","4","even","2","1165405","1159120","1160185","2061","309225","1160185","1104201","2067","307909","1162388","1164389","1161187","3448","1164389","NA","Sternberg task","100","99858.0","119","1024"
"84","84","841","841","#3d3846","experiment","legacy","legacy","legacy","1","undefined","1","right","119","119","119","0","0","119","119","0","0","119","119","119","0","119","0","Sun Oct 22 14:14:44 2023","The main experiment item","False","Sternbergtask.osexp","C:\Users\User\Desktop","False","mono","False","18","no","white","no","yes","768","legacy","107","11","C:/Users/User/Desktop/subject-4.csv","legacy","8 5 7 3 6","Melodramatic Milgram","4.0.5","0","n","0","right","right","left","right","NA","1155.0","1380","1316","1155","NA","2","legacy","5","1024","2","48000","-16","experiment","4","even","9","1171811","1165411","1166451","2061","309225","1166451","1104201","2067","307909","1168654","1170655","1167453","3448","1170655","NA","Sternberg task","101","101013.0","120","1024"
"84","84","841","841","#3d3846","experiment","legacy","legacy","legacy","1","undefined","1","right","120","120","120","0","0","120","120","0","0","120","120","120","0","120","0","Sun Oct 22 14:14:44 2023","The main experiment item","False","Sternbergtask.osexp","C:\Users\User\Desktop","False","mono","False","18","no","white","no","yes","768","legacy","108","11","C:/Users/User/Desktop/subject-4.csv","legacy","5 3 8 7 2 4","Melodramatic Milgram","4.0.5","0","n","0","right","right","left","right","NA","785.0","1380","1316","785","NA","2","legacy","6","1024","2","48000","-16","experiment","4","even","9","1177873","1171818","1172882","2061","309225","1172884","1104201","2067","307909","1175086","1177087","1173885","3448","1177087","NA","Sternberg task","102","101798.0","121","1024"
"84","84","839","839","#3d3846","experiment","legacy","legacy","legacy","1","undefined","1","left","121","121","121","0","0","121","121","0","0","121","121","121","0","121","0","Sun Oct 22 14:14:44 2023","The main experiment item","False","Sternbergtask.osexp","C:\Users\User\Desktop","False","mono","False","18","no","white","no","yes","768","legacy","109","11","C:/Users/User/Desktop/subject-4.csv","legacy","8 7 3","Melodramatic Milgram","4.0.5","1","y","0","left","right","left","left","NA","629.0","1380","1316","629","NA","2","legacy","3","1024","2","48000","-16","experiment","4","even","8","1183783","1177879","1178949","2061","309225","1178950","1104201","2067","307909","1181152","1183153","1179951","3448","1183153","NA","Sternberg task","103","102427.0","122","1024"
"84","84","839","839","#3d3846","experiment","legacy","legacy","legacy","1","undefined","1","right","122","122","122","0","0","122","122","0","0","122","122","122","0","122","0","Sun Oct 22 14:14:44 2023","The main experiment item","False","Sternbergtask.osexp","C:\Users\User\Desktop","False","mono","False","18","no","white","no","yes","768","legacy","110","11","C:/Users/User/Desktop/subject-4.csv","legacy","5 9 2 3","Melodramatic Milgram","4.0.5","0","n","0","right","right","left","right","NA","844.0","1380","1316","844","NA","2","legacy","4","1024","2","48000","-16","experiment","4","even","8","1189902","1183790","1184853","2061","309225","1184854","1104201","2067","307909","1187056","1189057","1185855","3448","1189057","NA","Sternberg task","104","103271.0","123","1024"
"84","84","838","838","#3d3846","experiment","legacy","legacy","legacy","1","undefined","1","right","123","123","123","0","0","123","123","0","0","123","123","123","0","123","0","Sun Oct 22 14:14:44 2023","The main experiment item","False","Sternbergtask.osexp","C:\Users\User\Desktop","False","mono","False","18","no","white","no","yes","768","legacy","111","11","C:/Users/User/Desktop/subject-4.csv","legacy","7 8 6 1","Melodramatic Milgram","4.0.5","0","n","0","right","right","left","right","NA","667.0","1380","1316","667","NA","2","legacy","4","1024","2","48000","-16","experiment","4","even","3","1195847","1189908","1190974","2061","309225","1190975","1104201","2067","307909","1193178","1195179","1191976","3448","1195179","NA","Sternberg task","105","103938.0","124","1024"
"84","84","836","836","#3d3846","experiment","legacy","legacy","legacy","0","undefined","0","left","124","124","124","0","0","124","124","0","0","124","124","124","0","124","0","Sun Oct 22 14:14:44 2023","The main experiment item","False","Sternbergtask.osexp","C:\Users\User\Desktop","False","mono","False","18","no","white","no","yes","768","legacy","112","11","C:/Users/User/Desktop/subject-4.csv","legacy","7 4 2 6 3 5","Melodramatic Milgram","4.0.5","6","y","0","right","right","left","right","NA","679.0","1380","1316","679","NA","2","legacy","6","1024","2","48000","-16","experiment","4","even","5","1201804","1195853","1196920","2061","309225","1196921","1104201","2067","307909","1199123","1201124","1197922","3448","1201124","NA","Sternberg task","105","104617.0","125","1024"
"84","84","834","834","#3d3846","experiment","legacy","legacy","legacy","1","undefined","1","right","125","125","125","0","0","125","125","0","0","125","125","125","0","125","0","Sun Oct 22 14:14:44 2023","The main experiment item","False","Sternbergtask.osexp","C:\Users\User\Desktop","False","mono","False","18","no","white","no","yes","768","legacy","113","11","C:/Users/User/Desktop/subject-4.csv","legacy","6 7 5 9","Melodramatic Milgram","4.0.5","0","n","0","right","right","left","right","NA","549.0","1380","1316","549","NA","2","legacy","4","1024","2","48000","-16","experiment","4","even","2","1207631","1195853","1202876","2061","309225","1202877","1201810","2067","307909","1205080","1207081","1203879","3448","1207081","NA","Sternberg task","106","105166.0","126","1024"
"84","84","835","835","#3d3846","experiment","legacy","legacy","legacy","1","undefined","1","right","126","126","126","0","0","126","126","0","0","126","126","126","0","126","0","Sun Oct 22 14:14:44 2023","The main experiment item","False","Sternbergtask.osexp","C:\Users\User\Desktop","False","mono","False","18","no","white","no","yes","768","legacy","114","11","C:/Users/User/Desktop/subject-4.csv","legacy","7 1 5 6 3","Melodramatic Milgram","4.0.5","0","n","0","right","right","left","right","NA","915.0","1380","1316","915","NA","2","legacy","5","1024","2","48000","-16","experiment","4","even","8","1213820","1207637","1208699","2061","309225","1208701","1201810","2067","307909","1210903","1212904","1209702","3448","1212904","NA","Sternberg task","107","106081.0","127","1024"
"84","84","834","834","#3d3846","experiment","legacy","legacy","legacy","1","undefined","1","left","127","127","127","0","0","127","127","0","0","127","127","127","0","127","0","Sun Oct 22 14:14:44 2023","The main experiment item","False","Sternbergtask.osexp","C:\Users\User\Desktop","False","mono","False","18","no","white","no","yes","768","legacy","115","11","C:/Users/User/Desktop/subject-4.csv","legacy","3 4","Melodramatic Milgram","4.0.5","1","y","0","left","right","left","left","NA","749.0","1380","1316","749","NA","2","legacy","2","1024","2","48000","-16","experiment","4","even","3","1219844","1213826","1214891","2061","309225","1214891","1201810","2067","307909","1217093","1219094","1215892","3448","1219094","NA","Sternberg task","108","106830.0","128","1024"
