"acc","accuracy","average_response_time","avg_rt","background","block","canvas_backend","clock_backend","color_backend","correct","correct_instruction1","correct_keyboard_response","correct_response","count_correctFeedback","count_expSequence","count_experiment","count_experimentalLoop","count_fixation","count_incorrectFeedback","count_instruction1","count_keyboard_response","count_logger","count_memorySet","count_new_1_sketchpad","count_new_sketchpad","count_practiceLoop","count_probe","count_thankYou","datetime","description","disable_garbage_collection","experiment_file","experiment_path","font_bold","font_family","font_italic","font_size","font_underline","foreground","form_clicks","fullscreen","height","keyboard_backend","live_row","live_row_practiceLoop","logfile","mouse_backend","numberSet","opensesame_codename","opensesame_version","posInSet","present","repeat_cycle","response","response_instruction1","response_keyboard_response","response_new_1_sketchpad","response_thankYou","response_time","response_time_instruction1","response_time_keyboard_response","response_time_new_1_sketchpad","response_time_thankYou","round_decimals","sampler_backend","setSize","sound_buf_size","sound_channels","sound_freq","sound_sample_size","start","subject_nr","subject_parity","target","time_correctFeedback","time_expSequence","time_experiment","time_experimentalLoop","time_fixation","time_incorrectFeedback","time_instruction1","time_keyboard_response","time_logger","time_memorySet","time_new_1_sketchpad","time_new_sketchpad","time_practiceLoop","time_probe","time_thankYou","title","total_correct","total_response_time","total_responses","width"
"0","0","2000","2000","#3d3846","practice","legacy","legacy","legacy","0","undefined","0","left","0","0","0","0","0","0","0","0","0","0","0","0","0","0","0","Mon Oct 16 18:06:17 2023","The main experiment item","True","Edward Banda Sternbergtask.osexp","C:\Users\Edward Banda\Desktop","False","mono","False","18","no","white","no","yes","768","legacy","0","0","C:/Users/Edward Banda/Desktop/subject-2.csv","legacy","1 7 9 8 5","Melodramatic Milgram","4.0.5","4","y","0","None","right","None","NA","NA","2000.0","40369","2000","NA","NA","2","legacy","5","1024","2","48000","-16","experiment","2","even","8","NA","44867","2654","NA","44869","NA","2657","49074","51074","45871","NA","47072","43027","49073","NA","Sternberg task","0","2000.0","1","1024"
"0","0","2000","2000","#3d3846","practice","legacy","legacy","legacy","0","undefined","0","right","1","1","0","0","1","1","0","1","1","1","0","1","0","1","0","Mon Oct 16 18:06:17 2023","The main experiment item","True","Edward Banda Sternbergtask.osexp","C:\Users\Edward Banda\Desktop","False","mono","False","18","no","white","no","yes","768","legacy","1","1","C:/Users/Edward Banda/Desktop/subject-2.csv","legacy","3 1 9 4","Melodramatic Milgram","4.0.5","0","n","0","None","right","None","NA","NA","2000.0","40369","2000","NA","NA","2","legacy","4","1024","2","48000","-16","experiment","2","even","6","NA","52193","2654","NA","52194","51141","2657","56397","58397","53195","NA","54396","43027","56397","NA","Sternberg task","0","4000.0","2","1024"
"0","0","1945","1945","#3d3846","practice","legacy","legacy","legacy","0","undefined","0","left","2","2","0","0","2","2","0","2","2","2","0","2","0","2","0","Mon Oct 16 18:06:17 2023","The main experiment item","True","Edward Banda Sternbergtask.osexp","C:\Users\Edward Banda\Desktop","False","mono","False","18","no","white","no","yes","768","legacy","2","2","C:/Users/Edward Banda/Desktop/subject-2.csv","legacy","1 5 2 9","Melodramatic Milgram","4.0.5","2","y","0","right","right","right","NA","NA","1835.0","40369","1835","NA","NA","2","legacy","4","1024","2","48000","-16","experiment","2","even","5","NA","59454","2654","NA","59456","58409","2657","63660","65495","60457","NA","61658","43027","63659","NA","Sternberg task","0","5835.0","3","1024"
"25","25","1668","1668","#3d3846","practice","legacy","legacy","legacy","1","undefined","1","left","3","3","0","0","3","3","0","3","3","3","0","3","0","3","0","Mon Oct 16 18:06:17 2023","The main experiment item","True","Edward Banda Sternbergtask.osexp","C:\Users\Edward Banda\Desktop","False","mono","False","18","no","white","no","yes","768","legacy","3","3","C:/Users/Edward Banda/Desktop/subject-2.csv","legacy","2 9 4","Melodramatic Milgram","4.0.5","3","y","0","left","right","left","NA","NA","837.0","40369","837","NA","NA","2","legacy","3","1024","2","48000","-16","experiment","2","even","4","NA","66549","2654","NA","66551","65507","2657","70758","71596","67552","NA","68753","43027","70754","NA","Sternberg task","1","6672.0","4","1024"
"20","20","1734","1734","#3d3846","practice","legacy","legacy","legacy","0","undefined","0","left","4","4","0","0","4","4","0","4","4","4","0","4","0","4","0","Mon Oct 16 18:06:17 2023","The main experiment item","True","Edward Banda Sternbergtask.osexp","C:\Users\Edward Banda\Desktop","False","mono","False","18","no","white","no","yes","768","legacy","4","4","C:/Users/Edward Banda/Desktop/subject-2.csv","legacy","4 8","Melodramatic Milgram","4.0.5","1","y","0","None","right","None","NA","NA","2000.0","40369","2000","NA","NA","2","legacy","2","1024","2","48000","-16","experiment","2","even","4","71608","72663","2654","NA","72665","65507","2657","76868","78868","73666","NA","74867","43027","76868","NA","Sternberg task","1","8672.0","5","1024"
"16","16","1513","1513","#3d3846","practice","legacy","legacy","legacy","0","undefined","0","left","5","5","0","0","5","5","0","5","5","5","0","5","0","5","0","Mon Oct 16 18:06:17 2023","The main experiment item","True","Edward Banda Sternbergtask.osexp","C:\Users\Edward Banda\Desktop","False","mono","False","18","no","white","no","yes","768","legacy","5","5","C:/Users/Edward Banda/Desktop/subject-2.csv","legacy","6","Melodramatic Milgram","4.0.5","1","y","0","right","right","right","NA","NA","408.0","40369","408","NA","NA","2","legacy","1","1024","2","48000","-16","experiment","2","even","6","71608","79911","2654","NA","79913","78870","2657","84119","84528","80914","NA","82115","43027","84118","NA","Sternberg task","1","9080.0","6","1024"
"14","14","1510","1510","#3d3846","practice","legacy","legacy","legacy","0","undefined","0","right","6","6","0","0","6","6","0","6","6","6","0","6","0","6","0","Mon Oct 16 18:06:17 2023","The main experiment item","True","Edward Banda Sternbergtask.osexp","C:\Users\Edward Banda\Desktop","False","mono","False","18","no","white","no","yes","768","legacy","6","6","C:/Users/Edward Banda/Desktop/subject-2.csv","legacy","5 7 8 4 1 2","Melodramatic Milgram","4.0.5","0","n","0","left","right","left","NA","NA","1491.0","40369","1491","NA","NA","2","legacy","6","1024","2","48000","-16","experiment","2","even","6","71608","85575","2654","NA","85577","84530","2657","89781","91272","86578","NA","87779","43027","89780","NA","Sternberg task","1","10571.0","7","1024"
"25","25","1459","1459","#3d3846","practice","legacy","legacy","legacy","1","undefined","1","right","7","7","0","0","7","7","0","7","7","7","0","7","0","7","0","Mon Oct 16 18:06:17 2023","The main experiment item","True","Edward Banda Sternbergtask.osexp","C:\Users\Edward Banda\Desktop","False","mono","False","18","no","white","no","yes","768","legacy","7","7","C:/Users/Edward Banda/Desktop/subject-2.csv","legacy","2 1","Melodramatic Milgram","4.0.5","0","n","0","right","right","right","NA","NA","1106.0","40369","1106","NA","NA","2","legacy","2","1024","2","48000","-16","experiment","2","even","5","71608","92336","2654","NA","92339","91285","2657","96544","97651","93340","NA","94541","43027","96542","NA","Sternberg task","2","11677.0","8","1024"
"22","22","1364","1364","#3d3846","practice","legacy","legacy","legacy","0","undefined","0","left","8","8","0","0","8","8","0","8","8","8","0","8","0","8","0","Mon Oct 16 18:06:17 2023","The main experiment item","True","Edward Banda Sternbergtask.osexp","C:\Users\Edward Banda\Desktop","False","mono","False","18","no","white","no","yes","768","legacy","8","8","C:/Users/Edward Banda/Desktop/subject-2.csv","legacy","4 3 1 7 9 8","Melodramatic Milgram","4.0.5","1","y","0","right","right","right","NA","NA","599.0","40369","599","NA","NA","2","legacy","6","1024","2","48000","-16","experiment","2","even","4","97664","98715","2654","NA","98717","91285","2657","102922","103521","99718","NA","100919","43027","102920","NA","Sternberg task","2","12276.0","9","1024"
"20","20","1427","1427","#3d3846","practice","legacy","legacy","legacy","0","undefined","0","right","9","9","0","0","9","9","0","9","9","9","0","9","0","9","0","Mon Oct 16 18:06:17 2023","The main experiment item","True","Edward Banda Sternbergtask.osexp","C:\Users\Edward Banda\Desktop","False","mono","False","18","no","white","no","yes","768","legacy","9","9","C:/Users/Edward Banda/Desktop/subject-2.csv","legacy","9 6 7 4 5","Melodramatic Milgram","4.0.5","0","n","0","None","right","None","NA","NA","2000.0","40369","2000","NA","NA","2","legacy","5","1024","2","48000","-16","experiment","2","even","3","97664","104573","2654","NA","104574","103524","2657","108778","110778","105575","NA","106776","43027","108777","NA","Sternberg task","2","14276.0","10","1024"
"18","18","1479","1479","#3d3846","practice","legacy","legacy","legacy","0","undefined","0","right","10","10","0","0","10","10","0","10","10","10","0","10","0","10","0","Mon Oct 16 18:06:17 2023","The main experiment item","True","Edward Banda Sternbergtask.osexp","C:\Users\Edward Banda\Desktop","False","mono","False","18","no","white","no","yes","768","legacy","10","10","C:/Users/Edward Banda/Desktop/subject-2.csv","legacy","5","Melodramatic Milgram","4.0.5","0","n","0","None","right","None","NA","NA","2000.0","40369","2000","NA","NA","2","legacy","1","1024","2","48000","-16","experiment","2","even","3","97664","111832","2654","NA","111834","110790","2657","116037","118037","112835","NA","114036","43027","116037","NA","Sternberg task","2","16276.0","11","1024"
"16","16","1523","1523","#3d3846","practice","legacy","legacy","legacy","0","undefined","0","right","11","11","0","0","11","11","0","11","11","11","0","11","0","11","0","Mon Oct 16 18:06:17 2023","The main experiment item","True","Edward Banda Sternbergtask.osexp","C:\Users\Edward Banda\Desktop","False","mono","False","18","no","white","no","yes","768","legacy","11","11","C:/Users/Edward Banda/Desktop/subject-2.csv","legacy","4 1 5","Melodramatic Milgram","4.0.5","0","n","0","None","right","None","NA","NA","2000.0","40369","2000","NA","NA","2","legacy","3","1024","2","48000","-16","experiment","2","even","2","97664","119082","2654","NA","119084","118039","2657","123288","125288","120085","NA","121286","43027","123287","NA","Sternberg task","2","18276.0","12","1024"
"15","15","1459","1459","#3d3846","experiment","legacy","legacy","legacy","0","undefined","0","left","12","12","0","0","12","12","0","12","12","12","0","12","0","12","0","Mon Oct 16 18:06:17 2023","The main experiment item","True","Edward Banda Sternbergtask.osexp","C:\Users\Edward Banda\Desktop","False","mono","False","18","no","white","no","yes","768","legacy","0","11","C:/Users/Edward Banda/Desktop/subject-2.csv","legacy","5 2 6","Melodramatic Milgram","4.0.5","2","y","0","right","right","right","right","NA","697.0","40369","697","175512","NA","2","legacy","3","1024","2","48000","-16","experiment","2","even","2","97664","301951","2654","301817","301953","125301","2657","306156","306854","302954","126303","304154","43027","306156","NA","Sternberg task","2","18973.0","13","1024"
"21","21","1397","1397","#3d3846","experiment","legacy","legacy","legacy","1","undefined","1","left","13","13","0","0","13","13","0","13","13","13","0","13","0","13","0","Mon Oct 16 18:06:17 2023","The main experiment item","True","Edward Banda Sternbergtask.osexp","C:\Users\Edward Banda\Desktop","False","mono","False","18","no","white","no","yes","768","legacy","1","11","C:/Users/Edward Banda/Desktop/subject-2.csv","legacy","9 1 6 7 8","Melodramatic Milgram","4.0.5","1","y","0","left","right","left","right","NA","594.0","40369","594","175512","NA","2","legacy","5","1024","2","48000","-16","experiment","2","even","9","97664","307912","2654","301817","307913","306866","2657","312117","312712","308915","126303","310116","43027","312117","NA","Sternberg task","3","19567.0","14","1024"
"26","26","1357","1357","#3d3846","experiment","legacy","legacy","legacy","1","undefined","1","left","14","14","0","0","14","14","0","14","14","14","0","14","0","14","0","Mon Oct 16 18:06:17 2023","The main experiment item","True","Edward Banda Sternbergtask.osexp","C:\Users\Edward Banda\Desktop","False","mono","False","18","no","white","no","yes","768","legacy","2","11","C:/Users/Edward Banda/Desktop/subject-2.csv","legacy","6 7 8 5","Melodramatic Milgram","4.0.5","3","y","0","left","right","left","right","NA","801.0","40369","801","175512","NA","2","legacy","4","1024","2","48000","-16","experiment","2","even","8","312724","313770","2654","301817","313772","306866","2657","317975","318776","314773","126303","315974","43027","317975","NA","Sternberg task","4","20368.0","15","1024"
"25","25","1325","1325","#3d3846","experiment","legacy","legacy","legacy","0","undefined","0","right","15","15","0","0","15","15","0","15","15","15","0","15","0","15","0","Mon Oct 16 18:06:17 2023","The main experiment item","True","Edward Banda Sternbergtask.osexp","C:\Users\Edward Banda\Desktop","False","mono","False","18","no","white","no","yes","768","legacy","3","11","C:/Users/Edward Banda/Desktop/subject-2.csv","legacy","8 4 3 9","Melodramatic Milgram","4.0.5","0","n","0","left","right","left","right","NA","833.0","40369","833","175512","NA","2","legacy","4","1024","2","48000","-16","experiment","2","even","5","318789","319837","2654","301817","319838","306866","2657","324042","324875","320840","126303","322041","43027","324042","NA","Sternberg task","4","21201.0","16","1024"
"29","29","1306","1306","#3d3846","experiment","legacy","legacy","legacy","1","undefined","1","right","16","16","0","0","16","16","0","16","16","16","0","16","0","16","0","Mon Oct 16 18:06:17 2023","The main experiment item","True","Edward Banda Sternbergtask.osexp","C:\Users\Edward Banda\Desktop","False","mono","False","18","no","white","no","yes","768","legacy","4","11","C:/Users/Edward Banda/Desktop/subject-2.csv","legacy","5 7 3","Melodramatic Milgram","4.0.5","0","n","0","right","right","right","right","NA","1002.0","40369","1002","175512","NA","2","legacy","3","1024","2","48000","-16","experiment","2","even","9","318789","325937","2654","301817","325938","324887","2657","330142","331145","326940","126303","328141","43027","330142","NA","Sternberg task","5","22203.0","17","1024"
"33","33","1296","1296","#3d3846","experiment","legacy","legacy","legacy","1","undefined","1","left","17","17","0","0","17","17","0","17","17","17","0","17","0","17","0","Mon Oct 16 18:06:17 2023","The main experiment item","True","Edward Banda Sternbergtask.osexp","C:\Users\Edward Banda\Desktop","False","mono","False","18","no","white","no","yes","768","legacy","5","11","C:/Users/Edward Banda/Desktop/subject-2.csv","legacy","8 5 1 3 9","Melodramatic Milgram","4.0.5","4","y","0","left","right","left","right","NA","1134.0","40369","1134","175512","NA","2","legacy","5","1024","2","48000","-16","experiment","2","even","3","331156","332194","2654","301817","332196","324887","2657","336399","337533","333197","126303","334398","43027","336399","NA","Sternberg task","6","23337.0","18","1024"
"36","36","1278","1278","#3d3846","experiment","legacy","legacy","legacy","1","undefined","1","left","18","18","0","0","18","18","0","18","18","18","0","18","0","18","0","Mon Oct 16 18:06:17 2023","The main experiment item","True","Edward Banda Sternbergtask.osexp","C:\Users\Edward Banda\Desktop","False","mono","False","18","no","white","no","yes","768","legacy","6","11","C:/Users/Edward Banda/Desktop/subject-2.csv","legacy","9 6 2 4 1","Melodramatic Milgram","4.0.5","4","y","0","left","right","left","right","NA","962.0","40369","962","175512","NA","2","legacy","5","1024","2","48000","-16","experiment","2","even","4","337546","338595","2654","301817","338597","324887","2657","342800","343763","339598","126303","340799","43027","342800","NA","Sternberg task","7","24299.0","19","1024"
"40","40","1267","1267","#3d3846","experiment","legacy","legacy","legacy","1","undefined","1","left","19","19","0","0","19","19","0","19","19","19","0","19","0","19","0","Mon Oct 16 18:06:17 2023","The main experiment item","True","Edward Banda Sternbergtask.osexp","C:\Users\Edward Banda\Desktop","False","mono","False","18","no","white","no","yes","768","legacy","7","11","C:/Users/Edward Banda/Desktop/subject-2.csv","legacy","8 1 6","Melodramatic Milgram","4.0.5","3","y","0","left","right","left","right","NA","1053.0","40369","1053","175512","NA","2","legacy","3","1024","2","48000","-16","experiment","2","even","6","343765","344807","2654","301817","344809","324887","2657","349013","350067","345811","126303","347012","43027","349013","NA","Sternberg task","8","25352.0","20","1024"
"42","42","1234","1234","#3d3846","experiment","legacy","legacy","legacy","1","undefined","1","left","20","20","0","0","20","20","0","20","20","20","0","20","0","20","0","Mon Oct 16 18:06:17 2023","The main experiment item","True","Edward Banda Sternbergtask.osexp","C:\Users\Edward Banda\Desktop","False","mono","False","18","no","white","no","yes","768","legacy","8","11","C:/Users/Edward Banda/Desktop/subject-2.csv","legacy","9 1 7 2","Melodramatic Milgram","4.0.5","2","y","0","left","right","left","right","NA","578.0","40369","578","175512","NA","2","legacy","4","1024","2","48000","-16","experiment","2","even","1","350080","351128","2654","301817","351130","324887","2657","355333","355912","352131","126303","353332","43027","355333","NA","Sternberg task","9","25930.0","21","1024"
"45","45","1246","1246","#3d3846","experiment","legacy","legacy","legacy","1","undefined","1","left","21","21","0","0","21","21","0","21","21","21","0","21","0","21","0","Mon Oct 16 18:06:17 2023","The main experiment item","True","Edward Banda Sternbergtask.osexp","C:\Users\Edward Banda\Desktop","False","mono","False","18","no","white","no","yes","768","legacy","9","11","C:/Users/Edward Banda/Desktop/subject-2.csv","legacy","3 9 7 6 4","Melodramatic Milgram","4.0.5","3","y","0","left","right","left","right","NA","1500.0","40369","1500","175512","NA","2","legacy","5","1024","2","48000","-16","experiment","2","even","7","355927","356977","2654","301817","356978","324887","2657","361181","362682","357979","126303","359180","43027","361181","NA","Sternberg task","10","27430.0","22","1024"
"43","43","1245","1245","#3d3846","experiment","legacy","legacy","legacy","0","undefined","0","right","22","22","0","0","22","22","0","22","22","22","0","22","0","22","0","Mon Oct 16 18:06:17 2023","The main experiment item","True","Edward Banda Sternbergtask.osexp","C:\Users\Edward Banda\Desktop","False","mono","False","18","no","white","no","yes","768","legacy","10","11","C:/Users/Edward Banda/Desktop/subject-2.csv","legacy","5","Melodramatic Milgram","4.0.5","0","n","0","left","right","left","right","NA","1211.0","40369","1211","175512","NA","2","legacy","1","1024","2","48000","-16","experiment","2","even","8","362694","363741","2654","301817","363743","324887","2657","367946","369158","364744","126303","365945","43027","367946","NA","Sternberg task","10","28641.0","23","1024"
"45","45","1240","1240","#3d3846","experiment","legacy","legacy","legacy","1","undefined","1","right","23","23","0","0","23","23","0","23","23","23","0","23","0","23","0","Mon Oct 16 18:06:17 2023","The main experiment item","True","Edward Banda Sternbergtask.osexp","C:\Users\Edward Banda\Desktop","False","mono","False","18","no","white","no","yes","768","legacy","11","11","C:/Users/Edward Banda/Desktop/subject-2.csv","legacy","7 1 8 4 9 3","Melodramatic Milgram","4.0.5","0","n","0","right","right","right","right","NA","1126.0","40369","1126","175512","NA","2","legacy","6","1024","2","48000","-16","experiment","2","even","6","362694","370228","2654","301817","370230","369171","2657","374433","375560","371231","126303","372432","43027","374433","NA","Sternberg task","11","29767.0","24","1024"
"48","48","1239","1239","#3d3846","experiment","legacy","legacy","legacy","1","undefined","1","left","24","24","0","0","24","24","0","24","24","24","0","24","0","24","0","Mon Oct 16 18:06:17 2023","The main experiment item","True","Edward Banda Sternbergtask.osexp","C:\Users\Edward Banda\Desktop","False","mono","False","18","no","white","no","yes","768","legacy","12","11","C:/Users/Edward Banda/Desktop/subject-2.csv","legacy","2 6 1 7 4","Melodramatic Milgram","4.0.5","2","y","0","left","right","left","right","NA","1225.0","40369","1225","175512","NA","2","legacy","5","1024","2","48000","-16","experiment","2","even","6","375572","376612","2654","301817","376614","369171","2657","380817","382043","377615","126303","378816","43027","380817","NA","Sternberg task","12","30992.0","25","1024"
"50","50","1242","1242","#3d3846","experiment","legacy","legacy","legacy","1","undefined","1","right","25","25","0","0","25","25","0","25","25","25","0","25","0","25","0","Mon Oct 16 18:06:17 2023","The main experiment item","True","Edward Banda Sternbergtask.osexp","C:\Users\Edward Banda\Desktop","False","mono","False","18","no","white","no","yes","768","legacy","13","11","C:/Users/Edward Banda/Desktop/subject-2.csv","legacy","8 4 3 5","Melodramatic Milgram","4.0.5","0","n","0","right","right","right","right","NA","1304.0","40369","1304","175512","NA","2","legacy","4","1024","2","48000","-16","experiment","2","even","6","382055","383092","2654","301817","383094","369171","2657","387297","388602","384095","126303","385296","43027","387297","NA","Sternberg task","13","32296.0","26","1024"
"51","51","1238","1238","#3d3846","experiment","legacy","legacy","legacy","1","undefined","1","left","26","26","0","0","26","26","0","26","26","26","0","26","0","26","0","Mon Oct 16 18:06:17 2023","The main experiment item","True","Edward Banda Sternbergtask.osexp","C:\Users\Edward Banda\Desktop","False","mono","False","18","no","white","no","yes","768","legacy","14","11","C:/Users/Edward Banda/Desktop/subject-2.csv","legacy","3 9 6 2","Melodramatic Milgram","4.0.5","4","y","0","left","right","left","right","NA","1137.0","40369","1137","175512","NA","2","legacy","4","1024","2","48000","-16","experiment","2","even","2","388614","389661","2654","301817","389663","369171","2657","393867","395005","390664","126303","391865","43027","393867","NA","Sternberg task","14","33433.0","27","1024"
"53","53","1227","1227","#3d3846","experiment","legacy","legacy","legacy","1","undefined","1","right","27","27","0","0","27","27","0","27","27","27","0","27","0","27","0","Mon Oct 16 18:06:17 2023","The main experiment item","True","Edward Banda Sternbergtask.osexp","C:\Users\Edward Banda\Desktop","False","mono","False","18","no","white","no","yes","768","legacy","15","11","C:/Users/Edward Banda/Desktop/subject-2.csv","legacy","3 4 2","Melodramatic Milgram","4.0.5","0","n","0","right","right","right","right","NA","939.0","40369","939","175512","NA","2","legacy","3","1024","2","48000","-16","experiment","2","even","5","395018","396063","2654","301817","396065","369171","2657","400269","401210","397066","126303","398268","43027","400269","NA","Sternberg task","15","34372.0","28","1024"
"51","51","1254","1254","#3d3846","experiment","legacy","legacy","legacy","0","undefined","0","right","28","28","0","0","28","28","0","28","28","28","0","28","0","28","0","Mon Oct 16 18:06:17 2023","The main experiment item","True","Edward Banda Sternbergtask.osexp","C:\Users\Edward Banda\Desktop","False","mono","False","18","no","white","no","yes","768","legacy","16","11","C:/Users/Edward Banda/Desktop/subject-2.csv","legacy","1","Melodramatic Milgram","4.0.5","0","n","0","None","right","None","right","NA","2000.0","40369","2000","175512","NA","2","legacy","1","1024","2","48000","-16","experiment","2","even","7","401222","402261","2654","301817","402263","369171","2657","406466","408466","403264","126303","404465","43027","406466","NA","Sternberg task","15","36372.0","29","1024"
"53","53","1244","1244","#3d3846","experiment","legacy","legacy","legacy","1","undefined","1","right","29","29","0","0","29","29","0","29","29","29","0","29","0","29","0","Mon Oct 16 18:06:17 2023","The main experiment item","True","Edward Banda Sternbergtask.osexp","C:\Users\Edward Banda\Desktop","False","mono","False","18","no","white","no","yes","768","legacy","17","11","C:/Users/Edward Banda/Desktop/subject-2.csv","legacy","9 5 3 2 8 6","Melodramatic Milgram","4.0.5","0","n","0","right","right","right","right","NA","962.0","40369","962","175512","NA","2","legacy","6","1024","2","48000","-16","experiment","2","even","7","401222","409522","2654","301817","409523","408479","2657","413727","414690","410525","126303","411726","43027","413727","NA","Sternberg task","16","37334.0","30","1024"
"54","54","1248","1248","#3d3846","experiment","legacy","legacy","legacy","1","undefined","1","left","30","30","0","0","30","30","0","30","30","30","0","30","0","30","0","Mon Oct 16 18:06:17 2023","The main experiment item","True","Edward Banda Sternbergtask.osexp","C:\Users\Edward Banda\Desktop","False","mono","False","18","no","white","no","yes","768","legacy","18","11","C:/Users/Edward Banda/Desktop/subject-2.csv","legacy","3 4 9 6 2 9","Melodramatic Milgram","4.0.5","5","y","0","left","right","left","right","NA","1366.0","40369","1366","175512","NA","2","legacy","6","1024","2","48000","-16","experiment","2","even","2","414704","415752","2654","301817","415754","408479","2657","419957","421324","416755","126303","417956","43027","419957","NA","Sternberg task","17","38700.0","31","1024"
"56","56","1237","1237","#3d3846","experiment","legacy","legacy","legacy","1","undefined","1","left","31","31","0","0","31","31","0","31","31","31","0","31","0","31","0","Mon Oct 16 18:06:17 2023","The main experiment item","True","Edward Banda Sternbergtask.osexp","C:\Users\Edward Banda\Desktop","False","mono","False","18","no","white","no","yes","768","legacy","19","11","C:/Users/Edward Banda/Desktop/subject-2.csv","legacy","7 2 3","Melodramatic Milgram","4.0.5","3","y","0","left","right","left","right","NA","896.0","40369","896","175512","NA","2","legacy","3","1024","2","48000","-16","experiment","2","even","3","421336","422391","2654","301817","422393","408479","2657","426596","427493","423394","126303","424595","43027","426596","NA","Sternberg task","18","39596.0","32","1024"
"57","57","1229","1229","#3d3846","experiment","legacy","legacy","legacy","1","undefined","1","left","32","32","0","0","32","32","0","32","32","32","0","32","0","32","0","Mon Oct 16 18:06:17 2023","The main experiment item","True","Edward Banda Sternbergtask.osexp","C:\Users\Edward Banda\Desktop","False","mono","False","18","no","white","no","yes","768","legacy","20","11","C:/Users/Edward Banda/Desktop/subject-2.csv","legacy","6 7 9 3 1 2","Melodramatic Milgram","4.0.5","1","y","0","left","right","left","right","NA","988.0","40369","988","175512","NA","2","legacy","6","1024","2","48000","-16","experiment","2","even","6","427495","428543","2654","301817","428545","408479","2657","432748","433737","429546","126303","430747","43027","432748","NA","Sternberg task","19","40584.0","33","1024"
"58","58","1224","1224","#3d3846","experiment","legacy","legacy","legacy","1","undefined","1","right","33","33","0","0","33","33","0","33","33","33","0","33","0","33","0","Mon Oct 16 18:06:17 2023","The main experiment item","True","Edward Banda Sternbergtask.osexp","C:\Users\Edward Banda\Desktop","False","mono","False","18","no","white","no","yes","768","legacy","21","11","C:/Users/Edward Banda/Desktop/subject-2.csv","legacy","6 2 9 3 8 4","Melodramatic Milgram","4.0.5","0","n","0","right","right","right","right","NA","1040.0","40369","1040","175512","NA","2","legacy","6","1024","2","48000","-16","experiment","2","even","1","433750","434794","2654","301817","434796","408479","2657","439000","440041","435797","126303","436998","43027","438999","NA","Sternberg task","20","41624.0","34","1024"
"60","60","1224","1224","#3d3846","experiment","legacy","legacy","legacy","1","undefined","1","right","34","34","0","0","34","34","0","34","34","34","0","34","0","34","0","Mon Oct 16 18:06:17 2023","The main experiment item","True","Edward Banda Sternbergtask.osexp","C:\Users\Edward Banda\Desktop","False","mono","False","18","no","white","no","yes","768","legacy","22","11","C:/Users/Edward Banda/Desktop/subject-2.csv","legacy","6 7 5 9","Melodramatic Milgram","4.0.5","0","n","0","right","right","right","right","NA","1238.0","40369","1238","175512","NA","2","legacy","4","1024","2","48000","-16","experiment","2","even","2","440053","441100","2654","301817","441102","408479","2657","445307","446545","442104","126303","443305","43027","445307","NA","Sternberg task","21","42862.0","35","1024"
"61","61","1218","1218","#3d3846","experiment","legacy","legacy","legacy","1","undefined","1","left","35","35","0","0","35","35","0","35","35","35","0","35","0","35","0","Mon Oct 16 18:06:17 2023","The main experiment item","True","Edward Banda Sternbergtask.osexp","C:\Users\Edward Banda\Desktop","False","mono","False","18","no","white","no","yes","768","legacy","23","11","C:/Users/Edward Banda/Desktop/subject-2.csv","legacy","2 8 5 1","Melodramatic Milgram","4.0.5","4","y","0","left","right","left","right","NA","991.0","40369","991","175512","NA","2","legacy","4","1024","2","48000","-16","experiment","2","even","1","446558","447603","2654","301817","447605","408479","2657","451808","452799","448606","126303","449807","43027","451808","NA","Sternberg task","22","43853.0","36","1024"
"62","62","1211","1211","#3d3846","experiment","legacy","legacy","legacy","1","undefined","1","left","36","36","0","0","36","36","0","36","36","36","0","36","0","36","0","Mon Oct 16 18:06:17 2023","The main experiment item","True","Edward Banda Sternbergtask.osexp","C:\Users\Edward Banda\Desktop","False","mono","False","18","no","white","no","yes","768","legacy","24","11","C:/Users/Edward Banda/Desktop/subject-2.csv","legacy","7 1 3","Melodramatic Milgram","4.0.5","2","y","0","left","right","left","right","NA","958.0","40369","958","175512","NA","2","legacy","3","1024","2","48000","-16","experiment","2","even","1","452812","453863","2654","301817","453865","408479","2657","458069","459028","454866","126303","456067","43027","458069","NA","Sternberg task","23","44811.0","37","1024"
"63","63","1199","1199","#3d3846","experiment","legacy","legacy","legacy","1","undefined","1","left","37","37","0","0","37","37","0","37","37","37","0","37","0","37","0","Mon Oct 16 18:06:17 2023","The main experiment item","True","Edward Banda Sternbergtask.osexp","C:\Users\Edward Banda\Desktop","False","mono","False","18","no","white","no","yes","768","legacy","25","11","C:/Users/Edward Banda/Desktop/subject-2.csv","legacy","4 1 5","Melodramatic Milgram","4.0.5","2","y","0","left","right","left","right","NA","762.0","40369","762","175512","NA","2","legacy","3","1024","2","48000","-16","experiment","2","even","1","459040","460081","2654","301817","460082","408479","2657","464285","465048","461083","126303","462284","43027","464285","NA","Sternberg task","24","45573.0","38","1024"
"64","64","1194","1194","#3d3846","experiment","legacy","legacy","legacy","1","undefined","1","right","38","38","0","0","38","38","0","38","38","38","0","38","0","38","0","Mon Oct 16 18:06:17 2023","The main experiment item","True","Edward Banda Sternbergtask.osexp","C:\Users\Edward Banda\Desktop","False","mono","False","18","no","white","no","yes","768","legacy","26","11","C:/Users/Edward Banda/Desktop/subject-2.csv","legacy","4 2 7 6 1 3","Melodramatic Milgram","4.0.5","0","n","0","right","right","right","right","NA","999.0","40369","999","175512","NA","2","legacy","6","1024","2","48000","-16","experiment","2","even","8","465060","466112","2654","301817","466114","408479","2657","470317","471317","467115","126303","468316","43027","470317","NA","Sternberg task","25","46572.0","39","1024"
"65","65","1198","1198","#3d3846","experiment","legacy","legacy","legacy","1","undefined","1","right","39","39","0","0","39","39","0","39","39","39","0","39","0","39","0","Mon Oct 16 18:06:17 2023","The main experiment item","True","Edward Banda Sternbergtask.osexp","C:\Users\Edward Banda\Desktop","False","mono","False","18","no","white","no","yes","768","legacy","27","11","C:/Users/Edward Banda/Desktop/subject-2.csv","legacy","3 4 9 6 7 8","Melodramatic Milgram","4.0.5","0","n","0","right","right","right","right","NA","1367.0","40369","1367","175512","NA","2","legacy","6","1024","2","48000","-16","experiment","2","even","2","471329","472373","2654","301817","472374","408479","2657","476577","477945","473375","126303","474576","43027","476577","NA","Sternberg task","26","47939.0","40","1024"
"65","65","1209","1209","#3d3846","experiment","legacy","legacy","legacy","1","undefined","1","right","40","40","0","0","40","40","0","40","40","40","0","40","0","40","0","Mon Oct 16 18:06:17 2023","The main experiment item","True","Edward Banda Sternbergtask.osexp","C:\Users\Edward Banda\Desktop","False","mono","False","18","no","white","no","yes","768","legacy","28","11","C:/Users/Edward Banda/Desktop/subject-2.csv","legacy","7 4 2 8 1 9","Melodramatic Milgram","4.0.5","0","n","0","right","right","right","right","NA","1661.0","40369","1661","175512","NA","2","legacy","6","1024","2","48000","-16","experiment","2","even","5","477957","479007","2654","301817","479008","408479","2657","483211","484874","480009","126303","481210","43027","483211","NA","Sternberg task","27","49600.0","41","1024"
"66","66","1219","1219","#3d3846","experiment","legacy","legacy","legacy","1","undefined","1","left","41","41","0","0","41","41","0","41","41","41","0","41","0","41","0","Mon Oct 16 18:06:17 2023","The main experiment item","True","Edward Banda Sternbergtask.osexp","C:\Users\Edward Banda\Desktop","False","mono","False","18","no","white","no","yes","768","legacy","29","11","C:/Users/Edward Banda/Desktop/subject-2.csv","legacy","1 4 9 3 2 5","Melodramatic Milgram","4.0.5","3","y","0","left","right","left","right","NA","1623.0","40369","1623","175512","NA","2","legacy","6","1024","2","48000","-16","experiment","2","even","9","484886","485932","2654","301817","485934","408479","2657","490138","491762","486935","126303","488136","43027","490138","NA","Sternberg task","28","51223.0","42","1024"
"67","67","1221","1221","#3d3846","experiment","legacy","legacy","legacy","1","undefined","1","left","42","42","0","0","42","42","0","42","42","42","0","42","0","42","0","Mon Oct 16 18:06:17 2023","The main experiment item","True","Edward Banda Sternbergtask.osexp","C:\Users\Edward Banda\Desktop","False","mono","False","18","no","white","no","yes","768","legacy","30","11","C:/Users/Edward Banda/Desktop/subject-2.csv","legacy","6 9 7 4 5 1","Melodramatic Milgram","4.0.5","2","y","0","left","right","left","right","NA","1306.0","40369","1306","175512","NA","2","legacy","6","1024","2","48000","-16","experiment","2","even","9","491775","492813","2654","301817","492814","408479","2657","497017","498324","493815","126303","495016","43027","497017","NA","Sternberg task","29","52529.0","43","1024"
"68","68","1221","1221","#3d3846","experiment","legacy","legacy","legacy","1","undefined","1","right","43","43","0","0","43","43","0","43","43","43","0","43","0","43","0","Mon Oct 16 18:06:17 2023","The main experiment item","True","Edward Banda Sternbergtask.osexp","C:\Users\Edward Banda\Desktop","False","mono","False","18","no","white","no","yes","768","legacy","31","11","C:/Users/Edward Banda/Desktop/subject-2.csv","legacy","2 8 9 4 1","Melodramatic Milgram","4.0.5","0","n","0","right","right","right","right","NA","1210.0","40369","1210","175512","NA","2","legacy","5","1024","2","48000","-16","experiment","2","even","5","498336","499381","2654","301817","499383","408479","2657","503587","504798","500384","126303","501585","43027","503586","NA","Sternberg task","30","53739.0","44","1024"
"68","68","1213","1213","#3d3846","experiment","legacy","legacy","legacy","1","undefined","1","left","44","44","0","0","44","44","0","44","44","44","0","44","0","44","0","Mon Oct 16 18:06:17 2023","The main experiment item","True","Edward Banda Sternbergtask.osexp","C:\Users\Edward Banda\Desktop","False","mono","False","18","no","white","no","yes","768","legacy","32","11","C:/Users/Edward Banda/Desktop/subject-2.csv","legacy","8 9 5 7 1 6","Melodramatic Milgram","4.0.5","4","y","0","left","right","left","right","NA","861.0","40369","861","175512","NA","2","legacy","6","1024","2","48000","-16","experiment","2","even","7","504810","505849","2654","301817","505851","408479","2657","510055","510916","506852","126303","508054","43027","510055","NA","Sternberg task","31","54600.0","45","1024"
"69","69","1219","1219","#3d3846","experiment","legacy","legacy","legacy","1","undefined","1","left","45","45","0","0","45","45","0","45","45","45","0","45","0","45","0","Mon Oct 16 18:06:17 2023","The main experiment item","True","Edward Banda Sternbergtask.osexp","C:\Users\Edward Banda\Desktop","False","mono","False","18","no","white","no","yes","768","legacy","33","11","C:/Users/Edward Banda/Desktop/subject-2.csv","legacy","7 1 8 5 6 2","Melodramatic Milgram","4.0.5","2","y","0","left","right","left","right","NA","1490.0","40369","1490","175512","NA","2","legacy","6","1024","2","48000","-16","experiment","2","even","1","510919","511964","2654","301817","511966","408479","2657","516169","517660","512967","126303","514168","43027","516169","NA","Sternberg task","32","56090.0","46","1024"
"70","70","1218","1218","#3d3846","experiment","legacy","legacy","legacy","1","undefined","1","right","46","46","0","0","46","46","0","46","46","46","0","46","0","46","0","Mon Oct 16 18:06:17 2023","The main experiment item","True","Edward Banda Sternbergtask.osexp","C:\Users\Edward Banda\Desktop","False","mono","False","18","no","white","no","yes","768","legacy","34","11","C:/Users/Edward Banda/Desktop/subject-2.csv","legacy","1 6 4 3 9 7","Melodramatic Milgram","4.0.5","0","n","0","right","right","right","right","NA","1196.0","40369","1196","175512","NA","2","legacy","6","1024","2","48000","-16","experiment","2","even","8","517672","518725","2654","301817","518727","408479","2657","522931","524128","519728","126303","520929","43027","522930","NA","Sternberg task","33","57286.0","47","1024"
"70","70","1221","1221","#3d3846","experiment","legacy","legacy","legacy","1","undefined","1","right","47","47","0","0","47","47","0","47","47","47","0","47","0","47","0","Mon Oct 16 18:06:17 2023","The main experiment item","True","Edward Banda Sternbergtask.osexp","C:\Users\Edward Banda\Desktop","False","mono","False","18","no","white","no","yes","768","legacy","35","11","C:/Users/Edward Banda/Desktop/subject-2.csv","legacy","1 4 3 6 5","Melodramatic Milgram","4.0.5","0","n","0","right","right","right","right","NA","1364.0","40369","1364","175512","NA","2","legacy","5","1024","2","48000","-16","experiment","2","even","8","524141","525187","2654","301817","525189","408479","2657","529392","530757","526190","126303","527391","43027","529392","NA","Sternberg task","34","58650.0","48","1024"
"69","69","1237","1237","#3d3846","experiment","legacy","legacy","legacy","0","undefined","0","right","48","48","0","0","48","48","0","48","48","48","0","48","0","48","0","Mon Oct 16 18:06:17 2023","The main experiment item","True","Edward Banda Sternbergtask.osexp","C:\Users\Edward Banda\Desktop","False","mono","False","18","no","white","no","yes","768","legacy","36","11","C:/Users/Edward Banda/Desktop/subject-2.csv","legacy","7 9","Melodramatic Milgram","4.0.5","0","n","0","None","right","None","right","NA","2000.0","40369","2000","175512","NA","2","legacy","2","1024","2","48000","-16","experiment","2","even","1","530769","531818","2654","301817","531819","408479","2657","536024","538024","532821","126303","534022","43027","536024","NA","Sternberg task","34","60650.0","49","1024"
"70","70","1232","1232","#3d3846","experiment","legacy","legacy","legacy","1","undefined","1","right","49","49","0","0","49","49","0","49","49","49","0","49","0","49","0","Mon Oct 16 18:06:17 2023","The main experiment item","True","Edward Banda Sternbergtask.osexp","C:\Users\Edward Banda\Desktop","False","mono","False","18","no","white","no","yes","768","legacy","37","11","C:/Users/Edward Banda/Desktop/subject-2.csv","legacy","1 3 2 6 9","Melodramatic Milgram","4.0.5","0","n","0","right","right","right","right","NA","957.0","40369","957","175512","NA","2","legacy","5","1024","2","48000","-16","experiment","2","even","5","530769","539083","2654","301817","539084","538036","2657","543289","544248","540085","126303","541287","43027","543288","NA","Sternberg task","35","61607.0","50","1024"
"70","70","1227","1227","#3d3846","experiment","legacy","legacy","legacy","1","undefined","1","right","50","50","0","0","50","50","0","50","50","50","0","50","0","50","0","Mon Oct 16 18:06:17 2023","The main experiment item","True","Edward Banda Sternbergtask.osexp","C:\Users\Edward Banda\Desktop","False","mono","False","18","no","white","no","yes","768","legacy","38","11","C:/Users/Edward Banda/Desktop/subject-2.csv","legacy","2 8 6 3 1","Melodramatic Milgram","4.0.5","0","n","0","right","right","right","right","NA","997.0","40369","997","175512","NA","2","legacy","5","1024","2","48000","-16","experiment","2","even","7","544261","545307","2654","301817","545309","538036","2657","549513","550511","546310","126303","547512","43027","549513","NA","Sternberg task","36","62604.0","51","1024"
"71","71","1218","1218","#3d3846","experiment","legacy","legacy","legacy","1","undefined","1","right","51","51","0","0","51","51","0","51","51","51","0","51","0","51","0","Mon Oct 16 18:06:17 2023","The main experiment item","True","Edward Banda Sternbergtask.osexp","C:\Users\Edward Banda\Desktop","False","mono","False","18","no","white","no","yes","768","legacy","39","11","C:/Users/Edward Banda/Desktop/subject-2.csv","legacy","6 3 1 7 9 8","Melodramatic Milgram","4.0.5","0","n","0","right","right","right","right","NA","770.0","40369","770","175512","NA","2","legacy","6","1024","2","48000","-16","experiment","2","even","4","550523","551579","2654","301817","551581","538036","2657","555784","556555","552582","126303","553783","43027","555784","NA","Sternberg task","37","63374.0","52","1024"
"71","71","1219","1219","#3d3846","experiment","legacy","legacy","legacy","1","undefined","1","right","52","52","0","0","52","52","0","52","52","52","0","52","0","52","0","Mon Oct 16 18:06:17 2023","The main experiment item","True","Edward Banda Sternbergtask.osexp","C:\Users\Edward Banda\Desktop","False","mono","False","18","no","white","no","yes","768","legacy","40","11","C:/Users/Edward Banda/Desktop/subject-2.csv","legacy","2 7 5","Melodramatic Milgram","4.0.5","0","n","0","right","right","right","right","NA","1243.0","40369","1243","175512","NA","2","legacy","3","1024","2","48000","-16","experiment","2","even","8","556567","557615","2654","301817","557617","538036","2657","561820","563063","558618","126303","559819","43027","561820","NA","Sternberg task","38","64617.0","53","1024"
"72","72","1217","1217","#3d3846","experiment","legacy","legacy","legacy","1","undefined","1","right","53","53","0","0","53","53","0","53","53","53","0","53","0","53","0","Mon Oct 16 18:06:17 2023","The main experiment item","True","Edward Banda Sternbergtask.osexp","C:\Users\Edward Banda\Desktop","False","mono","False","18","no","white","no","yes","768","legacy","41","11","C:/Users/Edward Banda/Desktop/subject-2.csv","legacy","5 9 2 3","Melodramatic Milgram","4.0.5","0","n","0","right","right","right","right","NA","1103.0","40369","1103","175512","NA","2","legacy","4","1024","2","48000","-16","experiment","2","even","8","563076","564128","2654","301817","564130","538036","2657","568333","569437","565131","126303","566332","43027","568333","NA","Sternberg task","39","65720.0","54","1024"
"72","72","1218","1218","#3d3846","experiment","legacy","legacy","legacy","1","undefined","1","right","54","54","0","0","54","54","0","54","54","54","0","54","0","54","0","Mon Oct 16 18:06:17 2023","The main experiment item","True","Edward Banda Sternbergtask.osexp","C:\Users\Edward Banda\Desktop","False","mono","False","18","no","white","no","yes","768","legacy","42","11","C:/Users/Edward Banda/Desktop/subject-2.csv","legacy","1 7 5 2","Melodramatic Milgram","4.0.5","0","n","0","right","right","right","right","NA","1271.0","40369","1271","175512","NA","2","legacy","4","1024","2","48000","-16","experiment","2","even","3","569450","570498","2654","301817","570500","538036","2657","574704","575976","571501","126303","572703","43027","574704","NA","Sternberg task","40","66991.0","55","1024"
"73","73","1212","1212","#3d3846","experiment","legacy","legacy","legacy","1","undefined","1","left","55","55","0","0","55","55","0","55","55","55","0","55","0","55","0","Mon Oct 16 18:06:17 2023","The main experiment item","True","Edward Banda Sternbergtask.osexp","C:\Users\Edward Banda\Desktop","False","mono","False","18","no","white","no","yes","768","legacy","43","11","C:/Users/Edward Banda/Desktop/subject-2.csv","legacy","9 5 3 8 4","Melodramatic Milgram","4.0.5","1","y","0","left","right","left","right","NA","886.0","40369","886","175512","NA","2","legacy","5","1024","2","48000","-16","experiment","2","even","9","575988","577038","2654","301817","577039","538036","2657","581242","582129","578040","126303","579241","43027","581242","NA","Sternberg task","41","67877.0","56","1024"
"73","73","1205","1205","#3d3846","experiment","legacy","legacy","legacy","1","undefined","1","right","56","56","0","0","56","56","0","56","56","56","0","56","0","56","0","Mon Oct 16 18:06:17 2023","The main experiment item","True","Edward Banda Sternbergtask.osexp","C:\Users\Edward Banda\Desktop","False","mono","False","18","no","white","no","yes","768","legacy","44","11","C:/Users/Edward Banda/Desktop/subject-2.csv","legacy","6 9 4 5 2","Melodramatic Milgram","4.0.5","0","n","0","right","right","right","right","NA","838.0","40369","838","175512","NA","2","legacy","5","1024","2","48000","-16","experiment","2","even","1","582132","583170","2654","301817","583172","538036","2657","587375","588214","584173","126303","585374","43027","587375","NA","Sternberg task","42","68715.0","57","1024"
"74","74","1203","1203","#3d3846","experiment","legacy","legacy","legacy","1","undefined","1","left","57","57","0","0","57","57","0","57","57","57","0","57","0","57","0","Mon Oct 16 18:06:17 2023","The main experiment item","True","Edward Banda Sternbergtask.osexp","C:\Users\Edward Banda\Desktop","False","mono","False","18","no","white","no","yes","768","legacy","45","11","C:/Users/Edward Banda/Desktop/subject-2.csv","legacy","2 4 8 5 1 3","Melodramatic Milgram","4.0.5","1","y","0","left","right","left","right","NA","1093.0","40369","1093","175512","NA","2","legacy","6","1024","2","48000","-16","experiment","2","even","2","588226","589274","2654","301817","589275","538036","2657","593479","594573","590276","126303","591477","43027","593479","NA","Sternberg task","43","69808.0","58","1024"
"72","72","1195","1195","#3d3846","experiment","legacy","legacy","legacy","0","undefined","0","right","58","58","0","0","58","58","0","58","58","58","0","58","0","58","0","Mon Oct 16 18:06:17 2023","The main experiment item","True","Edward Banda Sternbergtask.osexp","C:\Users\Edward Banda\Desktop","False","mono","False","18","no","white","no","yes","768","legacy","46","11","C:/Users/Edward Banda/Desktop/subject-2.csv","legacy","6 8","Melodramatic Milgram","4.0.5","0","n","0","left","right","left","right","NA","727.0","40369","727","175512","NA","2","legacy","2","1024","2","48000","-16","experiment","2","even","9","594586","595640","2654","301817","595641","538036","2657","599844","600572","596642","126303","597843","43027","599844","NA","Sternberg task","43","70535.0","59","1024"
"73","73","1191","1191","#3d3846","experiment","legacy","legacy","legacy","1","undefined","1","right","59","59","0","0","59","59","0","59","59","59","0","59","0","59","0","Mon Oct 16 18:06:17 2023","The main experiment item","True","Edward Banda Sternbergtask.osexp","C:\Users\Edward Banda\Desktop","False","mono","False","18","no","white","no","yes","768","legacy","47","11","C:/Users/Edward Banda/Desktop/subject-2.csv","legacy","7 8 6 1","Melodramatic Milgram","4.0.5","0","n","0","right","right","right","right","NA","979.0","40369","979","175512","NA","2","legacy","4","1024","2","48000","-16","experiment","2","even","3","594586","601636","2654","301817","601638","600584","2657","605841","606821","602639","126303","603840","43027","605841","NA","Sternberg task","44","71514.0","60","1024"
"73","73","1188","1188","#3d3846","experiment","legacy","legacy","legacy","1","undefined","1","left","60","60","0","0","60","60","0","60","60","60","0","60","0","60","0","Mon Oct 16 18:06:17 2023","The main experiment item","True","Edward Banda Sternbergtask.osexp","C:\Users\Edward Banda\Desktop","False","mono","False","18","no","white","no","yes","768","legacy","48","11","C:/Users/Edward Banda/Desktop/subject-2.csv","legacy","9 3 1 2 5","Melodramatic Milgram","4.0.5","4","y","0","left","right","left","right","NA","963.0","40369","963","175512","NA","2","legacy","5","1024","2","48000","-16","experiment","2","even","2","606833","607881","2654","301817","607883","600584","2657","612086","613050","608884","126303","610085","43027","612086","NA","Sternberg task","45","72477.0","61","1024"
"74","74","1190","1190","#3d3846","experiment","legacy","legacy","legacy","1","undefined","1","left","61","61","0","0","61","61","0","61","61","61","0","61","0","61","0","Mon Oct 16 18:06:17 2023","The main experiment item","True","Edward Banda Sternbergtask.osexp","C:\Users\Edward Banda\Desktop","False","mono","False","18","no","white","no","yes","768","legacy","49","11","C:/Users/Edward Banda/Desktop/subject-2.csv","legacy","6 9 3 1","Melodramatic Milgram","4.0.5","4","y","0","left","right","left","right","NA","1304.0","40369","1304","175512","NA","2","legacy","4","1024","2","48000","-16","experiment","2","even","1","613062","614117","2654","301817","614119","600584","2657","618323","619628","615121","126303","616322","43027","618323","NA","Sternberg task","46","73781.0","62","1024"
"74","74","1183","1183","#3d3846","experiment","legacy","legacy","legacy","1","undefined","1","right","62","62","0","0","62","62","0","62","62","62","0","62","0","62","0","Mon Oct 16 18:06:17 2023","The main experiment item","True","Edward Banda Sternbergtask.osexp","C:\Users\Edward Banda\Desktop","False","mono","False","18","no","white","no","yes","768","legacy","50","11","C:/Users/Edward Banda/Desktop/subject-2.csv","legacy","7 3 2 8","Melodramatic Milgram","4.0.5","0","n","0","right","right","right","right","NA","808.0","40369","808","175512","NA","2","legacy","4","1024","2","48000","-16","experiment","2","even","4","619640","620688","2654","301817","620689","600584","2657","624893","625702","621690","126303","622892","43027","624893","NA","Sternberg task","47","74589.0","63","1024"
"75","75","1186","1186","#3d3846","experiment","legacy","legacy","legacy","1","undefined","1","left","63","63","0","0","63","63","0","63","63","63","0","63","0","63","0","Mon Oct 16 18:06:17 2023","The main experiment item","True","Edward Banda Sternbergtask.osexp","C:\Users\Edward Banda\Desktop","False","mono","False","18","no","white","no","yes","768","legacy","51","11","C:/Users/Edward Banda/Desktop/subject-2.csv","legacy","7 8 4 6 9 5","Melodramatic Milgram","4.0.5","4","y","0","left","right","left","right","NA","1334.0","40369","1334","175512","NA","2","legacy","6","1024","2","48000","-16","experiment","2","even","6","625714","626760","2654","301817","626762","600584","2657","630965","632300","627763","126303","628964","43027","630965","NA","Sternberg task","48","75923.0","64","1024"
"75","75","1180","1180","#3d3846","experiment","legacy","legacy","legacy","1","undefined","1","left","64","64","0","0","64","64","0","64","64","64","0","64","0","64","0","Mon Oct 16 18:06:17 2023","The main experiment item","True","Edward Banda Sternbergtask.osexp","C:\Users\Edward Banda\Desktop","False","mono","False","18","no","white","no","yes","768","legacy","52","11","C:/Users/Edward Banda/Desktop/subject-2.csv","legacy","8 3","Melodramatic Milgram","4.0.5","2","y","0","left","right","left","right","NA","836.0","40369","836","175512","NA","2","legacy","2","1024","2","48000","-16","experiment","2","even","3","632312","633356","2654","301817","633358","600584","2657","637562","638399","634359","126303","635561","43027","637562","NA","Sternberg task","49","76759.0","65","1024"
"75","75","1183","1183","#3d3846","experiment","legacy","legacy","legacy","1","undefined","1","left","65","65","0","0","65","65","0","65","65","65","0","65","0","65","0","Mon Oct 16 18:06:17 2023","The main experiment item","True","Edward Banda Sternbergtask.osexp","C:\Users\Edward Banda\Desktop","False","mono","False","18","no","white","no","yes","768","legacy","53","11","C:/Users/Edward Banda/Desktop/subject-2.csv","legacy","9 3 8 2 1 4","Melodramatic Milgram","4.0.5","3","y","0","left","right","left","right","NA","1337.0","40369","1337","175512","NA","2","legacy","6","1024","2","48000","-16","experiment","2","even","8","638412","639453","2654","301817","639455","600584","2657","643659","644997","640456","126303","641658","43027","643659","NA","Sternberg task","50","78096.0","66","1024"
"76","76","1179","1179","#3d3846","experiment","legacy","legacy","legacy","1","undefined","1","right","66","66","0","0","66","66","0","66","66","66","0","66","0","66","0","Mon Oct 16 18:06:17 2023","The main experiment item","True","Edward Banda Sternbergtask.osexp","C:\Users\Edward Banda\Desktop","False","mono","False","18","no","white","no","yes","768","legacy","54","11","C:/Users/Edward Banda/Desktop/subject-2.csv","legacy","9 7 4 5 8","Melodramatic Milgram","4.0.5","0","n","0","right","right","right","right","NA","903.0","40369","903","175512","NA","2","legacy","5","1024","2","48000","-16","experiment","2","even","6","645009","646050","2654","301817","646053","600584","2657","650257","651162","647054","126303","648256","43027","650257","NA","Sternberg task","51","78999.0","67","1024"
"76","76","1173","1173","#3d3846","experiment","legacy","legacy","legacy","1","undefined","1","left","67","67","0","0","67","67","0","67","67","67","0","67","0","67","0","Mon Oct 16 18:06:17 2023","The main experiment item","True","Edward Banda Sternbergtask.osexp","C:\Users\Edward Banda\Desktop","False","mono","False","18","no","white","no","yes","768","legacy","55","11","C:/Users/Edward Banda/Desktop/subject-2.csv","legacy","9 8 4","Melodramatic Milgram","4.0.5","1","y","0","left","right","left","right","NA","794.0","40369","794","175512","NA","2","legacy","3","1024","2","48000","-16","experiment","2","even","9","651165","652206","2654","301817","652207","600584","2657","656410","657206","653208","126303","654409","43027","656410","NA","Sternberg task","52","79793.0","68","1024"
"76","76","1167","1167","#3d3846","experiment","legacy","legacy","legacy","1","undefined","1","right","68","68","0","0","68","68","0","68","68","68","0","68","0","68","0","Mon Oct 16 18:06:17 2023","The main experiment item","True","Edward Banda Sternbergtask.osexp","C:\Users\Edward Banda\Desktop","False","mono","False","18","no","white","no","yes","768","legacy","56","11","C:/Users/Edward Banda/Desktop/subject-2.csv","legacy","2 6 4 3 9","Melodramatic Milgram","4.0.5","0","n","0","right","right","right","right","NA","798.0","40369","798","175512","NA","2","legacy","5","1024","2","48000","-16","experiment","2","even","1","657218","658275","2654","301817","658277","600584","2657","662481","663280","659278","126303","660479","43027","662481","NA","Sternberg task","53","80591.0","69","1024"
"77","77","1167","1167","#3d3846","experiment","legacy","legacy","legacy","1","undefined","1","left","69","69","0","0","69","69","0","69","69","69","0","69","0","69","0","Mon Oct 16 18:06:17 2023","The main experiment item","True","Edward Banda Sternbergtask.osexp","C:\Users\Edward Banda\Desktop","False","mono","False","18","no","white","no","yes","768","legacy","57","11","C:/Users/Edward Banda/Desktop/subject-2.csv","legacy","2 5 4 8 7","Melodramatic Milgram","4.0.5","3","y","0","left","right","left","right","NA","1122.0","40369","1122","175512","NA","2","legacy","5","1024","2","48000","-16","experiment","2","even","4","663293","664335","2654","301817","664336","600584","2657","668541","669664","665337","126303","666539","43027","668540","NA","Sternberg task","54","81713.0","70","1024"
"77","77","1165","1165","#3d3846","experiment","legacy","legacy","legacy","1","undefined","1","left","70","70","0","0","70","70","0","70","70","70","0","70","0","70","0","Mon Oct 16 18:06:17 2023","The main experiment item","True","Edward Banda Sternbergtask.osexp","C:\Users\Edward Banda\Desktop","False","mono","False","18","no","white","no","yes","768","legacy","58","11","C:/Users/Edward Banda/Desktop/subject-2.csv","legacy","2 4 6 9","Melodramatic Milgram","4.0.5","3","y","0","left","right","left","right","NA","1025.0","40369","1025","175512","NA","2","legacy","4","1024","2","48000","-16","experiment","2","even","6","669676","670721","2654","301817","670723","600584","2657","674926","675952","671724","126303","672925","43027","674926","NA","Sternberg task","55","82738.0","71","1024"
"77","77","1168","1168","#3d3846","experiment","legacy","legacy","legacy","1","undefined","1","right","71","71","0","0","71","71","0","71","71","71","0","71","0","71","0","Mon Oct 16 18:06:17 2023","The main experiment item","True","Edward Banda Sternbergtask.osexp","C:\Users\Edward Banda\Desktop","False","mono","False","18","no","white","no","yes","768","legacy","59","11","C:/Users/Edward Banda/Desktop/subject-2.csv","legacy","5 3 2 6 9 8","Melodramatic Milgram","4.0.5","0","n","0","right","right","right","right","NA","1362.0","40369","1362","175512","NA","2","legacy","6","1024","2","48000","-16","experiment","2","even","4","675964","677012","2654","301817","677014","600584","2657","681217","682581","678015","126303","679216","43027","681217","NA","Sternberg task","56","84100.0","72","1024"
"78","78","1169","1169","#3d3846","experiment","legacy","legacy","legacy","1","undefined","1","left","72","72","0","0","72","72","0","72","72","72","0","72","0","72","0","Mon Oct 16 18:06:17 2023","The main experiment item","True","Edward Banda Sternbergtask.osexp","C:\Users\Edward Banda\Desktop","False","mono","False","18","no","white","no","yes","768","legacy","60","11","C:/Users/Edward Banda/Desktop/subject-2.csv","legacy","4 6 2 5 1","Melodramatic Milgram","4.0.5","5","y","0","left","right","left","right","NA","1260.0","40369","1260","175512","NA","2","legacy","5","1024","2","48000","-16","experiment","2","even","1","682593","683637","2654","301817","683639","600584","2657","687843","689104","684640","126303","685842","43027","687843","NA","Sternberg task","57","85360.0","73","1024"
"78","78","1168","1168","#3d3846","experiment","legacy","legacy","legacy","1","undefined","1","right","73","73","0","0","73","73","0","73","73","73","0","73","0","73","0","Mon Oct 16 18:06:17 2023","The main experiment item","True","Edward Banda Sternbergtask.osexp","C:\Users\Edward Banda\Desktop","False","mono","False","18","no","white","no","yes","768","legacy","61","11","C:/Users/Edward Banda/Desktop/subject-2.csv","legacy","5 2","Melodramatic Milgram","4.0.5","0","n","0","right","right","right","right","NA","1081.0","40369","1081","175512","NA","2","legacy","2","1024","2","48000","-16","experiment","2","even","7","689116","690169","2654","301817","690171","600584","2657","694375","695457","691173","126303","692374","43027","694375","NA","Sternberg task","58","86441.0","74","1024"
"78","78","1163","1163","#3d3846","experiment","legacy","legacy","legacy","1","undefined","1","left","74","74","0","0","74","74","0","74","74","74","0","74","0","74","0","Mon Oct 16 18:06:17 2023","The main experiment item","True","Edward Banda Sternbergtask.osexp","C:\Users\Edward Banda\Desktop","False","mono","False","18","no","white","no","yes","768","legacy","62","11","C:/Users/Edward Banda/Desktop/subject-2.csv","legacy","3 4","Melodramatic Milgram","4.0.5","1","y","0","left","right","left","right","NA","786.0","40369","786","175512","NA","2","legacy","2","1024","2","48000","-16","experiment","2","even","3","695469","696517","2654","301817","696519","600584","2657","700724","701511","697521","126303","698723","43027","700724","NA","Sternberg task","59","87227.0","75","1024"
"78","78","1168","1168","#3d3846","experiment","legacy","legacy","legacy","1","undefined","1","right","75","75","0","0","75","75","0","75","75","75","0","75","0","75","0","Mon Oct 16 18:06:17 2023","The main experiment item","True","Edward Banda Sternbergtask.osexp","C:\Users\Edward Banda\Desktop","False","mono","False","18","no","white","no","yes","768","legacy","63","11","C:/Users/Edward Banda/Desktop/subject-2.csv","legacy","1 6 4","Melodramatic Milgram","4.0.5","0","n","0","right","right","right","right","NA","1564.0","40369","1564","175512","NA","2","legacy","3","1024","2","48000","-16","experiment","2","even","7","701524","702569","2654","301817","702572","600584","2657","706775","708340","703573","126303","704774","43027","706775","NA","Sternberg task","60","88791.0","76","1024"
"79","79","1163","1163","#3d3846","experiment","legacy","legacy","legacy","1","undefined","1","left","76","76","0","0","76","76","0","76","76","76","0","76","0","76","0","Mon Oct 16 18:06:17 2023","The main experiment item","True","Edward Banda Sternbergtask.osexp","C:\Users\Edward Banda\Desktop","False","mono","False","18","no","white","no","yes","768","legacy","64","11","C:/Users/Edward Banda/Desktop/subject-2.csv","legacy","8 9 5 6 7","Melodramatic Milgram","4.0.5","1","y","0","left","right","left","right","NA","782.0","40369","782","175512","NA","2","legacy","5","1024","2","48000","-16","experiment","2","even","8","708352","709413","2654","301817","709415","600584","2657","713620","714403","710416","126303","711618","43027","713619","NA","Sternberg task","61","89573.0","77","1024"
"79","79","1164","1164","#3d3846","experiment","legacy","legacy","legacy","1","undefined","1","right","77","77","0","0","77","77","0","77","77","77","0","77","0","77","0","Mon Oct 16 18:06:17 2023","The main experiment item","True","Edward Banda Sternbergtask.osexp","C:\Users\Edward Banda\Desktop","False","mono","False","18","no","white","no","yes","768","legacy","65","11","C:/Users/Edward Banda/Desktop/subject-2.csv","legacy","7 1","Melodramatic Milgram","4.0.5","0","n","0","right","right","right","right","NA","1241.0","40369","1241","175512","NA","2","legacy","2","1024","2","48000","-16","experiment","2","even","8","714416","715460","2654","301817","715462","600584","2657","719665","720907","716463","126303","717664","43027","719665","NA","Sternberg task","62","90814.0","78","1024"
"79","79","1162","1162","#3d3846","experiment","legacy","legacy","legacy","1","undefined","1","right","78","78","0","0","78","78","0","78","78","78","0","78","0","78","0","Mon Oct 16 18:06:17 2023","The main experiment item","True","Edward Banda Sternbergtask.osexp","C:\Users\Edward Banda\Desktop","False","mono","False","18","no","white","no","yes","768","legacy","66","11","C:/Users/Edward Banda/Desktop/subject-2.csv","legacy","7 1 5 6 3","Melodramatic Milgram","4.0.5","0","n","0","right","right","right","right","NA","1012.0","40369","1012","175512","NA","2","legacy","5","1024","2","48000","-16","experiment","2","even","8","720920","721966","2654","301817","721968","600584","2657","726172","727185","722969","126303","724170","43027","726172","NA","Sternberg task","63","91826.0","79","1024"
"80","80","1159","1159","#3d3846","experiment","legacy","legacy","legacy","1","undefined","1","right","79","79","0","0","79","79","0","79","79","79","0","79","0","79","0","Mon Oct 16 18:06:17 2023","The main experiment item","True","Edward Banda Sternbergtask.osexp","C:\Users\Edward Banda\Desktop","False","mono","False","18","no","white","no","yes","768","legacy","67","11","C:/Users/Edward Banda/Desktop/subject-2.csv","legacy","7 9 1 6","Melodramatic Milgram","4.0.5","0","n","0","right","right","right","right","NA","905.0","40369","905","175512","NA","2","legacy","4","1024","2","48000","-16","experiment","2","even","4","727197","728238","2654","301817","728240","600584","2657","732443","733349","729241","126303","730442","43027","732443","NA","Sternberg task","64","92731.0","80","1024"
"80","80","1155","1155","#3d3846","experiment","legacy","legacy","legacy","1","undefined","1","left","80","80","0","0","80","80","0","80","80","80","0","80","0","80","0","Mon Oct 16 18:06:17 2023","The main experiment item","True","Edward Banda Sternbergtask.osexp","C:\Users\Edward Banda\Desktop","False","mono","False","18","no","white","no","yes","768","legacy","68","11","C:/Users/Edward Banda/Desktop/subject-2.csv","legacy","3 5 9 6 2 4","Melodramatic Milgram","4.0.5","1","y","0","left","right","left","right","NA","886.0","40369","886","175512","NA","2","legacy","6","1024","2","48000","-16","experiment","2","even","3","733351","734405","2654","301817","734407","600584","2657","738611","739499","735408","126303","736609","43027","738610","NA","Sternberg task","65","93617.0","81","1024"
"80","80","1153","1153","#3d3846","experiment","legacy","legacy","legacy","1","undefined","1","right","81","81","0","0","81","81","0","81","81","81","0","81","0","81","0","Mon Oct 16 18:06:17 2023","The main experiment item","True","Edward Banda Sternbergtask.osexp","C:\Users\Edward Banda\Desktop","False","mono","False","18","no","white","no","yes","768","legacy","69","11","C:/Users/Edward Banda/Desktop/subject-2.csv","legacy","1 4 9 2 5","Melodramatic Milgram","4.0.5","0","n","0","right","right","right","right","NA","954.0","40369","954","175512","NA","2","legacy","5","1024","2","48000","-16","experiment","2","even","7","739501","740546","2654","301817","740547","600584","2657","744752","745707","741548","126303","742751","43027","744752","NA","Sternberg task","66","94571.0","82","1024"
"80","80","1150","1150","#3d3846","experiment","legacy","legacy","legacy","1","undefined","1","left","82","82","0","0","82","82","0","82","82","82","0","82","0","82","0","Mon Oct 16 18:06:17 2023","The main experiment item","True","Edward Banda Sternbergtask.osexp","C:\Users\Edward Banda\Desktop","False","mono","False","18","no","white","no","yes","768","legacy","70","11","C:/Users/Edward Banda/Desktop/subject-2.csv","legacy","4 6 5 8","Melodramatic Milgram","4.0.5","1","y","0","left","right","left","right","NA","916.0","40369","916","175512","NA","2","legacy","4","1024","2","48000","-16","experiment","2","even","4","745720","746765","2654","301817","746766","600584","2657","750969","751886","747767","126303","748968","43027","750969","NA","Sternberg task","67","95487.0","83","1024"
"80","80","1149","1149","#3d3846","experiment","legacy","legacy","legacy","1","undefined","1","left","83","83","0","0","83","83","0","83","83","83","0","83","0","83","0","Mon Oct 16 18:06:17 2023","The main experiment item","True","Edward Banda Sternbergtask.osexp","C:\Users\Edward Banda\Desktop","False","mono","False","18","no","white","no","yes","768","legacy","71","11","C:/Users/Edward Banda/Desktop/subject-2.csv","legacy","5 7 8 2 3 8","Melodramatic Milgram","4.0.5","5","y","0","left","right","left","right","NA","1094.0","40369","1094","175512","NA","2","legacy","6","1024","2","48000","-16","experiment","2","even","3","751899","752959","2654","301817","752961","600584","2657","757164","758260","753962","126303","755163","43027","757164","NA","Sternberg task","68","96581.0","84","1024"
"81","81","1148","1148","#3d3846","experiment","legacy","legacy","legacy","1","undefined","1","right","84","84","0","0","84","84","0","84","84","84","0","84","0","84","0","Mon Oct 16 18:06:17 2023","The main experiment item","True","Edward Banda Sternbergtask.osexp","C:\Users\Edward Banda\Desktop","False","mono","False","18","no","white","no","yes","768","legacy","72","11","C:/Users/Edward Banda/Desktop/subject-2.csv","legacy","1 8 7","Melodramatic Milgram","4.0.5","0","n","0","right","right","right","right","NA","1079.0","40369","1079","175512","NA","2","legacy","3","1024","2","48000","-16","experiment","2","even","4","758272","759328","2654","301817","759330","600584","2657","763533","764613","760331","126303","761532","43027","763533","NA","Sternberg task","69","97660.0","85","1024"
"81","81","1146","1146","#3d3846","experiment","legacy","legacy","legacy","1","undefined","1","left","85","85","0","0","85","85","0","85","85","85","0","85","0","85","0","Mon Oct 16 18:06:17 2023","The main experiment item","True","Edward Banda Sternbergtask.osexp","C:\Users\Edward Banda\Desktop","False","mono","False","18","no","white","no","yes","768","legacy","73","11","C:/Users/Edward Banda/Desktop/subject-2.csv","legacy","6 1 2","Melodramatic Milgram","4.0.5","3","y","0","left","right","left","right","NA","978.0","40369","978","175512","NA","2","legacy","3","1024","2","48000","-16","experiment","2","even","2","764625","765671","2654","301817","765673","600584","2657","769878","770858","766675","126303","767876","43027","769878","NA","Sternberg task","70","98638.0","86","1024"
"81","81","1146","1146","#3d3846","experiment","legacy","legacy","legacy","1","undefined","1","right","86","86","0","0","86","86","0","86","86","86","0","86","0","86","0","Mon Oct 16 18:06:17 2023","The main experiment item","True","Edward Banda Sternbergtask.osexp","C:\Users\Edward Banda\Desktop","False","mono","False","18","no","white","no","yes","768","legacy","74","11","C:/Users/Edward Banda/Desktop/subject-2.csv","legacy","8 9","Melodramatic Milgram","4.0.5","0","n","0","right","right","right","right","NA","1077.0","40369","1077","175512","NA","2","legacy","2","1024","2","48000","-16","experiment","2","even","5","770870","771909","2654","301817","771910","600584","2657","776113","777191","772911","126303","774112","43027","776113","NA","Sternberg task","71","99715.0","87","1024"
"81","81","1141","1141","#3d3846","experiment","legacy","legacy","legacy","1","undefined","1","left","87","87","0","0","87","87","0","87","87","87","0","87","0","87","0","Mon Oct 16 18:06:17 2023","The main experiment item","True","Edward Banda Sternbergtask.osexp","C:\Users\Edward Banda\Desktop","False","mono","False","18","no","white","no","yes","768","legacy","75","11","C:/Users/Edward Banda/Desktop/subject-2.csv","legacy","2 3","Melodramatic Milgram","4.0.5","1","y","0","left","right","left","right","NA","772.0","40369","772","175512","NA","2","legacy","2","1024","2","48000","-16","experiment","2","even","2","777203","778251","2654","301817","778253","600584","2657","782457","783230","779254","126303","780456","43027","782457","NA","Sternberg task","72","100487.0","88","1024"
"82","82","1140","1140","#3d3846","experiment","legacy","legacy","legacy","1","undefined","1","right","88","88","0","0","88","88","0","88","88","88","0","88","0","88","0","Mon Oct 16 18:06:17 2023","The main experiment item","True","Edward Banda Sternbergtask.osexp","C:\Users\Edward Banda\Desktop","False","mono","False","18","no","white","no","yes","768","legacy","76","11","C:/Users/Edward Banda/Desktop/subject-2.csv","legacy","4 1","Melodramatic Milgram","4.0.5","0","n","0","right","right","right","right","NA","1033.0","40369","1033","175512","NA","2","legacy","2","1024","2","48000","-16","experiment","2","even","6","783243","784289","2654","301817","784291","600584","2657","788495","789529","785292","126303","786493","43027","788495","NA","Sternberg task","73","101520.0","89","1024"
"82","82","1139","1139","#3d3846","experiment","legacy","legacy","legacy","1","undefined","1","left","89","89","0","0","89","89","0","89","89","89","0","89","0","89","0","Mon Oct 16 18:06:17 2023","The main experiment item","True","Edward Banda Sternbergtask.osexp","C:\Users\Edward Banda\Desktop","False","mono","False","18","no","white","no","yes","768","legacy","77","11","C:/Users/Edward Banda/Desktop/subject-2.csv","legacy","3 2 1 4 7","Melodramatic Milgram","4.0.5","2","y","0","left","right","left","right","NA","997.0","40369","997","175512","NA","2","legacy","5","1024","2","48000","-16","experiment","2","even","2","789541","790588","2654","301817","790590","600584","2657","794793","795791","791591","126303","792792","43027","794793","NA","Sternberg task","74","102517.0","90","1024"
"82","82","1136","1136","#3d3846","experiment","legacy","legacy","legacy","1","undefined","1","right","90","90","0","0","90","90","0","90","90","90","0","90","0","90","0","Mon Oct 16 18:06:17 2023","The main experiment item","True","Edward Banda Sternbergtask.osexp","C:\Users\Edward Banda\Desktop","False","mono","False","18","no","white","no","yes","768","legacy","78","11","C:/Users/Edward Banda/Desktop/subject-2.csv","legacy","9 8 2 7 4","Melodramatic Milgram","4.0.5","0","n","0","right","right","right","right","NA","902.0","40369","902","175512","NA","2","legacy","5","1024","2","48000","-16","experiment","2","even","5","795803","796844","2654","301817","796846","600584","2657","801049","801952","797847","126303","799048","43027","801049","NA","Sternberg task","75","103419.0","91","1024"
"82","82","1136","1136","#3d3846","experiment","legacy","legacy","legacy","1","undefined","1","right","91","91","0","0","91","91","0","91","91","91","0","91","0","91","0","Mon Oct 16 18:06:17 2023","The main experiment item","True","Edward Banda Sternbergtask.osexp","C:\Users\Edward Banda\Desktop","False","mono","False","18","no","white","no","yes","768","legacy","79","11","C:/Users/Edward Banda/Desktop/subject-2.csv","legacy","3 9 8 1 6 4","Melodramatic Milgram","4.0.5","0","n","0","right","right","right","right","NA","1106.0","40369","1106","175512","NA","2","legacy","6","1024","2","48000","-16","experiment","2","even","7","801955","803029","2654","301817","803031","600584","2657","807234","808341","804032","126303","805233","43027","807234","NA","Sternberg task","76","104525.0","92","1024"
"82","82","1134","1134","#3d3846","experiment","legacy","legacy","legacy","1","undefined","1","right","92","92","0","0","92","92","0","92","92","92","0","92","0","92","0","Mon Oct 16 18:06:17 2023","The main experiment item","True","Edward Banda Sternbergtask.osexp","C:\Users\Edward Banda\Desktop","False","mono","False","18","no","white","no","yes","768","legacy","80","11","C:/Users/Edward Banda/Desktop/subject-2.csv","legacy","6 9 4 5 3 2","Melodramatic Milgram","4.0.5","0","n","0","right","right","right","right","NA","1020.0","40369","1020","175512","NA","2","legacy","6","1024","2","48000","-16","experiment","2","even","8","808353","809413","2654","301817","809415","600584","2657","813618","814639","810416","126303","811617","43027","813618","NA","Sternberg task","77","105545.0","93","1024"
"82","82","1133","1133","#3d3846","experiment","legacy","legacy","legacy","1","undefined","1","right","93","93","0","0","93","93","0","93","93","93","0","93","0","93","0","Mon Oct 16 18:06:17 2023","The main experiment item","True","Edward Banda Sternbergtask.osexp","C:\Users\Edward Banda\Desktop","False","mono","False","18","no","white","no","yes","768","legacy","81","11","C:/Users/Edward Banda/Desktop/subject-2.csv","legacy","2 5 1 4","Melodramatic Milgram","4.0.5","0","n","0","right","right","right","right","NA","980.0","40369","980","175512","NA","2","legacy","4","1024","2","48000","-16","experiment","2","even","6","814652","815693","2654","301817","815694","600584","2657","819898","820879","816696","126303","817897","43027","819898","NA","Sternberg task","78","106525.0","94","1024"
"83","83","1134","1134","#3d3846","experiment","legacy","legacy","legacy","1","undefined","1","left","94","94","0","0","94","94","0","94","94","94","0","94","0","94","0","Mon Oct 16 18:06:17 2023","The main experiment item","True","Edward Banda Sternbergtask.osexp","C:\Users\Edward Banda\Desktop","False","mono","False","18","no","white","no","yes","768","legacy","82","11","C:/Users/Edward Banda/Desktop/subject-2.csv","legacy","4 7 6 8 2 3","Melodramatic Milgram","4.0.5","6","y","0","left","right","left","right","NA","1297.0","40369","1297","175512","NA","2","legacy","6","1024","2","48000","-16","experiment","2","even","3","820891","821938","2654","301817","821940","600584","2657","826143","827442","822941","126303","824142","43027","826143","NA","Sternberg task","79","107822.0","95","1024"
"83","83","1135","1135","#3d3846","experiment","legacy","legacy","legacy","1","undefined","1","right","95","95","0","0","95","95","0","95","95","95","0","95","0","95","0","Mon Oct 16 18:06:17 2023","The main experiment item","True","Edward Banda Sternbergtask.osexp","C:\Users\Edward Banda\Desktop","False","mono","False","18","no","white","no","yes","768","legacy","83","11","C:/Users/Edward Banda/Desktop/subject-2.csv","legacy","1 4 9 3","Melodramatic Milgram","4.0.5","0","n","0","right","right","right","right","NA","1233.0","40369","1233","175512","NA","2","legacy","4","1024","2","48000","-16","experiment","2","even","5","827455","828501","2654","301817","828502","600584","2657","832707","833940","829504","126303","830705","43027","832707","NA","Sternberg task","80","109055.0","96","1024"
"83","83","1140","1140","#3d3846","experiment","legacy","legacy","legacy","1","undefined","1","right","96","96","0","0","96","96","0","96","96","96","0","96","0","96","0","Mon Oct 16 18:06:17 2023","The main experiment item","True","Edward Banda Sternbergtask.osexp","C:\Users\Edward Banda\Desktop","False","mono","False","18","no","white","no","yes","768","legacy","84","11","C:/Users/Edward Banda/Desktop/subject-2.csv","legacy","6 9 5","Melodramatic Milgram","4.0.5","0","n","0","right","right","right","right","NA","1614.0","40369","1614","175512","NA","2","legacy","3","1024","2","48000","-16","experiment","2","even","8","833943","834989","2654","301817","834991","600584","2657","839194","840809","835992","126303","837193","43027","839194","NA","Sternberg task","81","110669.0","97","1024"
"83","83","1147","1147","#3d3846","experiment","legacy","legacy","legacy","1","undefined","1","left","97","97","0","0","97","97","0","97","97","97","0","97","0","97","0","Mon Oct 16 18:06:17 2023","The main experiment item","True","Edward Banda Sternbergtask.osexp","C:\Users\Edward Banda\Desktop","False","mono","False","18","no","white","no","yes","768","legacy","85","11","C:/Users/Edward Banda/Desktop/subject-2.csv","legacy","7 4 2 6 3 5","Melodramatic Milgram","4.0.5","6","y","0","left","right","left","right","NA","1814.0","40369","1814","175512","NA","2","legacy","6","1024","2","48000","-16","experiment","2","even","5","840821","841864","2654","301817","841866","600584","2657","846070","847886","842867","126303","844069","43027","846070","NA","Sternberg task","82","112483.0","98","1024"
"83","83","1145","1145","#3d3846","experiment","legacy","legacy","legacy","1","undefined","1","left","98","98","0","0","98","98","0","98","98","98","0","98","0","98","0","Mon Oct 16 18:06:17 2023","The main experiment item","True","Edward Banda Sternbergtask.osexp","C:\Users\Edward Banda\Desktop","False","mono","False","18","no","white","no","yes","768","legacy","86","11","C:/Users/Edward Banda/Desktop/subject-2.csv","legacy","6 5","Melodramatic Milgram","4.0.5","2","y","0","left","right","left","right","NA","946.0","40369","946","175512","NA","2","legacy","2","1024","2","48000","-16","experiment","2","even","5","847898","848949","2654","301817","848951","600584","2657","853157","854104","849953","126303","851155","43027","853157","NA","Sternberg task","83","113429.0","99","1024"
"84","84","1145","1145","#3d3846","experiment","legacy","legacy","legacy","1","undefined","1","left","99","99","0","0","99","99","0","99","99","99","0","99","0","99","0","Mon Oct 16 18:06:17 2023","The main experiment item","True","Edward Banda Sternbergtask.osexp","C:\Users\Edward Banda\Desktop","False","mono","False","18","no","white","no","yes","768","legacy","87","11","C:/Users/Edward Banda/Desktop/subject-2.csv","legacy","8","Melodramatic Milgram","4.0.5","1","y","0","left","right","left","right","NA","1079.0","40369","1079","175512","NA","2","legacy","1","1024","2","48000","-16","experiment","2","even","8","854117","855172","2654","301817","855174","600584","2657","859378","860458","856175","126303","857376","43027","859378","NA","Sternberg task","84","114508.0","100","1024"
"84","84","1143","1143","#3d3846","experiment","legacy","legacy","legacy","1","undefined","1","right","100","100","0","0","100","100","0","100","100","100","0","100","0","100","0","Mon Oct 16 18:06:17 2023","The main experiment item","True","Edward Banda Sternbergtask.osexp","C:\Users\Edward Banda\Desktop","False","mono","False","18","no","white","no","yes","768","legacy","88","11","C:/Users/Edward Banda/Desktop/subject-2.csv","legacy","2 8 9","Melodramatic Milgram","4.0.5","0","n","0","right","right","right","right","NA","987.0","40369","987","175512","NA","2","legacy","3","1024","2","48000","-16","experiment","2","even","6","860470","861514","2654","301817","861515","600584","2657","865719","866707","862516","126303","863718","43027","865719","NA","Sternberg task","85","115495.0","101","1024"
"84","84","1148","1148","#3d3846","experiment","legacy","legacy","legacy","1","undefined","1","right","101","101","0","0","101","101","0","101","101","101","0","101","0","101","0","Mon Oct 16 18:06:17 2023","The main experiment item","True","Edward Banda Sternbergtask.osexp","C:\Users\Edward Banda\Desktop","False","mono","False","18","no","white","no","yes","768","legacy","89","11","C:/Users/Edward Banda/Desktop/subject-2.csv","legacy","4 2 6 9","Melodramatic Milgram","4.0.5","0","n","0","right","right","right","right","NA","1665.0","40369","1665","175512","NA","2","legacy","4","1024","2","48000","-16","experiment","2","even","7","866719","867759","2654","301817","867761","600584","2657","871964","873630","868762","126303","869963","43027","871964","NA","Sternberg task","86","117160.0","102","1024"
"84","84","1153","1153","#3d3846","experiment","legacy","legacy","legacy","1","undefined","1","right","102","102","0","0","102","102","0","102","102","102","0","102","0","102","0","Mon Oct 16 18:06:17 2023","The main experiment item","True","Edward Banda Sternbergtask.osexp","C:\Users\Edward Banda\Desktop","False","mono","False","18","no","white","no","yes","768","legacy","90","11","C:/Users/Edward Banda/Desktop/subject-2.csv","legacy","3 9 1","Melodramatic Milgram","4.0.5","0","n","0","right","right","right","right","NA","1685.0","40369","1685","175512","NA","2","legacy","3","1024","2","48000","-16","experiment","2","even","7","873642","874687","2654","301817","874689","600584","2657","878892","880578","875690","126303","876891","43027","878892","NA","Sternberg task","87","118845.0","103","1024"
"84","84","1154","1154","#3d3846","experiment","legacy","legacy","legacy","1","undefined","1","left","103","103","0","0","103","103","0","103","103","103","0","103","0","103","0","Mon Oct 16 18:06:17 2023","The main experiment item","True","Edward Banda Sternbergtask.osexp","C:\Users\Edward Banda\Desktop","False","mono","False","18","no","white","no","yes","768","legacy","91","11","C:/Users/Edward Banda/Desktop/subject-2.csv","legacy","3 5 7 1","Melodramatic Milgram","4.0.5","3","y","0","left","right","left","right","NA","1217.0","40369","1217","175512","NA","2","legacy","4","1024","2","48000","-16","experiment","2","even","7","880590","881632","2654","301817","881634","600584","2657","885839","887057","882635","126303","883836","43027","885839","NA","Sternberg task","88","120062.0","104","1024"
"84","84","1155","1155","#3d3846","experiment","legacy","legacy","legacy","1","undefined","1","left","104","104","0","0","104","104","0","104","104","104","0","104","0","104","0","Mon Oct 16 18:06:17 2023","The main experiment item","True","Edward Banda Sternbergtask.osexp","C:\Users\Edward Banda\Desktop","False","mono","False","18","no","white","no","yes","768","legacy","92","11","C:/Users/Edward Banda/Desktop/subject-2.csv","legacy","7 8 6 3 1","Melodramatic Milgram","4.0.5","5","y","0","left","right","left","right","NA","1281.0","40369","1281","175512","NA","2","legacy","5","1024","2","48000","-16","experiment","2","even","1","887070","888117","2654","301817","888118","600584","2657","892323","893605","889119","126303","890322","43027","892323","NA","Sternberg task","89","121343.0","105","1024"
"84","84","1155","1155","#3d3846","experiment","legacy","legacy","legacy","1","undefined","1","left","105","105","0","0","105","105","0","105","105","105","0","105","0","105","0","Mon Oct 16 18:06:17 2023","The main experiment item","True","Edward Banda Sternbergtask.osexp","C:\Users\Edward Banda\Desktop","False","mono","False","18","no","white","no","yes","768","legacy","93","11","C:/Users/Edward Banda/Desktop/subject-2.csv","legacy","3 5 4 7","Melodramatic Milgram","4.0.5","1","y","0","left","right","left","right","NA","1124.0","40369","1124","175512","NA","2","legacy","4","1024","2","48000","-16","experiment","2","even","3","893617","894654","2654","301817","894656","600584","2657","898859","899984","895657","126303","896858","43027","898859","NA","Sternberg task","90","122467.0","106","1024"
"85","85","1154","1154","#3d3846","experiment","legacy","legacy","legacy","1","undefined","1","right","106","106","0","0","106","106","0","106","106","106","0","106","0","106","0","Mon Oct 16 18:06:17 2023","The main experiment item","True","Edward Banda Sternbergtask.osexp","C:\Users\Edward Banda\Desktop","False","mono","False","18","no","white","no","yes","768","legacy","94","11","C:/Users/Edward Banda/Desktop/subject-2.csv","legacy","7 6 4 8 1 2","Melodramatic Milgram","4.0.5","0","n","0","right","right","right","right","NA","1116.0","40369","1116","175512","NA","2","legacy","6","1024","2","48000","-16","experiment","2","even","9","899997","901049","2654","301817","901051","600584","2657","905255","906372","902052","126303","903253","43027","905254","NA","Sternberg task","91","123583.0","107","1024"
"85","85","1151","1151","#3d3846","experiment","legacy","legacy","legacy","1","undefined","1","left","107","107","0","0","107","107","0","107","107","107","0","107","0","107","0","Mon Oct 16 18:06:17 2023","The main experiment item","True","Edward Banda Sternbergtask.osexp","C:\Users\Edward Banda\Desktop","False","mono","False","18","no","white","no","yes","768","legacy","95","11","C:/Users/Edward Banda/Desktop/subject-2.csv","legacy","9 4 2","Melodramatic Milgram","4.0.5","1","y","0","left","right","left","right","NA","732.0","40369","732","175512","NA","2","legacy","3","1024","2","48000","-16","experiment","2","even","9","906385","907433","2654","301817","907435","600584","2657","911639","912372","908436","126303","909638","43027","911639","NA","Sternberg task","92","124315.0","108","1024"
"85","85","1151","1151","#3d3846","experiment","legacy","legacy","legacy","1","undefined","1","right","108","108","0","0","108","108","0","108","108","108","0","108","0","108","0","Mon Oct 16 18:06:17 2023","The main experiment item","True","Edward Banda Sternbergtask.osexp","C:\Users\Edward Banda\Desktop","False","mono","False","18","no","white","no","yes","768","legacy","96","11","C:/Users/Edward Banda/Desktop/subject-2.csv","legacy","2 3 8 5 6 7","Melodramatic Milgram","4.0.5","0","n","0","right","right","right","right","NA","1192.0","40369","1192","175512","NA","2","legacy","6","1024","2","48000","-16","experiment","2","even","1","912384","913426","2654","301817","913428","600584","2657","917632","918826","914429","126303","915631","43027","917632","NA","Sternberg task","93","125507.0","109","1024"
"85","85","1148","1148","#3d3846","experiment","legacy","legacy","legacy","1","undefined","1","left","109","109","0","0","109","109","0","109","109","109","0","109","0","109","0","Mon Oct 16 18:06:17 2023","The main experiment item","True","Edward Banda Sternbergtask.osexp","C:\Users\Edward Banda\Desktop","False","mono","False","18","no","white","no","yes","768","legacy","97","11","C:/Users/Edward Banda/Desktop/subject-2.csv","legacy","8 9 6 1","Melodramatic Milgram","4.0.5","2","y","0","left","right","left","right","NA","832.0","40369","832","175512","NA","2","legacy","4","1024","2","48000","-16","experiment","2","even","9","918838","919880","2654","301817","919881","600584","2657","924086","924920","920883","126303","922085","43027","924086","NA","Sternberg task","94","126339.0","110","1024"
"85","85","1149","1149","#3d3846","experiment","legacy","legacy","legacy","1","undefined","1","right","110","110","0","0","110","110","0","110","110","110","0","110","0","110","0","Mon Oct 16 18:06:17 2023","The main experiment item","True","Edward Banda Sternbergtask.osexp","C:\Users\Edward Banda\Desktop","False","mono","False","18","no","white","no","yes","768","legacy","98","11","C:/Users/Edward Banda/Desktop/subject-2.csv","legacy","8 5 4 2 9 6","Melodramatic Milgram","4.0.5","0","n","0","right","right","right","right","NA","1260.0","40369","1260","175512","NA","2","legacy","6","1024","2","48000","-16","experiment","2","even","3","924933","925977","2654","301817","925979","600584","2657","930182","931443","926980","126303","928181","43027","930182","NA","Sternberg task","95","127599.0","111","1024"
"85","85","1149","1149","#3d3846","experiment","legacy","legacy","legacy","1","undefined","1","left","111","111","0","0","111","111","0","111","111","111","0","111","0","111","0","Mon Oct 16 18:06:17 2023","The main experiment item","True","Edward Banda Sternbergtask.osexp","C:\Users\Edward Banda\Desktop","False","mono","False","18","no","white","no","yes","768","legacy","99","11","C:/Users/Edward Banda/Desktop/subject-2.csv","legacy","5 7 3 6 2","Melodramatic Milgram","4.0.5","5","y","0","left","right","left","right","NA","1146.0","40369","1146","175512","NA","2","legacy","5","1024","2","48000","-16","experiment","2","even","2","931456","932508","2654","301817","932510","600584","2657","936714","937862","933511","126303","934712","43027","936713","NA","Sternberg task","96","128745.0","112","1024"
"85","85","1150","1150","#3d3846","experiment","legacy","legacy","legacy","1","undefined","1","right","112","112","0","0","112","112","0","112","112","112","0","112","0","112","0","Mon Oct 16 18:06:17 2023","The main experiment item","True","Edward Banda Sternbergtask.osexp","C:\Users\Edward Banda\Desktop","False","mono","False","18","no","white","no","yes","768","legacy","100","11","C:/Users/Edward Banda/Desktop/subject-2.csv","legacy","5 3 8 7 2 4","Melodramatic Milgram","4.0.5","0","n","0","right","right","right","right","NA","1303.0","40369","1303","175512","NA","2","legacy","6","1024","2","48000","-16","experiment","2","even","9","937874","938921","2654","301817","938923","600584","2657","943126","944430","939924","126303","941125","43027","943126","NA","Sternberg task","97","130048.0","113","1024"
"85","85","1152","1152","#3d3846","experiment","legacy","legacy","legacy","1","undefined","1","right","113","113","0","0","113","113","0","113","113","113","0","113","0","113","0","Mon Oct 16 18:06:17 2023","The main experiment item","True","Edward Banda Sternbergtask.osexp","C:\Users\Edward Banda\Desktop","False","mono","False","18","no","white","no","yes","768","legacy","101","11","C:/Users/Edward Banda/Desktop/subject-2.csv","legacy","1 7 8 3 9","Melodramatic Milgram","4.0.5","0","n","0","right","right","right","right","NA","1311.0","40369","1311","175512","NA","2","legacy","5","1024","2","48000","-16","experiment","2","even","2","944442","945484","2654","301817","945486","600584","2657","949691","951004","946488","126303","947689","43027","949691","NA","Sternberg task","98","131359.0","114","1024"
"86","86","1142","1142","#3d3846","experiment","legacy","legacy","legacy","1","undefined","1","right","114","114","0","0","114","114","0","114","114","114","0","114","0","114","0","Mon Oct 16 18:06:17 2023","The main experiment item","True","Edward Banda Sternbergtask.osexp","C:\Users\Edward Banda\Desktop","False","mono","False","18","no","white","no","yes","768","legacy","102","11","C:/Users/Edward Banda/Desktop/subject-2.csv","legacy","9","Melodramatic Milgram","4.0.5","0","n","0","right","right","right","right","NA","76.0","40369","76","175512","NA","2","legacy","1","1024","2","48000","-16","experiment","2","even","6","951016","952062","2654","301817","952064","600584","2657","956267","956344","953065","126303","954266","43027","956267","NA","Sternberg task","99","131435.0","115","1024"
"86","86","1144","1144","#3d3846","experiment","legacy","legacy","legacy","1","undefined","1","left","115","115","0","0","115","115","0","115","115","115","0","115","0","115","0","Mon Oct 16 18:06:17 2023","The main experiment item","True","Edward Banda Sternbergtask.osexp","C:\Users\Edward Banda\Desktop","False","mono","False","18","no","white","no","yes","768","legacy","103","11","C:/Users/Edward Banda/Desktop/subject-2.csv","legacy","4 3 2 5 8","Melodramatic Milgram","4.0.5","2","y","0","left","right","left","right","NA","1315.0","40369","1315","175512","NA","2","legacy","5","1024","2","48000","-16","experiment","2","even","3","956356","957405","2654","301817","957406","600584","2657","961611","962927","958408","126303","959609","43027","961610","NA","Sternberg task","100","132750.0","116","1024"
"86","86","1144","1144","#3d3846","experiment","legacy","legacy","legacy","1","undefined","1","left","116","116","0","0","116","116","0","116","116","116","0","116","0","116","0","Mon Oct 16 18:06:17 2023","The main experiment item","True","Edward Banda Sternbergtask.osexp","C:\Users\Edward Banda\Desktop","False","mono","False","18","no","white","no","yes","768","legacy","104","11","C:/Users/Edward Banda/Desktop/subject-2.csv","legacy","9 5 8 1","Melodramatic Milgram","4.0.5","2","y","0","left","right","left","right","NA","1171.0","40369","1171","175512","NA","2","legacy","4","1024","2","48000","-16","experiment","2","even","5","962940","963984","2654","301817","963985","600584","2657","968189","969361","964986","126303","966188","43027","968189","NA","Sternberg task","101","133921.0","117","1024"
"86","86","1145","1145","#3d3846","experiment","legacy","legacy","legacy","1","undefined","1","left","117","117","0","0","117","117","0","117","117","117","0","117","0","117","0","Mon Oct 16 18:06:17 2023","The main experiment item","True","Edward Banda Sternbergtask.osexp","C:\Users\Edward Banda\Desktop","False","mono","False","18","no","white","no","yes","768","legacy","105","11","C:/Users/Edward Banda/Desktop/subject-2.csv","legacy","8 5 4 7 3 1","Melodramatic Milgram","4.0.5","2","y","0","left","right","left","right","NA","1227.0","40369","1227","175512","NA","2","legacy","6","1024","2","48000","-16","experiment","2","even","5","969374","970415","2654","301817","970416","600584","2657","974622","975850","971418","126303","972620","43027","974621","NA","Sternberg task","102","135148.0","118","1024"
"85","85","1142","1142","#3d3846","experiment","legacy","legacy","legacy","0","undefined","0","left","118","118","0","0","118","118","0","118","118","118","0","118","0","118","0","Mon Oct 16 18:06:17 2023","The main experiment item","True","Edward Banda Sternbergtask.osexp","C:\Users\Edward Banda\Desktop","False","mono","False","18","no","white","no","yes","768","legacy","106","11","C:/Users/Edward Banda/Desktop/subject-2.csv","legacy","7","Melodramatic Milgram","4.0.5","1","y","0","right","right","right","right","NA","763.0","40369","763","175512","NA","2","legacy","1","1024","2","48000","-16","experiment","2","even","7","975862","976906","2654","301817","976908","600584","2657","981115","981879","977909","126303","979111","43027","981112","NA","Sternberg task","102","135911.0","119","1024"
"85","85","1138","1138","#3d3846","experiment","legacy","legacy","legacy","1","undefined","1","left","119","119","0","0","119","119","0","119","119","119","0","119","0","119","0","Mon Oct 16 18:06:17 2023","The main experiment item","True","Edward Banda Sternbergtask.osexp","C:\Users\Edward Banda\Desktop","False","mono","False","18","no","white","no","yes","768","legacy","107","11","C:/Users/Edward Banda/Desktop/subject-2.csv","legacy","6 8 9 3 4 9","Melodramatic Milgram","4.0.5","5","y","0","left","right","left","right","NA","725.0","40369","725","175512","NA","2","legacy","6","1024","2","48000","-16","experiment","2","even","4","975862","982938","2654","301817","982940","981892","2657","987143","987869","983941","126303","985142","43027","987143","NA","Sternberg task","103","136636.0","120","1024"
"85","85","1136","1136","#3d3846","experiment","legacy","legacy","legacy","1","undefined","1","left","120","120","0","0","120","120","0","120","120","120","0","120","0","120","0","Mon Oct 16 18:06:17 2023","The main experiment item","True","Edward Banda Sternbergtask.osexp","C:\Users\Edward Banda\Desktop","False","mono","False","18","no","white","no","yes","768","legacy","108","11","C:/Users/Edward Banda/Desktop/subject-2.csv","legacy","2 3 7 4","Melodramatic Milgram","4.0.5","1","y","0","left","right","left","right","NA","827.0","40369","827","175512","NA","2","legacy","4","1024","2","48000","-16","experiment","2","even","2","987882","988930","2654","301817","988932","981892","2657","993135","993964","989933","126303","991134","43027","993135","NA","Sternberg task","104","137463.0","121","1024"
"86","86","1138","1138","#3d3846","experiment","legacy","legacy","legacy","1","undefined","1","right","121","121","0","0","121","121","0","121","121","121","0","121","0","121","0","Mon Oct 16 18:06:17 2023","The main experiment item","True","Edward Banda Sternbergtask.osexp","C:\Users\Edward Banda\Desktop","False","mono","False","18","no","white","no","yes","768","legacy","109","11","C:/Users/Edward Banda/Desktop/subject-2.csv","legacy","8 5 7 3 6","Melodramatic Milgram","4.0.5","0","n","0","right","right","right","right","NA","1425.0","40369","1425","175512","NA","2","legacy","5","1024","2","48000","-16","experiment","2","even","9","993976","995020","2654","301817","995022","981892","2657","999226","1000652","996023","126303","997224","43027","999226","NA","Sternberg task","105","138888.0","122","1024"
"86","86","1140","1140","#3d3846","experiment","legacy","legacy","legacy","1","undefined","1","left","122","122","0","0","122","122","0","122","122","122","0","122","0","122","0","Mon Oct 16 18:06:17 2023","The main experiment item","True","Edward Banda Sternbergtask.osexp","C:\Users\Edward Banda\Desktop","False","mono","False","18","no","white","no","yes","768","legacy","110","11","C:/Users/Edward Banda/Desktop/subject-2.csv","legacy","8 5 3 7 4 6","Melodramatic Milgram","4.0.5","6","y","0","left","right","left","right","NA","1392.0","40369","1392","175512","NA","2","legacy","6","1024","2","48000","-16","experiment","2","even","6","1000665","1001713","2654","301817","1001714","981892","2657","1005917","1007310","1002715","126303","1003916","43027","1005917","NA","Sternberg task","106","140280.0","123","1024"
