"acc","accuracy","average_response_time","avg_rt","background","block","canvas_backend","clock_backend","color_backend","correct","correct_instruction1","correct_new_keyboard_response","correct_response","count_ISI","count_correctFeedback","count_expSequence","count_experiment","count_experimentLoop","count_fixation","count_incorrectFeedback","count_instruction1","count_instructions2","count_memorySet","count_new_keyboard_response","count_new_logger","count_practiceLoop","count_probe","count_thankYou","datetime","description","disable_garbage_collection","experiment_file","experiment_path","font_bold","font_family","font_italic","font_size","font_underline","foreground","form_clicks","fullscreen","height","keyboard_backend","live_row","live_row_practiceLoop","logfile","mouse_backend","numberSet","opensesame_codename","opensesame_version","posInSet","present","repeat_cycle","response","response_instruction1","response_instructions2","response_new_keyboard_response","response_thankYou","response_time","response_time_instruction1","response_time_instructions2","response_time_new_keyboard_response","response_time_thankYou","round_decimals","sampler_backend","setSize","sound_buf_size","sound_channels","sound_freq","sound_sample_size","start","subject_nr","subject_parity","target","time_ISI","time_correctFeedback","time_expSequence","time_experiment","time_experimentLoop","time_fixation","time_incorrectFeedback","time_instruction1","time_instructions2","time_memorySet","time_new_keyboard_response","time_new_logger","time_practiceLoop","time_probe","time_thankYou","title","total_correct","total_response_time","total_responses","width"
"100","100","1531","1531","black","practice","legacy","legacy","legacy","1","undefined","1","left","0","0","0","0","0","0","0","0","0","0","0","0","0","0","0","Wed Oct 18 09:21:28 2023","The main experiment item","True","SternbergTask.osexp","/Users/test/Desktop","False","mono","False","18","no","white","no","yes","768","legacy","0","0","/Users/test/Desktop/AT-subject-4.csv","legacy","4 3 1 7 9 8","Melodramatic Milgram","4.0.5","1","y","0","left","right","NA","left","NA","1531.0","31509","NA","1531","NA","2","legacy","6","1024","2","48000","-16","experiment","4","even","4","41594","NA","39367","5670","NA","39383","NA","5848","NA","40391","43598","45129","37429","43598","NA","Sternberg Task","1","1531.0","1","1024"
"100","100","1331","1331","black","practice","legacy","legacy","legacy","1","undefined","1","right","1","1","1","0","0","1","1","0","0","1","1","1","0","1","0","Wed Oct 18 09:21:28 2023","The main experiment item","True","SternbergTask.osexp","/Users/test/Desktop","False","mono","False","18","no","white","no","yes","768","legacy","1","1","/Users/test/Desktop/AT-subject-4.csv","legacy","4 1 5","Melodramatic Milgram","4.0.5","0","n","0","right","right","NA","right","NA","1132.0","31509","NA","1132","NA","2","legacy","3","1024","2","48000","-16","experiment","4","even","2","48428","45164","46216","5670","NA","46220","NA","5848","NA","47224","50437","51570","37429","50437","NA","Sternberg Task","2","2663.0","2","1024"
"100","100","1211","1211","black","practice","legacy","legacy","legacy","1","undefined","1","right","2","2","2","0","0","2","2","0","0","2","2","2","0","2","0","Wed Oct 18 09:21:28 2023","The main experiment item","True","SternbergTask.osexp","/Users/test/Desktop","False","mono","False","18","no","white","no","yes","768","legacy","2","2","/Users/test/Desktop/AT-subject-4.csv","legacy","5 7 8 4 1 2","Melodramatic Milgram","4.0.5","0","n","0","right","right","NA","right","NA","971.0","31509","NA","971","NA","2","legacy","6","1024","2","48000","-16","experiment","4","even","6","54834","51573","52624","5670","NA","52627","NA","5848","NA","53630","56839","57811","37429","56839","NA","Sternberg Task","3","3634.0","3","1024"
"100","100","1115","1115","black","practice","legacy","legacy","legacy","1","undefined","1","right","3","3","3","0","0","3","3","0","0","3","3","3","0","3","0","Wed Oct 18 09:21:28 2023","The main experiment item","True","SternbergTask.osexp","/Users/test/Desktop","False","mono","False","18","no","white","no","yes","768","legacy","3","3","/Users/test/Desktop/AT-subject-4.csv","legacy","3 1 9 4","Melodramatic Milgram","4.0.5","0","n","0","right","right","NA","right","NA","828.0","31509","NA","828","NA","2","legacy","4","1024","2","48000","-16","experiment","4","even","6","61090","57816","58881","5670","NA","58884","NA","5848","NA","59888","63094","63923","37429","63093","NA","Sternberg Task","4","4462.0","4","1024"
"80","80","1096","1096","black","practice","legacy","legacy","legacy","0","undefined","0","right","4","4","4","0","0","4","4","0","0","4","4","4","0","4","0","Wed Oct 18 09:21:28 2023","The main experiment item","True","SternbergTask.osexp","/Users/test/Desktop","False","mono","False","18","no","white","no","yes","768","legacy","4","4","/Users/test/Desktop/AT-subject-4.csv","legacy","9 6 7 4 5","Melodramatic Milgram","4.0.5","0","n","0","left","right","NA","left","NA","1021.0","31509","NA","1021","NA","2","legacy","5","1024","2","48000","-16","experiment","4","even","3","67199","63927","64990","5670","NA","64993","NA","5848","NA","65996","69202","70224","37429","69202","NA","Sternberg Task","4","5483.0","5","1024"
"66","66","1168","1168","black","practice","legacy","legacy","legacy","0","undefined","0","left","5","5","5","0","0","5","5","0","0","5","5","5","0","5","0","Wed Oct 18 09:21:28 2023","The main experiment item","True","SternbergTask.osexp","/Users/test/Desktop","False","mono","False","18","no","white","no","yes","768","legacy","5","5","/Users/test/Desktop/AT-subject-4.csv","legacy","6","Melodramatic Milgram","4.0.5","1","y","0","right","right","NA","right","NA","1527.0","31509","NA","1527","NA","2","legacy","1","1024","2","48000","-16","experiment","4","even","6","73504","63927","71295","5670","NA","71299","70228","5848","NA","72302","75509","77037","37429","75509","NA","Sternberg Task","4","7010.0","6","1024"
"71","71","1090","1090","black","practice","legacy","legacy","legacy","1","undefined","1","left","6","6","6","0","0","6","6","0","0","6","6","6","0","6","0","Wed Oct 18 09:21:28 2023","The main experiment item","True","SternbergTask.osexp","/Users/test/Desktop","False","mono","False","18","no","white","no","yes","768","legacy","6","6","/Users/test/Desktop/AT-subject-4.csv","legacy","4 8","Melodramatic Milgram","4.0.5","1","y","0","left","right","NA","left","NA","625.0","31509","NA","625","NA","2","legacy","2","1024","2","48000","-16","experiment","4","even","4","80308","63927","78098","5670","NA","78101","77041","5848","NA","79104","82311","82937","37429","82311","NA","Sternberg Task","5","7635.0","7","1024"
"62","62","1204","1204","black","practice","legacy","legacy","legacy","0","undefined","0","right","7","7","7","0","0","7","7","0","0","7","7","7","0","7","0","Wed Oct 18 09:21:28 2023","The main experiment item","True","SternbergTask.osexp","/Users/test/Desktop","False","mono","False","18","no","white","no","yes","768","legacy","7","7","/Users/test/Desktop/AT-subject-4.csv","legacy","5","Melodramatic Milgram","4.0.5","0","n","0","None","right","NA","None","NA","2000.0","31509","NA","2000","NA","2","legacy","1","1024","2","48000","-16","experiment","4","even","3","86198","82941","83989","5670","NA","83992","77041","5848","NA","84994","88200","90200","37429","88200","NA","Sternberg Task","5","9635.0","8","1024"
"55","55","1292","1292","black","practice","legacy","legacy","legacy","0","undefined","0","left","8","8","8","0","0","8","8","0","0","8","8","8","0","8","0","Wed Oct 18 09:21:28 2023","The main experiment item","True","SternbergTask.osexp","/Users/test/Desktop","False","mono","False","18","no","white","no","yes","768","legacy","8","8","/Users/test/Desktop/AT-subject-4.csv","legacy","2 9 4","Melodramatic Milgram","4.0.5","3","y","0","None","right","NA","None","NA","2000.0","31509","NA","2000","NA","2","legacy","3","1024","2","48000","-16","experiment","4","even","4","93467","82941","91256","5670","NA","91260","90203","5848","NA","92264","95470","97470","37429","95469","NA","Sternberg Task","5","11635.0","9","1024"
"50","50","1265","1265","black","practice","legacy","legacy","legacy","0","undefined","0","left","9","9","9","0","0","9","9","0","0","9","9","9","0","9","0","Wed Oct 18 09:21:28 2023","The main experiment item","True","SternbergTask.osexp","/Users/test/Desktop","False","mono","False","18","no","white","no","yes","768","legacy","9","9","/Users/test/Desktop/AT-subject-4.csv","legacy","1 7 9 8 5","Melodramatic Milgram","4.0.5","4","y","0","right","right","NA","right","NA","1017.0","31509","NA","1017","NA","2","legacy","5","1024","2","48000","-16","experiment","4","even","8","100736","82941","98527","5670","NA","98530","97473","5848","NA","99533","102739","103757","37429","102738","NA","Sternberg Task","5","12652.0","10","1024"
"45","45","1332","1332","black","practice","legacy","legacy","legacy","0","undefined","0","right","10","10","10","0","0","10","10","0","0","10","10","10","0","10","0","Wed Oct 18 09:21:28 2023","The main experiment item","True","SternbergTask.osexp","/Users/test/Desktop","False","mono","False","18","no","white","no","yes","768","legacy","10","10","/Users/test/Desktop/AT-subject-4.csv","legacy","2 1","Melodramatic Milgram","4.0.5","0","n","0","None","right","NA","None","NA","2000.0","31509","NA","2000","NA","2","legacy","2","1024","2","48000","-16","experiment","4","even","5","107020","82941","104810","5670","NA","104813","103761","5848","NA","105816","109023","111023","37429","109022","NA","Sternberg Task","5","14652.0","11","1024"
"50","50","1276","1276","black","practice","legacy","legacy","legacy","1","undefined","1","left","11","11","11","0","0","11","11","0","0","11","11","11","0","11","0","Wed Oct 18 09:21:28 2023","The main experiment item","True","SternbergTask.osexp","/Users/test/Desktop","False","mono","False","18","no","white","no","yes","768","legacy","11","11","/Users/test/Desktop/AT-subject-4.csv","legacy","1 5 2 9","Melodramatic Milgram","4.0.5","2","y","0","left","right","NA","left","NA","660.0","31509","NA","660","NA","2","legacy","4","1024","2","48000","-16","experiment","4","even","5","114293","82941","112082","5670","NA","112086","111026","5848","NA","113089","116296","116957","37429","116296","NA","Sternberg Task","6","15312.0","12","1024"
"46","46","1331","1331","black","experiment","legacy","legacy","legacy","0","undefined","0","right","12","12","12","0","0","12","12","0","0","12","12","12","0","12","0","Wed Oct 18 09:21:28 2023","The main experiment item","True","SternbergTask.osexp","/Users/test/Desktop","False","mono","False","18","no","white","no","yes","768","legacy","0","11","/Users/test/Desktop/AT-subject-4.csv","legacy","5 3 8 7 2 4","Melodramatic Milgram","4.0.5","0","n","0","None","right","right","None","NA","2000.0","31509","2537","2000","NA","2","legacy","6","1024","2","48000","-16","experiment","4","even","9","122813","116962","120604","5670","120504","120607","111026","5848","117966","121610","124816","126816","37429","124815","NA","Sternberg Task","6","17312.0","13","1024"
"42","42","1295","1295","black","experiment","legacy","legacy","legacy","0","undefined","0","right","13","13","13","0","0","13","13","0","0","13","13","13","0","13","0","Wed Oct 18 09:21:28 2023","The main experiment item","True","SternbergTask.osexp","/Users/test/Desktop","False","mono","False","18","no","white","no","yes","768","legacy","1","11","/Users/test/Desktop/AT-subject-4.csv","legacy","1 4 9 3","Melodramatic Milgram","4.0.5","0","n","0","left","right","right","left","NA","826.0","31509","2537","826","NA","2","legacy","4","1024","2","48000","-16","experiment","4","even","5","130083","116962","127872","5670","120504","127876","126819","5848","117966","128880","132086","132913","37429","132085","NA","Sternberg Task","6","18138.0","14","1024"
"40","40","1342","1342","black","experiment","legacy","legacy","legacy","0","undefined","0","right","14","14","14","0","0","14","14","0","0","14","14","14","0","14","0","Wed Oct 18 09:21:28 2023","The main experiment item","True","SternbergTask.osexp","/Users/test/Desktop","False","mono","False","18","no","white","no","yes","768","legacy","2","11","/Users/test/Desktop/AT-subject-4.csv","legacy","4 2 6 9","Melodramatic Milgram","4.0.5","0","n","0","None","right","right","None","NA","2000.0","31509","2537","2000","NA","2","legacy","4","1024","2","48000","-16","experiment","4","even","7","136193","116962","133981","5670","120504","133984","132916","5848","117966","134986","138196","140196","37429","138195","NA","Sternberg Task","6","20138.0","15","1024"
"43","43","1297","1297","black","experiment","legacy","legacy","legacy","1","undefined","1","right","15","15","15","0","0","15","15","0","0","15","15","15","0","15","0","Wed Oct 18 09:21:28 2023","The main experiment item","True","SternbergTask.osexp","/Users/test/Desktop","False","mono","False","18","no","white","no","yes","768","legacy","3","11","/Users/test/Desktop/AT-subject-4.csv","legacy","6 9 5","Melodramatic Milgram","4.0.5","0","n","0","right","right","right","right","NA","628.0","31509","2537","628","NA","2","legacy","3","1024","2","48000","-16","experiment","4","even","8","143460","116962","141252","5670","120504","141254","140199","5848","117966","142257","145463","146092","37429","145463","NA","Sternberg Task","7","20766.0","16","1024"
"41","41","1274","1274","black","experiment","legacy","legacy","legacy","0","undefined","0","left","16","16","16","0","0","16","16","0","0","16","16","16","0","16","0","Wed Oct 18 09:21:28 2023","The main experiment item","True","SternbergTask.osexp","/Users/test/Desktop","False","mono","False","18","no","white","no","yes","768","legacy","4","11","/Users/test/Desktop/AT-subject-4.csv","legacy","4 9 7 8 5 3","Melodramatic Milgram","4.0.5","4","y","0","right","right","right","right","NA","907.0","31509","2537","907","NA","2","legacy","6","1024","2","48000","-16","experiment","4","even","8","149346","146096","147136","5670","120504","147139","140199","5848","117966","148143","151350","152258","37429","151349","NA","Sternberg Task","7","21673.0","17","1024"
"38","38","1315","1315","black","experiment","legacy","legacy","legacy","0","undefined","0","left","17","17","17","0","0","17","17","0","0","17","17","17","0","17","0","Wed Oct 18 09:21:28 2023","The main experiment item","True","SternbergTask.osexp","/Users/test/Desktop","False","mono","False","18","no","white","no","yes","768","legacy","5","11","/Users/test/Desktop/AT-subject-4.csv","legacy","6 2","Melodramatic Milgram","4.0.5","1","y","0","None","right","right","None","NA","2000.0","31509","2537","2000","NA","2","legacy","2","1024","2","48000","-16","experiment","4","even","6","155554","146096","153343","5670","120504","153346","152300","5848","117966","154350","157557","159557","37429","157556","NA","Sternberg Task","7","23673.0","18","1024"
"36","36","1282","1282","black","experiment","legacy","legacy","legacy","0","undefined","0","left","18","18","18","0","0","18","18","0","0","18","18","18","0","18","0","Wed Oct 18 09:21:28 2023","The main experiment item","True","SternbergTask.osexp","/Users/test/Desktop","False","mono","False","18","no","white","no","yes","768","legacy","6","11","/Users/test/Desktop/AT-subject-4.csv","legacy","8 5 3 7 4 6","Melodramatic Milgram","4.0.5","6","y","0","right","right","right","right","NA","703.0","31509","2537","703","NA","2","legacy","6","1024","2","48000","-16","experiment","4","even","6","162821","146096","160612","5670","120504","160615","159561","5848","117966","161618","164825","165529","37429","164825","NA","Sternberg Task","7","24376.0","19","1024"
"35","35","1271","1271","black","experiment","legacy","legacy","legacy","0","undefined","0","left","19","19","19","0","0","19","19","0","0","19","19","19","0","19","0","Wed Oct 18 09:21:28 2023","The main experiment item","True","SternbergTask.osexp","/Users/test/Desktop","False","mono","False","18","no","white","no","yes","768","legacy","7","11","/Users/test/Desktop/AT-subject-4.csv","legacy","5 7 3 6 2","Melodramatic Milgram","4.0.5","5","y","0","right","right","right","right","NA","1062.0","31509","2537","1062","NA","2","legacy","5","1024","2","48000","-16","experiment","4","even","2","168792","146096","166582","5670","120504","166586","165533","5848","117966","167589","170796","171860","37429","170795","NA","Sternberg Task","7","25438.0","20","1024"
"38","38","1238","1238","black","experiment","legacy","legacy","legacy","1","undefined","1","right","20","20","20","0","0","20","20","0","0","20","20","20","0","20","0","Wed Oct 18 09:21:28 2023","The main experiment item","True","SternbergTask.osexp","/Users/test/Desktop","False","mono","False","18","no","white","no","yes","768","legacy","8","11","/Users/test/Desktop/AT-subject-4.csv","legacy","2 3 8 5 6 7","Melodramatic Milgram","4.0.5","0","n","0","right","right","right","right","NA","566.0","31509","2537","566","NA","2","legacy","6","1024","2","48000","-16","experiment","4","even","1","175145","146096","172934","5670","120504","172937","171864","5848","117966","173939","177147","177714","37429","177147","NA","Sternberg Task","8","26004.0","21","1024"
"36","36","1272","1272","black","experiment","legacy","legacy","legacy","0","undefined","0","right","21","21","21","0","0","21","21","0","0","21","21","21","0","21","0","Wed Oct 18 09:21:28 2023","The main experiment item","True","SternbergTask.osexp","/Users/test/Desktop","False","mono","False","18","no","white","no","yes","768","legacy","9","11","/Users/test/Desktop/AT-subject-4.csv","legacy","6 9 4 5 3 2","Melodramatic Milgram","4.0.5","0","n","0","None","right","right","None","NA","2000.0","31509","2537","2000","NA","2","legacy","6","1024","2","48000","-16","experiment","4","even","8","181013","177718","178805","5670","120504","178808","171864","5848","117966","179811","183016","185016","37429","183016","NA","Sternberg Task","8","28004.0","22","1024"
"39","39","1276","1276","black","experiment","legacy","legacy","legacy","1","undefined","1","right","22","22","22","0","0","22","22","0","0","22","22","22","0","22","0","Wed Oct 18 09:21:28 2023","The main experiment item","True","SternbergTask.osexp","/Users/test/Desktop","False","mono","False","18","no","white","no","yes","768","legacy","10","11","/Users/test/Desktop/AT-subject-4.csv","legacy","6 9 7 3 8 2","Melodramatic Milgram","4.0.5","0","n","0","right","right","right","right","NA","1349.0","31509","2537","1349","NA","2","legacy","6","1024","2","48000","-16","experiment","4","even","5","188270","177718","186060","5670","120504","186063","185020","5848","117966","187066","190273","191623","37429","190273","NA","Sternberg Task","9","29353.0","23","1024"
"41","41","1262","1262","black","experiment","legacy","legacy","legacy","1","undefined","1","right","23","23","23","0","0","23","23","0","0","23","23","23","0","23","0","Wed Oct 18 09:21:28 2023","The main experiment item","True","SternbergTask.osexp","/Users/test/Desktop","False","mono","False","18","no","white","no","yes","768","legacy","11","11","/Users/test/Desktop/AT-subject-4.csv","legacy","8 9","Melodramatic Milgram","4.0.5","0","n","0","right","right","right","right","NA","938.0","31509","2537","938","NA","2","legacy","2","1024","2","48000","-16","experiment","4","even","5","194880","191626","192671","5670","120504","192674","185020","5848","117966","193677","196902","197841","37429","196902","NA","Sternberg Task","10","30291.0","24","1024"
"44","44","1274","1274","black","experiment","legacy","legacy","legacy","1","undefined","1","right","24","24","24","0","0","24","24","0","0","24","24","24","0","24","0","Wed Oct 18 09:21:28 2023","The main experiment item","True","SternbergTask.osexp","/Users/test/Desktop","False","mono","False","18","no","white","no","yes","768","legacy","12","11","/Users/test/Desktop/AT-subject-4.csv","legacy","4 8 1 2","Melodramatic Milgram","4.0.5","0","n","0","right","right","right","right","NA","1561.0","31509","2537","1561","NA","2","legacy","4","1024","2","48000","-16","experiment","4","even","7","201108","197845","198897","5670","120504","198900","185020","5848","117966","199904","203111","204673","37429","203111","NA","Sternberg Task","11","31852.0","25","1024"
"42","42","1257","1257","black","experiment","legacy","legacy","legacy","0","undefined","0","left","25","25","25","0","0","25","25","0","0","25","25","25","0","25","0","Wed Oct 18 09:21:28 2023","The main experiment item","True","SternbergTask.osexp","/Users/test/Desktop","False","mono","False","18","no","white","no","yes","768","legacy","13","11","/Users/test/Desktop/AT-subject-4.csv","legacy","3 4 9 6 2 9","Melodramatic Milgram","4.0.5","5","y","0","right","right","right","right","NA","836.0","31509","2537","836","NA","2","legacy","6","1024","2","48000","-16","experiment","4","even","2","207938","204677","205728","5670","120504","205731","185020","5848","117966","206735","209941","210778","37429","209940","NA","Sternberg Task","11","32688.0","26","1024"
"40","40","1238","1238","black","experiment","legacy","legacy","legacy","0","undefined","0","left","26","26","26","0","0","26","26","0","0","26","26","26","0","26","0","Wed Oct 18 09:21:28 2023","The main experiment item","True","SternbergTask.osexp","/Users/test/Desktop","False","mono","False","18","no","white","no","yes","768","legacy","14","11","/Users/test/Desktop/AT-subject-4.csv","legacy","8 9 6 1","Melodramatic Milgram","4.0.5","2","y","0","right","right","right","right","NA","741.0","31509","2537","741","NA","2","legacy","4","1024","2","48000","-16","experiment","4","even","9","214049","204677","211840","5670","120504","211844","210782","5848","117966","212847","216051","216793","37429","216051","NA","Sternberg Task","11","33429.0","27","1024"
"39","39","1239","1239","black","experiment","legacy","legacy","legacy","0","undefined","0","left","27","27","27","0","0","27","27","0","0","27","27","27","0","27","0","Wed Oct 18 09:21:28 2023","The main experiment item","True","SternbergTask.osexp","/Users/test/Desktop","False","mono","False","18","no","white","no","yes","768","legacy","15","11","/Users/test/Desktop/AT-subject-4.csv","legacy","2 4 6 9","Melodramatic Milgram","4.0.5","3","y","0","right","right","right","right","NA","1272.0","31509","2537","1272","NA","2","legacy","4","1024","2","48000","-16","experiment","4","even","6","220095","204677","217883","5670","120504","217887","216797","5848","117966","218890","222098","223371","37429","222097","NA","Sternberg Task","11","34701.0","28","1024"
"41","41","1264","1264","black","experiment","legacy","legacy","legacy","1","undefined","1","right","28","28","28","0","0","28","28","0","0","28","28","28","0","28","0","Wed Oct 18 09:21:28 2023","The main experiment item","True","SternbergTask.osexp","/Users/test/Desktop","False","mono","False","18","no","white","no","yes","768","legacy","16","11","/Users/test/Desktop/AT-subject-4.csv","legacy","2 5 1 4","Melodramatic Milgram","4.0.5","0","n","0","right","right","right","right","NA","1983.0","31509","2537","1983","NA","2","legacy","4","1024","2","48000","-16","experiment","4","even","6","226624","204677","224415","5670","120504","224418","223375","5848","117966","225421","228627","230611","37429","228627","NA","Sternberg Task","12","36684.0","29","1024"
"43","43","1246","1246","black","experiment","legacy","legacy","legacy","1","undefined","1","left","29","29","29","0","0","29","29","0","0","29","29","29","0","29","0","Wed Oct 18 09:21:28 2023","The main experiment item","True","SternbergTask.osexp","/Users/test/Desktop","False","mono","False","18","no","white","no","yes","768","legacy","17","11","/Users/test/Desktop/AT-subject-4.csv","legacy","9 1 6 7 8","Melodramatic Milgram","4.0.5","1","y","0","left","right","right","left","NA","725.0","31509","2537","725","NA","2","legacy","5","1024","2","48000","-16","experiment","4","even","9","233869","230614","231660","5670","120504","231663","223375","5848","117966","232666","235872","236598","37429","235871","NA","Sternberg Task","13","37409.0","30","1024"
"45","45","1225","1225","black","experiment","legacy","legacy","legacy","1","undefined","1","right","30","30","30","0","0","30","30","0","0","30","30","30","0","30","0","Wed Oct 18 09:21:28 2023","The main experiment item","True","SternbergTask.osexp","/Users/test/Desktop","False","mono","False","18","no","white","no","yes","768","legacy","18","11","/Users/test/Desktop/AT-subject-4.csv","legacy","8 2 1 4 5 9","Melodramatic Milgram","4.0.5","0","n","0","right","right","right","right","NA","589.0","31509","2537","589","NA","2","legacy","6","1024","2","48000","-16","experiment","4","even","7","239861","236602","237652","5670","120504","237655","223375","5848","117966","238658","241864","242454","37429","241864","NA","Sternberg Task","14","37998.0","31","1024"
"46","46","1212","1212","black","experiment","legacy","legacy","legacy","1","undefined","1","right","31","31","31","0","0","31","31","0","0","31","31","31","0","31","0","Wed Oct 18 09:21:28 2023","The main experiment item","True","SternbergTask.osexp","/Users/test/Desktop","False","mono","False","18","no","white","no","yes","768","legacy","19","11","/Users/test/Desktop/AT-subject-4.csv","legacy","7 1 8 4 9 3","Melodramatic Milgram","4.0.5","0","n","0","right","right","right","right","NA","798.0","31509","2537","798","NA","2","legacy","6","1024","2","48000","-16","experiment","4","even","6","245715","242458","243506","5670","120504","243509","223375","5848","117966","244512","247718","248518","37429","247717","NA","Sternberg Task","15","38796.0","32","1024"
"48","48","1195","1195","black","experiment","legacy","legacy","legacy","1","undefined","1","left","32","32","32","0","0","32","32","0","0","32","32","32","0","32","0","Wed Oct 18 09:21:28 2023","The main experiment item","True","SternbergTask.osexp","/Users/test/Desktop","False","mono","False","18","no","white","no","yes","768","legacy","20","11","/Users/test/Desktop/AT-subject-4.csv","legacy","9 3 1 2 5","Melodramatic Milgram","4.0.5","4","y","0","left","right","right","left","NA","654.0","31509","2537","654","NA","2","legacy","5","1024","2","48000","-16","experiment","4","even","2","251780","248522","249570","5670","120504","249573","223375","5848","117966","250576","253783","254438","37429","253782","NA","Sternberg Task","16","39450.0","33","1024"
"50","50","1182","1182","black","experiment","legacy","legacy","legacy","1","undefined","1","right","33","33","33","0","0","33","33","0","0","33","33","33","0","33","0","Wed Oct 18 09:21:28 2023","The main experiment item","True","SternbergTask.osexp","/Users/test/Desktop","False","mono","False","18","no","white","no","yes","768","legacy","21","11","/Users/test/Desktop/AT-subject-4.csv","legacy","7 9","Melodramatic Milgram","4.0.5","0","n","0","right","right","right","right","NA","760.0","31509","2537","760","NA","2","legacy","2","1024","2","48000","-16","experiment","4","even","1","257712","254442","255501","5670","120504","255505","223375","5848","117966","256509","259716","260477","37429","259716","NA","Sternberg Task","17","40210.0","34","1024"
"48","48","1168","1168","black","experiment","legacy","legacy","legacy","0","undefined","0","left","34","34","34","0","0","34","34","0","0","34","34","34","0","34","0","Wed Oct 18 09:21:28 2023","The main experiment item","True","SternbergTask.osexp","/Users/test/Desktop","False","mono","False","18","no","white","no","yes","768","legacy","22","11","/Users/test/Desktop/AT-subject-4.csv","legacy","3 9 6 2","Melodramatic Milgram","4.0.5","4","y","0","right","right","right","right","NA","674.0","31509","2537","674","NA","2","legacy","4","1024","2","48000","-16","experiment","4","even","2","263852","260603","261642","5670","120504","261646","223375","5848","117966","262649","265856","266530","37429","265855","NA","Sternberg Task","17","40884.0","35","1024"
"50","50","1159","1159","black","experiment","legacy","legacy","legacy","1","undefined","1","right","35","35","35","0","0","35","35","0","0","35","35","35","0","35","0","Wed Oct 18 09:21:28 2023","The main experiment item","True","SternbergTask.osexp","/Users/test/Desktop","False","mono","False","18","no","white","no","yes","768","legacy","23","11","/Users/test/Desktop/AT-subject-4.csv","legacy","1 4 9 2 5","Melodramatic Milgram","4.0.5","0","n","0","right","right","right","right","NA","856.0","31509","2537","856","NA","2","legacy","5","1024","2","48000","-16","experiment","4","even","7","269787","260603","267578","5670","120504","267581","266534","5848","117966","268584","271790","272647","37429","271789","NA","Sternberg Task","18","41740.0","36","1024"
"51","51","1152","1152","black","experiment","legacy","legacy","legacy","1","undefined","1","left","36","36","36","0","0","36","36","0","0","36","36","36","0","36","0","Wed Oct 18 09:21:28 2023","The main experiment item","True","SternbergTask.osexp","/Users/test/Desktop","False","mono","False","18","no","white","no","yes","768","legacy","24","11","/Users/test/Desktop/AT-subject-4.csv","legacy","7 8 6 3 1","Melodramatic Milgram","4.0.5","5","y","0","left","right","right","left","NA","899.0","31509","2537","899","NA","2","legacy","5","1024","2","48000","-16","experiment","4","even","1","276142","272870","273932","5670","120504","273936","266534","5848","117966","274939","278146","279046","37429","278145","NA","Sternberg Task","19","42639.0","37","1024"
"52","52","1170","1170","black","experiment","legacy","legacy","legacy","1","undefined","1","right","37","37","37","0","0","37","37","0","0","37","37","37","0","37","0","Wed Oct 18 09:21:28 2023","The main experiment item","True","SternbergTask.osexp","/Users/test/Desktop","False","mono","False","18","no","white","no","yes","768","legacy","25","11","/Users/test/Desktop/AT-subject-4.csv","legacy","6 2 9 3 8 4","Melodramatic Milgram","4.0.5","0","n","0","right","right","right","right","NA","1845.0","31509","2537","1845","NA","2","legacy","6","1024","2","48000","-16","experiment","4","even","1","282309","279050","280099","5670","120504","280102","266534","5848","117966","281105","284312","286159","37429","284312","NA","Sternberg Task","20","44484.0","38","1024"
"53","53","1161","1161","black","experiment","legacy","legacy","legacy","1","undefined","1","right","38","38","38","0","0","38","38","0","0","38","38","38","0","38","0","Wed Oct 18 09:21:28 2023","The main experiment item","True","SternbergTask.osexp","/Users/test/Desktop","False","mono","False","18","no","white","no","yes","768","legacy","26","11","/Users/test/Desktop/AT-subject-4.csv","legacy","7 4 2 8 1 9","Melodramatic Milgram","4.0.5","0","n","0","right","right","right","right","NA","811.0","31509","2537","811","NA","2","legacy","6","1024","2","48000","-16","experiment","4","even","5","289427","286162","287217","5670","120504","287220","266534","5848","117966","288224","291430","292243","37429","291429","NA","Sternberg Task","21","45295.0","39","1024"
"52","52","1148","1148","black","experiment","legacy","legacy","legacy","0","undefined","0","left","39","39","39","0","0","39","39","0","0","39","39","39","0","39","0","Wed Oct 18 09:21:28 2023","The main experiment item","True","SternbergTask.osexp","/Users/test/Desktop","False","mono","False","18","no","white","no","yes","768","legacy","27","11","/Users/test/Desktop/AT-subject-4.csv","legacy","5 7 8 2 3 8","Melodramatic Milgram","4.0.5","5","y","0","right","right","right","right","NA","642.0","31509","2537","642","NA","2","legacy","6","1024","2","48000","-16","experiment","4","even","3","295517","292247","293307","5670","120504","293310","266534","5848","117966","294314","297520","298163","37429","297520","NA","Sternberg Task","21","45937.0","40","1024"
"51","51","1134","1134","black","experiment","legacy","legacy","legacy","0","undefined","0","left","40","40","40","0","0","40","40","0","0","40","40","40","0","40","0","Wed Oct 18 09:21:28 2023","The main experiment item","True","SternbergTask.osexp","/Users/test/Desktop","False","mono","False","18","no","white","no","yes","768","legacy","28","11","/Users/test/Desktop/AT-subject-4.csv","legacy","4 1 8 7 5","Melodramatic Milgram","4.0.5","3","y","0","right","right","right","right","NA","592.0","31509","2537","592","NA","2","legacy","5","1024","2","48000","-16","experiment","4","even","8","301418","292247","299208","5670","120504","299211","298167","5848","117966","300215","303421","304014","37429","303421","NA","Sternberg Task","21","46529.0","41","1024"
"50","50","1155","1155","black","experiment","legacy","legacy","legacy","0","undefined","0","left","41","41","41","0","0","41","41","0","0","41","41","41","0","41","0","Wed Oct 18 09:21:28 2023","The main experiment item","True","SternbergTask.osexp","/Users/test/Desktop","False","mono","False","18","no","white","no","yes","768","legacy","29","11","/Users/test/Desktop/AT-subject-4.csv","legacy","7 4 2 6 3 5","Melodramatic Milgram","4.0.5","6","y","0","None","right","right","None","NA","2000.0","31509","2537","2000","NA","2","legacy","6","1024","2","48000","-16","experiment","4","even","5","307270","292247","305061","5670","120504","305064","304018","5848","117966","306067","309274","311274","37429","309273","NA","Sternberg Task","21","48529.0","42","1024"
"48","48","1175","1175","black","experiment","legacy","legacy","legacy","0","undefined","0","left","42","42","42","0","0","42","42","0","0","42","42","42","0","42","0","Wed Oct 18 09:21:28 2023","The main experiment item","True","SternbergTask.osexp","/Users/test/Desktop","False","mono","False","18","no","white","no","yes","768","legacy","30","11","/Users/test/Desktop/AT-subject-4.csv","legacy","5 2 6","Melodramatic Milgram","4.0.5","2","y","0","None","right","right","None","NA","2000.0","31509","2537","2000","NA","2","legacy","3","1024","2","48000","-16","experiment","4","even","2","314542","292247","312332","5670","120504","312335","311279","5848","117966","313339","316546","318546","37429","316546","NA","Sternberg Task","21","50529.0","43","1024"
"47","47","1181","1181","black","experiment","legacy","legacy","legacy","0","undefined","0","left","43","43","43","0","0","43","43","0","0","43","43","43","0","43","0","Wed Oct 18 09:21:28 2023","The main experiment item","True","SternbergTask.osexp","/Users/test/Desktop","False","mono","False","18","no","white","no","yes","768","legacy","31","11","/Users/test/Desktop/AT-subject-4.csv","legacy","4","Melodramatic Milgram","4.0.5","1","y","0","right","right","right","right","NA","1475.0","31509","2537","1475","NA","2","legacy","1","1024","2","48000","-16","experiment","4","even","4","321817","292247","319606","5670","120504","319608","318550","5848","117966","320612","323821","325297","37429","323821","NA","Sternberg Task","21","52004.0","44","1024"
"48","48","1174","1174","black","experiment","legacy","legacy","legacy","1","undefined","1","left","44","44","44","0","0","44","44","0","0","44","44","44","0","44","0","Wed Oct 18 09:21:28 2023","The main experiment item","True","SternbergTask.osexp","/Users/test/Desktop","False","mono","False","18","no","white","no","yes","768","legacy","32","11","/Users/test/Desktop/AT-subject-4.csv","legacy","8 7 3","Melodramatic Milgram","4.0.5","1","y","0","left","right","right","left","NA","836.0","31509","2537","836","NA","2","legacy","3","1024","2","48000","-16","experiment","4","even","8","328680","292247","326468","5670","120504","326472","325410","5848","117966","327476","330683","331520","37429","330682","NA","Sternberg Task","22","52840.0","45","1024"
"50","50","1165","1165","black","experiment","legacy","legacy","legacy","1","undefined","1","left","45","45","45","0","0","45","45","0","0","45","45","45","0","45","0","Wed Oct 18 09:21:28 2023","The main experiment item","True","SternbergTask.osexp","/Users/test/Desktop","False","mono","False","18","no","white","no","yes","768","legacy","33","11","/Users/test/Desktop/AT-subject-4.csv","legacy","8 9 5 6 7","Melodramatic Milgram","4.0.5","1","y","0","left","right","right","left","NA","770.0","31509","2537","770","NA","2","legacy","5","1024","2","48000","-16","experiment","4","even","8","334795","331524","332585","5670","120504","332588","325410","5848","117966","333591","336798","337570","37429","336798","NA","Sternberg Task","23","53610.0","46","1024"
"51","51","1157","1157","black","experiment","legacy","legacy","legacy","1","undefined","1","right","46","46","46","0","0","46","46","0","0","46","46","46","0","46","0","Wed Oct 18 09:21:28 2023","The main experiment item","True","SternbergTask.osexp","/Users/test/Desktop","False","mono","False","18","no","white","no","yes","768","legacy","34","11","/Users/test/Desktop/AT-subject-4.csv","legacy","3 9 1","Melodramatic Milgram","4.0.5","0","n","0","right","right","right","right","NA","776.0","31509","2537","776","NA","2","legacy","3","1024","2","48000","-16","experiment","4","even","7","340824","337573","338614","5670","120504","338616","325410","5848","117966","339621","342826","343603","37429","342826","NA","Sternberg Task","24","54386.0","47","1024"
"52","52","1149","1149","black","experiment","legacy","legacy","legacy","1","undefined","1","right","47","47","47","0","0","47","47","0","0","47","47","47","0","47","0","Wed Oct 18 09:21:28 2023","The main experiment item","True","SternbergTask.osexp","/Users/test/Desktop","False","mono","False","18","no","white","no","yes","768","legacy","35","11","/Users/test/Desktop/AT-subject-4.csv","legacy","1 8 7","Melodramatic Milgram","4.0.5","0","n","0","right","right","right","right","NA","778.0","31509","2537","778","NA","2","legacy","3","1024","2","48000","-16","experiment","4","even","4","346857","343607","344648","5670","120504","344651","325410","5848","117966","345654","348860","349639","37429","348860","NA","Sternberg Task","25","55164.0","48","1024"
"51","51","1134","1134","black","experiment","legacy","legacy","legacy","0","undefined","0","left","48","48","48","0","0","48","48","0","0","48","48","48","0","48","0","Wed Oct 18 09:21:28 2023","The main experiment item","True","SternbergTask.osexp","/Users/test/Desktop","False","mono","False","18","no","white","no","yes","768","legacy","36","11","/Users/test/Desktop/AT-subject-4.csv","legacy","9 1 7 2","Melodramatic Milgram","4.0.5","2","y","0","right","right","right","right","NA","417.0","31509","2537","417","NA","2","legacy","4","1024","2","48000","-16","experiment","4","even","1","352901","349643","350691","5670","120504","350694","325410","5848","117966","351698","354904","355323","37429","354903","NA","Sternberg Task","25","55581.0","49","1024"
"50","50","1129","1129","black","experiment","legacy","legacy","legacy","0","undefined","0","left","49","49","49","0","0","49","49","0","0","49","49","49","0","49","0","Wed Oct 18 09:21:28 2023","The main experiment item","True","SternbergTask.osexp","/Users/test/Desktop","False","mono","False","18","no","white","no","yes","768","legacy","37","11","/Users/test/Desktop/AT-subject-4.csv","legacy","7 1 3","Melodramatic Milgram","4.0.5","2","y","0","right","right","right","right","NA","917.0","31509","2537","917","NA","2","legacy","3","1024","2","48000","-16","experiment","4","even","1","358585","349643","356375","5670","120504","356378","355327","5848","117966","357381","360587","361505","37429","360587","NA","Sternberg Task","25","56498.0","50","1024"
"49","49","1121","1121","black","experiment","legacy","legacy","legacy","0","undefined","0","left","50","50","50","0","0","50","50","0","0","50","50","50","0","50","0","Wed Oct 18 09:21:28 2023","The main experiment item","True","SternbergTask.osexp","/Users/test/Desktop","False","mono","False","18","no","white","no","yes","768","legacy","38","11","/Users/test/Desktop/AT-subject-4.csv","legacy","2 3 7 4","Melodramatic Milgram","4.0.5","1","y","0","right","right","right","right","NA","679.0","31509","2537","679","NA","2","legacy","4","1024","2","48000","-16","experiment","4","even","2","364766","349643","362557","5670","120504","362560","361509","5848","117966","363563","366769","367449","37429","366769","NA","Sternberg Task","25","57177.0","51","1024"
"50","50","1114","1114","black","experiment","legacy","legacy","legacy","1","undefined","1","left","51","51","51","0","0","51","51","0","0","51","51","51","0","51","0","Wed Oct 18 09:21:28 2023","The main experiment item","True","SternbergTask.osexp","/Users/test/Desktop","False","mono","False","18","no","white","no","yes","768","legacy","39","11","/Users/test/Desktop/AT-subject-4.csv","legacy","9 6 2 4 1","Melodramatic Milgram","4.0.5","4","y","0","left","right","right","left","NA","792.0","31509","2537","792","NA","2","legacy","5","1024","2","48000","-16","experiment","4","even","4","370725","349643","368514","5670","120504","368517","367454","5848","117966","369521","372728","373521","37429","372727","NA","Sternberg Task","26","57969.0","52","1024"
"50","50","1103","1103","black","experiment","legacy","legacy","legacy","1","undefined","1","left","52","52","52","0","0","52","52","0","0","52","52","52","0","52","0","Wed Oct 18 09:21:28 2023","The main experiment item","True","SternbergTask.osexp","/Users/test/Desktop","False","mono","False","18","no","white","no","yes","768","legacy","40","11","/Users/test/Desktop/AT-subject-4.csv","legacy","8","Melodramatic Milgram","4.0.5","1","y","0","left","right","right","left","NA","501.0","31509","2537","501","NA","2","legacy","1","1024","2","48000","-16","experiment","4","even","8","376773","373525","374564","5670","120504","374566","367454","5848","117966","375570","378776","379279","37429","378775","NA","Sternberg Task","27","58470.0","53","1024"
"51","51","1097","1097","black","experiment","legacy","legacy","legacy","1","undefined","1","right","53","53","53","0","0","53","53","0","0","53","53","53","0","53","0","Wed Oct 18 09:21:28 2023","The main experiment item","True","SternbergTask.osexp","/Users/test/Desktop","False","mono","False","18","no","white","no","yes","768","legacy","41","11","/Users/test/Desktop/AT-subject-4.csv","legacy","5 2","Melodramatic Milgram","4.0.5","0","n","0","right","right","right","right","NA","783.0","31509","2537","783","NA","2","legacy","2","1024","2","48000","-16","experiment","4","even","7","382535","379283","380326","5670","120504","380329","367454","5848","117966","381332","384538","385322","37429","384537","NA","Sternberg Task","28","59253.0","54","1024"
"50","50","1090","1090","black","experiment","legacy","legacy","legacy","0","undefined","0","left","54","54","54","0","0","54","54","0","0","54","54","54","0","54","0","Wed Oct 18 09:21:28 2023","The main experiment item","True","SternbergTask.osexp","/Users/test/Desktop","False","mono","False","18","no","white","no","yes","768","legacy","42","11","/Users/test/Desktop/AT-subject-4.csv","legacy","2 6 1 7 4","Melodramatic Milgram","4.0.5","2","y","0","right","right","right","right","NA","705.0","31509","2537","705","NA","2","legacy","5","1024","2","48000","-16","experiment","4","even","6","388585","385327","386376","5670","120504","386379","367454","5848","117966","387382","390588","391294","37429","390588","NA","Sternberg Task","28","59958.0","55","1024"
"50","50","1088","1088","black","experiment","legacy","legacy","legacy","0","undefined","0","left","55","55","55","0","0","55","55","0","0","55","55","55","0","55","0","Wed Oct 18 09:21:28 2023","The main experiment item","True","SternbergTask.osexp","/Users/test/Desktop","False","mono","False","18","no","white","no","yes","768","legacy","43","11","/Users/test/Desktop/AT-subject-4.csv","legacy","1 4 9 3 2 5","Melodramatic Milgram","4.0.5","3","y","0","right","right","right","right","NA","989.0","31509","2537","989","NA","2","legacy","6","1024","2","48000","-16","experiment","4","even","9","394595","385327","392386","5670","120504","392389","391337","5848","117966","393392","396598","397588","37429","396597","NA","Sternberg Task","28","60947.0","56","1024"
"50","50","1082","1082","black","experiment","legacy","legacy","legacy","1","undefined","1","left","56","56","56","0","0","56","56","0","0","56","56","56","0","56","0","Wed Oct 18 09:21:28 2023","The main experiment item","True","SternbergTask.osexp","/Users/test/Desktop","False","mono","False","18","no","white","no","yes","768","legacy","44","11","/Users/test/Desktop/AT-subject-4.csv","legacy","3 5 7 1","Melodramatic Milgram","4.0.5","3","y","0","left","right","right","left","NA","731.0","31509","2537","731","NA","2","legacy","4","1024","2","48000","-16","experiment","4","even","7","400854","385327","398644","5670","120504","398647","397592","5848","117966","399651","402857","403589","37429","402856","NA","Sternberg Task","29","61678.0","57","1024"
"50","50","1075","1075","black","experiment","legacy","legacy","legacy","0","undefined","0","left","57","57","57","0","0","57","57","0","0","57","57","57","0","57","0","Wed Oct 18 09:21:28 2023","The main experiment item","True","SternbergTask.osexp","/Users/test/Desktop","False","mono","False","18","no","white","no","yes","768","legacy","45","11","/Users/test/Desktop/AT-subject-4.csv","legacy","4 7 6 8 2 3","Melodramatic Milgram","4.0.5","6","y","0","right","right","right","right","NA","702.0","31509","2537","702","NA","2","legacy","6","1024","2","48000","-16","experiment","4","even","3","406875","403593","404666","5670","120504","404669","397592","5848","117966","405672","408879","409582","37429","408879","NA","Sternberg Task","29","62380.0","58","1024"
"49","49","1070","1070","black","experiment","legacy","legacy","legacy","0","undefined","0","left","58","58","58","0","0","58","58","0","0","58","58","58","0","58","0","Wed Oct 18 09:21:28 2023","The main experiment item","True","SternbergTask.osexp","/Users/test/Desktop","False","mono","False","18","no","white","no","yes","768","legacy","46","11","/Users/test/Desktop/AT-subject-4.csv","legacy","2 8 5 1","Melodramatic Milgram","4.0.5","4","y","0","right","right","right","right","NA","759.0","31509","2537","759","NA","2","legacy","4","1024","2","48000","-16","experiment","4","even","1","412835","403593","410626","5670","120504","410629","409587","5848","117966","411632","414838","415598","37429","414838","NA","Sternberg Task","29","63139.0","59","1024"
"50","50","1063","1063","black","experiment","legacy","legacy","legacy","1","undefined","1","left","59","59","59","0","0","59","59","0","0","59","59","59","0","59","0","Wed Oct 18 09:21:28 2023","The main experiment item","True","SternbergTask.osexp","/Users/test/Desktop","False","mono","False","18","no","white","no","yes","768","legacy","47","11","/Users/test/Desktop/AT-subject-4.csv","legacy","3 2 1 4 7","Melodramatic Milgram","4.0.5","2","y","0","left","right","right","left","NA","683.0","31509","2537","683","NA","2","legacy","5","1024","2","48000","-16","experiment","4","even","2","418855","403593","416646","5670","120504","416649","415603","5848","117966","417652","420858","421542","37429","420858","NA","Sternberg Task","30","63822.0","60","1024"
"50","50","1068","1068","black","experiment","legacy","legacy","legacy","1","undefined","1","right","60","60","60","0","0","60","60","0","0","60","60","60","0","60","0","Wed Oct 18 09:21:28 2023","The main experiment item","True","SternbergTask.osexp","/Users/test/Desktop","False","mono","False","18","no","white","no","yes","768","legacy","48","11","/Users/test/Desktop/AT-subject-4.csv","legacy","1 4 3 6 5","Melodramatic Milgram","4.0.5","0","n","0","right","right","right","right","NA","1351.0","31509","2537","1351","NA","2","legacy","5","1024","2","48000","-16","experiment","4","even","8","424826","421545","422615","5670","120504","422619","415603","5848","117966","423623","426828","428180","37429","426828","NA","Sternberg Task","31","65173.0","61","1024"
"51","51","1083","1083","black","experiment","legacy","legacy","legacy","1","undefined","1","right","61","61","61","0","0","61","61","0","0","61","61","61","0","61","0","Wed Oct 18 09:21:28 2023","The main experiment item","True","SternbergTask.osexp","/Users/test/Desktop","False","mono","False","18","no","white","no","yes","768","legacy","49","11","/Users/test/Desktop/AT-subject-4.csv","legacy","8 5 4 2 9 6","Melodramatic Milgram","4.0.5","0","n","0","right","right","right","right","NA","1989.0","31509","2537","1989","NA","2","legacy","6","1024","2","48000","-16","experiment","4","even","3","431448","428185","429238","5670","120504","429241","415603","5848","117966","430245","433451","435441","37429","433450","NA","Sternberg Task","32","67162.0","62","1024"
"50","50","1074","1074","black","experiment","legacy","legacy","legacy","0","undefined","0","left","62","62","62","0","0","62","62","0","0","62","62","62","0","62","0","Wed Oct 18 09:21:28 2023","The main experiment item","True","SternbergTask.osexp","/Users/test/Desktop","False","mono","False","18","no","white","no","yes","768","legacy","50","11","/Users/test/Desktop/AT-subject-4.csv","legacy","7 8 4 6 9 5","Melodramatic Milgram","4.0.5","4","y","0","right","right","right","right","NA","562.0","31509","2537","562","NA","2","legacy","6","1024","2","48000","-16","experiment","4","even","6","438746","435485","436536","5670","120504","436539","415603","5848","117966","437542","440749","441313","37429","440748","NA","Sternberg Task","32","67724.0","63","1024"
"50","50","1089","1089","black","experiment","legacy","legacy","legacy","0","undefined","0","left","63","63","63","0","0","63","63","0","0","63","63","63","0","63","0","Wed Oct 18 09:21:28 2023","The main experiment item","True","SternbergTask.osexp","/Users/test/Desktop","False","mono","False","18","no","white","no","yes","768","legacy","51","11","/Users/test/Desktop/AT-subject-4.csv","legacy","3 4","Melodramatic Milgram","4.0.5","1","y","0","None","right","right","None","NA","2000.0","31509","2537","2000","NA","2","legacy","2","1024","2","48000","-16","experiment","4","even","3","444587","435485","442378","5670","120504","442381","441317","5848","117966","443384","446591","448591","37429","446591","NA","Sternberg Task","32","69724.0","64","1024"
"49","49","1087","1087","black","experiment","legacy","legacy","legacy","0","undefined","0","left","64","64","64","0","0","64","64","0","0","64","64","64","0","64","0","Wed Oct 18 09:21:28 2023","The main experiment item","True","SternbergTask.osexp","/Users/test/Desktop","False","mono","False","18","no","white","no","yes","768","legacy","52","11","/Users/test/Desktop/AT-subject-4.csv","legacy","9 3 8 2 1 4","Melodramatic Milgram","4.0.5","3","y","0","right","right","right","right","NA","944.0","31509","2537","944","NA","2","legacy","6","1024","2","48000","-16","experiment","4","even","8","451845","435485","449635","5670","120504","449638","448595","5848","117966","450642","453848","454793","37429","453847","NA","Sternberg Task","32","70668.0","65","1024"
"48","48","1101","1101","black","experiment","legacy","legacy","legacy","0","undefined","0","right","65","65","65","0","0","65","65","0","0","65","65","65","0","65","0","Wed Oct 18 09:21:28 2023","The main experiment item","True","SternbergTask.osexp","/Users/test/Desktop","False","mono","False","18","no","white","no","yes","768","legacy","53","11","/Users/test/Desktop/AT-subject-4.csv","legacy","9","Melodramatic Milgram","4.0.5","0","n","0","None","right","right","None","NA","2000.0","31509","2537","2000","NA","2","legacy","1","1024","2","48000","-16","experiment","4","even","6","458049","435485","455840","5670","120504","455843","454797","5848","117966","456847","460051","462051","37429","460051","NA","Sternberg Task","32","72668.0","66","1024"
"47","47","1096","1096","black","experiment","legacy","legacy","legacy","0","undefined","0","left","66","66","66","0","0","66","66","0","0","66","66","66","0","66","0","Wed Oct 18 09:21:28 2023","The main experiment item","True","SternbergTask.osexp","/Users/test/Desktop","False","mono","False","18","no","white","no","yes","768","legacy","54","11","/Users/test/Desktop/AT-subject-4.csv","legacy","6 8 9 3 4 9","Melodramatic Milgram","4.0.5","5","y","0","right","right","right","right","NA","816.0","31509","2537","816","NA","2","legacy","6","1024","2","48000","-16","experiment","4","even","4","465313","435485","463104","5670","120504","463107","462055","5848","117966","464110","467316","468133","37429","467316","NA","Sternberg Task","32","73484.0","67","1024"
"48","48","1095","1095","black","experiment","legacy","legacy","legacy","1","undefined","1","right","67","67","67","0","0","67","67","0","0","67","67","67","0","67","0","Wed Oct 18 09:21:28 2023","The main experiment item","True","SternbergTask.osexp","/Users/test/Desktop","False","mono","False","18","no","white","no","yes","768","legacy","55","11","/Users/test/Desktop/AT-subject-4.csv","legacy","1 7 5 2","Melodramatic Milgram","4.0.5","0","n","0","right","right","right","right","NA","976.0","31509","2537","976","NA","2","legacy","4","1024","2","48000","-16","experiment","4","even","3","471396","435485","469187","5670","120504","469190","468138","5848","117966","470193","473399","474377","37429","473398","NA","Sternberg Task","33","74460.0","68","1024"
"49","49","1089","1089","black","experiment","legacy","legacy","legacy","1","undefined","1","right","68","68","68","0","0","68","68","0","0","68","68","68","0","68","0","Wed Oct 18 09:21:28 2023","The main experiment item","True","SternbergTask.osexp","/Users/test/Desktop","False","mono","False","18","no","white","no","yes","768","legacy","56","11","/Users/test/Desktop/AT-subject-4.csv","legacy","3 4 2","Melodramatic Milgram","4.0.5","0","n","0","right","right","right","right","NA","720.0","31509","2537","720","NA","2","legacy","3","1024","2","48000","-16","experiment","4","even","5","477648","474381","475439","5670","120504","475442","468138","5848","117966","476445","479652","480374","37429","479651","NA","Sternberg Task","34","75180.0","69","1024"
"50","50","1095","1095","black","experiment","legacy","legacy","legacy","1","undefined","1","left","69","69","69","0","0","69","69","0","0","69","69","69","0","69","0","Wed Oct 18 09:21:28 2023","The main experiment item","True","SternbergTask.osexp","/Users/test/Desktop","False","mono","False","18","no","white","no","yes","768","legacy","57","11","/Users/test/Desktop/AT-subject-4.csv","legacy","6 9 3 1","Melodramatic Milgram","4.0.5","4","y","0","left","right","right","left","NA","1514.0","31509","2537","1514","NA","2","legacy","4","1024","2","48000","-16","experiment","4","even","1","483655","480378","481444","5670","120504","481448","468138","5848","117966","482451","485658","487174","37429","485658","NA","Sternberg Task","35","76694.0","70","1024"
"50","50","1094","1094","black","experiment","legacy","legacy","legacy","1","undefined","1","left","70","70","70","0","0","70","70","0","0","70","70","70","0","70","0","Wed Oct 18 09:21:28 2023","The main experiment item","True","SternbergTask.osexp","/Users/test/Desktop","False","mono","False","18","no","white","no","yes","768","legacy","58","11","/Users/test/Desktop/AT-subject-4.csv","legacy","4 3 2 5 8","Melodramatic Milgram","4.0.5","2","y","0","left","right","right","left","NA","986.0","31509","2537","986","NA","2","legacy","5","1024","2","48000","-16","experiment","4","even","3","490429","487177","488218","5670","120504","488223","468138","5848","117966","489226","492431","493419","37429","492431","NA","Sternberg Task","36","77680.0","71","1024"
"51","51","1090","1090","black","experiment","legacy","legacy","legacy","1","undefined","1","right","71","71","71","0","0","71","71","0","0","71","71","71","0","71","0","Wed Oct 18 09:21:28 2023","The main experiment item","True","SternbergTask.osexp","/Users/test/Desktop","False","mono","False","18","no","white","no","yes","768","legacy","59","11","/Users/test/Desktop/AT-subject-4.csv","legacy","6 8","Melodramatic Milgram","4.0.5","0","n","0","right","right","right","right","NA","847.0","31509","2537","847","NA","2","legacy","2","1024","2","48000","-16","experiment","4","even","9","496677","493423","494467","5670","120504","494471","468138","5848","117966","495474","498680","499528","37429","498680","NA","Sternberg Task","37","78527.0","72","1024"
"52","52","1082","1082","black","experiment","legacy","legacy","legacy","1","undefined","1","left","72","72","72","0","0","72","72","0","0","72","72","72","0","72","0","Wed Oct 18 09:21:28 2023","The main experiment item","True","SternbergTask.osexp","/Users/test/Desktop","False","mono","False","18","no","white","no","yes","768","legacy","60","11","/Users/test/Desktop/AT-subject-4.csv","legacy","4 6 5 8","Melodramatic Milgram","4.0.5","1","y","0","left","right","right","left","NA","492.0","31509","2537","492","NA","2","legacy","4","1024","2","48000","-16","experiment","4","even","4","502789","499532","500580","5670","120504","500583","468138","5848","117966","501586","504792","505286","37429","504791","NA","Sternberg Task","38","79019.0","73","1024"
"51","51","1074","1074","black","experiment","legacy","legacy","legacy","0","undefined","0","left","73","73","73","0","0","73","73","0","0","73","73","73","0","73","0","Wed Oct 18 09:21:28 2023","The main experiment item","True","SternbergTask.osexp","/Users/test/Desktop","False","mono","False","18","no","white","no","yes","768","legacy","61","11","/Users/test/Desktop/AT-subject-4.csv","legacy","7 6","Melodramatic Milgram","4.0.5","2","y","0","right","right","right","right","NA","508.0","31509","2537","508","NA","2","legacy","2","1024","2","48000","-16","experiment","4","even","6","508552","505290","506343","5670","120504","506345","468138","5848","117966","507349","510555","511065","37429","510555","NA","Sternberg Task","38","79527.0","74","1024"
"52","52","1068","1068","black","experiment","legacy","legacy","legacy","1","undefined","1","left","74","74","74","0","0","74","74","0","0","74","74","74","0","74","0","Wed Oct 18 09:21:28 2023","The main experiment item","True","SternbergTask.osexp","/Users/test/Desktop","False","mono","False","18","no","white","no","yes","768","legacy","62","11","/Users/test/Desktop/AT-subject-4.csv","legacy","3 9 7 6 4","Melodramatic Milgram","4.0.5","3","y","0","left","right","right","left","NA","644.0","31509","2537","644","NA","2","legacy","5","1024","2","48000","-16","experiment","4","even","7","514345","505290","512133","5670","120504","512136","511073","5848","117966","513141","516348","516994","37429","516347","NA","Sternberg Task","39","80171.0","75","1024"
"52","52","1071","1071","black","experiment","legacy","legacy","legacy","1","undefined","1","left","75","75","75","0","0","75","75","0","0","75","75","75","0","75","0","Wed Oct 18 09:21:28 2023","The main experiment item","True","SternbergTask.osexp","/Users/test/Desktop","False","mono","False","18","no","white","no","yes","768","legacy","63","11","/Users/test/Desktop/AT-subject-4.csv","legacy","3 5 9 6 2 4","Melodramatic Milgram","4.0.5","1","y","0","left","right","right","left","NA","1295.0","31509","2537","1295","NA","2","legacy","6","1024","2","48000","-16","experiment","4","even","3","520278","516998","518068","5670","120504","518071","511073","5848","117966","519075","522281","523578","37429","522280","NA","Sternberg Task","40","81466.0","76","1024"
"51","51","1083","1083","black","experiment","legacy","legacy","legacy","0","undefined","0","left","76","76","76","0","0","76","76","0","0","76","76","76","0","76","0","Wed Oct 18 09:21:28 2023","The main experiment item","True","SternbergTask.osexp","/Users/test/Desktop","False","mono","False","18","no","white","no","yes","768","legacy","64","11","/Users/test/Desktop/AT-subject-4.csv","legacy","7 1 8 5 6 2","Melodramatic Milgram","4.0.5","2","y","0","None","right","right","None","NA","2000.0","31509","2537","2000","NA","2","legacy","6","1024","2","48000","-16","experiment","4","even","1","526835","523582","524626","5670","120504","524629","511073","5848","117966","525632","528838","530838","37429","528838","NA","Sternberg Task","40","83466.0","77","1024"
"52","52","1077","1077","black","experiment","legacy","legacy","legacy","1","undefined","1","left","77","77","77","0","0","77","77","0","0","77","77","77","0","77","0","Wed Oct 18 09:21:28 2023","The main experiment item","True","SternbergTask.osexp","/Users/test/Desktop","False","mono","False","18","no","white","no","yes","768","legacy","65","11","/Users/test/Desktop/AT-subject-4.csv","legacy","9 5 3 8 4","Melodramatic Milgram","4.0.5","1","y","0","left","right","right","left","NA","595.0","31509","2537","595","NA","2","legacy","5","1024","2","48000","-16","experiment","4","even","9","534105","523582","531888","5670","120504","531892","530842","5848","117966","532902","536108","536704","37429","536108","NA","Sternberg Task","41","84061.0","78","1024"
"51","51","1072","1072","black","experiment","legacy","legacy","legacy","0","undefined","0","left","78","78","78","0","0","78","78","0","0","78","78","78","0","78","0","Wed Oct 18 09:21:28 2023","The main experiment item","True","SternbergTask.osexp","/Users/test/Desktop","False","mono","False","18","no","white","no","yes","768","legacy","66","11","/Users/test/Desktop/AT-subject-4.csv","legacy","8 9 5 7 1 6","Melodramatic Milgram","4.0.5","4","y","0","right","right","right","right","NA","684.0","31509","2537","684","NA","2","legacy","6","1024","2","48000","-16","experiment","4","even","7","539969","536708","537759","5670","120504","537763","530842","5848","117966","538767","541973","542658","37429","541972","NA","Sternberg Task","41","84745.0","79","1024"
"51","51","1078","1078","black","experiment","legacy","legacy","legacy","0","undefined","0","right","79","79","79","0","0","79","79","0","0","79","79","79","0","79","0","Wed Oct 18 09:21:28 2023","The main experiment item","True","SternbergTask.osexp","/Users/test/Desktop","False","mono","False","18","no","white","no","yes","768","legacy","67","11","/Users/test/Desktop/AT-subject-4.csv","legacy","2 8 9 4 1","Melodramatic Milgram","4.0.5","0","n","0","left","right","right","left","NA","1504.0","31509","2537","1504","NA","2","legacy","5","1024","2","48000","-16","experiment","4","even","5","545923","536708","543713","5670","120504","543717","542661","5848","117966","544720","547926","549432","37429","547925","NA","Sternberg Task","41","86249.0","80","1024"
"50","50","1075","1075","black","experiment","legacy","legacy","legacy","0","undefined","0","right","80","80","80","0","0","80","80","0","0","80","80","80","0","80","0","Wed Oct 18 09:21:28 2023","The main experiment item","True","SternbergTask.osexp","/Users/test/Desktop","False","mono","False","18","no","white","no","yes","768","legacy","68","11","/Users/test/Desktop/AT-subject-4.csv","legacy","9 8 2 7 4","Melodramatic Milgram","4.0.5","0","n","0","left","right","right","left","NA","831.0","31509","2537","831","NA","2","legacy","5","1024","2","48000","-16","experiment","4","even","5","552706","536708","550495","5670","120504","550498","549437","5848","117966","551503","554710","555542","37429","554710","NA","Sternberg Task","41","87080.0","81","1024"
"51","51","1083","1083","black","experiment","legacy","legacy","legacy","1","undefined","1","right","81","81","81","0","0","81","81","0","0","81","81","81","0","81","0","Wed Oct 18 09:21:28 2023","The main experiment item","True","SternbergTask.osexp","/Users/test/Desktop","False","mono","False","18","no","white","no","yes","768","legacy","69","11","/Users/test/Desktop/AT-subject-4.csv","legacy","1 7 5 2 9","Melodramatic Milgram","4.0.5","0","n","0","right","right","right","right","NA","1802.0","31509","2537","1802","NA","2","legacy","5","1024","2","48000","-16","experiment","4","even","3","558823","536708","556612","5670","120504","556615","555546","5848","117966","557618","560826","562629","37429","560826","NA","Sternberg Task","42","88882.0","82","1024"
"51","51","1084","1084","black","experiment","legacy","legacy","legacy","1","undefined","1","left","82","82","82","0","0","82","82","0","0","82","82","82","0","82","0","Wed Oct 18 09:21:28 2023","The main experiment item","True","SternbergTask.osexp","/Users/test/Desktop","False","mono","False","18","no","white","no","yes","768","legacy","70","11","/Users/test/Desktop/AT-subject-4.csv","legacy","9 8 4","Melodramatic Milgram","4.0.5","1","y","0","left","right","right","left","NA","1112.0","31509","2537","1112","NA","2","legacy","3","1024","2","48000","-16","experiment","4","even","9","565881","562632","563672","5670","120504","563675","555546","5848","117966","564678","567884","568998","37429","567883","NA","Sternberg Task","43","89994.0","83","1024"
"51","51","1088","1088","black","experiment","legacy","legacy","legacy","0","undefined","0","right","83","83","83","0","0","83","83","0","0","83","83","83","0","83","0","Wed Oct 18 09:21:28 2023","The main experiment item","True","SternbergTask.osexp","/Users/test/Desktop","False","mono","False","18","no","white","no","yes","768","legacy","71","11","/Users/test/Desktop/AT-subject-4.csv","legacy","5","Melodramatic Milgram","4.0.5","0","n","0","left","right","right","left","NA","1447.0","31509","2537","1447","NA","2","legacy","1","1024","2","48000","-16","experiment","4","even","8","572257","569003","570048","5670","120504","570051","555546","5848","117966","571053","574260","575709","37429","574260","NA","Sternberg Task","43","91441.0","84","1024"
"51","51","1088","1088","black","experiment","legacy","legacy","legacy","1","undefined","1","right","84","84","84","0","0","84","84","0","0","84","84","84","0","84","0","Wed Oct 18 09:21:28 2023","The main experiment item","True","SternbergTask.osexp","/Users/test/Desktop","False","mono","False","18","no","white","no","yes","768","legacy","72","11","/Users/test/Desktop/AT-subject-4.csv","legacy","7 1","Melodramatic Milgram","4.0.5","0","n","0","right","right","right","right","NA","1069.0","31509","2537","1069","NA","2","legacy","2","1024","2","48000","-16","experiment","4","even","8","579010","569003","576801","5670","120504","576805","575753","5848","117966","577808","581013","582083","37429","581013","NA","Sternberg Task","44","92510.0","85","1024"
"51","51","1083","1083","black","experiment","legacy","legacy","legacy","0","undefined","0","right","85","85","85","0","0","85","85","0","0","85","85","85","0","85","0","Wed Oct 18 09:21:28 2023","The main experiment item","True","SternbergTask.osexp","/Users/test/Desktop","False","mono","False","18","no","white","no","yes","768","legacy","73","11","/Users/test/Desktop/AT-subject-4.csv","legacy","7 1 5 6 3","Melodramatic Milgram","4.0.5","0","n","0","left","right","right","left","NA","708.0","31509","2537","708","NA","2","legacy","5","1024","2","48000","-16","experiment","4","even","8","585347","582088","583138","5670","120504","583141","575753","5848","117966","584144","587350","588059","37429","587349","NA","Sternberg Task","44","93218.0","86","1024"
"51","51","1079","1079","black","experiment","legacy","legacy","legacy","1","undefined","1","left","86","86","86","0","0","86","86","0","0","86","86","86","0","86","0","Wed Oct 18 09:21:28 2023","The main experiment item","True","SternbergTask.osexp","/Users/test/Desktop","False","mono","False","18","no","white","no","yes","768","legacy","74","11","/Users/test/Desktop/AT-subject-4.csv","legacy","6 7 9 3 1 2","Melodramatic Milgram","4.0.5","1","y","0","left","right","right","left","NA","697.0","31509","2537","697","NA","2","legacy","6","1024","2","48000","-16","experiment","4","even","6","591331","582088","589119","5670","120504","589122","588062","5848","117966","590126","593334","594033","37429","593333","NA","Sternberg Task","45","93915.0","87","1024"
"51","51","1074","1074","black","experiment","legacy","legacy","legacy","0","undefined","0","right","87","87","87","0","0","87","87","0","0","87","87","87","0","87","0","Wed Oct 18 09:21:28 2023","The main experiment item","True","SternbergTask.osexp","/Users/test/Desktop","False","mono","False","18","no","white","no","yes","768","legacy","75","11","/Users/test/Desktop/AT-subject-4.csv","legacy","3 4 9 6 7 8","Melodramatic Milgram","4.0.5","0","n","0","left","right","right","left","NA","635.0","31509","2537","635","NA","2","legacy","6","1024","2","48000","-16","experiment","4","even","2","597311","594038","595100","5670","120504","595105","588062","5848","117966","596108","599314","599950","37429","599313","NA","Sternberg Task","45","94550.0","88","1024"
"51","51","1071","1071","black","experiment","legacy","legacy","legacy","1","undefined","1","left","88","88","88","0","0","88","88","0","0","88","88","88","0","88","0","Wed Oct 18 09:21:28 2023","The main experiment item","True","SternbergTask.osexp","/Users/test/Desktop","False","mono","False","18","no","white","no","yes","768","legacy","76","11","/Users/test/Desktop/AT-subject-4.csv","legacy","8 5 4 7 3 1","Melodramatic Milgram","4.0.5","2","y","0","left","right","right","left","NA","777.0","31509","2537","777","NA","2","legacy","6","1024","2","48000","-16","experiment","4","even","5","603211","594038","601001","5670","120504","601005","599954","5848","117966","602008","605214","605993","37429","605214","NA","Sternberg Task","46","95327.0","89","1024"
"52","52","1065","1065","black","experiment","legacy","legacy","legacy","1","undefined","1","left","89","89","89","0","0","89","89","0","0","89","89","89","0","89","0","Wed Oct 18 09:21:28 2023","The main experiment item","True","SternbergTask.osexp","/Users/test/Desktop","False","mono","False","18","no","white","no","yes","768","legacy","77","11","/Users/test/Desktop/AT-subject-4.csv","legacy","7","Melodramatic Milgram","4.0.5","1","y","0","left","right","right","left","NA","608.0","31509","2537","608","NA","2","legacy","1","1024","2","48000","-16","experiment","4","even","7","609285","606034","607076","5670","120504","607079","599954","5848","117966","608081","611289","611899","37429","611289","NA","Sternberg Task","47","95935.0","90","1024"
"51","51","1061","1061","black","experiment","legacy","legacy","legacy","0","undefined","0","left","90","90","90","0","0","90","90","0","0","90","90","90","0","90","0","Wed Oct 18 09:21:28 2023","The main experiment item","True","SternbergTask.osexp","/Users/test/Desktop","False","mono","False","18","no","white","no","yes","768","legacy","78","11","/Users/test/Desktop/AT-subject-4.csv","legacy","8 3","Melodramatic Milgram","4.0.5","2","y","0","right","right","right","right","NA","626.0","31509","2537","626","NA","2","legacy","2","1024","2","48000","-16","experiment","4","even","3","615178","611904","612969","5670","120504","612973","599954","5848","117966","613975","617181","617809","37429","617181","NA","Sternberg Task","47","96561.0","91","1024"
"51","51","1057","1057","black","experiment","legacy","legacy","legacy","0","undefined","0","right","91","91","91","0","0","91","91","0","0","91","91","91","0","91","0","Wed Oct 18 09:21:28 2023","The main experiment item","True","SternbergTask.osexp","/Users/test/Desktop","False","mono","False","18","no","white","no","yes","768","legacy","79","11","/Users/test/Desktop/AT-subject-4.csv","legacy","1 5 3 2 8","Melodramatic Milgram","4.0.5","0","n","0","left","right","right","left","NA","690.0","31509","2537","690","NA","2","legacy","5","1024","2","48000","-16","experiment","4","even","4","621079","611904","618868","5670","120504","618871","617813","5848","117966","619875","623082","623774","37429","623081","NA","Sternberg Task","47","97251.0","92","1024"
"50","50","1067","1067","black","experiment","legacy","legacy","legacy","0","undefined","0","left","92","92","92","0","0","92","92","0","0","92","92","92","0","92","0","Wed Oct 18 09:21:28 2023","The main experiment item","True","SternbergTask.osexp","/Users/test/Desktop","False","mono","False","18","no","white","no","yes","768","legacy","80","11","/Users/test/Desktop/AT-subject-4.csv","legacy","2 4 8 5 1 3","Melodramatic Milgram","4.0.5","1","y","0","None","right","right","None","NA","2000.0","31509","2537","2000","NA","2","legacy","6","1024","2","48000","-16","experiment","4","even","2","627041","611904","624832","5670","120504","624835","623778","5848","117966","625839","629043","631043","37429","629043","NA","Sternberg Task","47","99251.0","93","1024"
"51","51","1064","1064","black","experiment","legacy","legacy","legacy","1","undefined","1","right","93","93","93","0","0","93","93","0","0","93","93","93","0","93","0","Wed Oct 18 09:21:28 2023","The main experiment item","True","SternbergTask.osexp","/Users/test/Desktop","False","mono","False","18","no","white","no","yes","768","legacy","81","11","/Users/test/Desktop/AT-subject-4.csv","legacy","8 4 3 5","Melodramatic Milgram","4.0.5","0","n","0","right","right","right","right","NA","813.0","31509","2537","813","NA","2","legacy","4","1024","2","48000","-16","experiment","4","even","6","634321","611904","632112","5670","120504","632115","631047","5848","117966","633117","636325","637139","37429","636324","NA","Sternberg Task","48","100064.0","94","1024"
"51","51","1061","1061","black","experiment","legacy","legacy","legacy","1","undefined","1","left","94","94","94","0","0","94","94","0","0","94","94","94","0","94","0","Wed Oct 18 09:21:28 2023","The main experiment item","True","SternbergTask.osexp","/Users/test/Desktop","False","mono","False","18","no","white","no","yes","768","legacy","82","11","/Users/test/Desktop/AT-subject-4.csv","legacy","6 7 8 5","Melodramatic Milgram","4.0.5","3","y","0","left","right","right","left","NA","818.0","31509","2537","818","NA","2","legacy","4","1024","2","48000","-16","experiment","4","even","8","640394","637143","638184","5670","120504","638188","631047","5848","117966","639191","642396","643216","37429","642396","NA","Sternberg Task","49","100882.0","95","1024"
"52","52","1059","1059","black","experiment","legacy","legacy","legacy","1","undefined","1","right","95","95","95","0","0","95","95","0","0","95","95","95","0","95","0","Wed Oct 18 09:21:28 2023","The main experiment item","True","SternbergTask.osexp","/Users/test/Desktop","False","mono","False","18","no","white","no","yes","768","legacy","83","11","/Users/test/Desktop/AT-subject-4.csv","legacy","7 6 4 8 1 2","Melodramatic Milgram","4.0.5","0","n","0","right","right","right","right","NA","789.0","31509","2537","789","NA","2","legacy","6","1024","2","48000","-16","experiment","4","even","9","646474","643220","644265","5670","120504","644268","631047","5848","117966","645271","648477","649268","37429","648476","NA","Sternberg Task","50","101671.0","96","1024"
"52","52","1059","1059","black","experiment","legacy","legacy","legacy","1","undefined","1","right","96","96","96","0","0","96","96","0","0","96","96","96","0","96","0","Wed Oct 18 09:21:28 2023","The main experiment item","True","SternbergTask.osexp","/Users/test/Desktop","False","mono","False","18","no","white","no","yes","768","legacy","84","11","/Users/test/Desktop/AT-subject-4.csv","legacy","5 9 2 3","Melodramatic Milgram","4.0.5","0","n","0","right","right","right","right","NA","1108.0","31509","2537","1108","NA","2","legacy","4","1024","2","48000","-16","experiment","4","even","8","652528","649272","650319","5670","120504","650322","631047","5848","117966","651325","654531","655641","37429","654531","NA","Sternberg Task","51","102779.0","97","1024"
"52","52","1069","1069","black","experiment","legacy","legacy","legacy","0","undefined","0","left","97","97","97","0","0","97","97","0","0","97","97","97","0","97","0","Wed Oct 18 09:21:28 2023","The main experiment item","True","SternbergTask.osexp","/Users/test/Desktop","False","mono","False","18","no","white","no","yes","768","legacy","85","11","/Users/test/Desktop/AT-subject-4.csv","legacy","6 9 7 4 5 1","Melodramatic Milgram","4.0.5","2","y","0","None","right","right","None","NA","2000.0","31509","2537","2000","NA","2","legacy","6","1024","2","48000","-16","experiment","4","even","9","658902","655645","656694","5670","120504","656697","631047","5848","117966","657700","660905","662906","37429","660905","NA","Sternberg Task","51","104779.0","98","1024"
"51","51","1068","1068","black","experiment","legacy","legacy","legacy","0","undefined","0","right","98","98","98","0","0","98","98","0","0","98","98","98","0","98","0","Wed Oct 18 09:21:28 2023","The main experiment item","True","SternbergTask.osexp","/Users/test/Desktop","False","mono","False","18","no","white","no","yes","768","legacy","86","11","/Users/test/Desktop/AT-subject-4.csv","legacy","6 7 5 9","Melodramatic Milgram","4.0.5","0","n","0","left","right","right","left","NA","987.0","31509","2537","987","NA","2","legacy","4","1024","2","48000","-16","experiment","4","even","2","666180","655645","663971","5670","120504","663973","662910","5848","117966","664976","668183","669172","37429","668183","NA","Sternberg Task","51","105766.0","99","1024"
"52","52","1064","1064","black","experiment","legacy","legacy","legacy","1","undefined","1","right","99","99","99","0","0","99","99","0","0","99","99","99","0","99","0","Wed Oct 18 09:21:28 2023","The main experiment item","True","SternbergTask.osexp","/Users/test/Desktop","False","mono","False","18","no","white","no","yes","768","legacy","87","11","/Users/test/Desktop/AT-subject-4.csv","legacy","2 7 5","Melodramatic Milgram","4.0.5","0","n","0","right","right","right","right","NA","672.0","31509","2537","672","NA","2","legacy","3","1024","2","48000","-16","experiment","4","even","8","672481","655645","670271","5670","120504","670274","669176","5848","117966","671277","674484","675158","37429","674483","NA","Sternberg Task","52","106438.0","100","1024"
"52","52","1060","1060","black","experiment","legacy","legacy","legacy","1","undefined","1","right","100","100","100","0","0","100","100","0","0","100","100","100","0","100","0","Wed Oct 18 09:21:28 2023","The main experiment item","True","SternbergTask.osexp","/Users/test/Desktop","False","mono","False","18","no","white","no","yes","768","legacy","88","11","/Users/test/Desktop/AT-subject-4.csv","legacy","5 7 3","Melodramatic Milgram","4.0.5","0","n","0","right","right","right","right","NA","720.0","31509","2537","720","NA","2","legacy","3","1024","2","48000","-16","experiment","4","even","9","678413","675162","676203","5670","120504","676207","669176","5848","117966","677210","680415","681137","37429","680415","NA","Sternberg Task","53","107158.0","101","1024"
"51","51","1059","1059","black","experiment","legacy","legacy","legacy","0","undefined","0","right","101","101","101","0","0","101","101","0","0","101","101","101","0","101","0","Wed Oct 18 09:21:28 2023","The main experiment item","True","SternbergTask.osexp","/Users/test/Desktop","False","mono","False","18","no","white","no","yes","768","legacy","89","11","/Users/test/Desktop/AT-subject-4.csv","legacy","7 8 6 1","Melodramatic Milgram","4.0.5","0","n","0","left","right","right","left","NA","922.0","31509","2537","922","NA","2","legacy","4","1024","2","48000","-16","experiment","4","even","3","684396","681141","682186","5670","120504","682190","669176","5848","117966","683193","686399","687323","37429","686399","NA","Sternberg Task","53","108080.0","102","1024"
"52","52","1058","1058","black","experiment","legacy","legacy","legacy","1","undefined","1","left","102","102","102","0","0","102","102","0","0","102","102","102","0","102","0","Wed Oct 18 09:21:28 2023","The main experiment item","True","SternbergTask.osexp","/Users/test/Desktop","False","mono","False","18","no","white","no","yes","768","legacy","90","11","/Users/test/Desktop/AT-subject-4.csv","legacy","5 2 9 6 1 7","Melodramatic Milgram","4.0.5","3","y","0","left","right","right","left","NA","966.0","31509","2537","966","NA","2","legacy","6","1024","2","48000","-16","experiment","4","even","9","690625","681141","688415","5670","120504","688417","687366","5848","117966","689421","692628","693595","37429","692628","NA","Sternberg Task","54","109046.0","103","1024"
"52","52","1056","1056","black","experiment","legacy","legacy","legacy","1","undefined","1","right","103","103","103","0","0","103","103","0","0","103","103","103","0","103","0","Wed Oct 18 09:21:28 2023","The main experiment item","True","SternbergTask.osexp","/Users/test/Desktop","False","mono","False","18","no","white","no","yes","768","legacy","91","11","/Users/test/Desktop/AT-subject-4.csv","legacy","2 8 6 3 1","Melodramatic Milgram","4.0.5","0","n","0","right","right","right","right","NA","799.0","31509","2537","799","NA","2","legacy","5","1024","2","48000","-16","experiment","4","even","7","696857","693599","694648","5670","120504","694651","687366","5848","117966","695654","698860","699661","37429","698859","NA","Sternberg Task","55","109845.0","104","1024"
"53","53","1052","1052","black","experiment","legacy","legacy","legacy","1","undefined","1","right","104","104","104","0","0","104","104","0","0","104","104","104","0","104","0","Wed Oct 18 09:21:28 2023","The main experiment item","True","SternbergTask.osexp","/Users/test/Desktop","False","mono","False","18","no","white","no","yes","768","legacy","92","11","/Users/test/Desktop/AT-subject-4.csv","legacy","1 7 8 3 9","Melodramatic Milgram","4.0.5","0","n","0","right","right","right","right","NA","693.0","31509","2537","693","NA","2","legacy","5","1024","2","48000","-16","experiment","4","even","2","702946","699689","700738","5670","120504","700740","687366","5848","117966","701744","704948","705642","37429","704948","NA","Sternberg Task","56","110538.0","105","1024"
"53","53","1050","1050","black","experiment","legacy","legacy","legacy","1","undefined","1","left","105","105","105","0","0","105","105","0","0","105","105","105","0","105","0","Wed Oct 18 09:21:28 2023","The main experiment item","True","SternbergTask.osexp","/Users/test/Desktop","False","mono","False","18","no","white","no","yes","768","legacy","93","11","/Users/test/Desktop/AT-subject-4.csv","legacy","4 6 2 5 1","Melodramatic Milgram","4.0.5","5","y","0","left","right","right","left","NA","786.0","31509","2537","786","NA","2","legacy","5","1024","2","48000","-16","experiment","4","even","1","708912","705646","706704","5670","120504","706707","687366","5848","117966","707710","710914","711702","37429","710914","NA","Sternberg Task","57","111324.0","106","1024"
"53","53","1059","1059","black","experiment","legacy","legacy","legacy","0","undefined","0","right","106","106","106","0","0","106","106","0","0","106","106","106","0","106","0","Wed Oct 18 09:21:28 2023","The main experiment item","True","SternbergTask.osexp","/Users/test/Desktop","False","mono","False","18","no","white","no","yes","768","legacy","94","11","/Users/test/Desktop/AT-subject-4.csv","legacy","4 1","Melodramatic Milgram","4.0.5","0","n","0","None","right","right","None","NA","2000.0","31509","2537","2000","NA","2","legacy","2","1024","2","48000","-16","experiment","4","even","6","714954","711706","712746","5670","120504","712749","687366","5848","117966","713752","716958","718958","37429","716957","NA","Sternberg Task","57","113324.0","107","1024"
"53","53","1055","1055","black","experiment","legacy","legacy","legacy","1","undefined","1","left","107","107","107","0","0","107","107","0","0","107","107","107","0","107","0","Wed Oct 18 09:21:28 2023","The main experiment item","True","SternbergTask.osexp","/Users/test/Desktop","False","mono","False","18","no","white","no","yes","768","legacy","95","11","/Users/test/Desktop/AT-subject-4.csv","legacy","9 5 8 1","Melodramatic Milgram","4.0.5","2","y","0","left","right","right","left","NA","654.0","31509","2537","654","NA","2","legacy","4","1024","2","48000","-16","experiment","4","even","5","722223","711706","720012","5670","120504","720015","718962","5848","117966","721019","724227","724882","37429","724226","NA","Sternberg Task","58","113978.0","108","1024"
"54","54","1053","1053","black","experiment","legacy","legacy","legacy","1","undefined","1","left","108","108","108","0","0","108","108","0","0","108","108","108","0","108","0","Wed Oct 18 09:21:28 2023","The main experiment item","True","SternbergTask.osexp","/Users/test/Desktop","False","mono","False","18","no","white","no","yes","768","legacy","96","11","/Users/test/Desktop/AT-subject-4.csv","legacy","6 5","Melodramatic Milgram","4.0.5","2","y","0","left","right","right","left","NA","875.0","31509","2537","875","NA","2","legacy","2","1024","2","48000","-16","experiment","4","even","5","728167","724887","725957","5670","120504","725960","718962","5848","117966","726963","730170","731047","37429","730170","NA","Sternberg Task","59","114853.0","109","1024"
"54","54","1051","1051","black","experiment","legacy","legacy","legacy","1","undefined","1","left","109","109","109","0","0","109","109","0","0","109","109","109","0","109","0","Wed Oct 18 09:21:28 2023","The main experiment item","True","SternbergTask.osexp","/Users/test/Desktop","False","mono","False","18","no","white","no","yes","768","legacy","97","11","/Users/test/Desktop/AT-subject-4.csv","legacy","4 1 5","Melodramatic Milgram","4.0.5","2","y","0","left","right","right","left","NA","850.0","31509","2537","850","NA","2","legacy","3","1024","2","48000","-16","experiment","4","even","1","734305","731051","732096","5670","120504","732099","718962","5848","117966","733102","736308","737160","37429","736308","NA","Sternberg Task","60","115703.0","110","1024"
"54","54","1049","1049","black","experiment","legacy","legacy","legacy","1","undefined","1","left","110","110","110","0","0","110","110","0","0","110","110","110","0","110","0","Wed Oct 18 09:21:28 2023","The main experiment item","True","SternbergTask.osexp","/Users/test/Desktop","False","mono","False","18","no","white","no","yes","768","legacy","98","11","/Users/test/Desktop/AT-subject-4.csv","legacy","8 1 6","Melodramatic Milgram","4.0.5","3","y","0","left","right","right","left","NA","798.0","31509","2537","798","NA","2","legacy","3","1024","2","48000","-16","experiment","4","even","6","740426","737169","738217","5670","120504","738220","718962","5848","117966","739223","742430","743230","37429","742429","NA","Sternberg Task","61","116501.0","111","1024"
"55","55","1046","1046","black","experiment","legacy","legacy","legacy","1","undefined","1","right","111","111","111","0","0","111","111","0","0","111","111","111","0","111","0","Wed Oct 18 09:21:28 2023","The main experiment item","True","SternbergTask.osexp","/Users/test/Desktop","False","mono","False","18","no","white","no","yes","768","legacy","99","11","/Users/test/Desktop/AT-subject-4.csv","legacy","6 8 4","Melodramatic Milgram","4.0.5","0","n","0","right","right","right","right","NA","745.0","31509","2537","745","NA","2","legacy","3","1024","2","48000","-16","experiment","4","even","1","746499","743234","744290","5670","120504","744293","718962","5848","117966","745296","748502","749250","37429","748502","NA","Sternberg Task","62","117246.0","112","1024"
"55","55","1044","1044","black","experiment","legacy","legacy","legacy","1","undefined","1","right","112","112","112","0","0","112","112","0","0","112","112","112","0","112","0","Wed Oct 18 09:21:28 2023","The main experiment item","True","SternbergTask.osexp","/Users/test/Desktop","False","mono","False","18","no","white","no","yes","768","legacy","100","11","/Users/test/Desktop/AT-subject-4.csv","legacy","9 5 3 2 8 6","Melodramatic Milgram","4.0.5","0","n","0","right","right","right","right","NA","742.0","31509","2537","742","NA","2","legacy","6","1024","2","48000","-16","experiment","4","even","7","752689","749438","750478","5670","120504","750482","718962","5848","117966","751485","754692","755436","37429","754691","NA","Sternberg Task","63","117988.0","113","1024"
"56","56","1039","1039","black","experiment","legacy","legacy","legacy","1","undefined","1","left","113","113","113","0","0","113","113","0","0","113","113","113","0","113","0","Wed Oct 18 09:21:28 2023","The main experiment item","True","SternbergTask.osexp","/Users/test/Desktop","False","mono","False","18","no","white","no","yes","768","legacy","101","11","/Users/test/Desktop/AT-subject-4.csv","legacy","3 5 4 7","Melodramatic Milgram","4.0.5","1","y","0","left","right","right","left","NA","511.0","31509","2537","511","NA","2","legacy","4","1024","2","48000","-16","experiment","4","even","3","758694","755440","756484","5670","120504","756488","718962","5848","117966","757491","760697","761210","37429","760696","NA","Sternberg Task","64","118499.0","114","1024"
"55","55","1038","1038","black","experiment","legacy","legacy","legacy","0","undefined","0","left","114","114","114","0","0","114","114","0","0","114","114","114","0","114","0","Wed Oct 18 09:21:28 2023","The main experiment item","True","SternbergTask.osexp","/Users/test/Desktop","False","mono","False","18","no","white","no","yes","768","legacy","102","11","/Users/test/Desktop/AT-subject-4.csv","legacy","2 5 4 8 7","Melodramatic Milgram","4.0.5","3","y","0","right","right","right","right","NA","965.0","31509","2537","965","NA","2","legacy","5","1024","2","48000","-16","experiment","4","even","4","764473","761214","762262","5670","120504","762265","718962","5848","117966","763269","766477","767444","37429","766476","NA","Sternberg Task","64","119464.0","115","1024"
"55","55","1037","1037","black","experiment","legacy","legacy","legacy","0","undefined","0","right","115","115","115","0","0","115","115","0","0","115","115","115","0","115","0","Wed Oct 18 09:21:28 2023","The main experiment item","True","SternbergTask.osexp","/Users/test/Desktop","False","mono","False","18","no","white","no","yes","768","legacy","103","11","/Users/test/Desktop/AT-subject-4.csv","legacy","1 6 4 3 9 7","Melodramatic Milgram","4.0.5","0","n","0","left","right","right","left","NA","859.0","31509","2537","859","NA","2","legacy","6","1024","2","48000","-16","experiment","4","even","8","770707","761214","768497","5670","120504","768500","767448","5848","117966","769504","772710","773571","37429","772709","NA","Sternberg Task","64","120323.0","116","1024"
"55","55","1035","1035","black","experiment","legacy","legacy","legacy","1","undefined","1","right","116","116","116","0","0","116","116","0","0","116","116","116","0","116","0","Wed Oct 18 09:21:28 2023","The main experiment item","True","SternbergTask.osexp","/Users/test/Desktop","False","mono","False","18","no","white","no","yes","768","legacy","104","11","/Users/test/Desktop/AT-subject-4.csv","legacy","8 5 7 3 6","Melodramatic Milgram","4.0.5","0","n","0","right","right","right","right","NA","882.0","31509","2537","882","NA","2","legacy","5","1024","2","48000","-16","experiment","4","even","9","776832","761214","774622","5670","120504","774625","773574","5848","117966","775629","778835","779719","37429","778834","NA","Sternberg Task","65","121205.0","117","1024"
"55","55","1031","1031","black","experiment","legacy","legacy","legacy","0","undefined","0","right","117","117","117","0","0","117","117","0","0","117","117","117","0","117","0","Wed Oct 18 09:21:28 2023","The main experiment item","True","SternbergTask.osexp","/Users/test/Desktop","False","mono","False","18","no","white","no","yes","768","legacy","105","11","/Users/test/Desktop/AT-subject-4.csv","legacy","8 6 3 4 7","Melodramatic Milgram","4.0.5","0","n","0","left","right","right","left","NA","493.0","31509","2537","493","NA","2","legacy","5","1024","2","48000","-16","experiment","4","even","1","782988","779722","780780","5670","120504","780783","773574","5848","117966","781786","784991","785487","37429","784991","NA","Sternberg Task","65","121698.0","118","1024"
"55","55","1027","1027","black","experiment","legacy","legacy","legacy","1","undefined","1","right","118","118","118","0","0","118","118","0","0","118","118","118","0","118","0","Wed Oct 18 09:21:28 2023","The main experiment item","True","SternbergTask.osexp","/Users/test/Desktop","False","mono","False","18","no","white","no","yes","768","legacy","106","11","/Users/test/Desktop/AT-subject-4.csv","legacy","1 3 2 6 9","Melodramatic Milgram","4.0.5","0","n","0","right","right","right","right","NA","587.0","31509","2537","587","NA","2","legacy","5","1024","2","48000","-16","experiment","4","even","5","788740","779722","786531","5670","120504","786534","785491","5848","117966","787537","790744","791333","37429","790744","NA","Sternberg Task","66","122285.0","119","1024"
"55","55","1026","1026","black","experiment","legacy","legacy","legacy","1","undefined","1","right","119","119","119","0","0","119","119","0","0","119","119","119","0","119","0","Wed Oct 18 09:21:28 2023","The main experiment item","True","SternbergTask.osexp","/Users/test/Desktop","False","mono","False","18","no","white","no","yes","768","legacy","107","11","/Users/test/Desktop/AT-subject-4.csv","legacy","8 4 3 9","Melodramatic Milgram","4.0.5","0","n","0","right","right","right","right","NA","898.0","31509","2537","898","NA","2","legacy","4","1024","2","48000","-16","experiment","4","even","5","794588","791336","792378","5670","120504","792381","785491","5848","117966","793384","796591","797492","37429","796591","NA","Sternberg Task","67","123183.0","120","1024"
"55","55","1034","1034","black","experiment","legacy","legacy","legacy","0","undefined","0","right","120","120","120","0","0","120","120","0","0","120","120","120","0","120","0","Wed Oct 18 09:21:28 2023","The main experiment item","True","SternbergTask.osexp","/Users/test/Desktop","False","mono","False","18","no","white","no","yes","768","legacy","108","11","/Users/test/Desktop/AT-subject-4.csv","legacy","2 6 4 3 9","Melodramatic Milgram","4.0.5","0","n","0","None","right","right","None","NA","2000.0","31509","2537","2000","NA","2","legacy","5","1024","2","48000","-16","experiment","4","even","1","800755","797496","798544","5670","120504","798547","785491","5848","117966","799551","802757","804757","37429","802757","NA","Sternberg Task","67","125183.0","121","1024"
"54","54","1042","1042","black","experiment","legacy","legacy","legacy","0","undefined","0","right","121","121","121","0","0","121","121","0","0","121","121","121","0","121","0","Wed Oct 18 09:21:28 2023","The main experiment item","True","SternbergTask.osexp","/Users/test/Desktop","False","mono","False","18","no","white","no","yes","768","legacy","109","11","/Users/test/Desktop/AT-subject-4.csv","legacy","7 9 1 6","Melodramatic Milgram","4.0.5","0","n","0","None","right","right","None","NA","2000.0","31509","2537","2000","NA","2","legacy","4","1024","2","48000","-16","experiment","4","even","4","808023","797496","805812","5670","120504","805816","804761","5848","117966","806821","810025","812026","37429","810025","NA","Sternberg Task","67","127183.0","122","1024"
"55","55","1040","1040","black","experiment","legacy","legacy","legacy","1","undefined","1","right","122","122","122","0","0","122","122","0","0","122","122","122","0","122","0","Wed Oct 18 09:21:28 2023","The main experiment item","True","SternbergTask.osexp","/Users/test/Desktop","False","mono","False","18","no","white","no","yes","768","legacy","110","11","/Users/test/Desktop/AT-subject-4.csv","legacy","2 8 9","Melodramatic Milgram","4.0.5","0","n","0","right","right","right","right","NA","818.0","31509","2537","818","NA","2","legacy","3","1024","2","48000","-16","experiment","4","even","6","815285","797496","813077","5670","120504","813079","812030","5848","117966","814082","817288","818108","37429","817287","NA","Sternberg Task","68","128001.0","123","1024"
"54","54","1048","1048","black","experiment","legacy","legacy","legacy","0","undefined","0","right","123","123","123","0","0","123","123","0","0","123","123","123","0","123","0","Wed Oct 18 09:21:28 2023","The main experiment item","True","SternbergTask.osexp","/Users/test/Desktop","False","mono","False","18","no","white","no","yes","768","legacy","111","11","/Users/test/Desktop/AT-subject-4.csv","legacy","6 9 4 5 2","Melodramatic Milgram","4.0.5","0","n","0","None","right","right","None","NA","2000.0","31509","2537","2000","NA","2","legacy","5","1024","2","48000","-16","experiment","4","even","1","821380","818112","819171","5670","120504","819174","812030","5848","117966","820177","823383","825383","37429","823383","NA","Sternberg Task","68","130001.0","124","1024"
"55","55","1047","1047","black","experiment","legacy","legacy","legacy","1","undefined","1","left","124","124","124","0","0","124","124","0","0","124","124","124","0","124","0","Wed Oct 18 09:21:28 2023","The main experiment item","True","SternbergTask.osexp","/Users/test/Desktop","False","mono","False","18","no","white","no","yes","768","legacy","112","11","/Users/test/Desktop/AT-subject-4.csv","legacy","6 1 2","Melodramatic Milgram","4.0.5","3","y","0","left","right","right","left","NA","965.0","31509","2537","965","NA","2","legacy","3","1024","2","48000","-16","experiment","4","even","2","828637","818112","826427","5670","120504","826430","825386","5848","117966","827434","830640","831607","37429","830639","NA","Sternberg Task","69","130966.0","125","1024"
"55","55","1047","1047","black","experiment","legacy","legacy","legacy","1","undefined","1","right","125","125","125","0","0","125","125","0","0","125","125","125","0","125","0","Wed Oct 18 09:21:28 2023","The main experiment item","True","SternbergTask.osexp","/Users/test/Desktop","False","mono","False","18","no","white","no","yes","768","legacy","113","11","/Users/test/Desktop/AT-subject-4.csv","legacy","4 2 7 6 1 3","Melodramatic Milgram","4.0.5","0","n","0","right","right","right","right","NA","1028.0","31509","2537","1028","NA","2","legacy","6","1024","2","48000","-16","experiment","4","even","8","834867","831611","832657","5670","120504","832660","825386","5848","117966","833663","836869","837898","37429","836869","NA","Sternberg Task","70","131994.0","126","1024"
"55","55","1045","1045","black","experiment","legacy","legacy","legacy","0","undefined","0","right","126","126","126","0","0","126","126","0","0","126","126","126","0","126","0","Wed Oct 18 09:21:28 2023","The main experiment item","True","SternbergTask.osexp","/Users/test/Desktop","False","mono","False","18","no","white","no","yes","768","legacy","114","11","/Users/test/Desktop/AT-subject-4.csv","legacy","5 3 2 6 9 8","Melodramatic Milgram","4.0.5","0","n","0","left","right","right","left","NA","829.0","31509","2537","829","NA","2","legacy","6","1024","2","48000","-16","experiment","4","even","4","841173","837901","838962","5670","120504","838966","825386","5848","117966","839968","843176","844006","37429","843176","NA","Sternberg Task","70","132823.0","127","1024"
"54","54","1053","1053","black","experiment","legacy","legacy","legacy","0","undefined","0","left","127","127","127","0","0","127","127","0","0","127","127","127","0","127","0","Wed Oct 18 09:21:28 2023","The main experiment item","True","SternbergTask.osexp","/Users/test/Desktop","False","mono","False","18","no","white","no","yes","768","legacy","115","11","/Users/test/Desktop/AT-subject-4.csv","legacy","8 5 1 3 9","Melodramatic Milgram","4.0.5","4","y","0","None","right","right","None","NA","2000.0","31509","2537","2000","NA","2","legacy","5","1024","2","48000","-16","experiment","4","even","3","847267","837901","845057","5670","120504","845060","844010","5848","117966","846063","849272","851272","37429","849272","NA","Sternberg Task","70","134823.0","128","1024"
"54","54","1049","1049","black","experiment","legacy","legacy","legacy","0","undefined","0","right","128","128","128","0","0","128","128","0","0","128","128","128","0","128","0","Wed Oct 18 09:21:28 2023","The main experiment item","True","SternbergTask.osexp","/Users/test/Desktop","False","mono","False","18","no","white","no","yes","768","legacy","116","11","/Users/test/Desktop/AT-subject-4.csv","legacy","6 3 1 7 9 8","Melodramatic Milgram","4.0.5","0","n","0","left","right","right","left","NA","620.0","31509","2537","620","NA","2","legacy","6","1024","2","48000","-16","experiment","4","even","4","854536","837901","852326","5670","120504","852328","851276","5848","117966","853331","856540","857162","37429","856540","NA","Sternberg Task","70","135443.0","129","1024"
