"acc","accuracy","average_response_time","avg_rt","background","block","canvas_backend","clock_backend","color_backend","correct","correct_instruction1_sketchpad","correct_keyboard_response","correct_response","count_ISI_sketchpad","count_correct_sketchpad","count_exp_sequence","count_experiment","count_experiment_loop","count_fixation_sketchpad","count_incorrect_sketchpad","count_instruction1_sketchpad","count_instructions2_sketchpad","count_keyboard_response","count_memoryset_sketchpad","count_new_logger","count_practice_loop","count_probe_sketchpad","count_thankyou_sketchpad","datetime","description","disable_garbage_collection","experiment_file","experiment_path","font_bold","font_family","font_italic","font_size","font_underline","foreground","form_clicks","fullscreen","height","keyboard_backend","live_row","live_row_practice_loop","logfile","mouse_backend","numberSet","opensesame_codename","opensesame_version","posInSet","present","repeat_cycle","response","response_instruction1_sketchpad","response_instructions2_sketchpad","response_keyboard_response","response_thankyou_sketchpad","response_time","response_time_instruction1_sketchpad","response_time_instructions2_sketchpad","response_time_keyboard_response","response_time_thankyou_sketchpad","round_decimals","sampler_backend","setSize","sound_buf_size","sound_channels","sound_freq","sound_sample_size","start","subject_nr","subject_parity","target","time_ISI_sketchpad","time_correct_sketchpad","time_exp_sequence","time_experiment","time_experiment_loop","time_fixation_sketchpad","time_incorrect_sketchpad","time_instruction1_sketchpad","time_instructions2_sketchpad","time_keyboard_response","time_memoryset_sketchpad","time_new_logger","time_practice_loop","time_probe_sketchpad","time_thankyou_sketchpad","title","total_correct","total_response_time","total_responses","width"
"100","100","1203","1203","#3d3846","practice","legacy","legacy","legacy","1","undefined","1","right","0","0","0","0","0","0","0","0","0","0","0","0","0","0","0","Wed Oct 11 01:28:00 2023","The main experiment item","True","Sternbergtask.osexp","C:\Users\kikip\OneDrive\Dokumente\QUANT HW","False","mono","False","18","no","white","no","yes","768","legacy","0","0","C:/Users/kikip/OneDrive/Dokumente/QUANT HW/HBsubject-1.csv","legacy","3 1 9 4","Melodramatic Milgram","4.0.5","0","n","0","right","right","NA","right","NA","1203.0","11869","NA","1203","NA","2","legacy","4","1024","2","48000","-16","experiment","1","odd","6","16818","NA","14614","2077","NA","14616","NA","2083","NA","18819","15617","20023","13953","18819","NA","Sternberg task ","1","1203.0","1","1024"
"100","100","907","907","#3d3846","practice","legacy","legacy","legacy","1","undefined","1","left","1","1","1","0","0","1","1","0","0","1","1","1","0","1","0","Wed Oct 11 01:28:00 2023","The main experiment item","True","Sternbergtask.osexp","C:\Users\kikip\OneDrive\Dokumente\QUANT HW","False","mono","False","18","no","white","no","yes","768","legacy","1","1","C:/Users/kikip/OneDrive/Dokumente/QUANT HW/HBsubject-1.csv","legacy","4 8","Melodramatic Milgram","4.0.5","1","y","0","left","right","NA","left","NA","611.0","11869","NA","611","NA","2","legacy","2","1024","2","48000","-16","experiment","1","odd","4","23318","20072","21115","2077","NA","21116","NA","2083","NA","25319","22117","25931","13953","25319","NA","Sternberg task ","2","1814.0","2","1024"
"100","100","917","917","#3d3846","practice","legacy","legacy","legacy","1","undefined","1","right","2","2","2","0","0","2","2","0","0","2","2","2","0","2","0","Wed Oct 11 01:28:00 2023","The main experiment item","True","Sternbergtask.osexp","C:\Users\kikip\OneDrive\Dokumente\QUANT HW","False","mono","False","18","no","white","no","yes","768","legacy","2","2","C:/Users/kikip/OneDrive/Dokumente/QUANT HW/HBsubject-1.csv","legacy","5 7 8 4 1 2","Melodramatic Milgram","4.0.5","0","n","0","right","right","NA","right","NA","937.0","11869","NA","937","NA","2","legacy","6","1024","2","48000","-16","experiment","1","odd","6","29186","25940","26983","2077","NA","26984","NA","2083","NA","31187","27985","32125","13953","31187","NA","Sternberg task ","3","2751.0","3","1024"
"100","100","841","841","#3d3846","practice","legacy","legacy","legacy","1","undefined","1","right","3","3","3","0","0","3","3","0","0","3","3","3","0","3","0","Wed Oct 11 01:28:00 2023","The main experiment item","True","Sternbergtask.osexp","C:\Users\kikip\OneDrive\Dokumente\QUANT HW","False","mono","False","18","no","white","no","yes","768","legacy","3","3","C:/Users/kikip/OneDrive/Dokumente/QUANT HW/HBsubject-1.csv","legacy","5","Melodramatic Milgram","4.0.5","0","n","0","right","right","NA","right","NA","615.0","11869","NA","615","NA","2","legacy","1","1024","2","48000","-16","experiment","1","odd","3","35393","32131","33190","2077","NA","33191","NA","2083","NA","37394","34192","38010","13953","37394","NA","Sternberg task ","4","3366.0","4","1024"
"100","100","822","822","#3d3846","practice","legacy","legacy","legacy","1","undefined","1","right","4","4","4","0","0","4","4","0","0","4","4","4","0","4","0","Wed Oct 11 01:28:00 2023","The main experiment item","True","Sternbergtask.osexp","C:\Users\kikip\OneDrive\Dokumente\QUANT HW","False","mono","False","18","no","white","no","yes","768","legacy","4","4","C:/Users/kikip/OneDrive/Dokumente/QUANT HW/HBsubject-1.csv","legacy","4 1 5","Melodramatic Milgram","4.0.5","0","n","0","right","right","NA","right","NA","745.0","11869","NA","745","NA","2","legacy","3","1024","2","48000","-16","experiment","1","odd","2","41257","38013","39054","2077","NA","39055","NA","2083","NA","43258","40056","44003","13953","43258","NA","Sternberg task ","5","4111.0","5","1024"
"100","100","804","804","#3d3846","practice","legacy","legacy","legacy","1","undefined","1","right","5","5","5","0","0","5","5","0","0","5","5","5","0","5","0","Wed Oct 11 01:28:00 2023","The main experiment item","True","Sternbergtask.osexp","C:\Users\kikip\OneDrive\Dokumente\QUANT HW","False","mono","False","18","no","white","no","yes","768","legacy","5","5","C:/Users/kikip/OneDrive/Dokumente/QUANT HW/HBsubject-1.csv","legacy","9 6 7 4 5","Melodramatic Milgram","4.0.5","0","n","0","right","right","NA","right","NA","718.0","11869","NA","718","NA","2","legacy","5","1024","2","48000","-16","experiment","1","odd","3","47264","44009","45060","2077","NA","45061","NA","2083","NA","49265","46063","49984","13953","49265","NA","Sternberg task ","6","4829.0","6","1024"
"100","100","799","799","#3d3846","practice","legacy","legacy","legacy","1","undefined","1","left","6","6","6","0","0","6","6","0","0","6","6","6","0","6","0","Wed Oct 11 01:28:00 2023","The main experiment item","True","Sternbergtask.osexp","C:\Users\kikip\OneDrive\Dokumente\QUANT HW","False","mono","False","18","no","white","no","yes","768","legacy","6","6","C:/Users/kikip/OneDrive/Dokumente/QUANT HW/HBsubject-1.csv","legacy","6","Melodramatic Milgram","4.0.5","1","y","0","left","right","NA","left","NA","767.0","11869","NA","767","NA","2","legacy","1","1024","2","48000","-16","experiment","1","odd","6","53240","49987","51037","2077","NA","51038","NA","2083","NA","55241","52039","56009","13953","55241","NA","Sternberg task ","7","5596.0","7","1024"
"100","100","775","775","#3d3846","practice","legacy","legacy","legacy","1","undefined","1","right","7","7","7","0","0","7","7","0","0","7","7","7","0","7","0","Wed Oct 11 01:28:00 2023","The main experiment item","True","Sternbergtask.osexp","C:\Users\kikip\OneDrive\Dokumente\QUANT HW","False","mono","False","18","no","white","no","yes","768","legacy","7","7","C:/Users/kikip/OneDrive/Dokumente/QUANT HW/HBsubject-1.csv","legacy","2 1","Melodramatic Milgram","4.0.5","0","n","0","right","right","NA","right","NA","607.0","11869","NA","607","NA","2","legacy","2","1024","2","48000","-16","experiment","1","odd","5","59270","56012","57067","2077","NA","57068","NA","2083","NA","61271","58069","61878","13953","61271","NA","Sternberg task ","8","6203.0","8","1024"
"100","100","774","774","#3d3846","practice","legacy","legacy","legacy","1","undefined","1","left","8","8","8","0","0","8","8","0","0","8","8","8","0","8","0","Wed Oct 11 01:28:00 2023","The main experiment item","True","Sternbergtask.osexp","C:\Users\kikip\OneDrive\Dokumente\QUANT HW","False","mono","False","18","no","white","no","yes","768","legacy","8","8","C:/Users/kikip/OneDrive/Dokumente/QUANT HW/HBsubject-1.csv","legacy","1 7 9 8 5","Melodramatic Milgram","4.0.5","4","y","0","left","right","NA","left","NA","767.0","11869","NA","767","NA","2","legacy","5","1024","2","48000","-16","experiment","1","odd","8","65124","61881","62921","2077","NA","62922","NA","2083","NA","67125","63923","67893","13953","67125","NA","Sternberg task ","9","6970.0","9","1024"
"100","100","780","780","#3d3846","practice","legacy","legacy","legacy","1","undefined","1","left","9","9","9","0","0","9","9","0","0","9","9","9","0","9","0","Wed Oct 11 01:28:00 2023","The main experiment item","True","Sternbergtask.osexp","C:\Users\kikip\OneDrive\Dokumente\QUANT HW","False","mono","False","18","no","white","no","yes","768","legacy","9","9","C:/Users/kikip/OneDrive/Dokumente/QUANT HW/HBsubject-1.csv","legacy","1 5 2 9","Melodramatic Milgram","4.0.5","2","y","0","left","right","NA","left","NA","831.0","11869","NA","831","NA","2","legacy","4","1024","2","48000","-16","experiment","1","odd","5","71153","67895","68948","2077","NA","68951","NA","2083","NA","73156","69952","73988","13953","73156","NA","Sternberg task ","10","7801.0","10","1024"
"100","100","777","777","#3d3846","practice","legacy","legacy","legacy","1","undefined","1","left","10","10","10","0","0","10","10","0","0","10","10","10","0","10","0","Wed Oct 11 01:28:00 2023","The main experiment item","True","Sternbergtask.osexp","C:\Users\kikip\OneDrive\Dokumente\QUANT HW","False","mono","False","18","no","white","no","yes","768","legacy","10","10","C:/Users/kikip/OneDrive/Dokumente/QUANT HW/HBsubject-1.csv","legacy","2 9 4","Melodramatic Milgram","4.0.5","3","y","0","left","right","NA","left","NA","756.0","11869","NA","756","NA","2","legacy","3","1024","2","48000","-16","experiment","1","odd","4","77240","73994","75037","2077","NA","75038","NA","2083","NA","79241","76039","79997","13953","79241","NA","Sternberg task ","11","8557.0","11","1024"
"100","100","778","778","#3d3846","practice","legacy","legacy","legacy","1","undefined","1","left","11","11","11","0","0","11","11","0","0","11","11","11","0","11","0","Wed Oct 11 01:28:00 2023","The main experiment item","True","Sternbergtask.osexp","C:\Users\kikip\OneDrive\Dokumente\QUANT HW","False","mono","False","18","no","white","no","yes","768","legacy","11","11","C:/Users/kikip/OneDrive/Dokumente/QUANT HW/HBsubject-1.csv","legacy","4 3 1 7 9 8","Melodramatic Milgram","4.0.5","1","y","0","left","right","NA","left","NA","786.0","11869","NA","786","NA","2","legacy","6","1024","2","48000","-16","experiment","1","odd","4","83248","80001","81045","2077","NA","81046","NA","2083","NA","85249","82047","86036","13953","85249","NA","Sternberg task ","12","9343.0","12","1024"
"100","100","772","772","#3d3846","experiment","legacy","legacy","legacy","1","undefined","1","left","12","12","12","0","0","12","12","0","0","12","12","12","0","12","0","Wed Oct 11 01:28:00 2023","The main experiment item","True","Sternbergtask.osexp","C:\Users\kikip\OneDrive\Dokumente\QUANT HW","False","mono","False","18","no","white","no","yes","768","legacy","0","11","C:/Users/kikip/OneDrive/Dokumente/QUANT HW/HBsubject-1.csv","legacy","5 7 3 6 2","Melodramatic Milgram","4.0.5","5","y","0","left","right","right","left","NA","695.0","11869","7446","695","NA","2","legacy","5","1024","2","48000","-16","experiment","1","odd","2","96863","86042","94659","2077","94490","94661","NA","2083","87043","98864","95662","99560","13953","98864","NA","Sternberg task ","13","10038.0","13","1024"
"100","100","778","778","#3d3846","experiment","legacy","legacy","legacy","1","undefined","1","right","13","13","13","0","0","13","13","0","0","13","13","13","0","13","0","Wed Oct 11 01:28:00 2023","The main experiment item","True","Sternbergtask.osexp","C:\Users\kikip\OneDrive\Dokumente\QUANT HW","False","mono","False","18","no","white","no","yes","768","legacy","1","11","C:/Users/kikip/OneDrive/Dokumente/QUANT HW/HBsubject-1.csv","legacy","1 6 4","Melodramatic Milgram","4.0.5","0","n","0","right","right","right","right","NA","857.0","11869","7446","857","NA","2","legacy","3","1024","2","48000","-16","experiment","1","odd","7","102811","99567","100607","2077","94490","100609","NA","2083","87043","104812","101610","105670","13953","104812","NA","Sternberg task ","14","10895.0","14","1024"
"100","100","774","774","#3d3846","experiment","legacy","legacy","legacy","1","undefined","1","right","14","14","14","0","0","14","14","0","0","14","14","14","0","14","0","Wed Oct 11 01:28:00 2023","The main experiment item","True","Sternbergtask.osexp","C:\Users\kikip\OneDrive\Dokumente\QUANT HW","False","mono","False","18","no","white","no","yes","768","legacy","2","11","C:/Users/kikip/OneDrive/Dokumente/QUANT HW/HBsubject-1.csv","legacy","9 5 3 2 8 6","Melodramatic Milgram","4.0.5","0","n","0","right","right","right","right","NA","722.0","11869","7446","722","NA","2","legacy","6","1024","2","48000","-16","experiment","1","odd","7","108921","105674","106718","2077","94490","106719","NA","2083","87043","110922","107720","111645","13953","110922","NA","Sternberg task ","15","11617.0","15","1024"
"100","100","765","765","#3d3846","experiment","legacy","legacy","legacy","1","undefined","1","left","15","15","15","0","0","15","15","0","0","15","15","15","0","15","0","Wed Oct 11 01:28:00 2023","The main experiment item","True","Sternbergtask.osexp","C:\Users\kikip\OneDrive\Dokumente\QUANT HW","False","mono","False","18","no","white","no","yes","768","legacy","3","11","C:/Users/kikip/OneDrive/Dokumente/QUANT HW/HBsubject-1.csv","legacy","2 3 7 4","Melodramatic Milgram","4.0.5","1","y","0","left","right","right","left","NA","637.0","11869","7446","637","NA","2","legacy","4","1024","2","48000","-16","experiment","1","odd","2","114893","111648","112690","2077","94490","112691","NA","2083","87043","116894","113692","117532","13953","116894","NA","Sternberg task ","16","12254.0","16","1024"
"100","100","775","775","#3d3846","experiment","legacy","legacy","legacy","1","undefined","1","left","16","16","16","0","0","16","16","0","0","16","16","16","0","16","0","Wed Oct 11 01:28:00 2023","The main experiment item","True","Sternbergtask.osexp","C:\Users\kikip\OneDrive\Dokumente\QUANT HW","False","mono","False","18","no","white","no","yes","768","legacy","4","11","C:/Users/kikip/OneDrive/Dokumente/QUANT HW/HBsubject-1.csv","legacy","6 7 8 5","Melodramatic Milgram","4.0.5","3","y","0","left","right","right","left","NA","935.0","11869","7446","935","NA","2","legacy","4","1024","2","48000","-16","experiment","1","odd","8","120792","117538","118589","2077","94490","118590","NA","2083","87043","122793","119591","123729","13953","122793","NA","Sternberg task ","17","13189.0","17","1024"
"100","100","772","772","#3d3846","experiment","legacy","legacy","legacy","1","undefined","1","right","17","17","17","0","0","17","17","0","0","17","17","17","0","17","0","Wed Oct 11 01:28:00 2023","The main experiment item","True","Sternbergtask.osexp","C:\Users\kikip\OneDrive\Dokumente\QUANT HW","False","mono","False","18","no","white","no","yes","768","legacy","5","11","C:/Users/kikip/OneDrive/Dokumente/QUANT HW/HBsubject-1.csv","legacy","5 7 3","Melodramatic Milgram","4.0.5","0","n","0","right","right","right","right","NA","709.0","11869","7446","709","NA","2","legacy","3","1024","2","48000","-16","experiment","1","odd","9","126976","123732","124772","2077","94490","124774","NA","2083","87043","128977","125775","129687","13953","128977","NA","Sternberg task ","18","13898.0","18","1024"
"100","100","784","784","#3d3846","experiment","legacy","legacy","legacy","1","undefined","1","right","18","18","18","0","0","18","18","0","0","18","18","18","0","18","0","Wed Oct 11 01:28:00 2023","The main experiment item","True","Sternbergtask.osexp","C:\Users\kikip\OneDrive\Dokumente\QUANT HW","False","mono","False","18","no","white","no","yes","768","legacy","6","11","C:/Users/kikip/OneDrive/Dokumente/QUANT HW/HBsubject-1.csv","legacy","7 1 5 6 3","Melodramatic Milgram","4.0.5","0","n","0","right","right","right","right","NA","1010.0","11869","7446","1010","NA","2","legacy","5","1024","2","48000","-16","experiment","1","odd","8","132939","129694","130735","2077","94490","130737","NA","2083","87043","134940","131738","135951","13953","134940","NA","Sternberg task ","19","14908.0","19","1024"
"100","100","775","775","#3d3846","experiment","legacy","legacy","legacy","1","undefined","1","right","19","19","19","0","0","19","19","0","0","19","19","19","0","19","0","Wed Oct 11 01:28:00 2023","The main experiment item","True","Sternbergtask.osexp","C:\Users\kikip\OneDrive\Dokumente\QUANT HW","False","mono","False","18","no","white","no","yes","768","legacy","7","11","C:/Users/kikip/OneDrive/Dokumente/QUANT HW/HBsubject-1.csv","legacy","8 5 7 3 6","Melodramatic Milgram","4.0.5","0","n","0","right","right","right","right","NA","592.0","11869","7446","592","NA","2","legacy","5","1024","2","48000","-16","experiment","1","odd","9","139203","135954","136999","2077","94490","137001","NA","2083","87043","141204","138002","141796","13953","141204","NA","Sternberg task ","20","15500.0","20","1024"
"100","100","768","768","#3d3846","experiment","legacy","legacy","legacy","1","undefined","1","right","20","20","20","0","0","20","20","0","0","20","20","20","0","20","0","Wed Oct 11 01:28:00 2023","The main experiment item","True","Sternbergtask.osexp","C:\Users\kikip\OneDrive\Dokumente\QUANT HW","False","mono","False","18","no","white","no","yes","768","legacy","8","11","C:/Users/kikip/OneDrive/Dokumente/QUANT HW/HBsubject-1.csv","legacy","8 6 3 4 7","Melodramatic Milgram","4.0.5","0","n","0","right","right","right","right","NA","638.0","11869","7446","638","NA","2","legacy","5","1024","2","48000","-16","experiment","1","odd","1","145067","141802","142864","2077","94490","142865","NA","2083","87043","147068","143866","147707","13953","147068","NA","Sternberg task ","21","16138.0","21","1024"
"100","100","762","762","#3d3846","experiment","legacy","legacy","legacy","1","undefined","1","left","21","21","21","0","0","21","21","0","0","21","21","21","0","21","0","Wed Oct 11 01:28:00 2023","The main experiment item","True","Sternbergtask.osexp","C:\Users\kikip\OneDrive\Dokumente\QUANT HW","False","mono","False","18","no","white","no","yes","768","legacy","9","11","C:/Users/kikip/OneDrive/Dokumente/QUANT HW/HBsubject-1.csv","legacy","8","Melodramatic Milgram","4.0.5","1","y","0","left","right","right","left","NA","642.0","11869","7446","642","NA","2","legacy","1","1024","2","48000","-16","experiment","1","odd","8","150959","147713","148756","2077","94490","148757","NA","2083","87043","152960","149758","153603","13953","152960","NA","Sternberg task ","22","16780.0","22","1024"
"100","100","764","764","#3d3846","experiment","legacy","legacy","legacy","1","undefined","1","right","22","22","22","0","0","22","22","0","0","22","22","22","0","22","0","Wed Oct 11 01:28:00 2023","The main experiment item","True","Sternbergtask.osexp","C:\Users\kikip\OneDrive\Dokumente\QUANT HW","False","mono","False","18","no","white","no","yes","768","legacy","10","11","C:/Users/kikip/OneDrive/Dokumente/QUANT HW/HBsubject-1.csv","legacy","4 2 7 6 1 3","Melodramatic Milgram","4.0.5","0","n","0","right","right","right","right","NA","800.0","11869","7446","800","NA","2","legacy","6","1024","2","48000","-16","experiment","1","odd","8","156851","153605","154647","2077","94490","154648","NA","2083","87043","158852","155649","159653","13953","158852","NA","Sternberg task ","23","17580.0","23","1024"
"100","100","765","765","#3d3846","experiment","legacy","legacy","legacy","1","undefined","1","left","23","23","23","0","0","23","23","0","0","23","23","23","0","23","0","Wed Oct 11 01:28:00 2023","The main experiment item","True","Sternbergtask.osexp","C:\Users\kikip\OneDrive\Dokumente\QUANT HW","False","mono","False","18","no","white","no","yes","768","legacy","11","11","C:/Users/kikip/OneDrive/Dokumente/QUANT HW/HBsubject-1.csv","legacy","1 4 9 3 2 5","Melodramatic Milgram","4.0.5","3","y","0","left","right","right","left","NA","792.0","11869","7446","792","NA","2","legacy","6","1024","2","48000","-16","experiment","1","odd","9","162921","159659","160718","2077","94490","160719","NA","2083","87043","164922","161720","165715","13953","164922","NA","Sternberg task ","24","18372.0","24","1024"
"100","100","762","762","#3d3846","experiment","legacy","legacy","legacy","1","undefined","1","left","24","24","24","0","0","24","24","0","0","24","24","24","0","24","0","Wed Oct 11 01:28:00 2023","The main experiment item","True","Sternbergtask.osexp","C:\Users\kikip\OneDrive\Dokumente\QUANT HW","False","mono","False","18","no","white","no","yes","768","legacy","12","11","C:/Users/kikip/OneDrive/Dokumente/QUANT HW/HBsubject-1.csv","legacy","6 7 9 3 1 2","Melodramatic Milgram","4.0.5","1","y","0","left","right","right","left","NA","688.0","11869","7446","688","NA","2","legacy","6","1024","2","48000","-16","experiment","1","odd","6","168964","165718","166761","2077","94490","166762","NA","2083","87043","170965","167763","171654","13953","170965","NA","Sternberg task ","25","19060.0","25","1024"
"100","100","767","767","#3d3846","experiment","legacy","legacy","legacy","1","undefined","1","left","25","25","25","0","0","25","25","0","0","25","25","25","0","25","0","Wed Oct 11 01:28:00 2023","The main experiment item","True","Sternbergtask.osexp","C:\Users\kikip\OneDrive\Dokumente\QUANT HW","False","mono","False","18","no","white","no","yes","768","legacy","13","11","C:/Users/kikip/OneDrive/Dokumente/QUANT HW/HBsubject-1.csv","legacy","2 4 8 5 1 3","Melodramatic Milgram","4.0.5","1","y","0","left","right","right","left","NA","882.0","11869","7446","882","NA","2","legacy","6","1024","2","48000","-16","experiment","1","odd","2","174905","171657","172702","2077","94490","172703","NA","2083","87043","176906","173704","177789","13953","176906","NA","Sternberg task ","26","19942.0","26","1024"
"100","100","763","763","#3d3846","experiment","legacy","legacy","legacy","1","undefined","1","right","26","26","26","0","0","26","26","0","0","26","26","26","0","26","0","Wed Oct 11 01:28:00 2023","The main experiment item","True","Sternbergtask.osexp","C:\Users\kikip\OneDrive\Dokumente\QUANT HW","False","mono","False","18","no","white","no","yes","768","legacy","14","11","C:/Users/kikip/OneDrive/Dokumente/QUANT HW/HBsubject-1.csv","legacy","1 5 3 2 8","Melodramatic Milgram","4.0.5","0","n","0","right","right","right","right","NA","664.0","11869","7446","664","NA","2","legacy","5","1024","2","48000","-16","experiment","1","odd","4","181044","177795","178841","2077","94490","178842","NA","2083","87043","183045","179843","183710","13953","183045","NA","Sternberg task ","27","20606.0","27","1024"
"100","100","759","759","#3d3846","experiment","legacy","legacy","legacy","1","undefined","1","right","27","27","27","0","0","27","27","0","0","27","27","27","0","27","0","Wed Oct 11 01:28:00 2023","The main experiment item","True","Sternbergtask.osexp","C:\Users\kikip\OneDrive\Dokumente\QUANT HW","False","mono","False","18","no","white","no","yes","768","legacy","15","11","C:/Users/kikip/OneDrive/Dokumente/QUANT HW/HBsubject-1.csv","legacy","1 7 5 2","Melodramatic Milgram","4.0.5","0","n","0","right","right","right","right","NA","652.0","11869","7446","652","NA","2","legacy","4","1024","2","48000","-16","experiment","1","odd","3","186958","183713","184755","2077","94490","184756","NA","2083","87043","188959","185757","189611","13953","188959","NA","Sternberg task ","28","21258.0","28","1024"
"100","100","755","755","#3d3846","experiment","legacy","legacy","legacy","1","undefined","1","left","28","28","28","0","0","28","28","0","0","28","28","28","0","28","0","Wed Oct 11 01:28:00 2023","The main experiment item","True","Sternbergtask.osexp","C:\Users\kikip\OneDrive\Dokumente\QUANT HW","False","mono","False","18","no","white","no","yes","768","legacy","16","11","C:/Users/kikip/OneDrive/Dokumente/QUANT HW/HBsubject-1.csv","legacy","7 4 2 6 3 5","Melodramatic Milgram","4.0.5","6","y","0","left","right","right","left","NA","659.0","11869","7446","659","NA","2","legacy","6","1024","2","48000","-16","experiment","1","odd","5","192880","189619","190676","2077","94490","190678","NA","2083","87043","194881","191679","195541","13953","194881","NA","Sternberg task ","29","21917.0","29","1024"
"100","100","751","751","#3d3846","experiment","legacy","legacy","legacy","1","undefined","1","right","29","29","29","0","0","29","29","0","0","29","29","29","0","29","0","Wed Oct 11 01:28:00 2023","The main experiment item","True","Sternbergtask.osexp","C:\Users\kikip\OneDrive\Dokumente\QUANT HW","False","mono","False","18","no","white","no","yes","768","legacy","17","11","C:/Users/kikip/OneDrive/Dokumente/QUANT HW/HBsubject-1.csv","legacy","4 1","Melodramatic Milgram","4.0.5","0","n","0","right","right","right","right","NA","637.0","11869","7446","637","NA","2","legacy","2","1024","2","48000","-16","experiment","1","odd","6","198798","195547","196594","2077","94490","196596","NA","2083","87043","200799","197597","201437","13953","200799","NA","Sternberg task ","30","22554.0","30","1024"
"100","100","748","748","#3d3846","experiment","legacy","legacy","legacy","1","undefined","1","right","30","30","30","0","0","30","30","0","0","30","30","30","0","30","0","Wed Oct 11 01:28:00 2023","The main experiment item","True","Sternbergtask.osexp","C:\Users\kikip\OneDrive\Dokumente\QUANT HW","False","mono","False","18","no","white","no","yes","768","legacy","18","11","C:/Users/kikip/OneDrive/Dokumente/QUANT HW/HBsubject-1.csv","legacy","3 4 2","Melodramatic Milgram","4.0.5","0","n","0","right","right","right","right","NA","663.0","11869","7446","663","NA","2","legacy","3","1024","2","48000","-16","experiment","1","odd","5","204684","201440","202480","2077","94490","202481","NA","2083","87043","206685","203483","207349","13953","206685","NA","Sternberg task ","31","23217.0","31","1024"
"100","100","752","752","#3d3846","experiment","legacy","legacy","legacy","1","undefined","1","right","31","31","31","0","0","31","31","0","0","31","31","31","0","31","0","Wed Oct 11 01:28:00 2023","The main experiment item","True","Sternbergtask.osexp","C:\Users\kikip\OneDrive\Dokumente\QUANT HW","False","mono","False","18","no","white","no","yes","768","legacy","19","11","C:/Users/kikip/OneDrive/Dokumente/QUANT HW/HBsubject-1.csv","legacy","6 9 4 5 3 2","Melodramatic Milgram","4.0.5","0","n","0","right","right","right","right","NA","873.0","11869","7446","873","NA","2","legacy","6","1024","2","48000","-16","experiment","1","odd","8","210605","207352","208402","2077","94490","208403","NA","2083","87043","212606","209404","213480","13953","212606","NA","Sternberg task ","32","24090.0","32","1024"
"100","100","747","747","#3d3846","experiment","legacy","legacy","legacy","1","undefined","1","right","32","32","32","0","0","32","32","0","0","32","32","32","0","32","0","Wed Oct 11 01:28:00 2023","The main experiment item","True","Sternbergtask.osexp","C:\Users\kikip\OneDrive\Dokumente\QUANT HW","False","mono","False","18","no","white","no","yes","768","legacy","20","11","C:/Users/kikip/OneDrive/Dokumente/QUANT HW/HBsubject-1.csv","legacy","6 8 4","Melodramatic Milgram","4.0.5","0","n","0","right","right","right","right","NA","589.0","11869","7446","589","NA","2","legacy","3","1024","2","48000","-16","experiment","1","odd","1","216738","213484","214534","2077","94490","214535","NA","2083","87043","218740","215537","219330","13953","218739","NA","Sternberg task ","33","24679.0","33","1024"
"97","97","752","752","#3d3846","experiment","legacy","legacy","legacy","0","undefined","0","left","33","33","33","0","0","33","33","0","0","33","33","33","0","33","0","Wed Oct 11 01:28:00 2023","The main experiment item","True","Sternbergtask.osexp","C:\Users\kikip\OneDrive\Dokumente\QUANT HW","False","mono","False","18","no","white","no","yes","768","legacy","21","11","C:/Users/kikip/OneDrive/Dokumente/QUANT HW/HBsubject-1.csv","legacy","6 8 9 3 4 9","Melodramatic Milgram","4.0.5","5","y","0","right","right","right","right","NA","907.0","11869","7446","907","NA","2","legacy","6","1024","2","48000","-16","experiment","1","odd","4","222583","219333","220379","2077","94490","220380","NA","2083","87043","224584","221381","225492","13953","224584","NA","Sternberg task ","33","25586.0","34","1024"
"97","97","750","750","#3d3846","experiment","legacy","legacy","legacy","1","undefined","1","left","34","34","34","0","0","34","34","0","0","34","34","34","0","34","0","Wed Oct 11 01:28:00 2023","The main experiment item","True","Sternbergtask.osexp","C:\Users\kikip\OneDrive\Dokumente\QUANT HW","False","mono","False","18","no","white","no","yes","768","legacy","22","11","C:/Users/kikip/OneDrive/Dokumente/QUANT HW/HBsubject-1.csv","legacy","5 2 9 6 1 7","Melodramatic Milgram","4.0.5","3","y","0","left","right","right","left","NA","688.0","11869","7446","688","NA","2","legacy","6","1024","2","48000","-16","experiment","1","odd","9","228748","219333","226545","2077","94490","226546","225498","2083","87043","230749","227547","231437","13953","230749","NA","Sternberg task ","34","26274.0","35","1024"
"97","97","744","744","#3d3846","experiment","legacy","legacy","legacy","1","undefined","1","left","35","35","35","0","0","35","35","0","0","35","35","35","0","35","0","Wed Oct 11 01:28:00 2023","The main experiment item","True","Sternbergtask.osexp","C:\Users\kikip\OneDrive\Dokumente\QUANT HW","False","mono","False","18","no","white","no","yes","768","legacy","23","11","C:/Users/kikip/OneDrive/Dokumente/QUANT HW/HBsubject-1.csv","legacy","8 9 5 6 7","Melodramatic Milgram","4.0.5","1","y","0","left","right","right","left","NA","531.0","11869","7446","531","NA","2","legacy","5","1024","2","48000","-16","experiment","1","odd","8","234689","231440","232486","2077","94490","232487","225498","2083","87043","236690","233488","237222","13953","236690","NA","Sternberg task ","35","26805.0","36","1024"
"97","97","739","739","#3d3846","experiment","legacy","legacy","legacy","1","undefined","1","left","36","36","36","0","0","36","36","0","0","36","36","36","0","36","0","Wed Oct 11 01:28:00 2023","The main experiment item","True","Sternbergtask.osexp","C:\Users\kikip\OneDrive\Dokumente\QUANT HW","False","mono","False","18","no","white","no","yes","768","legacy","24","11","C:/Users/kikip/OneDrive/Dokumente/QUANT HW/HBsubject-1.csv","legacy","2 6 1 7 4","Melodramatic Milgram","4.0.5","2","y","0","left","right","right","left","NA","540.0","11869","7446","540","NA","2","legacy","5","1024","2","48000","-16","experiment","1","odd","6","240471","237228","238268","2077","94490","238269","225498","2083","87043","242472","239270","243012","13953","242472","NA","Sternberg task ","36","27345.0","37","1024"
"97","97","734","734","#3d3846","experiment","legacy","legacy","legacy","1","undefined","1","left","37","37","37","0","0","37","37","0","0","37","37","37","0","37","0","Wed Oct 11 01:28:00 2023","The main experiment item","True","Sternbergtask.osexp","C:\Users\kikip\OneDrive\Dokumente\QUANT HW","False","mono","False","18","no","white","no","yes","768","legacy","25","11","C:/Users/kikip/OneDrive/Dokumente/QUANT HW/HBsubject-1.csv","legacy","9 4 2","Melodramatic Milgram","4.0.5","1","y","0","left","right","right","left","NA","555.0","11869","7446","555","NA","2","legacy","3","1024","2","48000","-16","experiment","1","odd","9","246262","243018","244059","2077","94490","244060","225498","2083","87043","248263","245061","248819","13953","248263","NA","Sternberg task ","37","27900.0","38","1024"
"97","97","731","731","#3d3846","experiment","legacy","legacy","legacy","1","undefined","1","right","38","38","38","0","0","38","38","0","0","38","38","38","0","38","0","Wed Oct 11 01:28:00 2023","The main experiment item","True","Sternbergtask.osexp","C:\Users\kikip\OneDrive\Dokumente\QUANT HW","False","mono","False","18","no","white","no","yes","768","legacy","26","11","C:/Users/kikip/OneDrive/Dokumente/QUANT HW/HBsubject-1.csv","legacy","1","Melodramatic Milgram","4.0.5","0","n","0","right","right","right","right","NA","611.0","11869","7446","611","NA","2","legacy","1","1024","2","48000","-16","experiment","1","odd","7","252082","248825","249879","2077","94490","249880","225498","2083","87043","254083","250881","254695","13953","254083","NA","Sternberg task ","38","28511.0","39","1024"
"97","97","726","726","#3d3846","experiment","legacy","legacy","legacy","1","undefined","1","left","39","39","39","0","0","39","39","0","0","39","39","39","0","39","0","Wed Oct 11 01:28:00 2023","The main experiment item","True","Sternbergtask.osexp","C:\Users\kikip\OneDrive\Dokumente\QUANT HW","False","mono","False","18","no","white","no","yes","768","legacy","27","11","C:/Users/kikip/OneDrive/Dokumente/QUANT HW/HBsubject-1.csv","legacy","4 7 6 8 2 3","Melodramatic Milgram","4.0.5","6","y","0","left","right","right","left","NA","545.0","11869","7446","545","NA","2","legacy","6","1024","2","48000","-16","experiment","1","odd","3","257949","254698","255746","2077","94490","255747","225498","2083","87043","259950","256748","260496","13953","259950","NA","Sternberg task ","39","29056.0","40","1024"
"97","97","724","724","#3d3846","experiment","legacy","legacy","legacy","1","undefined","1","left","40","40","40","0","0","40","40","0","0","40","40","40","0","40","0","Wed Oct 11 01:28:00 2023","The main experiment item","True","Sternbergtask.osexp","C:\Users\kikip\OneDrive\Dokumente\QUANT HW","False","mono","False","18","no","white","no","yes","768","legacy","28","11","C:/Users/kikip/OneDrive/Dokumente/QUANT HW/HBsubject-1.csv","legacy","7 1 8 5 6 2","Melodramatic Milgram","4.0.5","2","y","0","left","right","right","left","NA","662.0","11869","7446","662","NA","2","legacy","6","1024","2","48000","-16","experiment","1","odd","1","263747","260499","261543","2077","94490","261545","225498","2083","87043","265748","262546","266411","13953","265748","NA","Sternberg task ","40","29718.0","41","1024"
"97","97","722","722","#3d3846","experiment","legacy","legacy","legacy","1","undefined","1","right","41","41","41","0","0","41","41","0","0","41","41","41","0","41","0","Wed Oct 11 01:28:00 2023","The main experiment item","True","Sternbergtask.osexp","C:\Users\kikip\OneDrive\Dokumente\QUANT HW","False","mono","False","18","no","white","no","yes","768","legacy","29","11","C:/Users/kikip/OneDrive/Dokumente/QUANT HW/HBsubject-1.csv","legacy","2 5 1 4","Melodramatic Milgram","4.0.5","0","n","0","right","right","right","right","NA","625.0","11869","7446","625","NA","2","legacy","4","1024","2","48000","-16","experiment","1","odd","6","269660","266415","267456","2077","94490","267457","225498","2083","87043","271661","268459","272287","13953","271661","NA","Sternberg task ","41","30343.0","42","1024"
"97","97","719","719","#3d3846","experiment","legacy","legacy","legacy","1","undefined","1","right","42","42","42","0","0","42","42","0","0","42","42","42","0","42","0","Wed Oct 11 01:28:00 2023","The main experiment item","True","Sternbergtask.osexp","C:\Users\kikip\OneDrive\Dokumente\QUANT HW","False","mono","False","18","no","white","no","yes","768","legacy","30","11","C:/Users/kikip/OneDrive/Dokumente/QUANT HW/HBsubject-1.csv","legacy","8 2 1 4 5 9","Melodramatic Milgram","4.0.5","0","n","0","right","right","right","right","NA","612.0","11869","7446","612","NA","2","legacy","6","1024","2","48000","-16","experiment","1","odd","7","275535","272290","273331","2077","94490","273333","225498","2083","87043","277536","274334","278149","13953","277536","NA","Sternberg task ","42","30955.0","43","1024"
"95","95","724","724","#3d3846","experiment","legacy","legacy","legacy","0","undefined","0","left","43","43","43","0","0","43","43","0","0","43","43","43","0","43","0","Wed Oct 11 01:28:00 2023","The main experiment item","True","Sternbergtask.osexp","C:\Users\kikip\OneDrive\Dokumente\QUANT HW","False","mono","False","18","no","white","no","yes","768","legacy","31","11","C:/Users/kikip/OneDrive/Dokumente/QUANT HW/HBsubject-1.csv","legacy","3 4 9 6 2 9","Melodramatic Milgram","4.0.5","5","y","0","right","right","right","right","NA","931.0","11869","7446","931","NA","2","legacy","6","1024","2","48000","-16","experiment","1","odd","2","281419","278155","279214","2077","94490","279217","225498","2083","87043","283420","280218","284352","13953","283420","NA","Sternberg task ","42","31886.0","44","1024"
"95","95","722","722","#3d3846","experiment","legacy","legacy","legacy","1","undefined","1","left","44","44","44","0","0","44","44","0","0","44","44","44","0","44","0","Wed Oct 11 01:28:00 2023","The main experiment item","True","Sternbergtask.osexp","C:\Users\kikip\OneDrive\Dokumente\QUANT HW","False","mono","False","18","no","white","no","yes","768","legacy","32","11","C:/Users/kikip/OneDrive/Dokumente/QUANT HW/HBsubject-1.csv","legacy","9 6 2 4 1","Melodramatic Milgram","4.0.5","4","y","0","left","right","right","left","NA","635.0","11869","7446","635","NA","2","legacy","5","1024","2","48000","-16","experiment","1","odd","4","287604","278155","285400","2077","94490","285402","284355","2083","87043","289605","286403","290241","13953","289605","NA","Sternberg task ","43","32521.0","45","1024"
"95","95","722","722","#3d3846","experiment","legacy","legacy","legacy","1","undefined","1","left","45","45","45","0","0","45","45","0","0","45","45","45","0","45","0","Wed Oct 11 01:28:00 2023","The main experiment item","True","Sternbergtask.osexp","C:\Users\kikip\OneDrive\Dokumente\QUANT HW","False","mono","False","18","no","white","no","yes","768","legacy","33","11","C:/Users/kikip/OneDrive/Dokumente/QUANT HW/HBsubject-1.csv","legacy","8 5 1 3 9","Melodramatic Milgram","4.0.5","4","y","0","left","right","right","left","NA","730.0","11869","7446","730","NA","2","legacy","5","1024","2","48000","-16","experiment","1","odd","3","293489","290245","291286","2077","94490","291287","284355","2083","87043","295490","292288","296221","13953","295490","NA","Sternberg task ","44","33251.0","46","1024"
"95","95","717","717","#3d3846","experiment","legacy","legacy","legacy","1","undefined","1","left","46","46","46","0","0","46","46","0","0","46","46","46","0","46","0","Wed Oct 11 01:28:00 2023","The main experiment item","True","Sternbergtask.osexp","C:\Users\kikip\OneDrive\Dokumente\QUANT HW","False","mono","False","18","no","white","no","yes","768","legacy","34","11","C:/Users/kikip/OneDrive/Dokumente/QUANT HW/HBsubject-1.csv","legacy","9 1 6 7 8","Melodramatic Milgram","4.0.5","1","y","0","left","right","right","left","NA","458.0","11869","7446","458","NA","2","legacy","5","1024","2","48000","-16","experiment","1","odd","9","299477","296223","297274","2077","94490","297275","284355","2083","87043","301478","298276","301937","13953","301478","NA","Sternberg task ","45","33709.0","47","1024"
"95","95","714","714","#3d3846","experiment","legacy","legacy","legacy","1","undefined","1","right","47","47","47","0","0","47","47","0","0","47","47","47","0","47","0","Wed Oct 11 01:28:00 2023","The main experiment item","True","Sternbergtask.osexp","C:\Users\kikip\OneDrive\Dokumente\QUANT HW","False","mono","False","18","no","white","no","yes","768","legacy","35","11","C:/Users/kikip/OneDrive/Dokumente/QUANT HW/HBsubject-1.csv","legacy","8 9","Melodramatic Milgram","4.0.5","0","n","0","right","right","right","right","NA","572.0","11869","7446","572","NA","2","legacy","2","1024","2","48000","-16","experiment","1","odd","5","305184","301940","302980","2077","94490","302982","284355","2083","87043","307185","303983","307758","13953","307185","NA","Sternberg task ","46","34281.0","48","1024"
"95","95","713","713","#3d3846","experiment","legacy","legacy","legacy","1","undefined","1","left","48","48","48","0","0","48","48","0","0","48","48","48","0","48","0","Wed Oct 11 01:28:00 2023","The main experiment item","True","Sternbergtask.osexp","C:\Users\kikip\OneDrive\Dokumente\QUANT HW","False","mono","False","18","no","white","no","yes","768","legacy","36","11","C:/Users/kikip/OneDrive/Dokumente/QUANT HW/HBsubject-1.csv","legacy","8 1 6","Melodramatic Milgram","4.0.5","3","y","0","left","right","right","left","NA","704.0","11869","7446","704","NA","2","legacy","3","1024","2","48000","-16","experiment","1","odd","6","311010","307761","308806","2077","94490","308808","284355","2083","87043","313011","309809","313716","13953","313011","NA","Sternberg task ","47","34985.0","49","1024"
"96","96","711","711","#3d3846","experiment","legacy","legacy","legacy","1","undefined","1","left","49","49","49","0","0","49","49","0","0","49","49","49","0","49","0","Wed Oct 11 01:28:00 2023","The main experiment item","True","Sternbergtask.osexp","C:\Users\kikip\OneDrive\Dokumente\QUANT HW","False","mono","False","18","no","white","no","yes","768","legacy","37","11","C:/Users/kikip/OneDrive/Dokumente/QUANT HW/HBsubject-1.csv","legacy","4 9 7 8 5 3","Melodramatic Milgram","4.0.5","4","y","0","left","right","right","left","NA","565.0","11869","7446","565","NA","2","legacy","6","1024","2","48000","-16","experiment","1","odd","8","316971","313723","314767","2077","94490","314768","284355","2083","87043","318972","315769","319538","13953","318972","NA","Sternberg task ","48","35550.0","50","1024"
"96","96","708","708","#3d3846","experiment","legacy","legacy","legacy","1","undefined","1","left","50","50","50","0","0","50","50","0","0","50","50","50","0","50","0","Wed Oct 11 01:28:00 2023","The main experiment item","True","Sternbergtask.osexp","C:\Users\kikip\OneDrive\Dokumente\QUANT HW","False","mono","False","18","no","white","no","yes","768","legacy","38","11","C:/Users/kikip/OneDrive/Dokumente/QUANT HW/HBsubject-1.csv","legacy","8 9 5 7 1 6","Melodramatic Milgram","4.0.5","4","y","0","left","right","right","left","NA","571.0","11869","7446","571","NA","2","legacy","6","1024","2","48000","-16","experiment","1","odd","7","322795","319541","320591","2077","94490","320593","284355","2083","87043","324796","321594","325369","13953","324796","NA","Sternberg task ","49","36121.0","51","1024"
"96","96","705","705","#3d3846","experiment","legacy","legacy","legacy","1","undefined","1","right","51","51","51","0","0","51","51","0","0","51","51","51","0","51","0","Wed Oct 11 01:28:00 2023","The main experiment item","True","Sternbergtask.osexp","C:\Users\kikip\OneDrive\Dokumente\QUANT HW","False","mono","False","18","no","white","no","yes","768","legacy","39","11","C:/Users/kikip/OneDrive/Dokumente/QUANT HW/HBsubject-1.csv","legacy","2 7 5","Melodramatic Milgram","4.0.5","0","n","0","right","right","right","right","NA","566.0","11869","7446","566","NA","2","legacy","3","1024","2","48000","-16","experiment","1","odd","8","328626","325373","326422","2077","94490","326423","284355","2083","87043","330627","327424","331195","13953","330627","NA","Sternberg task ","50","36687.0","52","1024"
"96","96","705","705","#3d3846","experiment","legacy","legacy","legacy","1","undefined","1","right","52","52","52","0","0","52","52","0","0","52","52","52","0","52","0","Wed Oct 11 01:28:00 2023","The main experiment item","True","Sternbergtask.osexp","C:\Users\kikip\OneDrive\Dokumente\QUANT HW","False","mono","False","18","no","white","no","yes","768","legacy","40","11","C:/Users/kikip/OneDrive/Dokumente/QUANT HW/HBsubject-1.csv","legacy","8 5 4 2 9 6","Melodramatic Milgram","4.0.5","0","n","0","right","right","right","right","NA","705.0","11869","7446","705","NA","2","legacy","6","1024","2","48000","-16","experiment","1","odd","3","334444","331200","332241","2077","94490","332242","284355","2083","87043","336445","333243","337152","13953","336445","NA","Sternberg task ","51","37392.0","53","1024"
"96","96","702","702","#3d3846","experiment","legacy","legacy","legacy","1","undefined","1","left","53","53","53","0","0","53","53","0","0","53","53","53","0","53","0","Wed Oct 11 01:28:00 2023","The main experiment item","True","Sternbergtask.osexp","C:\Users\kikip\OneDrive\Dokumente\QUANT HW","False","mono","False","18","no","white","no","yes","768","legacy","41","11","C:/Users/kikip/OneDrive/Dokumente/QUANT HW/HBsubject-1.csv","legacy","3 4","Melodramatic Milgram","4.0.5","1","y","0","left","right","right","left","NA","517.0","11869","7446","517","NA","2","legacy","2","1024","2","48000","-16","experiment","1","odd","3","340463","337156","338259","2077","94490","338261","284355","2083","87043","342464","339262","342983","13953","342464","NA","Sternberg task ","52","37909.0","54","1024"
"96","96","699","699","#3d3846","experiment","legacy","legacy","legacy","1","undefined","1","right","54","54","54","0","0","54","54","0","0","54","54","54","0","54","0","Wed Oct 11 01:28:00 2023","The main experiment item","True","Sternbergtask.osexp","C:\Users\kikip\OneDrive\Dokumente\QUANT HW","False","mono","False","18","no","white","no","yes","768","legacy","42","11","C:/Users/kikip/OneDrive/Dokumente/QUANT HW/HBsubject-1.csv","legacy","7 1","Melodramatic Milgram","4.0.5","0","n","0","right","right","right","right","NA","576.0","11869","7446","576","NA","2","legacy","2","1024","2","48000","-16","experiment","1","odd","8","346236","342986","344033","2077","94490","344034","284355","2083","87043","348237","345035","348814","13953","348237","NA","Sternberg task ","53","38485.0","55","1024"
"96","96","697","697","#3d3846","experiment","legacy","legacy","legacy","1","undefined","1","left","55","55","55","0","0","55","55","0","0","55","55","55","0","55","0","Wed Oct 11 01:28:00 2023","The main experiment item","True","Sternbergtask.osexp","C:\Users\kikip\OneDrive\Dokumente\QUANT HW","False","mono","False","18","no","white","no","yes","768","legacy","43","11","C:/Users/kikip/OneDrive/Dokumente/QUANT HW/HBsubject-1.csv","legacy","7 2 3","Melodramatic Milgram","4.0.5","3","y","0","left","right","right","left","NA","548.0","11869","7446","548","NA","2","legacy","3","1024","2","48000","-16","experiment","1","odd","3","352067","348817","349864","2077","94490","349865","284355","2083","87043","354068","350866","354617","13953","354068","NA","Sternberg task ","54","39033.0","56","1024"
"96","96","695","695","#3d3846","experiment","legacy","legacy","legacy","1","undefined","1","right","56","56","56","0","0","56","56","0","0","56","56","56","0","56","0","Wed Oct 11 01:28:00 2023","The main experiment item","True","Sternbergtask.osexp","C:\Users\kikip\OneDrive\Dokumente\QUANT HW","False","mono","False","18","no","white","no","yes","768","legacy","44","11","C:/Users/kikip/OneDrive/Dokumente/QUANT HW/HBsubject-1.csv","legacy","4 8 1 2","Melodramatic Milgram","4.0.5","0","n","0","right","right","right","right","NA","620.0","11869","7446","620","NA","2","legacy","4","1024","2","48000","-16","experiment","1","odd","7","357870","354621","355666","2077","94490","355668","284355","2083","87043","359871","356669","360492","13953","359871","NA","Sternberg task ","55","39653.0","57","1024"
"96","96","694","694","#3d3846","experiment","legacy","legacy","legacy","1","undefined","1","left","57","57","57","0","0","57","57","0","0","57","57","57","0","57","0","Wed Oct 11 01:28:00 2023","The main experiment item","True","Sternbergtask.osexp","C:\Users\kikip\OneDrive\Dokumente\QUANT HW","False","mono","False","18","no","white","no","yes","768","legacy","45","11","C:/Users/kikip/OneDrive/Dokumente/QUANT HW/HBsubject-1.csv","legacy","9 1 7 2","Melodramatic Milgram","4.0.5","2","y","0","left","right","right","left","NA","618.0","11869","7446","618","NA","2","legacy","4","1024","2","48000","-16","experiment","1","odd","1","363759","360507","361555","2077","94490","361557","284355","2083","87043","365760","362558","366378","13953","365760","NA","Sternberg task ","56","40271.0","58","1024"
"96","96","694","694","#3d3846","experiment","legacy","legacy","legacy","1","undefined","1","left","58","58","58","0","0","58","58","0","0","58","58","58","0","58","0","Wed Oct 11 01:28:00 2023","The main experiment item","True","Sternbergtask.osexp","C:\Users\kikip\OneDrive\Dokumente\QUANT HW","False","mono","False","18","no","white","no","yes","768","legacy","46","11","C:/Users/kikip/OneDrive/Dokumente/QUANT HW/HBsubject-1.csv","legacy","4","Melodramatic Milgram","4.0.5","1","y","0","left","right","right","left","NA","686.0","11869","7446","686","NA","2","legacy","1","1024","2","48000","-16","experiment","1","odd","4","369629","366381","367425","2077","94490","367427","284355","2083","87043","371630","368428","372317","13953","371630","NA","Sternberg task ","57","40957.0","59","1024"
"96","96","694","694","#3d3846","experiment","legacy","legacy","legacy","1","undefined","1","left","59","59","59","0","0","59","59","0","0","59","59","59","0","59","0","Wed Oct 11 01:28:00 2023","The main experiment item","True","Sternbergtask.osexp","C:\Users\kikip\OneDrive\Dokumente\QUANT HW","False","mono","False","18","no","white","no","yes","768","legacy","47","11","C:/Users/kikip/OneDrive/Dokumente/QUANT HW/HBsubject-1.csv","legacy","9 8 4","Melodramatic Milgram","4.0.5","1","y","0","left","right","right","left","NA","692.0","11869","7446","692","NA","2","legacy","3","1024","2","48000","-16","experiment","1","odd","9","375567","372323","373364","2077","94490","373365","284355","2083","87043","377568","374366","378261","13953","377568","NA","Sternberg task ","58","41649.0","60","1024"
"95","95","692","692","#3d3846","experiment","legacy","legacy","legacy","0","undefined","0","right","60","60","60","0","0","60","60","0","0","60","60","60","0","60","0","Wed Oct 11 01:28:00 2023","The main experiment item","True","Sternbergtask.osexp","C:\Users\kikip\OneDrive\Dokumente\QUANT HW","False","mono","False","18","no","white","no","yes","768","legacy","48","11","C:/Users/kikip/OneDrive/Dokumente/QUANT HW/HBsubject-1.csv","legacy","1 7 8 3 9","Melodramatic Milgram","4.0.5","0","n","0","left","right","right","left","NA","569.0","11869","7446","569","NA","2","legacy","5","1024","2","48000","-16","experiment","1","odd","2","381519","378264","379315","2077","94490","379317","284355","2083","87043","383520","380318","384091","13953","383520","NA","Sternberg task ","58","42218.0","61","1024"
"95","95","693","693","#3d3846","experiment","legacy","legacy","legacy","1","undefined","1","left","61","61","61","0","0","61","61","0","0","61","61","61","0","61","0","Wed Oct 11 01:28:00 2023","The main experiment item","True","Sternbergtask.osexp","C:\Users\kikip\OneDrive\Dokumente\QUANT HW","False","mono","False","18","no","white","no","yes","768","legacy","49","11","C:/Users/kikip/OneDrive/Dokumente/QUANT HW/HBsubject-1.csv","legacy","6 2","Melodramatic Milgram","4.0.5","1","y","0","left","right","right","left","NA","771.0","11869","7446","771","NA","2","legacy","2","1024","2","48000","-16","experiment","1","odd","6","387363","378264","385160","2077","94490","385161","384093","2083","87043","389364","386162","390136","13953","389364","NA","Sternberg task ","59","42989.0","62","1024"
"95","95","693","693","#3d3846","experiment","legacy","legacy","legacy","1","undefined","1","left","62","62","62","0","0","62","62","0","0","62","62","62","0","62","0","Wed Oct 11 01:28:00 2023","The main experiment item","True","Sternbergtask.osexp","C:\Users\kikip\OneDrive\Dokumente\QUANT HW","False","mono","False","18","no","white","no","yes","768","legacy","50","11","C:/Users/kikip/OneDrive/Dokumente/QUANT HW/HBsubject-1.csv","legacy","9 5 3 8 4","Melodramatic Milgram","4.0.5","1","y","0","left","right","right","left","NA","691.0","11869","7446","691","NA","2","legacy","5","1024","2","48000","-16","experiment","1","odd","9","393384","390139","391181","2077","94490","391182","384093","2083","87043","395385","392183","396078","13953","395385","NA","Sternberg task ","60","43680.0","63","1024"
"95","95","693","693","#3d3846","experiment","legacy","legacy","legacy","1","undefined","1","right","63","63","63","0","0","63","63","0","0","63","63","63","0","63","0","Wed Oct 11 01:28:00 2023","The main experiment item","True","Sternbergtask.osexp","C:\Users\kikip\OneDrive\Dokumente\QUANT HW","False","mono","False","18","no","white","no","yes","768","legacy","51","11","C:/Users/kikip/OneDrive/Dokumente/QUANT HW/HBsubject-1.csv","legacy","6 9 5","Melodramatic Milgram","4.0.5","0","n","0","right","right","right","right","NA","698.0","11869","7446","698","NA","2","legacy","3","1024","2","48000","-16","experiment","1","odd","8","399325","396081","397121","2077","94490","397123","384093","2083","87043","401326","398124","402026","13953","401326","NA","Sternberg task ","61","44378.0","64","1024"
"95","95","692","692","#3d3846","experiment","legacy","legacy","legacy","1","undefined","1","right","64","64","64","0","0","64","64","0","0","64","64","64","0","64","0","Wed Oct 11 01:28:00 2023","The main experiment item","True","Sternbergtask.osexp","C:\Users\kikip\OneDrive\Dokumente\QUANT HW","False","mono","False","18","no","white","no","yes","768","legacy","52","11","C:/Users/kikip/OneDrive/Dokumente/QUANT HW/HBsubject-1.csv","legacy","7 3 2 8","Melodramatic Milgram","4.0.5","0","n","0","right","right","right","right","NA","604.0","11869","7446","604","NA","2","legacy","4","1024","2","48000","-16","experiment","1","odd","4","405280","402029","403076","2077","94490","403078","384093","2083","87043","407281","404079","407886","13953","407281","NA","Sternberg task ","62","44982.0","65","1024"
"95","95","689","689","#3d3846","experiment","legacy","legacy","legacy","1","undefined","1","left","65","65","65","0","0","65","65","0","0","65","65","65","0","65","0","Wed Oct 11 01:28:00 2023","The main experiment item","True","Sternbergtask.osexp","C:\Users\kikip\OneDrive\Dokumente\QUANT HW","False","mono","False","18","no","white","no","yes","768","legacy","53","11","C:/Users/kikip/OneDrive/Dokumente/QUANT HW/HBsubject-1.csv","legacy","5 2 6","Melodramatic Milgram","4.0.5","2","y","0","left","right","right","left","NA","504.0","11869","7446","504","NA","2","legacy","3","1024","2","48000","-16","experiment","1","odd","2","411138","407892","408935","2077","94490","408936","384093","2083","87043","413139","409937","413644","13953","413139","NA","Sternberg task ","63","45486.0","66","1024"
"95","95","688","688","#3d3846","experiment","legacy","legacy","legacy","1","undefined","1","right","66","66","66","0","0","66","66","0","0","66","66","66","0","66","0","Wed Oct 11 01:28:00 2023","The main experiment item","True","Sternbergtask.osexp","C:\Users\kikip\OneDrive\Dokumente\QUANT HW","False","mono","False","18","no","white","no","yes","768","legacy","54","11","C:/Users/kikip/OneDrive/Dokumente/QUANT HW/HBsubject-1.csv","legacy","9 7 4 5 8","Melodramatic Milgram","4.0.5","0","n","0","right","right","right","right","NA","626.0","11869","7446","626","NA","2","legacy","5","1024","2","48000","-16","experiment","1","odd","6","416896","413650","414693","2077","94490","414694","384093","2083","87043","418897","415695","419525","13953","418897","NA","Sternberg task ","64","46112.0","67","1024"
"95","95","686","686","#3d3846","experiment","legacy","legacy","legacy","1","undefined","1","right","67","67","67","0","0","67","67","0","0","67","67","67","0","67","0","Wed Oct 11 01:28:00 2023","The main experiment item","True","Sternbergtask.osexp","C:\Users\kikip\OneDrive\Dokumente\QUANT HW","False","mono","False","18","no","white","no","yes","768","legacy","55","11","C:/Users/kikip/OneDrive/Dokumente/QUANT HW/HBsubject-1.csv","legacy","5 3 2 6 9 8","Melodramatic Milgram","4.0.5","0","n","0","right","right","right","right","NA","594.0","11869","7446","594","NA","2","legacy","6","1024","2","48000","-16","experiment","1","odd","4","422781","419528","420578","2077","94490","420579","384093","2083","87043","424782","421580","425378","13953","424782","NA","Sternberg task ","65","46706.0","68","1024"
"95","95","689","689","#3d3846","experiment","legacy","legacy","legacy","1","undefined","1","right","68","68","68","0","0","68","68","0","0","68","68","68","0","68","0","Wed Oct 11 01:28:00 2023","The main experiment item","True","Sternbergtask.osexp","C:\Users\kikip\OneDrive\Dokumente\QUANT HW","False","mono","False","18","no","white","no","yes","768","legacy","56","11","C:/Users/kikip/OneDrive/Dokumente/QUANT HW/HBsubject-1.csv","legacy","9","Melodramatic Milgram","4.0.5","0","n","0","right","right","right","right","NA","844.0","11869","7446","844","NA","2","legacy","1","1024","2","48000","-16","experiment","1","odd","6","428640","425380","426437","2077","94490","426438","384093","2083","87043","430641","427439","431486","13953","430641","NA","Sternberg task ","66","47550.0","69","1024"
"95","95","686","686","#3d3846","experiment","legacy","legacy","legacy","1","undefined","1","right","69","69","69","0","0","69","69","0","0","69","69","69","0","69","0","Wed Oct 11 01:28:00 2023","The main experiment item","True","Sternbergtask.osexp","C:\Users\kikip\OneDrive\Dokumente\QUANT HW","False","mono","False","18","no","white","no","yes","768","legacy","57","11","C:/Users/kikip/OneDrive/Dokumente/QUANT HW/HBsubject-1.csv","legacy","7 9 1 6","Melodramatic Milgram","4.0.5","0","n","0","right","right","right","right","NA","534.0","11869","7446","534","NA","2","legacy","4","1024","2","48000","-16","experiment","1","odd","4","434738","431489","432535","2077","94490","432536","384093","2083","87043","436739","433537","437275","13953","436739","NA","Sternberg task ","67","48084.0","70","1024"
"95","95","686","686","#3d3846","experiment","legacy","legacy","legacy","1","undefined","1","right","70","70","70","0","0","70","70","0","0","70","70","70","0","70","0","Wed Oct 11 01:28:00 2023","The main experiment item","True","Sternbergtask.osexp","C:\Users\kikip\OneDrive\Dokumente\QUANT HW","False","mono","False","18","no","white","no","yes","768","legacy","58","11","C:/Users/kikip/OneDrive/Dokumente/QUANT HW/HBsubject-1.csv","legacy","6 2 9 3 8 4","Melodramatic Milgram","4.0.5","0","n","0","right","right","right","right","NA","622.0","11869","7446","622","NA","2","legacy","6","1024","2","48000","-16","experiment","1","odd","1","440539","437278","438336","2077","94490","438337","384093","2083","87043","442540","439338","443163","13953","442540","NA","Sternberg task ","68","48706.0","71","1024"
"95","95","684","684","#3d3846","experiment","legacy","legacy","legacy","1","undefined","1","right","71","71","71","0","0","71","71","0","0","71","71","71","0","71","0","Wed Oct 11 01:28:00 2023","The main experiment item","True","Sternbergtask.osexp","C:\Users\kikip\OneDrive\Dokumente\QUANT HW","False","mono","False","18","no","white","no","yes","768","legacy","59","11","C:/Users/kikip/OneDrive/Dokumente/QUANT HW/HBsubject-1.csv","legacy","6 9 4 5 2","Melodramatic Milgram","4.0.5","0","n","0","right","right","right","right","NA","556.0","11869","7446","556","NA","2","legacy","5","1024","2","48000","-16","experiment","1","odd","1","446425","443169","444221","2077","94490","444222","384093","2083","87043","448426","445224","448984","13953","448426","NA","Sternberg task ","69","49262.0","72","1024"
"95","95","681","681","#3d3846","experiment","legacy","legacy","legacy","1","undefined","1","left","72","72","72","0","0","72","72","0","0","72","72","72","0","72","0","Wed Oct 11 01:28:00 2023","The main experiment item","True","Sternbergtask.osexp","C:\Users\kikip\OneDrive\Dokumente\QUANT HW","False","mono","False","18","no","white","no","yes","768","legacy","60","11","C:/Users/kikip/OneDrive/Dokumente/QUANT HW/HBsubject-1.csv","legacy","9 3 1 2 5","Melodramatic Milgram","4.0.5","4","y","0","left","right","right","left","NA","521.0","11869","7446","521","NA","2","legacy","5","1024","2","48000","-16","experiment","1","odd","2","452247","448991","450043","2077","94490","450044","384093","2083","87043","454248","451046","454771","13953","454248","NA","Sternberg task ","70","49783.0","73","1024"
"95","95","680","680","#3d3846","experiment","legacy","legacy","legacy","1","undefined","1","right","73","73","73","0","0","73","73","0","0","73","73","73","0","73","0","Wed Oct 11 01:28:00 2023","The main experiment item","True","Sternbergtask.osexp","C:\Users\kikip\OneDrive\Dokumente\QUANT HW","False","mono","False","18","no","white","no","yes","768","legacy","61","11","C:/Users/kikip/OneDrive/Dokumente/QUANT HW/HBsubject-1.csv","legacy","5 9 2 3","Melodramatic Milgram","4.0.5","0","n","0","right","right","right","right","NA","603.0","11869","7446","603","NA","2","legacy","4","1024","2","48000","-16","experiment","1","odd","8","458032","454775","455829","2077","94490","455830","384093","2083","87043","460033","456831","460638","13953","460033","NA","Sternberg task ","71","50386.0","74","1024"
"96","96","679","679","#3d3846","experiment","legacy","legacy","legacy","1","undefined","1","right","74","74","74","0","0","74","74","0","0","74","74","74","0","74","0","Wed Oct 11 01:28:00 2023","The main experiment item","True","Sternbergtask.osexp","C:\Users\kikip\OneDrive\Dokumente\QUANT HW","False","mono","False","18","no","white","no","yes","768","legacy","62","11","C:/Users/kikip/OneDrive/Dokumente/QUANT HW/HBsubject-1.csv","legacy","8 4 3 9","Melodramatic Milgram","4.0.5","0","n","0","right","right","right","right","NA","539.0","11869","7446","539","NA","2","legacy","4","1024","2","48000","-16","experiment","1","odd","5","463890","460641","461687","2077","94490","461688","384093","2083","87043","465891","462689","466431","13953","465891","NA","Sternberg task ","72","50925.0","75","1024"
"96","96","677","677","#3d3846","experiment","legacy","legacy","legacy","1","undefined","1","left","75","75","75","0","0","75","75","0","0","75","75","75","0","75","0","Wed Oct 11 01:28:00 2023","The main experiment item","True","Sternbergtask.osexp","C:\Users\kikip\OneDrive\Dokumente\QUANT HW","False","mono","False","18","no","white","no","yes","768","legacy","63","11","C:/Users/kikip/OneDrive/Dokumente/QUANT HW/HBsubject-1.csv","legacy","2 4 6 9","Melodramatic Milgram","4.0.5","3","y","0","left","right","right","left","NA","553.0","11869","7446","553","NA","2","legacy","4","1024","2","48000","-16","experiment","1","odd","6","469698","466434","467495","2077","94490","467496","384093","2083","87043","471699","468497","472253","13953","471699","NA","Sternberg task ","73","51478.0","76","1024"
"96","96","676","676","#3d3846","experiment","legacy","legacy","legacy","1","undefined","1","right","76","76","76","0","0","76","76","0","0","76","76","76","0","76","0","Wed Oct 11 01:28:00 2023","The main experiment item","True","Sternbergtask.osexp","C:\Users\kikip\OneDrive\Dokumente\QUANT HW","False","mono","False","18","no","white","no","yes","768","legacy","64","11","C:/Users/kikip/OneDrive/Dokumente/QUANT HW/HBsubject-1.csv","legacy","1 4 9 2 5","Melodramatic Milgram","4.0.5","0","n","0","right","right","right","right","NA","594.0","11869","7446","594","NA","2","legacy","5","1024","2","48000","-16","experiment","1","odd","7","475517","472258","473314","2077","94490","473315","384093","2083","87043","477518","474316","478113","13953","477518","NA","Sternberg task ","74","52072.0","77","1024"
"96","96","674","674","#3d3846","experiment","legacy","legacy","legacy","1","undefined","1","left","77","77","77","0","0","77","77","0","0","77","77","77","0","77","0","Wed Oct 11 01:28:00 2023","The main experiment item","True","Sternbergtask.osexp","C:\Users\kikip\OneDrive\Dokumente\QUANT HW","False","mono","False","18","no","white","no","yes","768","legacy","65","11","C:/Users/kikip/OneDrive/Dokumente/QUANT HW/HBsubject-1.csv","legacy","3 5 9 6 2 4","Melodramatic Milgram","4.0.5","1","y","0","left","right","right","left","NA","574.0","11869","7446","574","NA","2","legacy","6","1024","2","48000","-16","experiment","1","odd","3","481364","478116","479160","2077","94490","479162","384093","2083","87043","483365","480163","483940","13953","483365","NA","Sternberg task ","75","52646.0","78","1024"
"96","96","673","673","#3d3846","experiment","legacy","legacy","legacy","1","undefined","1","right","78","78","78","0","0","78","78","0","0","78","78","78","0","78","0","Wed Oct 11 01:28:00 2023","The main experiment item","True","Sternbergtask.osexp","C:\Users\kikip\OneDrive\Dokumente\QUANT HW","False","mono","False","18","no","white","no","yes","768","legacy","66","11","C:/Users/kikip/OneDrive/Dokumente/QUANT HW/HBsubject-1.csv","legacy","9 8 2 7 4","Melodramatic Milgram","4.0.5","0","n","0","right","right","right","right","NA","566.0","11869","7446","566","NA","2","legacy","5","1024","2","48000","-16","experiment","1","odd","5","487199","483946","484996","2077","94490","484997","384093","2083","87043","489200","485998","489767","13953","489200","NA","Sternberg task ","76","53212.0","79","1024"
"96","96","671","671","#3d3846","experiment","legacy","legacy","legacy","1","undefined","1","left","79","79","79","0","0","79","79","0","0","79","79","79","0","79","0","Wed Oct 11 01:28:00 2023","The main experiment item","True","Sternbergtask.osexp","C:\Users\kikip\OneDrive\Dokumente\QUANT HW","False","mono","False","18","no","white","no","yes","768","legacy","67","11","C:/Users/kikip/OneDrive/Dokumente/QUANT HW/HBsubject-1.csv","legacy","7","Melodramatic Milgram","4.0.5","1","y","0","left","right","right","left","NA","505.0","11869","7446","505","NA","2","legacy","1","1024","2","48000","-16","experiment","1","odd","7","493036","489769","490833","2077","94490","490834","384093","2083","87043","495037","491835","495543","13953","495037","NA","Sternberg task ","77","53717.0","80","1024"
"96","96","670","670","#3d3846","experiment","legacy","legacy","legacy","1","undefined","1","right","80","80","80","0","0","80","80","0","0","80","80","80","0","80","0","Wed Oct 11 01:28:00 2023","The main experiment item","True","Sternbergtask.osexp","C:\Users\kikip\OneDrive\Dokumente\QUANT HW","False","mono","False","18","no","white","no","yes","768","legacy","68","11","C:/Users/kikip/OneDrive/Dokumente/QUANT HW/HBsubject-1.csv","legacy","1 4 3 6 5","Melodramatic Milgram","4.0.5","0","n","0","right","right","right","right","NA","610.0","11869","7446","610","NA","2","legacy","5","1024","2","48000","-16","experiment","1","odd","8","498805","495549","496602","2077","94490","496603","384093","2083","87043","500806","497604","501417","13953","500806","NA","Sternberg task ","78","54327.0","81","1024"
"96","96","669","669","#3d3846","experiment","legacy","legacy","legacy","1","undefined","1","right","81","81","81","0","0","81","81","0","0","81","81","81","0","81","0","Wed Oct 11 01:28:00 2023","The main experiment item","True","Sternbergtask.osexp","C:\Users\kikip\OneDrive\Dokumente\QUANT HW","False","mono","False","18","no","white","no","yes","768","legacy","69","11","C:/Users/kikip/OneDrive/Dokumente/QUANT HW/HBsubject-1.csv","legacy","8 4 3 5","Melodramatic Milgram","4.0.5","0","n","0","right","right","right","right","NA","599.0","11869","7446","599","NA","2","legacy","4","1024","2","48000","-16","experiment","1","odd","6","504681","501422","502478","2077","94490","502479","384093","2083","87043","506682","503480","507282","13953","506682","NA","Sternberg task ","79","54926.0","82","1024"
"96","96","669","669","#3d3846","experiment","legacy","legacy","legacy","1","undefined","1","left","82","82","82","0","0","82","82","0","0","82","82","82","0","82","0","Wed Oct 11 01:28:00 2023","The main experiment item","True","Sternbergtask.osexp","C:\Users\kikip\OneDrive\Dokumente\QUANT HW","False","mono","False","18","no","white","no","yes","768","legacy","70","11","C:/Users/kikip/OneDrive/Dokumente/QUANT HW/HBsubject-1.csv","legacy","3 5 4 7","Melodramatic Milgram","4.0.5","1","y","0","left","right","right","left","NA","647.0","11869","7446","647","NA","2","legacy","4","1024","2","48000","-16","experiment","1","odd","3","510555","507288","508351","2077","94490","508353","384093","2083","87043","512556","509354","513205","13953","512556","NA","Sternberg task ","80","55573.0","83","1024"
"96","96","669","669","#3d3846","experiment","legacy","legacy","legacy","1","undefined","1","right","83","83","83","0","0","83","83","0","0","83","83","83","0","83","0","Wed Oct 11 01:28:00 2023","The main experiment item","True","Sternbergtask.osexp","C:\Users\kikip\OneDrive\Dokumente\QUANT HW","False","mono","False","18","no","white","no","yes","768","legacy","71","11","C:/Users/kikip/OneDrive/Dokumente/QUANT HW/HBsubject-1.csv","legacy","5","Melodramatic Milgram","4.0.5","0","n","0","right","right","right","right","NA","625.0","11869","7446","625","NA","2","legacy","1","1024","2","48000","-16","experiment","1","odd","8","516483","513208","514279","2077","94490","514281","384093","2083","87043","518484","515282","519110","13953","518484","NA","Sternberg task ","81","56198.0","84","1024"
"95","95","668","668","#3d3846","experiment","legacy","legacy","legacy","0","undefined","0","left","84","84","84","0","0","84","84","0","0","84","84","84","0","84","0","Wed Oct 11 01:28:00 2023","The main experiment item","True","Sternbergtask.osexp","C:\Users\kikip\OneDrive\Dokumente\QUANT HW","False","mono","False","18","no","white","no","yes","768","legacy","72","11","C:/Users/kikip/OneDrive/Dokumente/QUANT HW/HBsubject-1.csv","legacy","8 5 3 7 4 6","Melodramatic Milgram","4.0.5","6","y","0","right","right","right","right","NA","638.0","11869","7446","638","NA","2","legacy","6","1024","2","48000","-16","experiment","1","odd","6","522377","519113","520174","2077","94490","520175","384093","2083","87043","524378","521176","525018","13953","524378","NA","Sternberg task ","81","56836.0","85","1024"
"95","95","668","668","#3d3846","experiment","legacy","legacy","legacy","1","undefined","1","left","85","85","85","0","0","85","85","0","0","85","85","85","0","85","0","Wed Oct 11 01:28:00 2023","The main experiment item","True","Sternbergtask.osexp","C:\Users\kikip\OneDrive\Dokumente\QUANT HW","False","mono","False","18","no","white","no","yes","768","legacy","73","11","C:/Users/kikip/OneDrive/Dokumente/QUANT HW/HBsubject-1.csv","legacy","6 5","Melodramatic Milgram","4.0.5","2","y","0","left","right","right","left","NA","681.0","11869","7446","681","NA","2","legacy","2","1024","2","48000","-16","experiment","1","odd","5","528287","519113","526084","2077","94490","526085","525024","2083","87043","530288","527086","530971","13953","530288","NA","Sternberg task ","82","57517.0","86","1024"
"95","95","667","667","#3d3846","experiment","legacy","legacy","legacy","1","undefined","1","left","86","86","86","0","0","86","86","0","0","86","86","86","0","86","0","Wed Oct 11 01:28:00 2023","The main experiment item","True","Sternbergtask.osexp","C:\Users\kikip\OneDrive\Dokumente\QUANT HW","False","mono","False","18","no","white","no","yes","768","legacy","74","11","C:/Users/kikip/OneDrive/Dokumente/QUANT HW/HBsubject-1.csv","legacy","9 5 8 1","Melodramatic Milgram","4.0.5","2","y","0","left","right","right","left","NA","589.0","11869","7446","589","NA","2","legacy","4","1024","2","48000","-16","experiment","1","odd","5","534234","530978","532031","2077","94490","532032","525024","2083","87043","536235","533033","536825","13953","536235","NA","Sternberg task ","83","58106.0","87","1024"
"95","95","673","673","#3d3846","experiment","legacy","legacy","legacy","1","undefined","1","left","87","87","87","0","0","87","87","0","0","87","87","87","0","87","0","Wed Oct 11 01:28:00 2023","The main experiment item","True","Sternbergtask.osexp","C:\Users\kikip\OneDrive\Dokumente\QUANT HW","False","mono","False","18","no","white","no","yes","768","legacy","75","11","C:/Users/kikip/OneDrive/Dokumente/QUANT HW/HBsubject-1.csv","legacy","2 3","Melodramatic Milgram","4.0.5","1","y","0","left","right","right","left","NA","1173.0","11869","7446","1173","NA","2","legacy","2","1024","2","48000","-16","experiment","1","odd","2","540087","536828","537883","2077","94490","537885","525024","2083","87043","542088","538886","543262","13953","542088","NA","Sternberg task ","84","59279.0","88","1024"
"95","95","672","672","#3d3846","experiment","legacy","legacy","legacy","1","undefined","1","left","88","88","88","0","0","88","88","0","0","88","88","88","0","88","0","Wed Oct 11 01:28:00 2023","The main experiment item","True","Sternbergtask.osexp","C:\Users\kikip\OneDrive\Dokumente\QUANT HW","False","mono","False","18","no","white","no","yes","768","legacy","76","11","C:/Users/kikip/OneDrive/Dokumente/QUANT HW/HBsubject-1.csv","legacy","7 8 4 6 9 5","Melodramatic Milgram","4.0.5","4","y","0","left","right","right","left","NA","585.0","11869","7446","585","NA","2","legacy","6","1024","2","48000","-16","experiment","1","odd","6","546518","543268","544314","2077","94490","544316","525024","2083","87043","548519","545317","549105","13953","548519","NA","Sternberg task ","85","59864.0","89","1024"
"95","95","674","674","#3d3846","experiment","legacy","legacy","legacy","1","undefined","1","left","89","89","89","0","0","89","89","0","0","89","89","89","0","89","0","Wed Oct 11 01:28:00 2023","The main experiment item","True","Sternbergtask.osexp","C:\Users\kikip\OneDrive\Dokumente\QUANT HW","False","mono","False","18","no","white","no","yes","768","legacy","77","11","C:/Users/kikip/OneDrive/Dokumente/QUANT HW/HBsubject-1.csv","legacy","4 6 2 5 1","Melodramatic Milgram","4.0.5","5","y","0","left","right","right","left","NA","877.0","11869","7446","877","NA","2","legacy","5","1024","2","48000","-16","experiment","1","odd","1","552356","549108","550153","2077","94490","550154","525024","2083","87043","554357","551155","555236","13953","554357","NA","Sternberg task ","86","60741.0","90","1024"
"95","95","674","674","#3d3846","experiment","legacy","legacy","legacy","1","undefined","1","right","90","90","90","0","0","90","90","0","0","90","90","90","0","90","0","Wed Oct 11 01:28:00 2023","The main experiment item","True","Sternbergtask.osexp","C:\Users\kikip\OneDrive\Dokumente\QUANT HW","False","mono","False","18","no","white","no","yes","768","legacy","78","11","C:/Users/kikip/OneDrive/Dokumente/QUANT HW/HBsubject-1.csv","legacy","6 8","Melodramatic Milgram","4.0.5","0","n","0","right","right","right","right","NA","630.0","11869","7446","630","NA","2","legacy","2","1024","2","48000","-16","experiment","1","odd","9","558500","555238","556297","2077","94490","556298","525024","2083","87043","560501","557299","561132","13953","560501","NA","Sternberg task ","87","61371.0","91","1024"
"95","95","673","673","#3d3846","experiment","legacy","legacy","legacy","1","undefined","1","left","91","91","91","0","0","91","91","0","0","91","91","91","0","91","0","Wed Oct 11 01:28:00 2023","The main experiment item","True","Sternbergtask.osexp","C:\Users\kikip\OneDrive\Dokumente\QUANT HW","False","mono","False","18","no","white","no","yes","768","legacy","79","11","C:/Users/kikip/OneDrive/Dokumente/QUANT HW/HBsubject-1.csv","legacy","8 5 4 7 3 1","Melodramatic Milgram","4.0.5","2","y","0","left","right","right","left","NA","591.0","11869","7446","591","NA","2","legacy","6","1024","2","48000","-16","experiment","1","odd","5","564411","561135","562207","2077","94490","562208","525024","2083","87043","566412","563210","567005","13953","566412","NA","Sternberg task ","88","61962.0","92","1024"
"94","94","674","674","#3d3846","experiment","legacy","legacy","legacy","0","undefined","0","right","92","92","92","0","0","92","92","0","0","92","92","92","0","92","0","Wed Oct 11 01:28:00 2023","The main experiment item","True","Sternbergtask.osexp","C:\Users\kikip\OneDrive\Dokumente\QUANT HW","False","mono","False","18","no","white","no","yes","768","legacy","80","11","C:/Users/kikip/OneDrive/Dokumente/QUANT HW/HBsubject-1.csv","legacy","6 9 7 3 8 2","Melodramatic Milgram","4.0.5","0","n","0","left","right","right","left","NA","724.0","11869","7446","724","NA","2","legacy","6","1024","2","48000","-16","experiment","1","odd","5","570264","567008","568061","2077","94490","568062","525024","2083","87043","572265","569063","572991","13953","572265","NA","Sternberg task ","88","62686.0","93","1024"
"94","94","676","676","#3d3846","experiment","legacy","legacy","legacy","1","undefined","1","right","93","93","93","0","0","93","93","0","0","93","93","93","0","93","0","Wed Oct 11 01:28:00 2023","The main experiment item","True","Sternbergtask.osexp","C:\Users\kikip\OneDrive\Dokumente\QUANT HW","False","mono","False","18","no","white","no","yes","768","legacy","81","11","C:/Users/kikip/OneDrive/Dokumente/QUANT HW/HBsubject-1.csv","legacy","7 8 6 1","Melodramatic Milgram","4.0.5","0","n","0","right","right","right","right","NA","899.0","11869","7446","899","NA","2","legacy","4","1024","2","48000","-16","experiment","1","odd","3","576259","567008","574056","2077","94490","574057","572997","2083","87043","578260","575058","579160","13953","578260","NA","Sternberg task ","89","63585.0","94","1024"
"94","94","675","675","#3d3846","experiment","legacy","legacy","legacy","1","undefined","1","left","94","94","94","0","0","94","94","0","0","94","94","94","0","94","0","Wed Oct 11 01:28:00 2023","The main experiment item","True","Sternbergtask.osexp","C:\Users\kikip\OneDrive\Dokumente\QUANT HW","False","mono","False","18","no","white","no","yes","768","legacy","82","11","C:/Users/kikip/OneDrive/Dokumente/QUANT HW/HBsubject-1.csv","legacy","3 2 1 4 7","Melodramatic Milgram","4.0.5","2","y","0","left","right","right","left","NA","614.0","11869","7446","614","NA","2","legacy","5","1024","2","48000","-16","experiment","1","odd","2","582417","579163","580213","2077","94490","580215","572997","2083","87043","584418","581216","585034","13953","584418","NA","Sternberg task ","90","64199.0","95","1024"
"94","94","674","674","#3d3846","experiment","legacy","legacy","legacy","1","undefined","1","left","95","95","95","0","0","95","95","0","0","95","95","95","0","95","0","Wed Oct 11 01:28:00 2023","The main experiment item","True","Sternbergtask.osexp","C:\Users\kikip\OneDrive\Dokumente\QUANT HW","False","mono","False","18","no","white","no","yes","768","legacy","83","11","C:/Users/kikip/OneDrive/Dokumente/QUANT HW/HBsubject-1.csv","legacy","3 9 7 6 4","Melodramatic Milgram","4.0.5","3","y","0","left","right","right","left","NA","598.0","11869","7446","598","NA","2","legacy","5","1024","2","48000","-16","experiment","1","odd","7","588294","585037","586091","2077","94490","586092","572997","2083","87043","590295","587093","590895","13953","590295","NA","Sternberg task ","91","64797.0","96","1024"
"94","94","674","674","#3d3846","experiment","legacy","legacy","legacy","1","undefined","1","right","96","96","96","0","0","96","96","0","0","96","96","96","0","96","0","Wed Oct 11 01:28:00 2023","The main experiment item","True","Sternbergtask.osexp","C:\Users\kikip\OneDrive\Dokumente\QUANT HW","False","mono","False","18","no","white","no","yes","768","legacy","84","11","C:/Users/kikip/OneDrive/Dokumente/QUANT HW/HBsubject-1.csv","legacy","2 6 4 3 9","Melodramatic Milgram","4.0.5","0","n","0","right","right","right","right","NA","613.0","11869","7446","613","NA","2","legacy","5","1024","2","48000","-16","experiment","1","odd","1","594166","590901","591963","2077","94490","591964","572997","2083","87043","596167","592965","596782","13953","596167","NA","Sternberg task ","92","65410.0","97","1024"
"94","94","674","674","#3d3846","experiment","legacy","legacy","legacy","1","undefined","1","right","97","97","97","0","0","97","97","0","0","97","97","97","0","97","0","Wed Oct 11 01:28:00 2023","The main experiment item","True","Sternbergtask.osexp","C:\Users\kikip\OneDrive\Dokumente\QUANT HW","False","mono","False","18","no","white","no","yes","768","legacy","85","11","C:/Users/kikip/OneDrive/Dokumente/QUANT HW/HBsubject-1.csv","legacy","7 6 4 8 1 2","Melodramatic Milgram","4.0.5","0","n","0","right","right","right","right","NA","687.0","11869","7446","687","NA","2","legacy","6","1024","2","48000","-16","experiment","1","odd","9","600049","596786","597846","2077","94490","597847","572997","2083","87043","602050","598848","602738","13953","602050","NA","Sternberg task ","93","66097.0","98","1024"
"94","94","674","674","#3d3846","experiment","legacy","legacy","legacy","1","undefined","1","left","98","98","98","0","0","98","98","0","0","98","98","98","0","98","0","Wed Oct 11 01:28:00 2023","The main experiment item","True","Sternbergtask.osexp","C:\Users\kikip\OneDrive\Dokumente\QUANT HW","False","mono","False","18","no","white","no","yes","768","legacy","86","11","C:/Users/kikip/OneDrive/Dokumente/QUANT HW/HBsubject-1.csv","legacy","6 9 7 4 5 1","Melodramatic Milgram","4.0.5","2","y","0","left","right","right","left","NA","659.0","11869","7446","659","NA","2","legacy","6","1024","2","48000","-16","experiment","1","odd","9","606007","602744","603804","2077","94490","603805","572997","2083","87043","608008","604806","608668","13953","608008","NA","Sternberg task ","94","66756.0","99","1024"
"95","95","671","671","#3d3846","experiment","legacy","legacy","legacy","1","undefined","1","left","99","99","99","0","0","99","99","0","0","99","99","99","0","99","0","Wed Oct 11 01:28:00 2023","The main experiment item","True","Sternbergtask.osexp","C:\Users\kikip\OneDrive\Dokumente\QUANT HW","False","mono","False","18","no","white","no","yes","768","legacy","87","11","C:/Users/kikip/OneDrive/Dokumente/QUANT HW/HBsubject-1.csv","legacy","7 1 3","Melodramatic Milgram","4.0.5","2","y","0","left","right","right","left","NA","442.0","11869","7446","442","NA","2","legacy","3","1024","2","48000","-16","experiment","1","odd","1","611932","608673","609729","2077","94490","609730","572997","2083","87043","613933","610731","614376","13953","613933","NA","Sternberg task ","95","67198.0","100","1024"
"94","94","671","671","#3d3846","experiment","legacy","legacy","legacy","0","undefined","0","right","100","100","100","0","0","100","100","0","0","100","100","100","0","100","0","Wed Oct 11 01:28:00 2023","The main experiment item","True","Sternbergtask.osexp","C:\Users\kikip\OneDrive\Dokumente\QUANT HW","False","mono","False","18","no","white","no","yes","768","legacy","88","11","C:/Users/kikip/OneDrive/Dokumente/QUANT HW/HBsubject-1.csv","legacy","4 2 6 9","Melodramatic Milgram","4.0.5","0","n","0","left","right","right","left","NA","601.0","11869","7446","601","NA","2","legacy","4","1024","2","48000","-16","experiment","1","odd","7","617627","614378","615423","2077","94490","615425","572997","2083","87043","619628","616426","620231","13953","619628","NA","Sternberg task ","95","67799.0","101","1024"
"94","94","669","669","#3d3846","experiment","legacy","legacy","legacy","1","undefined","1","left","101","101","101","0","0","101","101","0","0","101","101","101","0","101","0","Wed Oct 11 01:28:00 2023","The main experiment item","True","Sternbergtask.osexp","C:\Users\kikip\OneDrive\Dokumente\QUANT HW","False","mono","False","18","no","white","no","yes","768","legacy","89","11","C:/Users/kikip/OneDrive/Dokumente/QUANT HW/HBsubject-1.csv","legacy","2 8 5 1","Melodramatic Milgram","4.0.5","4","y","0","left","right","right","left","NA","526.0","11869","7446","526","NA","2","legacy","4","1024","2","48000","-16","experiment","1","odd","1","623475","614378","621271","2077","94490","621273","620233","2083","87043","625476","622274","626003","13953","625476","NA","Sternberg task ","96","68325.0","102","1024"
"94","94","669","669","#3d3846","experiment","legacy","legacy","legacy","1","undefined","1","right","102","102","102","0","0","102","102","0","0","102","102","102","0","102","0","Wed Oct 11 01:28:00 2023","The main experiment item","True","Sternbergtask.osexp","C:\Users\kikip\OneDrive\Dokumente\QUANT HW","False","mono","False","18","no","white","no","yes","768","legacy","90","11","C:/Users/kikip/OneDrive/Dokumente/QUANT HW/HBsubject-1.csv","legacy","6 3 1 7 9 8","Melodramatic Milgram","4.0.5","0","n","0","right","right","right","right","NA","597.0","11869","7446","597","NA","2","legacy","6","1024","2","48000","-16","experiment","1","odd","4","629270","626009","627066","2077","94490","627068","620233","2083","87043","631271","628069","631869","13953","631271","NA","Sternberg task ","97","68922.0","103","1024"
"94","94","669","669","#3d3846","experiment","legacy","legacy","legacy","1","undefined","1","right","103","103","103","0","0","103","103","0","0","103","103","103","0","103","0","Wed Oct 11 01:28:00 2023","The main experiment item","True","Sternbergtask.osexp","C:\Users\kikip\OneDrive\Dokumente\QUANT HW","False","mono","False","18","no","white","no","yes","768","legacy","91","11","C:/Users/kikip/OneDrive/Dokumente/QUANT HW/HBsubject-1.csv","legacy","3 9 1","Melodramatic Milgram","4.0.5","0","n","0","right","right","right","right","NA","684.0","11869","7446","684","NA","2","legacy","3","1024","2","48000","-16","experiment","1","odd","7","635127","631872","632923","2077","94490","632925","620233","2083","87043","637128","633926","637813","13953","637128","NA","Sternberg task ","98","69606.0","104","1024"
"94","94","667","667","#3d3846","experiment","legacy","legacy","legacy","1","undefined","1","left","104","104","104","0","0","104","104","0","0","104","104","104","0","104","0","Wed Oct 11 01:28:00 2023","The main experiment item","True","Sternbergtask.osexp","C:\Users\kikip\OneDrive\Dokumente\QUANT HW","False","mono","False","18","no","white","no","yes","768","legacy","92","11","C:/Users/kikip/OneDrive/Dokumente/QUANT HW/HBsubject-1.csv","legacy","4 6 5 8","Melodramatic Milgram","4.0.5","1","y","0","left","right","right","left","NA","531.0","11869","7446","531","NA","2","legacy","4","1024","2","48000","-16","experiment","1","odd","4","641063","637816","638860","2077","94490","638861","620233","2083","87043","643064","639862","643597","13953","643064","NA","Sternberg task ","99","70137.0","105","1024"
"94","94","667","667","#3d3846","experiment","legacy","legacy","legacy","1","undefined","1","left","105","105","105","0","0","105","105","0","0","105","105","105","0","105","0","Wed Oct 11 01:28:00 2023","The main experiment item","True","Sternbergtask.osexp","C:\Users\kikip\OneDrive\Dokumente\QUANT HW","False","mono","False","18","no","white","no","yes","768","legacy","93","11","C:/Users/kikip/OneDrive/Dokumente/QUANT HW/HBsubject-1.csv","legacy","7 6","Melodramatic Milgram","4.0.5","2","y","0","left","right","right","left","NA","586.0","11869","7446","586","NA","2","legacy","2","1024","2","48000","-16","experiment","1","odd","6","646857","643603","644654","2077","94490","644655","620233","2083","87043","648858","645656","649446","13953","648858","NA","Sternberg task ","100","70723.0","106","1024"
"94","94","667","667","#3d3846","experiment","legacy","legacy","legacy","1","undefined","1","right","106","106","106","0","0","106","106","0","0","106","106","106","0","106","0","Wed Oct 11 01:28:00 2023","The main experiment item","True","Sternbergtask.osexp","C:\Users\kikip\OneDrive\Dokumente\QUANT HW","False","mono","False","18","no","white","no","yes","768","legacy","94","11","C:/Users/kikip/OneDrive/Dokumente/QUANT HW/HBsubject-1.csv","legacy","2 8 7 9 5 3","Melodramatic Milgram","4.0.5","0","n","0","right","right","right","right","NA","665.0","11869","7446","665","NA","2","legacy","6","1024","2","48000","-16","experiment","1","odd","6","652713","649449","650509","2077","94490","650511","620233","2083","87043","654714","651512","655380","13953","654714","NA","Sternberg task ","101","71388.0","107","1024"
"94","94","666","666","#3d3846","experiment","legacy","legacy","legacy","1","undefined","1","left","107","107","107","0","0","107","107","0","0","107","107","107","0","107","0","Wed Oct 11 01:28:00 2023","The main experiment item","True","Sternbergtask.osexp","C:\Users\kikip\OneDrive\Dokumente\QUANT HW","False","mono","False","18","no","white","no","yes","768","legacy","95","11","C:/Users/kikip/OneDrive/Dokumente/QUANT HW/HBsubject-1.csv","legacy","8 3","Melodramatic Milgram","4.0.5","2","y","0","left","right","right","left","NA","609.0","11869","7446","609","NA","2","legacy","2","1024","2","48000","-16","experiment","1","odd","3","658641","655383","656438","2077","94490","656439","620233","2083","87043","660642","657440","661253","13953","660642","NA","Sternberg task ","102","71997.0","108","1024"
"94","94","666","666","#3d3846","experiment","legacy","legacy","legacy","1","undefined","1","right","108","108","108","0","0","108","108","0","0","108","108","108","0","108","0","Wed Oct 11 01:28:00 2023","The main experiment item","True","Sternbergtask.osexp","C:\Users\kikip\OneDrive\Dokumente\QUANT HW","False","mono","False","18","no","white","no","yes","768","legacy","96","11","C:/Users/kikip/OneDrive/Dokumente/QUANT HW/HBsubject-1.csv","legacy","7 1 8 4 9 3","Melodramatic Milgram","4.0.5","0","n","0","right","right","right","right","NA","603.0","11869","7446","603","NA","2","legacy","6","1024","2","48000","-16","experiment","1","odd","6","664519","661259","662316","2077","94490","662317","620233","2083","87043","666520","663318","667124","13953","666520","NA","Sternberg task ","103","72600.0","109","1024"
"94","94","665","665","#3d3846","experiment","legacy","legacy","legacy","1","undefined","1","left","109","109","109","0","0","109","109","0","0","109","109","109","0","109","0","Wed Oct 11 01:28:00 2023","The main experiment item","True","Sternbergtask.osexp","C:\Users\kikip\OneDrive\Dokumente\QUANT HW","False","mono","False","18","no","white","no","yes","768","legacy","97","11","C:/Users/kikip/OneDrive/Dokumente/QUANT HW/HBsubject-1.csv","legacy","8 7 3","Melodramatic Milgram","4.0.5","1","y","0","left","right","right","left","NA","642.0","11869","7446","642","NA","2","legacy","3","1024","2","48000","-16","experiment","1","odd","8","670395","667127","668191","2077","94490","668193","620233","2083","87043","672396","669194","673040","13953","672396","NA","Sternberg task ","104","73242.0","110","1024"
"94","94","666","666","#3d3846","experiment","legacy","legacy","legacy","1","undefined","1","left","110","110","110","0","0","110","110","0","0","110","110","110","0","110","0","Wed Oct 11 01:28:00 2023","The main experiment item","True","Sternbergtask.osexp","C:\Users\kikip\OneDrive\Dokumente\QUANT HW","False","mono","False","18","no","white","no","yes","768","legacy","98","11","C:/Users/kikip/OneDrive/Dokumente/QUANT HW/HBsubject-1.csv","legacy","4 3 2 5 8","Melodramatic Milgram","4.0.5","2","y","0","left","right","right","left","NA","742.0","11869","7446","742","NA","2","legacy","5","1024","2","48000","-16","experiment","1","odd","3","676306","673042","674103","2077","94490","674104","620233","2083","87043","678307","675105","679050","13953","678307","NA","Sternberg task ","105","73984.0","111","1024"
"94","94","666","666","#3d3846","experiment","legacy","legacy","legacy","1","undefined","1","left","111","111","111","0","0","111","111","0","0","111","111","111","0","111","0","Wed Oct 11 01:28:00 2023","The main experiment item","True","Sternbergtask.osexp","C:\Users\kikip\OneDrive\Dokumente\QUANT HW","False","mono","False","18","no","white","no","yes","768","legacy","99","11","C:/Users/kikip/OneDrive/Dokumente/QUANT HW/HBsubject-1.csv","legacy","6 1 2","Melodramatic Milgram","4.0.5","3","y","0","left","right","right","left","NA","661.0","11869","7446","661","NA","2","legacy","3","1024","2","48000","-16","experiment","1","odd","2","682313","679056","680110","2077","94490","680111","620233","2083","87043","684314","681112","684976","13953","684314","NA","Sternberg task ","106","74645.0","112","1024"
"94","94","666","666","#3d3846","experiment","legacy","legacy","legacy","1","undefined","1","right","112","112","112","0","0","112","112","0","0","112","112","112","0","112","0","Wed Oct 11 01:28:00 2023","The main experiment item","True","Sternbergtask.osexp","C:\Users\kikip\OneDrive\Dokumente\QUANT HW","False","mono","False","18","no","white","no","yes","768","legacy","100","11","C:/Users/kikip/OneDrive/Dokumente/QUANT HW/HBsubject-1.csv","legacy","1 6 4 3 9 7","Melodramatic Milgram","4.0.5","0","n","0","right","right","right","right","NA","615.0","11869","7446","615","NA","2","legacy","6","1024","2","48000","-16","experiment","1","odd","8","688230","684982","686027","2077","94490","686028","620233","2083","87043","690231","687029","690848","13953","690231","NA","Sternberg task ","107","75260.0","113","1024"
"93","93","668","668","#3d3846","experiment","legacy","legacy","legacy","0","undefined","0","right","113","113","113","0","0","113","113","0","0","113","113","113","0","113","0","Wed Oct 11 01:28:00 2023","The main experiment item","True","Sternbergtask.osexp","C:\Users\kikip\OneDrive\Dokumente\QUANT HW","False","mono","False","18","no","white","no","yes","768","legacy","101","11","C:/Users/kikip/OneDrive/Dokumente/QUANT HW/HBsubject-1.csv","legacy","3 4 9 6 7 8","Melodramatic Milgram","4.0.5","0","n","0","left","right","right","left","NA","964.0","11869","7446","964","NA","2","legacy","6","1024","2","48000","-16","experiment","1","odd","2","694117","690851","691914","2077","94490","691915","620233","2083","87043","696118","692916","697084","13953","696118","NA","Sternberg task ","107","76224.0","114","1024"
"93","93","668","668","#3d3846","experiment","legacy","legacy","legacy","1","undefined","1","left","114","114","114","0","0","114","114","0","0","114","114","114","0","114","0","Wed Oct 11 01:28:00 2023","The main experiment item","True","Sternbergtask.osexp","C:\Users\kikip\OneDrive\Dokumente\QUANT HW","False","mono","False","18","no","white","no","yes","768","legacy","102","11","C:/Users/kikip/OneDrive/Dokumente/QUANT HW/HBsubject-1.csv","legacy","3 9 6 2","Melodramatic Milgram","4.0.5","4","y","0","left","right","right","left","NA","620.0","11869","7446","620","NA","2","legacy","4","1024","2","48000","-16","experiment","1","odd","2","700343","690851","698140","2077","94490","698141","697087","2083","87043","702344","699142","702966","13953","702344","NA","Sternberg task ","108","76844.0","115","1024"
"93","93","668","668","#3d3846","experiment","legacy","legacy","legacy","1","undefined","1","right","115","115","115","0","0","115","115","0","0","115","115","115","0","115","0","Wed Oct 11 01:28:00 2023","The main experiment item","True","Sternbergtask.osexp","C:\Users\kikip\OneDrive\Dokumente\QUANT HW","False","mono","False","18","no","white","no","yes","768","legacy","103","11","C:/Users/kikip/OneDrive/Dokumente/QUANT HW/HBsubject-1.csv","legacy","1 8 7","Melodramatic Milgram","4.0.5","0","n","0","right","right","right","right","NA","718.0","11869","7446","718","NA","2","legacy","3","1024","2","48000","-16","experiment","1","odd","4","706216","702969","704012","2077","94490","704014","697087","2083","87043","708217","705015","708937","13953","708217","NA","Sternberg task ","109","77562.0","116","1024"
"93","93","670","670","#3d3846","experiment","legacy","legacy","legacy","0","undefined","0","left","116","116","116","0","0","116","116","0","0","116","116","116","0","116","0","Wed Oct 11 01:28:00 2023","The main experiment item","True","Sternbergtask.osexp","C:\Users\kikip\OneDrive\Dokumente\QUANT HW","False","mono","False","18","no","white","no","yes","768","legacy","104","11","C:/Users/kikip/OneDrive/Dokumente/QUANT HW/HBsubject-1.csv","legacy","6 9 3 1","Melodramatic Milgram","4.0.5","4","y","0","right","right","right","right","NA","891.0","11869","7446","891","NA","2","legacy","4","1024","2","48000","-16","experiment","1","odd","1","712197","708943","709993","2077","94490","709994","697087","2083","87043","714198","710996","715091","13953","714198","NA","Sternberg task ","109","78453.0","117","1024"
"93","93","669","669","#3d3846","experiment","legacy","legacy","legacy","1","undefined","1","right","117","117","117","0","0","117","117","0","0","117","117","117","0","117","0","Wed Oct 11 01:28:00 2023","The main experiment item","True","Sternbergtask.osexp","C:\Users\kikip\OneDrive\Dokumente\QUANT HW","False","mono","False","18","no","white","no","yes","768","legacy","105","11","C:/Users/kikip/OneDrive/Dokumente/QUANT HW/HBsubject-1.csv","legacy","2 8 6 3 1","Melodramatic Milgram","4.0.5","0","n","0","right","right","right","right","NA","605.0","11869","7446","605","NA","2","legacy","5","1024","2","48000","-16","experiment","1","odd","7","718349","708943","716145","2077","94490","716147","715094","2083","87043","720350","717148","720957","13953","720350","NA","Sternberg task ","110","79058.0","118","1024"
"93","93","669","669","#3d3846","experiment","legacy","legacy","legacy","1","undefined","1","right","118","118","118","0","0","118","118","0","0","118","118","118","0","118","0","Wed Oct 11 01:28:00 2023","The main experiment item","True","Sternbergtask.osexp","C:\Users\kikip\OneDrive\Dokumente\QUANT HW","False","mono","False","18","no","white","no","yes","768","legacy","106","11","C:/Users/kikip/OneDrive/Dokumente/QUANT HW/HBsubject-1.csv","legacy","1 4 9 3","Melodramatic Milgram","4.0.5","0","n","0","right","right","right","right","NA","625.0","11869","7446","625","NA","2","legacy","4","1024","2","48000","-16","experiment","1","odd","5","724220","720960","722017","2077","94490","722018","715094","2083","87043","726221","723019","726848","13953","726221","NA","Sternberg task ","111","79683.0","119","1024"
"93","93","668","668","#3d3846","experiment","legacy","legacy","legacy","1","undefined","1","left","119","119","119","0","0","119","119","0","0","119","119","119","0","119","0","Wed Oct 11 01:28:00 2023","The main experiment item","True","Sternbergtask.osexp","C:\Users\kikip\OneDrive\Dokumente\QUANT HW","False","mono","False","18","no","white","no","yes","768","legacy","107","11","C:/Users/kikip/OneDrive/Dokumente/QUANT HW/HBsubject-1.csv","legacy","4 1 8 7 5","Melodramatic Milgram","4.0.5","3","y","0","left","right","right","left","NA","546.0","11869","7446","546","NA","2","legacy","5","1024","2","48000","-16","experiment","1","odd","8","730107","726853","727903","2077","94490","727905","715094","2083","87043","732108","728906","732655","13953","732108","NA","Sternberg task ","112","80229.0","120","1024"
"93","93","669","669","#3d3846","experiment","legacy","legacy","legacy","1","undefined","1","right","120","120","120","0","0","120","120","0","0","120","120","120","0","120","0","Wed Oct 11 01:28:00 2023","The main experiment item","True","Sternbergtask.osexp","C:\Users\kikip\OneDrive\Dokumente\QUANT HW","False","mono","False","18","no","white","no","yes","768","legacy","108","11","C:/Users/kikip/OneDrive/Dokumente/QUANT HW/HBsubject-1.csv","legacy","3 9 8 1 6 4","Melodramatic Milgram","4.0.5","0","n","0","right","right","right","right","NA","818.0","11869","7446","818","NA","2","legacy","6","1024","2","48000","-16","experiment","1","odd","7","735920","732661","733717","2077","94490","733718","715094","2083","87043","737921","734719","738740","13953","737921","NA","Sternberg task ","113","81047.0","121","1024"
"93","93","670","670","#3d3846","experiment","legacy","legacy","legacy","1","undefined","1","left","121","121","121","0","0","121","121","0","0","121","121","121","0","121","0","Wed Oct 11 01:28:00 2023","The main experiment item","True","Sternbergtask.osexp","C:\Users\kikip\OneDrive\Dokumente\QUANT HW","False","mono","False","18","no","white","no","yes","768","legacy","109","11","C:/Users/kikip/OneDrive/Dokumente/QUANT HW/HBsubject-1.csv","legacy","3 5 7 1","Melodramatic Milgram","4.0.5","3","y","0","left","right","right","left","NA","813.0","11869","7446","813","NA","2","legacy","4","1024","2","48000","-16","experiment","1","odd","7","742016","738744","739812","2077","94490","739814","715094","2083","87043","744017","740815","744832","13953","744017","NA","Sternberg task ","114","81860.0","122","1024"
