"acc","accuracy","average_response_time","avg_rt","background","block","canvas_backend","clock_backend","color_backend","compensation","coordinates","correct","correct_instruction1","correct_keyboard_response","correct_response","count_correctfeedback","count_expSequence","count_experementloop","count_experiment","count_fixation","count_getting_started","count_incorrectfeedback","count_instruction1","count_instructions2_2","count_isi","count_keyboard_response","count_logger","count_memorySet","count_practiceloop","count_probe","count_thankyou","count_welcome","datetime","description","disable_garbage_collection","experiment_file","experiment_path","font_bold","font_family","font_italic","font_size","font_underline","foreground","form_clicks","fullscreen","height","keyboard_backend","live_row","live_row_practiceloop","logfile","mouse_backend","numberSet","opensesame_codename","opensesame_version","posInSet","present","repeat_cycle","response","response_instruction1","response_instructions2_2","response_keyboard_response","response_thankyou","response_time","response_time_instruction1","response_time_instructions2_2","response_time_keyboard_response","response_time_thankyou","response_time_welcome","response_welcome","round_decimals","sampler_backend","setSize","sound_buf_size","sound_channels","sound_freq","sound_sample_size","start","subject_nr","subject_parity","target","time_correctfeedback","time_expSequence","time_experementloop","time_experiment","time_fixation","time_getting_started","time_incorrectfeedback","time_instruction1","time_instructions2_2","time_isi","time_keyboard_response","time_logger","time_memorySet","time_practiceloop","time_probe","time_thankyou","time_welcome","title","total_correct","total_response_time","total_responses","uniform_coordinates","width"
"100","100","479.140599957","479.140599957","black","practice","psycho","psycho","psycho","0","uniform","1","undefined","1","right","0","0","0","0","0","NA","0","0","0","0","0","0","0","0","0","0","NA","10/24/21 19:15:55","","yes","SternbergTask.osexp","C:\Users\mmcel\OneDrive\GRAD SCHOOL\fall 2021\Advanced Quant","no","mono","no","18","no","white","no","yes","768","psycho","0","0","C:/Users/mmcel/OneDrive/GRAD SCHOOL/fall 2021/Advanced Quant/sternberg/MM-subject-3.csv","psycho","4 1 5","Lentiform Loewenfeld","3.3.9","0","n","0","right","right","NA","right","NA","479.140599957","1562.64840002","NA","479.140599957","NA","NA","NA","2","legacy","3","1024","2","48000","-16","experiment","3","odd","2","NA","6208.15949998","NA","3481.13730003","6212.39150001","NA","NA","3509.53049998","NA","8419.01760001","10422.4371","10902.0535","7216.39830002","5073.17019999","10422.2465","NA","NA","Sternberg Task","1","479.140599957","1","yes","1024"
"100","100","483.561549976","483.561549976","black","practice","psycho","psycho","psycho","0","uniform","1","undefined","1","right","1","1","0","0","1","NA","1","0","0","1","1","1","1","0","1","0","NA","10/24/21 19:15:55","","yes","SternbergTask.osexp","C:\Users\mmcel\OneDrive\GRAD SCHOOL\fall 2021\Advanced Quant","no","mono","no","18","no","white","no","yes","768","psycho","1","1","C:/Users/mmcel/OneDrive/GRAD SCHOOL/fall 2021/Advanced Quant/sternberg/MM-subject-3.csv","psycho","3 1 9 4","Lentiform Loewenfeld","3.3.9","0","n","0","right","right","NA","right","NA","487.982499995","1562.64840002","NA","487.982499995","NA","NA","NA","2","legacy","4","1024","2","48000","-16","experiment","3","odd","6","11012.4062","12099.7928","NA","3481.13730003","12103.298","NA","NA","3509.53049998","NA","14309.9528","16313.7543","16802.2768","13106.4835","5073.17019999","16313.5798","NA","NA","Sternberg Task","2","967.123099952","2","yes","1024"
"100","100","477.399366656","477.399366656","black","practice","psycho","psycho","psycho","0","uniform","1","undefined","1","left","2","2","0","0","2","NA","2","0","0","2","2","2","2","0","2","0","NA","10/24/21 19:15:55","","yes","SternbergTask.osexp","C:\Users\mmcel\OneDrive\GRAD SCHOOL\fall 2021\Advanced Quant","no","mono","no","18","no","white","no","yes","768","psycho","2","2","C:/Users/mmcel/OneDrive/GRAD SCHOOL/fall 2021/Advanced Quant/sternberg/MM-subject-3.csv","psycho","1 7 9 8 5","Lentiform Loewenfeld","3.3.9","4","y","0","left","right","NA","left","NA","465.075000015","1562.64840002","NA","465.075000015","NA","NA","NA","2","legacy","5","1024","2","48000","-16","experiment","3","odd","8","16857.2666","17942.9967","NA","3481.13730003","17946.2645","NA","NA","3509.53049998","NA","20152.5893","22155.5106","22621.1157","18948.8865","5073.17019999","22155.3266","NA","NA","Sternberg Task","3","1432.19809997","3","yes","1024"
"100","100","467.030924992","467.030924992","black","practice","psycho","psycho","psycho","0","uniform","1","undefined","1","right","3","3","0","0","3","NA","3","0","0","3","3","3","3","0","3","0","NA","10/24/21 19:15:55","","yes","SternbergTask.osexp","C:\Users\mmcel\OneDrive\GRAD SCHOOL\fall 2021\Advanced Quant","no","mono","no","18","no","white","no","yes","768","psycho","3","3","C:/Users/mmcel/OneDrive/GRAD SCHOOL/fall 2021/Advanced Quant/sternberg/MM-subject-3.csv","psycho","5","Lentiform Loewenfeld","3.3.9","0","n","0","right","right","NA","right","NA","435.925600003","1562.64840002","NA","435.925600003","NA","NA","NA","2","legacy","1","1024","2","48000","-16","experiment","3","odd","3","22645.0215","23724.0714","NA","3481.13730003","23727.6569","NA","NA","3509.53049998","NA","25933.5856","27936.7349","28373.2637","24730.7872","5073.17019999","27936.5749","NA","NA","Sternberg Task","4","1868.12369997","4","yes","1024"
"100","100","458.564239996","458.564239996","black","practice","psycho","psycho","psycho","0","uniform","1","undefined","1","right","4","4","0","0","4","NA","4","0","0","4","4","4","4","0","4","0","NA","10/24/21 19:15:55","","yes","SternbergTask.osexp","C:\Users\mmcel\OneDrive\GRAD SCHOOL\fall 2021\Advanced Quant","no","mono","no","18","no","white","no","yes","768","psycho","4","4","C:/Users/mmcel/OneDrive/GRAD SCHOOL/fall 2021/Advanced Quant/sternberg/MM-subject-3.csv","psycho","2 1","Lentiform Loewenfeld","3.3.9","0","n","0","right","right","NA","right","NA","424.697500013","1562.64840002","NA","424.697500013","NA","NA","NA","2","legacy","2","1024","2","48000","-16","experiment","3","odd","5","28400.5844","29479.4063","NA","3481.13730003","29482.8093","NA","NA","3509.53049998","NA","31690.8255","33694.6995","34119.9384","30486.5181","5073.17019999","33694.5175","NA","NA","Sternberg Task","5","2292.82119998","5","yes","1024"
"100","100","445.7023","445.7023","black","practice","psycho","psycho","psycho","0","uniform","1","undefined","1","left","5","5","0","0","5","NA","5","0","0","5","5","5","5","0","5","0","NA","10/24/21 19:15:55","","yes","SternbergTask.osexp","C:\Users\mmcel\OneDrive\GRAD SCHOOL\fall 2021\Advanced Quant","no","mono","no","18","no","white","no","yes","768","psycho","5","5","C:/Users/mmcel/OneDrive/GRAD SCHOOL/fall 2021/Advanced Quant/sternberg/MM-subject-3.csv","psycho","1 5 2 9","Lentiform Loewenfeld","3.3.9","2","y","0","left","right","NA","left","NA","381.392600015","1562.64840002","NA","381.392600015","NA","NA","NA","2","legacy","4","1024","2","48000","-16","experiment","3","odd","5","34195.6383","35277.2485","NA","3481.13730003","35280.299","NA","NA","3509.53049998","NA","37486.3633","39489.3965","39871.3994","36283.1918","5073.17019999","39489.2307","NA","NA","Sternberg Task","6","2674.2138","6","yes","1024"
"100","100","447.911371435","447.911371435","black","practice","psycho","psycho","psycho","0","uniform","1","undefined","1","left","6","6","0","0","6","NA","6","0","0","6","6","6","6","0","6","0","NA","10/24/21 19:15:55","","yes","SternbergTask.osexp","C:\Users\mmcel\OneDrive\GRAD SCHOOL\fall 2021\Advanced Quant","no","mono","no","18","no","white","no","yes","768","psycho","6","6","C:/Users/mmcel/OneDrive/GRAD SCHOOL/fall 2021/Advanced Quant/sternberg/MM-subject-3.csv","psycho","4 8","Lentiform Loewenfeld","3.3.9","1","y","0","left","right","NA","left","NA","461.16580005","1562.64840002","NA","461.16580005","NA","NA","NA","2","legacy","2","1024","2","48000","-16","experiment","3","odd","4","39901.3446","40979.5606","NA","3481.13730003","40982.8153","NA","NA","3509.53049998","NA","43189.939","45193.5212","45655.2064","41986.4778","5073.17019999","45193.3466","NA","NA","Sternberg Task","7","3135.37960005","7","yes","1024"
"100","100","452.702300012","452.702300012","black","practice","psycho","psycho","psycho","0","uniform","1","undefined","1","left","7","7","0","0","7","NA","7","0","0","7","7","7","7","0","7","0","NA","10/24/21 19:15:55","","yes","SternbergTask.osexp","C:\Users\mmcel\OneDrive\GRAD SCHOOL\fall 2021\Advanced Quant","no","mono","no","18","no","white","no","yes","768","psycho","7","7","C:/Users/mmcel/OneDrive/GRAD SCHOOL/fall 2021/Advanced Quant/sternberg/MM-subject-3.csv","psycho","4 3 1 7 9 8","Lentiform Loewenfeld","3.3.9","1","y","0","left","right","NA","left","NA","486.238800047","1562.64840002","NA","486.238800047","NA","NA","NA","2","legacy","6","1024","2","48000","-16","experiment","3","odd","4","45714.5351","46794.905","NA","3481.13730003","46798.3597","NA","NA","3509.53049998","NA","49005.1686","51008.6656","51495.4245","47802.3095","5073.17019999","51008.5028","NA","NA","Sternberg Task","8","3621.6184001","8","yes","1024"
"100","100","446.652833346","446.652833346","black","practice","psycho","psycho","psycho","0","uniform","1","undefined","1","left","8","8","0","0","8","NA","8","0","0","8","8","8","8","0","8","0","NA","10/24/21 19:15:55","","yes","SternbergTask.osexp","C:\Users\mmcel\OneDrive\GRAD SCHOOL\fall 2021\Advanced Quant","no","mono","no","18","no","white","no","yes","768","psycho","8","8","C:/Users/mmcel/OneDrive/GRAD SCHOOL/fall 2021/Advanced Quant/sternberg/MM-subject-3.csv","psycho","6","Lentiform Loewenfeld","3.3.9","1","y","0","left","right","NA","left","NA","398.257100023","1562.64840002","NA","398.257100023","NA","NA","NA","2","legacy","1","1024","2","48000","-16","experiment","3","odd","6","51560.1633","52642.7885","NA","3481.13730003","52646.0631","NA","NA","3509.53049998","NA","54852.0931","56855.4427","57254.2209","53648.8494","5073.17019999","56855.2582","NA","NA","Sternberg Task","9","4019.87550012","9","yes","1024"
"100","100","453.256560012","453.256560012","black","practice","psycho","psycho","psycho","0","uniform","1","undefined","1","right","9","9","0","0","9","NA","9","0","0","9","9","9","9","0","9","0","NA","10/24/21 19:15:55","","yes","SternbergTask.osexp","C:\Users\mmcel\OneDrive\GRAD SCHOOL\fall 2021\Advanced Quant","no","mono","no","18","no","white","no","yes","768","psycho","9","9","C:/Users/mmcel/OneDrive/GRAD SCHOOL/fall 2021/Advanced Quant/sternberg/MM-subject-3.csv","psycho","9 6 7 4 5","Lentiform Loewenfeld","3.3.9","0","n","0","right","right","NA","right","NA","512.690100004","1562.64840002","NA","512.690100004","NA","NA","NA","2","legacy","5","1024","2","48000","-16","experiment","3","odd","3","57279.108","58361.4122","NA","3481.13730003","58365.0577","NA","NA","3509.53049998","NA","60571.9371","62575.8382","63089.0792","59368.9231","5073.17019999","62575.6583","NA","NA","Sternberg Task","10","4532.56560012","10","yes","1024"
"90.9090909091","90.9090909091","458.59568183","458.59568183","black","practice","psycho","psycho","psycho","0","uniform","0","undefined","0","right","10","10","0","0","10","NA","10","0","0","10","10","10","10","0","10","0","NA","10/24/21 19:15:55","","yes","SternbergTask.osexp","C:\Users\mmcel\OneDrive\GRAD SCHOOL\fall 2021\Advanced Quant","no","mono","no","18","no","white","no","yes","768","psycho","10","10","C:/Users/mmcel/OneDrive/GRAD SCHOOL/fall 2021/Advanced Quant/sternberg/MM-subject-3.csv","psycho","5 7 8 4 1 2","Lentiform Loewenfeld","3.3.9","0","n","0","left","right","NA","left","NA","511.986900005","1562.64840002","NA","511.986900005","NA","NA","NA","2","legacy","6","1024","2","48000","-16","experiment","3","odd","6","63113.2569","64196.2043","NA","3481.13730003","64199.521","NA","NA","3509.53049998","NA","66406.588","68410.5617","68923.1143","65203.0003","5073.17019999","68410.382","NA","NA","Sternberg Task","10","5044.55250013","11","yes","1024"
"91.6666666667","91.6666666667","463.514358344","463.514358344","black","practice","psycho","psycho","psycho","0","uniform","1","undefined","1","left","11","11","0","0","11","NA","11","0","0","11","11","11","11","0","11","0","NA","10/24/21 19:15:55","","yes","SternbergTask.osexp","C:\Users\mmcel\OneDrive\GRAD SCHOOL\fall 2021\Advanced Quant","no","mono","no","18","no","white","no","yes","768","psycho","11","11","C:/Users/mmcel/OneDrive/GRAD SCHOOL/fall 2021/Advanced Quant/sternberg/MM-subject-3.csv","psycho","2 9 4","Lentiform Loewenfeld","3.3.9","3","y","0","left","right","NA","left","NA","517.619799997","1562.64840002","NA","517.619799997","NA","NA","NA","2","legacy","3","1024","2","48000","-16","experiment","3","odd","4","63113.2569","70064.8466","NA","3481.13730003","70068.3556","NA","68983.652","3509.53049998","NA","72275.1824","74278.8661","74797.0424","71071.5973","5073.17019999","74278.7143","NA","NA","Sternberg Task","11","5562.17230012","12","yes","1024"
"92.3076923077","92.3076923077","466.697676936","466.697676936","black","experiment","psycho","psycho","psycho","0","uniform","1","undefined","1","left","12","12","0","0","12","NA","12","0","0","12","12","12","12","0","12","0","NA","10/24/21 19:15:55","","yes","SternbergTask.osexp","C:\Users\mmcel\OneDrive\GRAD SCHOOL\fall 2021\Advanced Quant","no","mono","no","18","no","white","no","yes","768","psycho","0","11","C:/Users/mmcel/OneDrive/GRAD SCHOOL/fall 2021/Advanced Quant/sternberg/MM-subject-3.csv","psycho","3 9 7 6 4","Lentiform Loewenfeld","3.3.9","3","y","0","left","right","left","left","NA","504.897500039","1562.64840002","13941.8273","504.897500039","NA","NA","NA","2","legacy","5","1024","2","48000","-16","experiment","3","odd","7","74860.5663","89922.9432","89838.505","3481.13730003","89926.5014","NA","68983.652","3509.53049998","75896.01","92132.7297","94136.112","94641.5614","90929.5003","5073.17019999","94135.8862","NA","NA","Sternberg Task","12","6067.06980016","13","yes","1024"
"92.8571428571","92.8571428571","467.264007153","467.264007153","black","experiment","psycho","psycho","psycho","0","uniform","1","undefined","1","left","13","13","0","0","13","NA","13","0","0","13","13","13","13","0","13","0","NA","10/24/21 19:15:55","","yes","SternbergTask.osexp","C:\Users\mmcel\OneDrive\GRAD SCHOOL\fall 2021\Advanced Quant","no","mono","no","18","no","white","no","yes","768","psycho","1","11","C:/Users/mmcel/OneDrive/GRAD SCHOOL/fall 2021/Advanced Quant/sternberg/MM-subject-3.csv","psycho","8 9 5 7 1 6","Lentiform Loewenfeld","3.3.9","4","y","0","left","right","left","left","NA","474.626299983","1562.64840002","13941.8273","474.626299983","NA","NA","NA","2","legacy","6","1024","2","48000","-16","experiment","3","odd","7","94706.9248","95787.2039","89838.505","3481.13730003","95790.5766","NA","68983.652","3509.53049998","75896.01","97996.82","100000.4237","100475.6898","96793.4703","5073.17019999","100000.244","NA","NA","Sternberg Task","13","6541.69610015","14","yes","1024"
"93.3333333333","93.3333333333","468.835293346","468.835293346","black","experiment","psycho","psycho","psycho","0","uniform","1","undefined","1","left","14","14","0","0","14","NA","14","0","0","14","14","14","14","0","14","0","NA","10/24/21 19:15:55","","yes","SternbergTask.osexp","C:\Users\mmcel\OneDrive\GRAD SCHOOL\fall 2021\Advanced Quant","no","mono","no","18","no","white","no","yes","768","psycho","2","11","C:/Users/mmcel/OneDrive/GRAD SCHOOL/fall 2021/Advanced Quant/sternberg/MM-subject-3.csv","psycho","8 5 4 7 3 1","Lentiform Loewenfeld","3.3.9","2","y","0","left","right","left","left","NA","490.833300049","1562.64840002","13941.8273","490.833300049","NA","NA","NA","2","legacy","6","1024","2","48000","-16","experiment","3","odd","5","100539.0905","101618.0184","89838.505","3481.13730003","101621.4019","NA","68983.652","3509.53049998","75896.01","103827.2644","105830.9355","106322.3905","102624.5938","5073.17019999","105830.7484","NA","NA","Sternberg Task","14","7032.5294002","15","yes","1024"
"93.75","93.75","472.567006262","472.567006262","black","experiment","psycho","psycho","psycho","0","uniform","1","undefined","1","right","15","15","0","0","15","NA","15","0","0","15","15","15","15","0","15","0","NA","10/24/21 19:15:55","","yes","SternbergTask.osexp","C:\Users\mmcel\OneDrive\GRAD SCHOOL\fall 2021\Advanced Quant","no","mono","no","18","no","white","no","yes","768","psycho","3","11","C:/Users/mmcel/OneDrive/GRAD SCHOOL/fall 2021/Advanced Quant/sternberg/MM-subject-3.csv","psycho","2 8 6 3 1","Lentiform Loewenfeld","3.3.9","0","n","0","right","right","left","right","NA","528.542699991","1562.64840002","13941.8273","528.542699991","NA","NA","NA","2","legacy","5","1024","2","48000","-16","experiment","3","odd","7","106382.306","107464.9589","89838.505","3481.13730003","107468.3991","NA","68983.652","3509.53049998","75896.01","109674.6007","111678.4551","112207.6361","108471.7087","5073.17019999","111678.266","NA","NA","Sternberg Task","15","7561.07210019","16","yes","1024"
"94.1176470588","94.1176470588","468.281588247","468.281588247","black","experiment","psycho","psycho","psycho","0","uniform","1","undefined","1","left","16","16","0","0","16","NA","16","0","0","16","16","16","16","0","16","0","NA","10/24/21 19:15:55","","yes","SternbergTask.osexp","C:\Users\mmcel\OneDrive\GRAD SCHOOL\fall 2021\Advanced Quant","no","mono","no","18","no","white","no","yes","768","psycho","4","11","C:/Users/mmcel/OneDrive/GRAD SCHOOL/fall 2021/Advanced Quant/sternberg/MM-subject-3.csv","psycho","4 9 7 8 5 3","Lentiform Loewenfeld","3.3.9","4","y","0","left","right","left","left","NA","399.714900006","1562.64840002","13941.8273","399.714900006","NA","NA","NA","2","legacy","6","1024","2","48000","-16","experiment","3","odd","8","112260.4142","113339.3165","89838.505","3481.13730003","113342.5234","NA","68983.652","3509.53049998","75896.01","115548.9426","117552.4247","117952.7586","114346.2964","5073.17019999","117552.2547","NA","NA","Sternberg Task","16","7960.78700019","17","yes","1024"
"94.4444444444","94.4444444444","476.379394457","476.379394457","black","experiment","psycho","psycho","psycho","0","uniform","1","undefined","1","left","17","17","0","0","17","NA","17","0","0","17","17","17","17","0","17","0","NA","10/24/21 19:15:55","","yes","SternbergTask.osexp","C:\Users\mmcel\OneDrive\GRAD SCHOOL\fall 2021\Advanced Quant","no","mono","no","18","no","white","no","yes","768","psycho","5","11","C:/Users/mmcel/OneDrive/GRAD SCHOOL/fall 2021/Advanced Quant/sternberg/MM-subject-3.csv","psycho","4 6 2 5 1","Lentiform Loewenfeld","3.3.9","5","y","0","left","right","left","left","NA","614.042100031","1562.64840002","13941.8273","614.042100031","NA","NA","NA","2","legacy","5","1024","2","48000","-16","experiment","3","odd","1","117971.8902","119054.6984","89838.505","3481.13730003","119058.1487","NA","68983.652","3509.53049998","75896.01","121264.235","123267.7869","123882.5915","120061.0368","5073.17019999","123267.6108","NA","NA","Sternberg Task","17","8574.82910022","18","yes","1024"
"94.7368421053","94.7368421053","472.30509475","472.30509475","black","experiment","psycho","psycho","psycho","0","uniform","1","undefined","1","left","18","18","0","0","18","NA","18","0","0","18","18","18","18","0","18","0","NA","10/24/21 19:15:55","","yes","SternbergTask.osexp","C:\Users\mmcel\OneDrive\GRAD SCHOOL\fall 2021\Advanced Quant","no","mono","no","18","no","white","no","yes","768","psycho","6","11","C:/Users/mmcel/OneDrive/GRAD SCHOOL/fall 2021/Advanced Quant/sternberg/MM-subject-3.csv","psycho","8","Lentiform Loewenfeld","3.3.9","1","y","0","left","right","left","left","NA","398.967700021","1562.64840002","13941.8273","398.967700021","NA","NA","NA","2","legacy","1","1024","2","48000","-16","experiment","3","odd","8","123938.1878","125021.302","89838.505","3481.13730003","125024.7549","NA","68983.652","3509.53049998","75896.01","127232.3681","129236.1618","129635.7543","126028.967","5073.17019999","129236.0022","NA","NA","Sternberg Task","18","8973.79680024","19","yes","1024"
"95","95","474.293430013","474.293430013","black","experiment","psycho","psycho","psycho","0","uniform","1","undefined","1","right","19","19","0","0","19","NA","19","0","0","19","19","19","19","0","19","0","NA","10/24/21 19:15:55","","yes","SternbergTask.osexp","C:\Users\mmcel\OneDrive\GRAD SCHOOL\fall 2021\Advanced Quant","no","mono","no","18","no","white","no","yes","768","psycho","7","11","C:/Users/mmcel/OneDrive/GRAD SCHOOL/fall 2021/Advanced Quant/sternberg/MM-subject-3.csv","psycho","1 4 9 3","Lentiform Loewenfeld","3.3.9","0","n","0","right","right","left","right","NA","512.071800011","1562.64840002","13941.8273","512.071800011","NA","NA","NA","2","legacy","4","1024","2","48000","-16","experiment","3","odd","5","129686.2062","130766.0953","89838.505","3481.13730003","130769.3839","NA","68983.652","3509.53049998","75896.01","132975.9151","134979.1965","135491.8885","131772.4529","5073.17019999","134978.9866","NA","NA","Sternberg Task","19","9485.86860026","20","yes","1024"
"95.2380952381","95.2380952381","472.289390491","472.289390491","black","experiment","psycho","psycho","psycho","0","uniform","1","undefined","1","left","20","20","0","0","20","NA","20","0","0","20","20","20","20","0","20","0","NA","10/24/21 19:15:55","","yes","SternbergTask.osexp","C:\Users\mmcel\OneDrive\GRAD SCHOOL\fall 2021\Advanced Quant","no","mono","no","18","no","white","no","yes","768","psycho","8","11","C:/Users/mmcel/OneDrive/GRAD SCHOOL/fall 2021/Advanced Quant/sternberg/MM-subject-3.csv","psycho","4","Lentiform Loewenfeld","3.3.9","1","y","0","left","right","left","left","NA","432.208600047","1562.64840002","13941.8273","432.208600047","NA","NA","NA","2","legacy","1","1024","2","48000","-16","experiment","3","odd","4","135539.5846","136618.6034","89838.505","3481.13730003","136622.1707","NA","68983.652","3509.53049998","75896.01","138827.492","140830.7058","141263.6459","137625.2041","5073.17019999","140830.5198","NA","NA","Sternberg Task","20","9918.0772003","21","yes","1024"
"95.4545454545","95.4545454545","470.496877287","470.496877287","black","experiment","psycho","psycho","psycho","0","uniform","1","undefined","1","left","21","21","0","0","21","NA","21","0","0","21","21","21","21","0","21","0","NA","10/24/21 19:15:55","","yes","SternbergTask.osexp","C:\Users\mmcel\OneDrive\GRAD SCHOOL\fall 2021\Advanced Quant","no","mono","no","18","no","white","no","yes","768","psycho","9","11","C:/Users/mmcel/OneDrive/GRAD SCHOOL/fall 2021/Advanced Quant/sternberg/MM-subject-3.csv","psycho","9 1 7 2","Lentiform Loewenfeld","3.3.9","2","y","0","left","right","left","left","NA","432.854100014","1562.64840002","13941.8273","432.854100014","NA","NA","NA","2","legacy","4","1024","2","48000","-16","experiment","3","odd","1","141319.9146","142399.3849","89838.505","3481.13730003","142402.8544","NA","68983.652","3509.53049998","75896.01","144609.3067","146613.5251","147047.0095","143406.0874","5073.17019999","146613.35","NA","NA","Sternberg Task","21","10350.9313003","22","yes","1024"
"95.652173913","95.652173913","470.552417407","470.552417407","black","experiment","psycho","psycho","psycho","0","uniform","1","undefined","1","right","22","22","0","0","22","NA","22","0","0","22","22","22","22","0","22","0","NA","10/24/21 19:15:55","","yes","SternbergTask.osexp","C:\Users\mmcel\OneDrive\GRAD SCHOOL\fall 2021\Advanced Quant","no","mono","no","18","no","white","no","yes","768","psycho","10","11","C:/Users/mmcel/OneDrive/GRAD SCHOOL/fall 2021/Advanced Quant/sternberg/MM-subject-3.csv","psycho","4 8 1 2","Lentiform Loewenfeld","3.3.9","0","n","0","right","right","left","right","NA","471.774300036","1562.64840002","13941.8273","471.774300036","NA","NA","NA","2","legacy","4","1024","2","48000","-16","experiment","3","odd","7","147094.5813","148175.1566","89838.505","3481.13730003","148178.697","NA","68983.652","3509.53049998","75896.01","150384.897","152389.1319","152861.5637","149181.1888","5073.17019999","152388.9688","NA","NA","Sternberg Task","22","10822.7056004","23","yes","1024"
"91.6666666667","91.6666666667","470.240320848","470.240320848","black","experiment","psycho","psycho","psycho","0","uniform","0","undefined","0","left","23","23","0","0","23","NA","23","0","0","23","23","23","23","0","23","0","NA","10/24/21 19:15:55","","yes","SternbergTask.osexp","C:\Users\mmcel\OneDrive\GRAD SCHOOL\fall 2021\Advanced Quant","no","mono","no","18","no","white","no","yes","768","psycho","11","11","C:/Users/mmcel/OneDrive/GRAD SCHOOL/fall 2021/Advanced Quant/sternberg/MM-subject-3.csv","psycho","1 4 9 3 2 5","Lentiform Loewenfeld","3.3.9","3","y","0","right","right","left","right","NA","463.062099996","1562.64840002","13941.8273","463.062099996","NA","NA","NA","2","legacy","6","1024","2","48000","-16","experiment","3","odd","9","152918.5281","154002.9229","89838.505","3481.13730003","154006.4914","NA","68983.652","3509.53049998","75896.01","156212.5414","158216.1963","158680.1114","155009.3289","5073.17019999","158216.0423","NA","NA","Sternberg Task","22","11285.7677003","24","yes","1024"
"92","92","475.304596014","475.304596014","black","experiment","psycho","psycho","psycho","0","uniform","1","undefined","1","left","24","24","0","0","24","NA","24","0","0","24","24","24","24","0","24","0","NA","10/24/21 19:15:55","","yes","SternbergTask.osexp","C:\Users\mmcel\OneDrive\GRAD SCHOOL\fall 2021\Advanced Quant","no","mono","no","18","no","white","no","yes","768","psycho","12","11","C:/Users/mmcel/OneDrive/GRAD SCHOOL/fall 2021/Advanced Quant/sternberg/MM-subject-3.csv","psycho","5 7 3 6 2","Lentiform Loewenfeld","3.3.9","5","y","0","left","right","left","left","NA","596.84720001","1562.64840002","13941.8273","596.84720001","NA","NA","NA","2","legacy","5","1024","2","48000","-16","experiment","3","odd","2","152918.5281","159824.4175","89838.505","3481.13730003","159827.6799","NA","158742.5999","3509.53049998","75896.01","162034.4712","164038.5048","164636.0671","160831.2776","5073.17019999","164038.3257","NA","NA","Sternberg Task","23","11882.6149004","25","yes","1024"
"88.4615384615","88.4615384615","476.504396166","476.504396166","black","experiment","psycho","psycho","psycho","0","uniform","0","undefined","0","right","25","25","0","0","25","NA","25","0","0","25","25","25","25","0","25","0","NA","10/24/21 19:15:55","","yes","SternbergTask.osexp","C:\Users\mmcel\OneDrive\GRAD SCHOOL\fall 2021\Advanced Quant","no","mono","no","18","no","white","no","yes","768","psycho","13","11","C:/Users/mmcel/OneDrive/GRAD SCHOOL/fall 2021/Advanced Quant/sternberg/MM-subject-3.csv","psycho","2 8 9 4 1","Lentiform Loewenfeld","3.3.9","0","n","0","left","right","left","left","NA","506.499399955","1562.64840002","13941.8273","506.499399955","NA","NA","NA","2","legacy","5","1024","2","48000","-16","experiment","3","odd","5","164686.9116","165766.544","89838.505","3481.13730003","165769.8031","NA","158742.5999","3509.53049998","75896.01","167976.3174","169980.0526","170487.23","166773.3091","5073.17019999","169979.8905","NA","NA","Sternberg Task","23","12389.1143003","26","yes","1024"
"85.1851851852","85.1851851852","472.968603715","472.968603715","black","experiment","psycho","psycho","psycho","0","uniform","0","undefined","0","right","26","26","0","0","26","NA","26","0","0","26","26","26","26","0","26","0","NA","10/24/21 19:15:55","","yes","SternbergTask.osexp","C:\Users\mmcel\OneDrive\GRAD SCHOOL\fall 2021\Advanced Quant","no","mono","no","18","no","white","no","yes","768","psycho","14","11","C:/Users/mmcel/OneDrive/GRAD SCHOOL/fall 2021/Advanced Quant/sternberg/MM-subject-3.csv","psycho","9 5 3 2 8 6","Lentiform Loewenfeld","3.3.9","0","n","0","left","right","left","left","NA","381.037999992","1562.64840002","13941.8273","381.037999992","NA","NA","NA","2","legacy","6","1024","2","48000","-16","experiment","3","odd","7","164686.9116","171629.391","89838.505","3481.13730003","171632.8389","NA","170544.1353","3509.53049998","75896.01","173839.5715","175842.9944","176224.737","172637.0089","5073.17019999","175842.8029","NA","NA","Sternberg Task","23","12770.1523003","27","yes","1024"
"85.7142857143","85.7142857143","478.248821438","478.248821438","black","experiment","psycho","psycho","psycho","0","uniform","1","undefined","1","left","27","27","0","0","27","NA","27","0","0","27","27","27","27","0","27","0","NA","10/24/21 19:15:55","","yes","SternbergTask.osexp","C:\Users\mmcel\OneDrive\GRAD SCHOOL\fall 2021\Advanced Quant","no","mono","no","18","no","white","no","yes","768","psycho","15","11","C:/Users/mmcel/OneDrive/GRAD SCHOOL/fall 2021/Advanced Quant/sternberg/MM-subject-3.csv","psycho","9 8 4","Lentiform Loewenfeld","3.3.9","1","y","0","left","right","left","left","NA","620.814699971","1562.64840002","13941.8273","620.814699971","NA","NA","NA","2","legacy","3","1024","2","48000","-16","experiment","3","odd","9","164686.9116","177354.3332","89838.505","3481.13730003","177357.5952","NA","176276.6193","3509.53049998","75896.01","179565.6652","181569.3286","182190.8127","178361.5749","5073.17019999","181569.1675","NA","NA","Sternberg Task","24","13390.9670003","28","yes","1024"
"86.2068965517","86.2068965517","480.090296562","480.090296562","black","experiment","psycho","psycho","psycho","0","uniform","1","undefined","1","right","28","28","0","0","28","NA","28","0","0","28","28","28","28","0","28","0","NA","10/24/21 19:15:55","","yes","SternbergTask.osexp","C:\Users\mmcel\OneDrive\GRAD SCHOOL\fall 2021\Advanced Quant","no","mono","no","18","no","white","no","yes","768","psycho","16","11","C:/Users/mmcel/OneDrive/GRAD SCHOOL/fall 2021/Advanced Quant/sternberg/MM-subject-3.csv","psycho","1 5 3 2 8","Lentiform Loewenfeld","3.3.9","0","n","0","right","right","left","right","NA","531.651600031","1562.64840002","13941.8273","531.651600031","NA","NA","NA","2","legacy","5","1024","2","48000","-16","experiment","3","odd","4","182243.7138","183322.2886","89838.505","3481.13730003","183325.7326","NA","176276.6193","3509.53049998","75896.01","185532.1756","187535.4895","188067.9233","184329.1914","5073.17019999","187535.3244","NA","NA","Sternberg Task","25","13922.6186003","29","yes","1024"
"83.3333333333","83.3333333333","482.984056677","482.984056677","black","experiment","psycho","psycho","psycho","0","uniform","0","undefined","0","right","29","29","0","0","29","NA","29","0","0","29","29","29","29","0","29","0","NA","10/24/21 19:15:55","","yes","SternbergTask.osexp","C:\Users\mmcel\OneDrive\GRAD SCHOOL\fall 2021\Advanced Quant","no","mono","no","18","no","white","no","yes","768","psycho","17","11","C:/Users/mmcel/OneDrive/GRAD SCHOOL/fall 2021/Advanced Quant/sternberg/MM-subject-3.csv","psycho","8 5 7 3 6","Lentiform Loewenfeld","3.3.9","0","n","0","left","right","left","left","NA","566.9031","1562.64840002","13941.8273","566.9031","NA","NA","NA","2","legacy","5","1024","2","48000","-16","experiment","3","odd","9","188143.2854","189225.361","89838.505","3481.13730003","189228.7448","NA","176276.6193","3509.53049998","75896.01","191434.643","193438.8267","194006.4104","190231.6806","5073.17019999","193438.5999","NA","NA","Sternberg Task","25","14489.5217003","30","yes","1024"
"83.8709677419","83.8709677419","484.061222591","484.061222591","black","experiment","psycho","psycho","psycho","0","uniform","1","undefined","1","right","30","30","0","0","30","NA","30","0","0","30","30","30","30","0","30","0","NA","10/24/21 19:15:55","","yes","SternbergTask.osexp","C:\Users\mmcel\OneDrive\GRAD SCHOOL\fall 2021\Advanced Quant","no","mono","no","18","no","white","no","yes","768","psycho","18","11","C:/Users/mmcel/OneDrive/GRAD SCHOOL/fall 2021/Advanced Quant/sternberg/MM-subject-3.csv","psycho","3 4 2","Lentiform Loewenfeld","3.3.9","0","n","0","right","right","left","right","NA","516.376200016","1562.64840002","13941.8273","516.376200016","NA","NA","NA","2","legacy","3","1024","2","48000","-16","experiment","3","odd","5","188143.2854","195133.7369","89838.505","3481.13730003","195137.2498","NA","194055.2188","3509.53049998","75896.01","197342.9669","199346.1981","199863.3552","196140.3822","5073.17019999","199345.9753","NA","NA","Sternberg Task","26","15005.8979003","31","yes","1024"
"81.25","81.25","488.04177501","488.04177501","black","experiment","psycho","psycho","psycho","0","uniform","0","undefined","0","right","31","31","0","0","31","NA","31","0","0","31","31","31","31","0","31","0","NA","10/24/21 19:15:55","","yes","SternbergTask.osexp","C:\Users\mmcel\OneDrive\GRAD SCHOOL\fall 2021\Advanced Quant","no","mono","no","18","no","white","no","yes","768","psycho","19","11","C:/Users/mmcel/OneDrive/GRAD SCHOOL/fall 2021/Advanced Quant/sternberg/MM-subject-3.csv","psycho","7 4 2 8 1 9","Lentiform Loewenfeld","3.3.9","0","n","0","left","right","left","left","NA","611.438899999","1562.64840002","13941.8273","611.438899999","NA","NA","NA","2","legacy","6","1024","2","48000","-16","experiment","3","odd","5","199944.91","201025.378","89838.505","3481.13730003","201028.8079","NA","194055.2188","3509.53049998","75896.01","203235.7863","205239.785","205852.0046","202032.6533","5073.17019999","205239.606","NA","NA","Sternberg Task","26","15617.3368003","32","yes","1024"
"81.8181818182","81.8181818182","492.078509101","492.078509101","black","experiment","psycho","psycho","psycho","0","uniform","1","undefined","1","right","32","32","0","0","32","NA","32","0","0","32","32","32","32","0","32","0","NA","10/24/21 19:15:55","","yes","SternbergTask.osexp","C:\Users\mmcel\OneDrive\GRAD SCHOOL\fall 2021\Advanced Quant","no","mono","no","18","no","white","no","yes","768","psycho","20","11","C:/Users/mmcel/OneDrive/GRAD SCHOOL/fall 2021/Advanced Quant/sternberg/MM-subject-3.csv","psycho","3 9 1","Lentiform Loewenfeld","3.3.9","0","n","0","right","right","left","right","NA","621.253999998","1562.64840002","13941.8273","621.253999998","NA","NA","NA","2","legacy","3","1024","2","48000","-16","experiment","3","odd","7","199944.91","206990.8481","89838.505","3481.13730003","206994.0136","NA","205911.5877","3509.53049998","75896.01","209200.0402","211203.9017","211825.9258","207997.5848","5073.17019999","211203.7131","NA","NA","Sternberg Task","27","16238.5908003","33","yes","1024"
"82.3529411765","82.3529411765","490.195958834","490.195958834","black","experiment","psycho","psycho","psycho","0","uniform","1","undefined","1","left","33","33","0","0","33","NA","33","0","0","33","33","33","33","0","33","0","NA","10/24/21 19:15:55","","yes","SternbergTask.osexp","C:\Users\mmcel\OneDrive\GRAD SCHOOL\fall 2021\Advanced Quant","no","mono","no","18","no","white","no","yes","768","psycho","21","11","C:/Users/mmcel/OneDrive/GRAD SCHOOL/fall 2021/Advanced Quant/sternberg/MM-subject-3.csv","psycho","4 6 5 8","Lentiform Loewenfeld","3.3.9","1","y","0","left","right","left","left","NA","428.071800037","1562.64840002","13941.8273","428.071800037","NA","NA","NA","2","legacy","4","1024","2","48000","-16","experiment","3","odd","4","211886.7946","212968.2295","89838.505","3481.13730003","212971.6648","NA","205911.5877","3509.53049998","75896.01","215178.1091","217181.2439","217610.1027","213974.6971","5073.17019999","217181.0752","NA","NA","Sternberg Task","28","16666.6626004","34","yes","1024"
"82.8571428571","82.8571428571","495.157580009","495.157580009","black","experiment","psycho","psycho","psycho","0","uniform","1","undefined","1","left","34","34","0","0","34","NA","34","0","0","34","34","34","34","0","34","0","NA","10/24/21 19:15:55","","yes","SternbergTask.osexp","C:\Users\mmcel\OneDrive\GRAD SCHOOL\fall 2021\Advanced Quant","no","mono","no","18","no","white","no","yes","768","psycho","22","11","C:/Users/mmcel/OneDrive/GRAD SCHOOL/fall 2021/Advanced Quant/sternberg/MM-subject-3.csv","psycho","6 7 8 5","Lentiform Loewenfeld","3.3.9","3","y","0","left","right","left","left","NA","663.852699974","1562.64840002","13941.8273","663.852699974","NA","NA","NA","2","legacy","4","1024","2","48000","-16","experiment","3","odd","8","217713.7193","218795.8246","89838.505","3481.13730003","218799.2747","NA","205911.5877","3509.53049998","75896.01","221005.7212","223009.0001","223673.6321","219802.3645","5073.17019999","223008.8355","NA","NA","Sternberg Task","29","17330.5153003","35","yes","1024"
"80.5555555556","80.5555555556","499.168322231","499.168322231","black","experiment","psycho","psycho","psycho","0","uniform","0","undefined","0","right","35","35","0","0","35","NA","35","0","0","35","35","35","35","0","35","0","NA","10/24/21 19:15:55","","yes","SternbergTask.osexp","C:\Users\mmcel\OneDrive\GRAD SCHOOL\fall 2021\Advanced Quant","no","mono","no","18","no","white","no","yes","768","psycho","23","11","C:/Users/mmcel/OneDrive/GRAD SCHOOL/fall 2021/Advanced Quant/sternberg/MM-subject-3.csv","psycho","1 7 5 2 9","Lentiform Loewenfeld","3.3.9","0","n","0","left","right","left","left","NA","639.544299978","1562.64840002","13941.8273","639.544299978","NA","NA","NA","2","legacy","5","1024","2","48000","-16","experiment","3","odd","3","223723.086","224803.61","89838.505","3481.13730003","224807.1651","NA","205911.5877","3509.53049998","75896.01","227014.3239","229017.5668","229657.9009","225811.0013","5073.17019999","229017.4014","NA","NA","Sternberg Task","29","17970.0596003","36","yes","1024"
"81.0810810811","81.0810810811","506.233935144","506.233935144","black","experiment","psycho","psycho","psycho","0","uniform","1","undefined","1","left","36","36","0","0","36","NA","36","0","0","36","36","36","36","0","36","0","NA","10/24/21 19:15:55","","yes","SternbergTask.osexp","C:\Users\mmcel\OneDrive\GRAD SCHOOL\fall 2021\Advanced Quant","no","mono","no","18","no","white","no","yes","768","psycho","24","11","C:/Users/mmcel/OneDrive/GRAD SCHOOL/fall 2021/Advanced Quant/sternberg/MM-subject-3.csv","psycho","6 8 9 3 4 9","Lentiform Loewenfeld","3.3.9","5","y","0","left","right","left","left","NA","760.596000007","1562.64840002","13941.8273","760.596000007","NA","NA","NA","2","legacy","6","1024","2","48000","-16","experiment","3","odd","4","223723.086","230814.3084","89838.505","3481.13730003","230817.6386","NA","229734.2157","3509.53049998","75896.01","233025.4802","235028.8667","235790.2069","231821.7741","5073.17019999","235028.6719","NA","NA","Sternberg Task","30","18730.6556003","37","yes","1024"
"81.5789473684","81.5789473684","505.882247377","505.882247377","black","experiment","psycho","psycho","psycho","0","uniform","1","undefined","1","right","37","37","0","0","37","NA","37","0","0","37","37","37","37","0","37","0","NA","10/24/21 19:15:55","","yes","SternbergTask.osexp","C:\Users\mmcel\OneDrive\GRAD SCHOOL\fall 2021\Advanced Quant","no","mono","no","18","no","white","no","yes","768","psycho","25","11","C:/Users/mmcel/OneDrive/GRAD SCHOOL/fall 2021/Advanced Quant/sternberg/MM-subject-3.csv","psycho","7 1","Lentiform Loewenfeld","3.3.9","0","n","0","right","right","left","right","NA","492.869800015","1562.64840002","13941.8273","492.869800015","NA","NA","NA","2","legacy","2","1024","2","48000","-16","experiment","3","odd","8","235845.1308","236923.7519","89838.505","3481.13730003","236927.049","NA","229734.2157","3509.53049998","75896.01","239132.8577","241136.8729","241630.5955","237930.1546","5073.17019999","241136.636","NA","NA","Sternberg Task","31","19223.5254003","38","yes","1024"
"82.0512820513","82.0512820513","502.056984623","502.056984623","black","experiment","psycho","psycho","psycho","0","uniform","1","undefined","1","left","38","38","0","0","38","NA","38","0","0","38","38","38","38","0","38","0","NA","10/24/21 19:15:55","","yes","SternbergTask.osexp","C:\Users\mmcel\OneDrive\GRAD SCHOOL\fall 2021\Advanced Quant","no","mono","no","18","no","white","no","yes","768","psycho","26","11","C:/Users/mmcel/OneDrive/GRAD SCHOOL/fall 2021/Advanced Quant/sternberg/MM-subject-3.csv","psycho","3 5 4 7","Lentiform Loewenfeld","3.3.9","1","y","0","left","right","left","left","NA","356.696999981","1562.64840002","13941.8273","356.696999981","NA","NA","NA","2","legacy","4","1024","2","48000","-16","experiment","3","odd","3","241677.0322","242757.2509","89838.505","3481.13730003","242760.4667","NA","229734.2157","3509.53049998","75896.01","244967.2247","246970.7393","247328.3313","243763.8719","5073.17019999","246970.5644","NA","NA","Sternberg Task","32","19580.2224003","39","yes","1024"
"82.5","82.5","499.051902507","499.051902507","black","experiment","psycho","psycho","psycho","0","uniform","1","undefined","1","left","39","39","0","0","39","NA","39","0","0","39","39","39","39","0","39","0","NA","10/24/21 19:15:55","","yes","SternbergTask.osexp","C:\Users\mmcel\OneDrive\GRAD SCHOOL\fall 2021\Advanced Quant","no","mono","no","18","no","white","no","yes","768","psycho","27","11","C:/Users/mmcel/OneDrive/GRAD SCHOOL/fall 2021/Advanced Quant/sternberg/MM-subject-3.csv","psycho","7 1 3","Lentiform Loewenfeld","3.3.9","2","y","0","left","right","left","left","NA","381.853699975","1562.64840002","13941.8273","381.853699975","NA","NA","NA","2","legacy","3","1024","2","48000","-16","experiment","3","odd","1","247377.2003","248458.9856","89838.505","3481.13730003","248462.2116","NA","229734.2157","3509.53049998","75896.01","250669.6384","252672.6478","253055.2808","249466.1996","5073.17019999","252672.4782","NA","NA","Sternberg Task","33","19962.0761003","40","yes","1024"
"82.9268292683","82.9268292683","499.625429275","499.625429275","black","experiment","psycho","psycho","psycho","0","uniform","1","undefined","1","right","40","40","0","0","40","NA","40","0","0","40","40","40","40","0","40","0","NA","10/24/21 19:15:55","","yes","SternbergTask.osexp","C:\Users\mmcel\OneDrive\GRAD SCHOOL\fall 2021\Advanced Quant","no","mono","no","18","no","white","no","yes","768","psycho","28","11","C:/Users/mmcel/OneDrive/GRAD SCHOOL/fall 2021/Advanced Quant/sternberg/MM-subject-3.csv","psycho","2 8 9","Lentiform Loewenfeld","3.3.9","0","n","0","right","right","left","right","NA","522.566500003","1562.64840002","13941.8273","522.566500003","NA","NA","NA","2","legacy","3","1024","2","48000","-16","experiment","3","odd","6","253111.1345","254193.1016","89838.505","3481.13730003","254196.4931","NA","229734.2157","3509.53049998","75896.01","256402.1717","258405.2814","258928.723","255199.5654","5073.17019999","258405.1198","NA","NA","Sternberg Task","34","20484.6426003","41","yes","1024"
"80.9523809524","80.9523809524","506.42902858","506.42902858","black","experiment","psycho","psycho","psycho","0","uniform","0","undefined","0","right","41","41","0","0","41","NA","41","0","0","41","41","41","41","0","41","0","NA","10/24/21 19:15:55","","yes","SternbergTask.osexp","C:\Users\mmcel\OneDrive\GRAD SCHOOL\fall 2021\Advanced Quant","no","mono","no","18","no","white","no","yes","768","psycho","29","11","C:/Users/mmcel/OneDrive/GRAD SCHOOL/fall 2021/Advanced Quant/sternberg/MM-subject-3.csv","psycho","4 2 7 6 1 3","Lentiform Loewenfeld","3.3.9","0","n","0","left","right","left","left","NA","785.376600048","1562.64840002","13941.8273","785.376600048","NA","NA","NA","2","legacy","6","1024","2","48000","-16","experiment","3","odd","8","258978.5334","260058.4978","89838.505","3481.13730003","260061.9875","NA","229734.2157","3509.53049998","75896.01","262269.1038","264272.7462","265058.8915","261066.3672","5073.17019999","264272.5593","NA","NA","Sternberg Task","34","21270.0192003","42","yes","1024"
"81.3953488372","81.3953488372","508.022006986","508.022006986","black","experiment","psycho","psycho","psycho","0","uniform","1","undefined","1","left","42","42","0","0","42","NA","42","0","0","42","42","42","42","0","42","0","NA","10/24/21 19:15:55","","yes","SternbergTask.osexp","C:\Users\mmcel\OneDrive\GRAD SCHOOL\fall 2021\Advanced Quant","no","mono","no","18","no","white","no","yes","768","psycho","30","11","C:/Users/mmcel/OneDrive/GRAD SCHOOL/fall 2021/Advanced Quant/sternberg/MM-subject-3.csv","psycho","5 2 9 6 1 7","Lentiform Loewenfeld","3.3.9","3","y","0","left","right","left","left","NA","574.927100039","1562.64840002","13941.8273","574.927100039","NA","NA","NA","2","legacy","6","1024","2","48000","-16","experiment","3","odd","9","258978.5334","266194.3716","89838.505","3481.13730003","266197.7399","NA","265112.0507","3509.53049998","75896.01","268403.0366","270407.3567","270983.0679","267200.4854","5073.17019999","270407.1688","NA","NA","Sternberg Task","35","21844.9463004","43","yes","1024"
"79.5454545455","79.5454545455","506.735784098","506.735784098","black","experiment","psycho","psycho","psycho","0","uniform","0","undefined","0","right","43","43","0","0","43","NA","43","0","0","43","43","43","43","0","43","0","NA","10/24/21 19:15:55","","yes","SternbergTask.osexp","C:\Users\mmcel\OneDrive\GRAD SCHOOL\fall 2021\Advanced Quant","no","mono","no","18","no","white","no","yes","768","psycho","31","11","C:/Users/mmcel/OneDrive/GRAD SCHOOL/fall 2021/Advanced Quant/sternberg/MM-subject-3.csv","psycho","2 8 7 9 5 3","Lentiform Loewenfeld","3.3.9","0","n","0","left","right","left","left","NA","451.428199944","1562.64840002","13941.8273","451.428199944","NA","NA","NA","2","legacy","6","1024","2","48000","-16","experiment","3","odd","6","271048.4359","272128.0124","89838.505","3481.13730003","272131.3924","NA","265112.0507","3509.53049998","75896.01","274337.4785","276340.964","276793.1664","273134.9845","5073.17019999","276340.7834","NA","NA","Sternberg Task","35","22296.3745003","44","yes","1024"
"80","80","504.660095563","504.660095563","black","experiment","psycho","psycho","psycho","0","uniform","1","undefined","1","left","44","44","0","0","44","NA","44","0","0","44","44","44","44","0","44","0","NA","10/24/21 19:15:55","","yes","SternbergTask.osexp","C:\Users\mmcel\OneDrive\GRAD SCHOOL\fall 2021\Advanced Quant","no","mono","no","18","no","white","no","yes","768","psycho","32","11","C:/Users/mmcel/OneDrive/GRAD SCHOOL/fall 2021/Advanced Quant/sternberg/MM-subject-3.csv","psycho","8 5 3 7 4 6","Lentiform Loewenfeld","3.3.9","6","y","0","left","right","left","left","NA","413.329800009","1562.64840002","13941.8273","413.329800009","NA","NA","NA","2","legacy","6","1024","2","48000","-16","experiment","3","odd","6","271048.4359","277927.9219","89838.505","3481.13730003","277931.2777","NA","276845.7031","3509.53049998","75896.01","280139.0469","282142.3022","282556.4796","278935.4322","5073.17019999","282142.129","NA","NA","Sternberg Task","36","22709.7043003","45","yes","1024"
"80.4347826087","80.4347826087","504.70597392","504.70597392","black","experiment","psycho","psycho","psycho","0","uniform","1","undefined","1","right","45","45","0","0","45","NA","45","0","0","45","45","45","45","0","45","0","NA","10/24/21 19:15:55","","yes","SternbergTask.osexp","C:\Users\mmcel\OneDrive\GRAD SCHOOL\fall 2021\Advanced Quant","no","mono","no","18","no","white","no","yes","768","psycho","33","11","C:/Users/mmcel/OneDrive/GRAD SCHOOL/fall 2021/Advanced Quant/sternberg/MM-subject-3.csv","psycho","6 8","Lentiform Loewenfeld","3.3.9","0","n","0","right","right","left","right","NA","506.770499982","1562.64840002","13941.8273","506.770499982","NA","NA","NA","2","legacy","2","1024","2","48000","-16","experiment","3","odd","9","282637.6589","283719.0564","89838.505","3481.13730003","283722.4625","NA","276845.7031","3509.53049998","75896.01","285929.3902","287932.4852","288440.1875","284726.3488","5073.17019999","287932.2908","NA","NA","Sternberg Task","37","23216.4748003","46","yes","1024"
"80.8510638298","80.8510638298","505.592893623","505.592893623","black","experiment","psycho","psycho","psycho","0","uniform","1","undefined","1","left","46","46","0","0","46","NA","46","0","0","46","46","46","46","0","46","0","NA","10/24/21 19:15:55","","yes","SternbergTask.osexp","C:\Users\mmcel\OneDrive\GRAD SCHOOL\fall 2021\Advanced Quant","no","mono","no","18","no","white","no","yes","768","psycho","34","11","C:/Users/mmcel/OneDrive/GRAD SCHOOL/fall 2021/Advanced Quant/sternberg/MM-subject-3.csv","psycho","2 5 4 8 7","Lentiform Loewenfeld","3.3.9","3","y","0","left","right","left","left","NA","546.391199983","1562.64840002","13941.8273","546.391199983","NA","NA","NA","2","legacy","5","1024","2","48000","-16","experiment","3","odd","4","288490.1154","289571.0922","89838.505","3481.13730003","289574.3719","NA","276845.7031","3509.53049998","75896.01","291782.0426","293785.6926","294332.9528","290578.368","5073.17019999","293785.5369","NA","NA","Sternberg Task","38","23762.8660003","47","yes","1024"
"81.25","81.25","508.040862506","508.040862506","black","experiment","psycho","psycho","psycho","0","uniform","1","undefined","1","left","47","47","0","0","47","NA","47","0","0","47","47","47","47","0","47","0","NA","10/24/21 19:15:55","","yes","SternbergTask.osexp","C:\Users\mmcel\OneDrive\GRAD SCHOOL\fall 2021\Advanced Quant","no","mono","no","18","no","white","no","yes","768","psycho","35","11","C:/Users/mmcel/OneDrive/GRAD SCHOOL/fall 2021/Advanced Quant/sternberg/MM-subject-3.csv","psycho","9 6 2 4 1","Lentiform Loewenfeld","3.3.9","4","y","0","left","right","left","left","NA","623.095399991","1562.64840002","13941.8273","623.095399991","NA","NA","NA","2","legacy","5","1024","2","48000","-16","experiment","3","odd","4","294382.8361","295466.0568","89838.505","3481.13730003","295469.4252","NA","276845.7031","3509.53049998","75896.01","297675.8346","299679.5497","300303.5311","296472.4525","5073.17019999","299679.3909","NA","NA","Sternberg Task","39","24385.9614003","48","yes","1024"
"81.6326530612","81.6326530612","507.350018373","507.350018373","black","experiment","psycho","psycho","psycho","0","uniform","1","undefined","1","left","48","48","0","0","48","NA","48","0","0","48","48","48","48","0","48","0","NA","10/24/21 19:15:55","","yes","SternbergTask.osexp","C:\Users\mmcel\OneDrive\GRAD SCHOOL\fall 2021\Advanced Quant","no","mono","no","18","no","white","no","yes","768","psycho","36","11","C:/Users/mmcel/OneDrive/GRAD SCHOOL/fall 2021/Advanced Quant/sternberg/MM-subject-3.csv","psycho","9 1 6 7 8","Lentiform Loewenfeld","3.3.9","1","y","0","left","right","left","left","NA","474.189499975","1562.64840002","13941.8273","474.189499975","NA","NA","NA","2","legacy","5","1024","2","48000","-16","experiment","3","odd","9","300357.9467","301439.1468","89838.505","3481.13730003","301442.5305","NA","276845.7031","3509.53049998","75896.01","303649.4063","305652.8207","306127.8672","302446.474","5073.17019999","305652.6412","NA","NA","Sternberg Task","40","24860.1509003","49","yes","1024"
"82","82","505.018558005","505.018558005","black","experiment","psycho","psycho","psycho","0","uniform","1","undefined","1","right","49","49","0","0","49","NA","49","0","0","49","49","49","49","0","49","0","NA","10/24/21 19:15:55","","yes","SternbergTask.osexp","C:\Users\mmcel\OneDrive\GRAD SCHOOL\fall 2021\Advanced Quant","no","mono","no","18","no","white","no","yes","768","psycho","37","11","C:/Users/mmcel/OneDrive/GRAD SCHOOL/fall 2021/Advanced Quant/sternberg/MM-subject-3.csv","psycho","9","Lentiform Loewenfeld","3.3.9","0","n","0","right","right","left","right","NA","390.776999993","1562.64840002","13941.8273","390.776999993","NA","NA","NA","2","legacy","1","1024","2","48000","-16","experiment","3","odd","6","306146.7609","307228.6672","89838.505","3481.13730003","307232.0309","NA","276845.7031","3509.53049998","75896.01","309438.0301","311441.9237","311833.6729","308234.9711","5073.17019999","311441.7435","NA","NA","Sternberg Task","41","25250.9279003","50","yes","1024"
"82.3529411765","82.3529411765","510.759945103","510.759945103","black","experiment","psycho","psycho","psycho","0","uniform","1","undefined","1","left","50","50","0","0","50","NA","50","0","0","50","50","50","50","0","50","0","NA","10/24/21 19:15:55","","yes","SternbergTask.osexp","C:\Users\mmcel\OneDrive\GRAD SCHOOL\fall 2021\Advanced Quant","no","mono","no","18","no","white","no","yes","768","psycho","38","11","C:/Users/mmcel/OneDrive/GRAD SCHOOL/fall 2021/Advanced Quant/sternberg/MM-subject-3.csv","psycho","8 9 5 6 7","Lentiform Loewenfeld","3.3.9","1","y","0","left","right","left","left","NA","797.829299991","1562.64840002","13941.8273","797.829299991","NA","NA","NA","2","legacy","5","1024","2","48000","-16","experiment","3","odd","8","311880.9391","312963.8086","89838.505","3481.13730003","312967.4453","NA","276845.7031","3509.53049998","75896.01","315174.0419","317178.1051","317976.798","313970.5246","5073.17019999","317177.8869","NA","NA","Sternberg Task","42","26048.7572002","51","yes","1024"
"80.7692307692","80.7692307692","510.083023081","510.083023081","black","experiment","psycho","psycho","psycho","0","uniform","0","undefined","0","right","51","51","0","0","51","NA","51","0","0","51","51","51","51","0","51","0","NA","10/24/21 19:15:55","","yes","SternbergTask.osexp","C:\Users\mmcel\OneDrive\GRAD SCHOOL\fall 2021\Advanced Quant","no","mono","no","18","no","white","no","yes","768","psycho","39","11","C:/Users/mmcel/OneDrive/GRAD SCHOOL/fall 2021/Advanced Quant/sternberg/MM-subject-3.csv","psycho","6 9 4 5 3 2","Lentiform Loewenfeld","3.3.9","0","n","0","left","right","left","left","NA","475.559999992","1562.64840002","13941.8273","475.559999992","NA","NA","NA","2","legacy","6","1024","2","48000","-16","experiment","3","odd","8","318026.014","319105.4068","89838.505","3481.13730003","319108.9021","NA","276845.7031","3509.53049998","75896.01","321314.9957","323318.588","323794.9839","320112.501","5073.17019999","323318.4207","NA","NA","Sternberg Task","42","26524.3172002","52","yes","1024"
"79.2452830189","79.2452830189","513.047333966","513.047333966","black","experiment","psycho","psycho","psycho","0","uniform","0","undefined","0","left","52","52","0","0","52","NA","52","0","0","52","52","52","52","0","52","0","NA","10/24/21 19:15:55","","yes","SternbergTask.osexp","C:\Users\mmcel\OneDrive\GRAD SCHOOL\fall 2021\Advanced Quant","no","mono","no","18","no","white","no","yes","768","psycho","40","11","C:/Users/mmcel/OneDrive/GRAD SCHOOL/fall 2021/Advanced Quant/sternberg/MM-subject-3.csv","psycho","3 2 1 4 7","Lentiform Loewenfeld","3.3.9","2","y","0","right","right","left","right","NA","667.191499961","1562.64840002","13941.8273","667.191499961","NA","NA","NA","2","legacy","5","1024","2","48000","-16","experiment","3","odd","2","318026.014","324943.2342","89838.505","3481.13730003","324946.6796","NA","323861.915","3509.53049998","75896.01","327153.8038","329157.2163","329825.2498","325950.045","5073.17019999","329157.0482","NA","NA","Sternberg Task","42","27191.5087002","53","yes","1024"
"77.7777777778","77.7777777778","515.871762966","515.871762966","black","experiment","psycho","psycho","psycho","0","uniform","0","undefined","0","left","53","53","0","0","53","NA","53","0","0","53","53","53","53","0","53","0","NA","10/24/21 19:15:55","","yes","SternbergTask.osexp","C:\Users\mmcel\OneDrive\GRAD SCHOOL\fall 2021\Advanced Quant","no","mono","no","18","no","white","no","yes","768","psycho","41","11","C:/Users/mmcel/OneDrive/GRAD SCHOOL/fall 2021/Advanced Quant/sternberg/MM-subject-3.csv","psycho","7 4 2 6 3 5","Lentiform Loewenfeld","3.3.9","6","y","0","right","right","left","right","NA","665.566499985","1562.64840002","13941.8273","665.566499985","NA","NA","NA","2","legacy","6","1024","2","48000","-16","experiment","3","odd","5","318026.014","330978.4166","89838.505","3481.13730003","330981.6428","NA","329898.5162","3509.53049998","75896.01","333187.7479","335192.0218","335858.5953","331985.1355","5073.17019999","335191.8503","NA","NA","Sternberg Task","42","27857.0752002","54","yes","1024"
"78.1818181818","78.1818181818","517.289830913","517.289830913","black","experiment","psycho","psycho","psycho","0","uniform","1","undefined","1","left","54","54","0","0","54","NA","54","0","0","54","54","54","54","0","54","0","NA","10/24/21 19:15:55","","yes","SternbergTask.osexp","C:\Users\mmcel\OneDrive\GRAD SCHOOL\fall 2021\Advanced Quant","no","mono","no","18","no","white","no","yes","768","psycho","42","11","C:/Users/mmcel/OneDrive/GRAD SCHOOL/fall 2021/Advanced Quant/sternberg/MM-subject-3.csv","psycho","8 7 3","Lentiform Loewenfeld","3.3.9","1","y","0","left","right","left","left","NA","593.865500006","1562.64840002","13941.8273","593.865500006","NA","NA","NA","2","legacy","3","1024","2","48000","-16","experiment","3","odd","8","318026.014","336984.1788","89838.505","3481.13730003","336987.5139","NA","335904.6912","3509.53049998","75896.01","339193.1924","341197.1762","341791.8807","337990.4271","5073.17019999","341197.006","NA","NA","Sternberg Task","43","28450.9407002","55","yes","1024"
"78.5714285714","78.5714285714","524.687333932","524.687333932","black","experiment","psycho","psycho","psycho","0","uniform","1","undefined","1","left","55","55","0","0","55","NA","55","0","0","55","55","55","55","0","55","0","NA","10/24/21 19:15:55","","yes","SternbergTask.osexp","C:\Users\mmcel\OneDrive\GRAD SCHOOL\fall 2021\Advanced Quant","no","mono","no","18","no","white","no","yes","768","psycho","43","11","C:/Users/mmcel/OneDrive/GRAD SCHOOL/fall 2021/Advanced Quant/sternberg/MM-subject-3.csv","psycho","2 4 8 5 1 3","Lentiform Loewenfeld","3.3.9","1","y","0","left","right","left","left","NA","931.549999979","1562.64840002","13941.8273","931.549999979","NA","NA","NA","2","legacy","6","1024","2","48000","-16","experiment","3","odd","2","341826.5285","342911.248","89838.505","3481.13730003","342914.6856","NA","335904.6912","3509.53049998","75896.01","345121.7156","347125.0956","348057.508","343918.2255","5073.17019999","347124.9117","NA","NA","Sternberg Task","44","29382.4907002","56","yes","1024"
"78.9473684211","78.9473684211","526.854907021","526.854907021","black","experiment","psycho","psycho","psycho","0","uniform","1","undefined","1","left","56","56","0","0","56","NA","56","0","0","56","56","56","56","0","56","0","NA","10/24/21 19:15:55","","yes","SternbergTask.osexp","C:\Users\mmcel\OneDrive\GRAD SCHOOL\fall 2021\Advanced Quant","no","mono","no","18","no","white","no","yes","768","psycho","44","11","C:/Users/mmcel/OneDrive/GRAD SCHOOL/fall 2021/Advanced Quant/sternberg/MM-subject-3.csv","psycho","4 1 8 7 5","Lentiform Loewenfeld","3.3.9","3","y","0","left","right","left","left","NA","648.239000002","1562.64840002","13941.8273","648.239000002","NA","NA","NA","2","legacy","5","1024","2","48000","-16","experiment","3","odd","8","348139.8452","349217.4866","89838.505","3481.13730003","349220.9438","NA","335904.6912","3509.53049998","75896.01","351426.5036","353429.9525","354079.1115","350223.741","5073.17019999","353429.7596","NA","NA","Sternberg Task","45","30030.7297002","57","yes","1024"
"79.3103448276","79.3103448276","525.713810348","525.713810348","black","experiment","psycho","psycho","psycho","0","uniform","1","undefined","1","left","57","57","0","0","57","NA","57","0","0","57","57","57","57","0","57","0","NA","10/24/21 19:15:55","","yes","SternbergTask.osexp","C:\Users\mmcel\OneDrive\GRAD SCHOOL\fall 2021\Advanced Quant","no","mono","no","18","no","white","no","yes","768","psycho","45","11","C:/Users/mmcel/OneDrive/GRAD SCHOOL/fall 2021/Advanced Quant/sternberg/MM-subject-3.csv","psycho","3 5 9 6 2 4","Lentiform Loewenfeld","3.3.9","1","y","0","left","right","left","left","NA","460.67130001","1562.64840002","13941.8273","460.67130001","NA","NA","NA","2","legacy","6","1024","2","48000","-16","experiment","3","odd","3","354144.6676","355223.0315","89838.505","3481.13730003","355226.2426","NA","335904.6912","3509.53049998","75896.01","357432.6256","359436.0641","359898.9921","356229.4159","5073.17019999","359435.9013","NA","NA","Sternberg Task","46","30491.4010002","58","yes","1024"
"79.6610169492","79.6610169492","523.995394918","523.995394918","black","experiment","psycho","psycho","psycho","0","uniform","1","undefined","1","left","58","58","0","0","58","NA","58","0","0","58","58","58","58","0","58","0","NA","10/24/21 19:15:55","","yes","SternbergTask.osexp","C:\Users\mmcel\OneDrive\GRAD SCHOOL\fall 2021\Advanced Quant","no","mono","no","18","no","white","no","yes","768","psycho","46","11","C:/Users/mmcel/OneDrive/GRAD SCHOOL/fall 2021/Advanced Quant/sternberg/MM-subject-3.csv","psycho","2 8 5 1","Lentiform Loewenfeld","3.3.9","4","y","0","left","right","left","left","NA","424.327299988","1562.64840002","13941.8273","424.327299988","NA","NA","NA","2","legacy","4","1024","2","48000","-16","experiment","3","odd","1","359928.1652","361057.8012","89838.505","3481.13730003","361061.9163","NA","335904.6912","3509.53049998","75896.01","363268.3483","365272.7154","365698.1201","362065.3961","5073.17019999","365272.5479","NA","NA","Sternberg Task","47","30915.7283002","59","yes","1024"
"80","80","521.619583336","521.619583336","black","experiment","psycho","psycho","psycho","0","uniform","1","undefined","1","right","59","59","0","0","59","NA","59","0","0","59","59","59","59","0","59","0","NA","10/24/21 19:15:55","","yes","SternbergTask.osexp","C:\Users\mmcel\OneDrive\GRAD SCHOOL\fall 2021\Advanced Quant","no","mono","no","18","no","white","no","yes","768","psycho","47","11","C:/Users/mmcel/OneDrive/GRAD SCHOOL/fall 2021/Advanced Quant/sternberg/MM-subject-3.csv","psycho","1","Lentiform Loewenfeld","3.3.9","0","n","0","right","right","left","right","NA","381.446699961","1562.64840002","13941.8273","381.446699961","NA","NA","NA","2","legacy","1","1024","2","48000","-16","experiment","3","odd","7","365728.0447","366854.5585","89838.505","3481.13730003","366858.5689","NA","335904.6912","3509.53049998","75896.01","369065.4934","371068.9466","371451.3012","367862.8977","5073.17019999","371068.7718","NA","NA","Sternberg Task","48","31297.1750001","60","yes","1024"
"80.3278688525","80.3278688525","521.593388526","521.593388526","black","experiment","psycho","psycho","psycho","0","uniform","1","undefined","1","right","60","60","0","0","60","NA","60","0","0","60","60","60","60","0","60","0","NA","10/24/21 19:15:55","","yes","SternbergTask.osexp","C:\Users\mmcel\OneDrive\GRAD SCHOOL\fall 2021\Advanced Quant","no","mono","no","18","no","white","no","yes","768","psycho","48","11","C:/Users/mmcel/OneDrive/GRAD SCHOOL/fall 2021/Advanced Quant/sternberg/MM-subject-3.csv","psycho","6 2 9 3 8 4","Lentiform Loewenfeld","3.3.9","0","n","0","right","right","left","right","NA","520.021699951","1562.64840002","13941.8273","520.021699951","NA","NA","NA","2","legacy","6","1024","2","48000","-16","experiment","3","odd","1","371484.0123","372564.2083","89838.505","3481.13730003","372567.4041","NA","335904.6912","3509.53049998","75896.01","374773.4595","376776.552","377297.4858","373570.6132","5073.17019999","376776.3719","NA","NA","Sternberg Task","49","31817.1967001","61","yes","1024"
"80.6451612903","80.6451612903","519.890237098","519.890237098","black","experiment","psycho","psycho","psycho","0","uniform","1","undefined","1","right","61","61","0","0","61","NA","61","0","0","61","61","61","61","0","61","0","NA","10/24/21 19:15:55","","yes","SternbergTask.osexp","C:\Users\mmcel\OneDrive\GRAD SCHOOL\fall 2021\Advanced Quant","no","mono","no","18","no","white","no","yes","768","psycho","49","11","C:/Users/mmcel/OneDrive/GRAD SCHOOL/fall 2021/Advanced Quant/sternberg/MM-subject-3.csv","psycho","8 9","Lentiform Loewenfeld","3.3.9","0","n","0","right","right","left","right","NA","415.998000011","1562.64840002","13941.8273","415.998000011","NA","NA","NA","2","legacy","2","1024","2","48000","-16","experiment","3","odd","5","377352.9545","378438.8219","89838.505","3481.13730003","378441.9752","NA","335904.6912","3509.53049998","75896.01","380648.972","382652.7102","383069.6652","379445.5707","5073.17019999","382652.5056","NA","NA","Sternberg Task","50","32233.1947001","62","yes","1024"
"79.3650793651","79.3650793651","522.021774604","522.021774604","black","experiment","psycho","psycho","psycho","0","uniform","0","undefined","0","right","62","62","0","0","62","NA","62","0","0","62","62","62","62","0","62","0","NA","10/24/21 19:15:55","","yes","SternbergTask.osexp","C:\Users\mmcel\OneDrive\GRAD SCHOOL\fall 2021\Advanced Quant","no","mono","no","18","no","white","no","yes","768","psycho","50","11","C:/Users/mmcel/OneDrive/GRAD SCHOOL/fall 2021/Advanced Quant/sternberg/MM-subject-3.csv","psycho","7 1 5 6 3","Lentiform Loewenfeld","3.3.9","0","n","0","left","right","left","left","NA","654.17709999","1562.64840002","13941.8273","654.17709999","NA","NA","NA","2","legacy","5","1024","2","48000","-16","experiment","3","odd","8","383106.201","384185.955","89838.505","3481.13730003","384189.4985","NA","335904.6912","3509.53049998","75896.01","386395.7459","388399.2563","389054.3244","385192.609","5073.17019999","388399.0823","NA","NA","Sternberg Task","50","32887.3718001","63","yes","1024"
"79.6875","79.6875","523.747048438","523.747048438","black","experiment","psycho","psycho","psycho","0","uniform","1","undefined","1","right","63","63","0","0","63","NA","63","0","0","63","63","63","63","0","63","0","NA","10/24/21 19:15:55","","yes","SternbergTask.osexp","C:\Users\mmcel\OneDrive\GRAD SCHOOL\fall 2021\Advanced Quant","no","mono","no","18","no","white","no","yes","768","psycho","51","11","C:/Users/mmcel/OneDrive/GRAD SCHOOL/fall 2021/Advanced Quant/sternberg/MM-subject-3.csv","psycho","6 3 1 7 9 8","Lentiform Loewenfeld","3.3.9","0","n","0","right","right","left","right","NA","632.439299952","1562.64840002","13941.8273","632.439299952","NA","NA","NA","2","legacy","6","1024","2","48000","-16","experiment","3","odd","4","383106.201","390224.4201","89838.505","3481.13730003","390227.8049","NA","389142.6826","3509.53049998","75896.01","392433.799","394437.802","395071.1764","391231.0931","5073.17019999","394437.6384","NA","NA","Sternberg Task","51","33519.8111","64","yes","1024"
"80","80","526.063486155","526.063486155","black","experiment","psycho","psycho","psycho","0","uniform","1","undefined","1","left","64","64","0","0","64","NA","64","0","0","64","64","64","64","0","64","0","NA","10/24/21 19:15:55","","yes","SternbergTask.osexp","C:\Users\mmcel\OneDrive\GRAD SCHOOL\fall 2021\Advanced Quant","no","mono","no","18","no","white","no","yes","768","psycho","52","11","C:/Users/mmcel/OneDrive/GRAD SCHOOL/fall 2021/Advanced Quant/sternberg/MM-subject-3.csv","psycho","9 4 2","Lentiform Loewenfeld","3.3.9","1","y","0","left","right","left","left","NA","674.315500015","1562.64840002","13941.8273","674.315500015","NA","NA","NA","2","legacy","3","1024","2","48000","-16","experiment","3","odd","9","395120.2003","396202.0349","89838.505","3481.13730003","396205.5049","NA","389142.6826","3509.53049998","75896.01","398412.0475","400415.9442","401091.2816","397208.9519","5073.17019999","400415.7915","NA","NA","Sternberg Task","52","34194.1266001","65","yes","1024"
"80.303030303","80.303030303","527.031522728","527.031522728","black","experiment","psycho","psycho","psycho","0","uniform","1","undefined","1","right","65","65","0","0","65","NA","65","0","0","65","65","65","65","0","65","0","NA","10/24/21 19:15:55","","yes","SternbergTask.osexp","C:\Users\mmcel\OneDrive\GRAD SCHOOL\fall 2021\Advanced Quant","no","mono","no","18","no","white","no","yes","768","psycho","53","11","C:/Users/mmcel/OneDrive/GRAD SCHOOL/fall 2021/Advanced Quant/sternberg/MM-subject-3.csv","psycho","6 8 4","Lentiform Loewenfeld","3.3.9","0","n","0","right","right","left","right","NA","589.953900024","1562.64840002","13941.8273","589.953900024","NA","NA","NA","2","legacy","3","1024","2","48000","-16","experiment","3","odd","1","401142.0011","402224.0466","89838.505","3481.13730003","402227.3739","NA","389142.6826","3509.53049998","75896.01","404434.3576","406438.4753","407029.4255","403231.304","5073.17019999","406438.2813","NA","NA","Sternberg Task","53","34784.0805001","66","yes","1024"
"79.1044776119","79.1044776119","528.019349255","528.019349255","black","experiment","psycho","psycho","psycho","0","uniform","0","undefined","0","right","66","66","0","0","66","NA","66","0","0","66","66","66","66","0","66","0","NA","10/24/21 19:15:55","","yes","SternbergTask.osexp","C:\Users\mmcel\OneDrive\GRAD SCHOOL\fall 2021\Advanced Quant","no","mono","no","18","no","white","no","yes","768","psycho","54","11","C:/Users/mmcel/OneDrive/GRAD SCHOOL/fall 2021/Advanced Quant/sternberg/MM-subject-3.csv","psycho","1 6 4 3 9 7","Lentiform Loewenfeld","3.3.9","0","n","0","left","right","left","left","NA","593.215900008","1562.64840002","13941.8273","593.215900008","NA","NA","NA","2","legacy","6","1024","2","48000","-16","experiment","3","odd","8","407088.2802","408168.2495","89838.505","3481.13730003","408171.6486","NA","389142.6826","3509.53049998","75896.01","410378.4145","412381.678","412975.8273","409174.9339","5073.17019999","412381.5006","NA","NA","Sternberg Task","53","35377.2964001","67","yes","1024"
"79.4117647059","79.4117647059","526.522444119","526.522444119","black","experiment","psycho","psycho","psycho","0","uniform","1","undefined","1","left","67","67","0","0","67","NA","67","0","0","67","67","67","67","0","67","0","NA","10/24/21 19:15:55","","yes","SternbergTask.osexp","C:\Users\mmcel\OneDrive\GRAD SCHOOL\fall 2021\Advanced Quant","no","mono","no","18","no","white","no","yes","768","psycho","55","11","C:/Users/mmcel/OneDrive/GRAD SCHOOL/fall 2021/Advanced Quant/sternberg/MM-subject-3.csv","psycho","3 4 9 6 2 9","Lentiform Loewenfeld","3.3.9","5","y","0","left","right","left","left","NA","426.229799981","1562.64840002","13941.8273","426.229799981","NA","NA","NA","2","legacy","6","1024","2","48000","-16","experiment","3","odd","2","407088.2802","414117.0137","89838.505","3481.13730003","414120.4978","NA","413033.3413","3509.53049998","75896.01","416326.9343","418330.2542","418757.4813","415123.8045","5073.17019999","418330.0599","NA","NA","Sternberg Task","54","35803.5262001","68","yes","1024"
"79.7101449275","79.7101449275","526.683220291","526.683220291","black","experiment","psycho","psycho","psycho","0","uniform","1","undefined","1","right","68","68","0","0","68","NA","68","0","0","68","68","68","68","0","68","0","NA","10/24/21 19:15:55","","yes","SternbergTask.osexp","C:\Users\mmcel\OneDrive\GRAD SCHOOL\fall 2021\Advanced Quant","no","mono","no","18","no","white","no","yes","768","psycho","56","11","C:/Users/mmcel/OneDrive/GRAD SCHOOL/fall 2021/Advanced Quant/sternberg/MM-subject-3.csv","psycho","5 9 2 3","Lentiform Loewenfeld","3.3.9","0","n","0","right","right","left","right","NA","537.615999987","1562.64840002","13941.8273","537.615999987","NA","NA","NA","2","legacy","4","1024","2","48000","-16","experiment","3","odd","8","418811.1858","419891.1308","89838.505","3481.13730003","419894.8126","NA","413033.3413","3509.53049998","75896.01","422101.0687","424104.2913","424642.92","420898.3376","5073.17019999","424104.0804","NA","NA","Sternberg Task","55","36341.1422","69","yes","1024"
"80","80","524.716527144","524.716527144","black","experiment","psycho","psycho","psycho","0","uniform","1","undefined","1","left","69","69","0","0","69","NA","69","0","0","69","69","69","69","0","69","0","NA","10/24/21 19:15:55","","yes","SternbergTask.osexp","C:\Users\mmcel\OneDrive\GRAD SCHOOL\fall 2021\Advanced Quant","no","mono","no","18","no","white","no","yes","768","psycho","57","11","C:/Users/mmcel/OneDrive/GRAD SCHOOL/fall 2021/Advanced Quant/sternberg/MM-subject-3.csv","psycho","5 2 6","Lentiform Loewenfeld","3.3.9","2","y","0","left","right","left","left","NA","389.01470002","1562.64840002","13941.8273","389.01470002","NA","NA","NA","2","legacy","3","1024","2","48000","-16","experiment","3","odd","2","424699.6237","425779.9045","89838.505","3481.13730003","425783.2439","NA","413033.3413","3509.53049998","75896.01","427989.8859","429993.9306","430383.9171","426786.6275","5073.17019999","429993.7595","NA","NA","Sternberg Task","56","36730.1569001","70","yes","1024"
"80.2816901408","80.2816901408","524.378152113","524.378152113","black","experiment","psycho","psycho","psycho","0","uniform","1","undefined","1","left","70","70","0","0","70","NA","70","0","0","70","70","70","70","0","70","0","NA","10/24/21 19:15:55","","yes","SternbergTask.osexp","C:\Users\mmcel\OneDrive\GRAD SCHOOL\fall 2021\Advanced Quant","no","mono","no","18","no","white","no","yes","768","psycho","58","11","C:/Users/mmcel/OneDrive/GRAD SCHOOL/fall 2021/Advanced Quant/sternberg/MM-subject-3.csv","psycho","8 3","Lentiform Loewenfeld","3.3.9","2","y","0","left","right","left","left","NA","500.691899972","1562.64840002","13941.8273","500.691899972","NA","NA","NA","2","legacy","2","1024","2","48000","-16","experiment","3","odd","3","430408.7872","431490.8696","89838.505","3481.13730003","431494.7692","NA","413033.3413","3509.53049998","75896.01","433700.7434","435703.9394","436205.6366","432498.3084","5073.17019999","435703.7786","NA","NA","Sternberg Task","57","37230.8488","71","yes","1024"
"80.5555555556","80.5555555556","523.210136112","523.210136112","black","experiment","psycho","psycho","psycho","0","uniform","1","undefined","1","right","71","71","0","0","71","NA","71","0","0","71","71","71","71","0","71","0","NA","10/24/21 19:15:55","","yes","SternbergTask.osexp","C:\Users\mmcel\OneDrive\GRAD SCHOOL\fall 2021\Advanced Quant","no","mono","no","18","no","white","no","yes","768","psycho","59","11","C:/Users/mmcel/OneDrive/GRAD SCHOOL/fall 2021/Advanced Quant/sternberg/MM-subject-3.csv","psycho","4 1","Lentiform Loewenfeld","3.3.9","0","n","0","right","right","left","right","NA","440.280999988","1562.64840002","13941.8273","440.280999988","NA","NA","NA","2","legacy","2","1024","2","48000","-16","experiment","3","odd","6","436253.7707","437335.4281","89838.505","3481.13730003","437338.8412","NA","413033.3413","3509.53049998","75896.01","439545.9327","441549.2739","441990.5727","438342.357","5073.17019999","441549.1061","NA","NA","Sternberg Task","58","37671.1298","72","yes","1024"
"79.4520547945","79.4520547945","523.977169864","523.977169864","black","experiment","psycho","psycho","psycho","0","uniform","0","undefined","0","left","72","72","0","0","72","NA","72","0","0","72","72","72","72","0","72","0","NA","10/24/21 19:15:55","","yes","SternbergTask.osexp","C:\Users\mmcel\OneDrive\GRAD SCHOOL\fall 2021\Advanced Quant","no","mono","no","18","no","white","no","yes","768","psycho","60","11","C:/Users/mmcel/OneDrive/GRAD SCHOOL/fall 2021/Advanced Quant/sternberg/MM-subject-3.csv","psycho","7 1 8 5 6 2","Lentiform Loewenfeld","3.3.9","2","y","0","right","right","left","right","NA","579.203600006","1562.64840002","13941.8273","579.203600006","NA","NA","NA","2","legacy","6","1024","2","48000","-16","experiment","3","odd","1","442045.2043","443124.1889","89838.505","3481.13730003","443127.6012","NA","413033.3413","3509.53049998","75896.01","445334.182","447337.2534","447917.458","444131.1582","5073.17019999","447337.0831","NA","NA","Sternberg Task","58","38250.3334","73","yes","1024"
"79.7297297297","79.7297297297","522.838989189","522.838989189","black","experiment","psycho","psycho","psycho","0","uniform","1","undefined","1","right","73","73","0","0","73","NA","73","0","0","73","73","73","73","0","73","0","NA","10/24/21 19:15:55","","yes","SternbergTask.osexp","C:\Users\mmcel\OneDrive\GRAD SCHOOL\fall 2021\Advanced Quant","no","mono","no","18","no","white","no","yes","768","psycho","61","11","C:/Users/mmcel/OneDrive/GRAD SCHOOL/fall 2021/Advanced Quant/sternberg/MM-subject-3.csv","psycho","8 6 3 4 7","Lentiform Loewenfeld","3.3.9","0","n","0","right","right","left","right","NA","439.751799975","1562.64840002","13941.8273","439.751799975","NA","NA","NA","2","legacy","5","1024","2","48000","-16","experiment","3","odd","1","442045.2043","449044.7695","89838.505","3481.13730003","449048.4267","NA","447965.6664","3509.53049998","75896.01","451255.7633","453259.0904","453699.8364","450052.2572","5073.17019999","453258.9291","NA","NA","Sternberg Task","59","38690.0852","74","yes","1024"
"80","80","521.294865333","521.294865333","black","experiment","psycho","psycho","psycho","0","uniform","1","undefined","1","right","74","74","0","0","74","NA","74","0","0","74","74","74","74","0","74","0","NA","10/24/21 19:15:55","","yes","SternbergTask.osexp","C:\Users\mmcel\OneDrive\GRAD SCHOOL\fall 2021\Advanced Quant","no","mono","no","18","no","white","no","yes","768","psycho","62","11","C:/Users/mmcel/OneDrive/GRAD SCHOOL/fall 2021/Advanced Quant/sternberg/MM-subject-3.csv","psycho","5","Lentiform Loewenfeld","3.3.9","0","n","0","right","right","left","right","NA","407.0297","1562.64840002","13941.8273","407.0297","NA","NA","NA","2","legacy","1","1024","2","48000","-16","experiment","3","odd","8","453753.9593","454837.3679","89838.505","3481.13730003","454840.8375","NA","447965.6664","3509.53049998","75896.01","457047.4212","459051.0933","459459.2228","455844.6527","5073.17019999","459050.9147","NA","NA","Sternberg Task","60","39097.1149","75","yes","1024"
"80.2631578947","80.2631578947","522.893140789","522.893140789","black","experiment","psycho","psycho","psycho","0","uniform","1","undefined","1","right","75","75","0","0","75","NA","75","0","0","75","75","75","75","0","75","0","NA","10/24/21 19:15:55","","yes","SternbergTask.osexp","C:\Users\mmcel\OneDrive\GRAD SCHOOL\fall 2021\Advanced Quant","no","mono","no","18","no","white","no","yes","768","psycho","63","11","C:/Users/mmcel/OneDrive/GRAD SCHOOL/fall 2021/Advanced Quant/sternberg/MM-subject-3.csv","psycho","7 6 4 8 1 2","Lentiform Loewenfeld","3.3.9","0","n","0","right","right","left","right","NA","642.763799988","1562.64840002","13941.8273","642.763799988","NA","NA","NA","2","legacy","6","1024","2","48000","-16","experiment","3","odd","9","459509.883","460589.207","89838.505","3481.13730003","460592.716","NA","447965.6664","3509.53049998","75896.01","462799.8256","464803.7183","465447.4821","461596.3348","5073.17019999","464803.5609","NA","NA","Sternberg Task","61","39739.8787","76","yes","1024"
"80.5194805195","80.5194805195","521.292228571","521.292228571","black","experiment","psycho","psycho","psycho","0","uniform","1","undefined","1","right","76","76","0","0","76","NA","76","0","0","76","76","76","76","0","76","0","NA","10/24/21 19:15:55","","yes","SternbergTask.osexp","C:\Users\mmcel\OneDrive\GRAD SCHOOL\fall 2021\Advanced Quant","no","mono","no","18","no","white","no","yes","768","psycho","64","11","C:/Users/mmcel/OneDrive/GRAD SCHOOL/fall 2021/Advanced Quant/sternberg/MM-subject-3.csv","psycho","6 9 5","Lentiform Loewenfeld","3.3.9","0","n","0","right","right","left","right","NA","399.622900004","1562.64840002","13941.8273","399.622900004","NA","NA","NA","2","legacy","3","1024","2","48000","-16","experiment","3","odd","8","465502.0823","466581.7092","89838.505","3481.13730003","466585.0326","NA","447965.6664","3509.53049998","75896.01","468790.9767","470794.2076","471194.8485","467588.3261","5073.17019999","470794.0456","NA","NA","Sternberg Task","62","40139.5016","77","yes","1024"
"79.4871794872","79.4871794872","524.154630769","524.154630769","black","experiment","psycho","psycho","psycho","0","uniform","0","undefined","0","right","77","77","0","0","77","NA","77","0","0","77","77","77","77","0","77","0","NA","10/24/21 19:15:55","","yes","SternbergTask.osexp","C:\Users\mmcel\OneDrive\GRAD SCHOOL\fall 2021\Advanced Quant","no","mono","no","18","no","white","no","yes","768","psycho","65","11","C:/Users/mmcel/OneDrive/GRAD SCHOOL/fall 2021/Advanced Quant/sternberg/MM-subject-3.csv","psycho","1 4 3 6 5","Lentiform Loewenfeld","3.3.9","0","n","0","left","right","left","left","NA","744.55959996","1562.64840002","13941.8273","744.55959996","NA","NA","NA","2","legacy","5","1024","2","48000","-16","experiment","3","odd","8","471243.9233","472325.4506","89838.505","3481.13730003","472328.804","NA","447965.6664","3509.53049998","75896.01","474534.5259","476538.2028","477283.7766","473331.9593","5073.17019999","476538.0027","NA","NA","Sternberg Task","62","40884.0612","78","yes","1024"
"79.746835443","79.746835443","524.53286329","524.53286329","black","experiment","psycho","psycho","psycho","0","uniform","1","undefined","1","left","78","78","0","0","78","NA","78","0","0","78","78","78","78","0","78","0","NA","10/24/21 19:15:55","","yes","SternbergTask.osexp","C:\Users\mmcel\OneDrive\GRAD SCHOOL\fall 2021\Advanced Quant","no","mono","no","18","no","white","no","yes","768","psycho","66","11","C:/Users/mmcel/OneDrive/GRAD SCHOOL/fall 2021/Advanced Quant/sternberg/MM-subject-3.csv","psycho","9 3 8 2 1 4","Lentiform Loewenfeld","3.3.9","3","y","0","left","right","left","left","NA","554.034999979","1562.64840002","13941.8273","554.034999979","NA","NA","NA","2","legacy","6","1024","2","48000","-16","experiment","3","odd","8","471243.9233","478416.2652","89838.505","3481.13730003","478419.6674","NA","477332.8386","3509.53049998","75896.01","480626.3956","482629.4579","483184.5817","479423.4042","5073.17019999","482629.298","NA","NA","Sternberg Task","63","41438.0961999","79","yes","1024"
"80","80","523.762514999","523.762514999","black","experiment","psycho","psycho","psycho","0","uniform","1","undefined","1","right","79","79","0","0","79","NA","79","0","0","79","79","79","79","0","79","0","NA","10/24/21 19:15:55","","yes","SternbergTask.osexp","C:\Users\mmcel\OneDrive\GRAD SCHOOL\fall 2021\Advanced Quant","no","mono","no","18","no","white","no","yes","768","psycho","67","11","C:/Users/mmcel/OneDrive/GRAD SCHOOL/fall 2021/Advanced Quant/sternberg/MM-subject-3.csv","psycho","1 3 2 6 9","Lentiform Loewenfeld","3.3.9","0","n","0","right","right","left","right","NA","462.904999964","1562.64840002","13941.8273","462.904999964","NA","NA","NA","2","legacy","5","1024","2","48000","-16","experiment","3","odd","5","483235.6231","484317.9933","89838.505","3481.13730003","484321.4514","NA","477332.8386","3509.53049998","75896.01","486527.3225","488530.1146","488994.0899","485324.61","5073.17019999","488529.9332","NA","NA","Sternberg Task","64","41901.0011999","80","yes","1024"
"80.2469135802","80.2469135802","525.523782715","525.523782715","black","experiment","psycho","psycho","psycho","0","uniform","1","undefined","1","left","80","80","0","0","80","NA","80","0","0","80","80","80","80","0","80","0","NA","10/24/21 19:15:55","","yes","SternbergTask.osexp","C:\Users\mmcel\OneDrive\GRAD SCHOOL\fall 2021\Advanced Quant","no","mono","no","18","no","white","no","yes","768","psycho","68","11","C:/Users/mmcel/OneDrive/GRAD SCHOOL/fall 2021/Advanced Quant/sternberg/MM-subject-3.csv","psycho","8 5 1 3 9","Lentiform Loewenfeld","3.3.9","4","y","0","left","right","left","left","NA","666.425200005","1562.64840002","13941.8273","666.425200005","NA","NA","NA","2","legacy","5","1024","2","48000","-16","experiment","3","odd","3","489060.026","490138.523","89838.505","3481.13730003","490142.0474","NA","477332.8386","3509.53049998","75896.01","492348.5641","494352.0439","495019.5267","491145.3444","5073.17019999","494351.8468","NA","NA","Sternberg Task","65","42567.4263999","81","yes","1024"
"80.487804878","80.487804878","525.550423169","525.550423169","black","experiment","psycho","psycho","psycho","0","uniform","1","undefined","1","left","81","81","0","0","81","NA","81","0","0","81","81","81","81","0","81","0","NA","10/24/21 19:15:55","","yes","SternbergTask.osexp","C:\Users\mmcel\OneDrive\GRAD SCHOOL\fall 2021\Advanced Quant","no","mono","no","18","no","white","no","yes","768","psycho","69","11","C:/Users/mmcel/OneDrive/GRAD SCHOOL/fall 2021/Advanced Quant/sternberg/MM-subject-3.csv","psycho","2 3 7 4","Lentiform Loewenfeld","3.3.9","1","y","0","left","right","left","left","NA","527.708299982","1562.64840002","13941.8273","527.708299982","NA","NA","NA","2","legacy","4","1024","2","48000","-16","experiment","3","odd","2","495068.0576","496146.4347","89838.505","3481.13730003","496149.8485","NA","477332.8386","3509.53049998","75896.01","498357.2291","500361.3282","500890.0576","497153.4877","5073.17019999","500361.1151","NA","NA","Sternberg Task","66","43095.1346999","82","yes","1024"
"80.7228915663","80.7228915663","526.277789155","526.277789155","black","experiment","psycho","psycho","psycho","0","uniform","1","undefined","1","left","82","82","0","0","82","NA","82","0","0","82","82","82","82","0","82","0","NA","10/24/21 19:15:55","","yes","SternbergTask.osexp","C:\Users\mmcel\OneDrive\GRAD SCHOOL\fall 2021\Advanced Quant","no","mono","no","18","no","white","no","yes","768","psycho","70","11","C:/Users/mmcel/OneDrive/GRAD SCHOOL/fall 2021/Advanced Quant/sternberg/MM-subject-3.csv","psycho","4 7 6 8 2 3","Lentiform Loewenfeld","3.3.9","6","y","0","left","right","left","left","NA","585.921799997","1562.64840002","13941.8273","585.921799997","NA","NA","NA","2","legacy","6","1024","2","48000","-16","experiment","3","odd","3","500945.6104","502024.5279","89838.505","3481.13730003","502027.9536","NA","477332.8386","3509.53049998","75896.01","504235.6787","506239.0102","506826.1122","503031.9345","5073.17019999","506238.8444","NA","NA","Sternberg Task","67","43681.0564999","83","yes","1024"
"80.9523809524","80.9523809524","526.595424999","526.595424999","black","experiment","psycho","psycho","psycho","0","uniform","1","undefined","1","left","83","83","0","0","83","NA","83","0","0","83","83","83","83","0","83","0","NA","10/24/21 19:15:55","","yes","SternbergTask.osexp","C:\Users\mmcel\OneDrive\GRAD SCHOOL\fall 2021\Advanced Quant","no","mono","no","18","no","white","no","yes","768","psycho","71","11","C:/Users/mmcel/OneDrive/GRAD SCHOOL/fall 2021/Advanced Quant/sternberg/MM-subject-3.csv","psycho","9 5 8 1","Lentiform Loewenfeld","3.3.9","2","y","0","left","right","left","left","NA","552.959200053","1562.64840002","13941.8273","552.959200053","NA","NA","NA","2","legacy","4","1024","2","48000","-16","experiment","3","odd","5","506879.2655","507959.4146","89838.505","3481.13730003","507962.8953","NA","477332.8386","3509.53049998","75896.01","510171.0145","512174.0812","512728.0937","508967.3414","5073.17019999","512173.8892","NA","NA","Sternberg Task","68","44234.0156999","84","yes","1024"
"81.1764705882","81.1764705882","527.027827058","527.027827058","black","experiment","psycho","psycho","psycho","0","uniform","1","undefined","1","left","84","84","0","0","84","NA","84","0","0","84","84","84","84","0","84","0","NA","10/24/21 19:15:55","","yes","SternbergTask.osexp","C:\Users\mmcel\OneDrive\GRAD SCHOOL\fall 2021\Advanced Quant","no","mono","no","18","no","white","no","yes","768","psycho","72","11","C:/Users/mmcel/OneDrive/GRAD SCHOOL/fall 2021/Advanced Quant/sternberg/MM-subject-3.csv","psycho","3 5 7 1","Lentiform Loewenfeld","3.3.9","3","y","0","left","right","left","left","NA","563.349600008","1562.64840002","13941.8273","563.349600008","NA","NA","NA","2","legacy","4","1024","2","48000","-16","experiment","3","odd","7","512793.1665","513872.1713","89838.505","3481.13730003","513875.6274","NA","477332.8386","3509.53049998","75896.01","516081.1756","518084.455","518648.9445","514878.5318","5073.17019999","518084.2792","NA","NA","Sternberg Task","69","44797.3652999","85","yes","1024"
"81.3953488372","81.3953488372","526.614632558","526.614632558","black","experiment","psycho","psycho","psycho","0","uniform","1","undefined","1","right","85","85","0","0","85","NA","85","0","0","85","85","85","85","0","85","0","NA","10/24/21 19:15:55","","yes","SternbergTask.osexp","C:\Users\mmcel\OneDrive\GRAD SCHOOL\fall 2021\Advanced Quant","no","mono","no","18","no","white","no","yes","768","psycho","73","11","C:/Users/mmcel/OneDrive/GRAD SCHOOL/fall 2021/Advanced Quant/sternberg/MM-subject-3.csv","psycho","5 3 8 7 2 4","Lentiform Loewenfeld","3.3.9","0","n","0","right","right","left","right","NA","491.493100009","1562.64840002","13941.8273","491.493100009","NA","NA","NA","2","legacy","6","1024","2","48000","-16","experiment","3","odd","9","518736.6639","519817.8099","89838.505","3481.13730003","519821.3256","NA","477332.8386","3509.53049998","75896.01","522027.5782","524030.9995","524523.7781","520824.7624","5073.17019999","524030.7689","NA","NA","Sternberg Task","70","45288.8584","86","yes","1024"
"81.6091954023","81.6091954023","525.547511494","525.547511494","black","experiment","psycho","psycho","psycho","0","uniform","1","undefined","1","left","86","86","0","0","86","NA","86","0","0","86","86","86","86","0","86","0","NA","10/24/21 19:15:55","","yes","SternbergTask.osexp","C:\Users\mmcel\OneDrive\GRAD SCHOOL\fall 2021\Advanced Quant","no","mono","no","18","no","white","no","yes","768","psycho","74","11","C:/Users/mmcel/OneDrive/GRAD SCHOOL/fall 2021/Advanced Quant/sternberg/MM-subject-3.csv","psycho","6 7 9 3 1 2","Lentiform Loewenfeld","3.3.9","1","y","0","left","right","left","left","NA","433.775100042","1562.64840002","13941.8273","433.775100042","NA","NA","NA","2","legacy","6","1024","2","48000","-16","experiment","3","odd","6","524570.8235","525650.2277","89838.505","3481.13730003","525653.5853","NA","477332.8386","3509.53049998","75896.01","527859.6689","529862.4759","530297.3614","526656.9318","5073.17019999","529862.2674","NA","NA","Sternberg Task","71","45722.6335","87","yes","1024"
"81.8181818182","81.8181818182","524.821848864","524.821848864","black","experiment","psycho","psycho","psycho","0","uniform","1","undefined","1","right","87","87","0","0","87","NA","87","0","0","87","87","87","87","0","87","0","NA","10/24/21 19:15:55","","yes","SternbergTask.osexp","C:\Users\mmcel\OneDrive\GRAD SCHOOL\fall 2021\Advanced Quant","no","mono","no","18","no","white","no","yes","768","psycho","75","11","C:/Users/mmcel/OneDrive/GRAD SCHOOL/fall 2021/Advanced Quant/sternberg/MM-subject-3.csv","psycho","2 5 1 4","Lentiform Loewenfeld","3.3.9","0","n","0","right","right","left","right","NA","461.689200019","1562.64840002","13941.8273","461.689200019","NA","NA","NA","2","legacy","4","1024","2","48000","-16","experiment","3","odd","6","530346.9898","531429.0369","89838.505","3481.13730003","531432.5501","NA","477332.8386","3509.53049998","75896.01","533638.9844","535642.0022","536104.8269","532435.8591","5073.17019999","535641.7884","NA","NA","Sternberg Task","72","46184.3227","88","yes","1024"
"82.0224719101","82.0224719101","523.535253933","523.535253933","black","experiment","psycho","psycho","psycho","0","uniform","1","undefined","1","left","88","88","0","0","88","NA","88","0","0","88","88","88","88","0","88","0","NA","10/24/21 19:15:55","","yes","SternbergTask.osexp","C:\Users\mmcel\OneDrive\GRAD SCHOOL\fall 2021\Advanced Quant","no","mono","no","18","no","white","no","yes","768","psycho","76","11","C:/Users/mmcel/OneDrive/GRAD SCHOOL/fall 2021/Advanced Quant/sternberg/MM-subject-3.csv","psycho","2 3","Lentiform Loewenfeld","3.3.9","1","y","0","left","right","left","left","NA","410.314899986","1562.64840002","13941.8273","410.314899986","NA","NA","NA","2","legacy","2","1024","2","48000","-16","experiment","3","odd","2","536140.015","537221.7639","89838.505","3481.13730003","537225.3451","NA","477332.8386","3509.53049998","75896.01","539432.0771","541436.2183","541847.6682","538229.3984","5073.17019999","541436.0346","NA","NA","Sternberg Task","73","46594.6376","89","yes","1024"
"82.2222222222","82.2222222222","524.019317778","524.019317778","black","experiment","psycho","psycho","psycho","0","uniform","1","undefined","1","right","89","89","0","0","89","NA","89","0","0","89","89","89","89","0","89","0","NA","10/24/21 19:15:55","","yes","SternbergTask.osexp","C:\Users\mmcel\OneDrive\GRAD SCHOOL\fall 2021\Advanced Quant","no","mono","no","18","no","white","no","yes","768","psycho","77","11","C:/Users/mmcel/OneDrive/GRAD SCHOOL/fall 2021/Advanced Quant/sternberg/MM-subject-3.csv","psycho","8 4 3 5","Lentiform Loewenfeld","3.3.9","0","n","0","right","right","left","right","NA","567.100999993","1562.64840002","13941.8273","567.100999993","NA","NA","NA","2","legacy","4","1024","2","48000","-16","experiment","3","odd","6","541920.8604","543003.7661","89838.505","3481.13730003","543007.2871","NA","477332.8386","3509.53049998","75896.01","545213.0669","547216.8719","547785.4648","544009.7365","5073.17019999","547216.7083","NA","NA","Sternberg Task","74","47161.7386","90","yes","1024"
"82.4175824176","82.4175824176","522.855672527","522.855672527","black","experiment","psycho","psycho","psycho","0","uniform","1","undefined","1","right","90","90","0","0","90","NA","90","0","0","90","90","90","90","0","90","0","NA","10/24/21 19:15:55","","yes","SternbergTask.osexp","C:\Users\mmcel\OneDrive\GRAD SCHOOL\fall 2021\Advanced Quant","no","mono","no","18","no","white","no","yes","768","psycho","78","11","C:/Users/mmcel/OneDrive/GRAD SCHOOL/fall 2021/Advanced Quant/sternberg/MM-subject-3.csv","psycho","7 9 1 6","Lentiform Loewenfeld","3.3.9","0","n","0","right","right","left","right","NA","418.127599987","1562.64840002","13941.8273","418.127599987","NA","NA","NA","2","legacy","4","1024","2","48000","-16","experiment","3","odd","4","547814.8106","548895.1638","89838.505","3481.13730003","548898.3387","NA","477332.8386","3509.53049998","75896.01","551105.4372","553109.1238","553528.4745","549901.8449","5073.17019999","553108.9284","NA","NA","Sternberg Task","75","47579.8662","91","yes","1024"
"82.6086956522","82.6086956522","521.391229348","521.391229348","black","experiment","psycho","psycho","psycho","0","uniform","1","undefined","1","left","91","91","0","0","91","NA","91","0","0","91","91","91","91","0","91","0","NA","10/24/21 19:15:55","","yes","SternbergTask.osexp","C:\Users\mmcel\OneDrive\GRAD SCHOOL\fall 2021\Advanced Quant","no","mono","no","18","no","white","no","yes","768","psycho","79","11","C:/Users/mmcel/OneDrive/GRAD SCHOOL/fall 2021/Advanced Quant/sternberg/MM-subject-3.csv","psycho","7","Lentiform Loewenfeld","3.3.9","1","y","0","left","right","left","left","NA","388.126900012","1562.64840002","13941.8273","388.126900012","NA","NA","NA","2","legacy","1","1024","2","48000","-16","experiment","3","odd","7","553583.4778","554662.7745","89838.505","3481.13730003","554666.2023","NA","477332.8386","3509.53049998","75896.01","556872.1429","558876.4064","559265.6752","555668.8142","5073.17019999","558876.2199","NA","NA","Sternberg Task","76","47967.9931","92","yes","1024"
"82.7956989247","82.7956989247","521.503360215","521.503360215","black","experiment","psycho","psycho","psycho","0","uniform","1","undefined","1","left","92","92","0","0","92","NA","92","0","0","92","92","92","92","0","92","0","NA","10/24/21 19:15:55","","yes","SternbergTask.osexp","C:\Users\mmcel\OneDrive\GRAD SCHOOL\fall 2021\Advanced Quant","no","mono","no","18","no","white","no","yes","768","psycho","80","11","C:/Users/mmcel/OneDrive/GRAD SCHOOL/fall 2021/Advanced Quant/sternberg/MM-subject-3.csv","psycho","9 5 3 8 4","Lentiform Loewenfeld","3.3.9","1","y","0","left","right","left","left","NA","531.819400028","1562.64840002","13941.8273","531.819400028","NA","NA","NA","2","legacy","5","1024","2","48000","-16","experiment","3","odd","9","559326.0528","560407.5115","89838.505","3481.13730003","560410.9467","NA","477332.8386","3509.53049998","75896.01","562618.014","564621.4984","565154.4645","561415.1287","5073.17019999","564621.3319","NA","NA","Sternberg Task","77","48499.8125","93","yes","1024"
"82.9787234043","82.9787234043","520.859482979","520.859482979","black","experiment","psycho","psycho","psycho","0","uniform","1","undefined","1","left","93","93","0","0","93","NA","93","0","0","93","93","93","93","0","93","0","NA","10/24/21 19:15:55","","yes","SternbergTask.osexp","C:\Users\mmcel\OneDrive\GRAD SCHOOL\fall 2021\Advanced Quant","no","mono","no","18","no","white","no","yes","768","psycho","81","11","C:/Users/mmcel/OneDrive/GRAD SCHOOL/fall 2021/Advanced Quant/sternberg/MM-subject-3.csv","psycho","8 9 6 1","Lentiform Loewenfeld","3.3.9","2","y","0","left","right","left","left","NA","460.978900024","1562.64840002","13941.8273","460.978900024","NA","NA","NA","2","legacy","4","1024","2","48000","-16","experiment","3","odd","9","565181.4181","566265.5472","89838.505","3481.13730003","566268.9205","NA","477332.8386","3509.53049998","75896.01","568475.1621","570478.5955","570940.7462","567271.9111","5073.17019999","570478.4337","NA","NA","Sternberg Task","78","48960.7914001","94","yes","1024"
"83.1578947368","83.1578947368","522.300647369","522.300647369","black","experiment","psycho","psycho","psycho","0","uniform","1","undefined","1","left","94","94","0","0","94","NA","94","0","0","94","94","94","94","0","94","0","NA","10/24/21 19:15:55","","yes","SternbergTask.osexp","C:\Users\mmcel\OneDrive\GRAD SCHOOL\fall 2021\Advanced Quant","no","mono","no","18","no","white","no","yes","768","psycho","82","11","C:/Users/mmcel/OneDrive/GRAD SCHOOL/fall 2021/Advanced Quant/sternberg/MM-subject-3.csv","psycho","3 9 6 2","Lentiform Loewenfeld","3.3.9","4","y","0","left","right","left","left","NA","657.770099991","1562.64840002","13941.8273","657.770099991","NA","NA","NA","2","legacy","4","1024","2","48000","-16","experiment","3","odd","2","570993.0005","572071.0565","89838.505","3481.13730003","572074.5323","NA","477332.8386","3509.53049998","75896.01","574281.4348","576284.7857","576943.7941","573077.8145","5073.17019999","576284.563","NA","NA","Sternberg Task","79","49618.5615","95","yes","1024"
"83.3333333333","83.3333333333","523.293203126","523.293203126","black","experiment","psycho","psycho","psycho","0","uniform","1","undefined","1","right","95","95","0","0","95","NA","95","0","0","95","95","95","95","0","95","0","NA","10/24/21 19:15:55","","yes","SternbergTask.osexp","C:\Users\mmcel\OneDrive\GRAD SCHOOL\fall 2021\Advanced Quant","no","mono","no","18","no","white","no","yes","768","psycho","83","11","C:/Users/mmcel/OneDrive/GRAD SCHOOL/fall 2021/Advanced Quant/sternberg/MM-subject-3.csv","psycho","6 9 7 3 8 2","Lentiform Loewenfeld","3.3.9","0","n","0","right","right","left","right","NA","617.586000008","1562.64840002","13941.8273","617.586000008","NA","NA","NA","2","legacy","6","1024","2","48000","-16","experiment","3","odd","5","577006.8048","578089.1868","89838.505","3481.13730003","578092.8298","NA","477332.8386","3509.53049998","75896.01","580298.7203","582302.8123","582921.7269","579095.9069","5073.17019999","582302.6425","NA","NA","Sternberg Task","80","50236.1475001","96","yes","1024"
"83.5051546392","83.5051546392","522.304519588","522.304519588","black","experiment","psycho","psycho","psycho","0","uniform","1","undefined","1","left","96","96","0","0","96","NA","96","0","0","96","96","96","96","0","96","0","NA","10/24/21 19:15:55","","yes","SternbergTask.osexp","C:\Users\mmcel\OneDrive\GRAD SCHOOL\fall 2021\Advanced Quant","no","mono","no","18","no","white","no","yes","768","psycho","84","11","C:/Users/mmcel/OneDrive/GRAD SCHOOL/fall 2021/Advanced Quant/sternberg/MM-subject-3.csv","psycho","4 1 5","Lentiform Loewenfeld","3.3.9","2","y","0","left","right","left","left","NA","427.390899975","1562.64840002","13941.8273","427.390899975","NA","NA","NA","2","legacy","3","1024","2","48000","-16","experiment","3","odd","1","582974.7547","584056.5643","89838.505","3481.13730003","584060.0604","NA","477332.8386","3509.53049998","75896.01","586267.9317","588272.2083","588700.7684","585064.2324","5073.17019999","588272.0568","NA","NA","Sternberg Task","81","50663.5384","97","yes","1024"
