"acc","accuracy","average_response_time","avg_rt","background","block","canvas_backend","clock_backend","color_backend","compensation","coordinates","correct","correct_instruction1","correct_keyboard_response","correct_response","count_ISI","count_correctFeedback","count_experiment","count_experimentalLoop","count_expsequence","count_fixation","count_incorrectFeedback","count_instruction1","count_instruction2","count_instruction3","count_keyboard_response","count_logger","count_memoryset","count_practiceloop","count_probe","datetime","description","disable_garbage_collection","experiment_file","experiment_path","font_bold","font_family","font_italic","font_size","font_underline","foreground","form_clicks","fullscreen","height","keyboard_backend","live_row","live_row_practiceloop","logfile","mouse_backend","numberSet","opensesame_codename","opensesame_version","posInSet","present","repeat_cycle","response","response_instruction1","response_instruction2","response_instruction3","response_keyboard_response","response_time","response_time_instruction1","response_time_instruction2","response_time_instruction3","response_time_keyboard_response","round_decimals","sampler_backend","setSize","sound_buf_size","sound_channels","sound_freq","sound_sample_size","start","subject_nr","subject_parity","target","time_ISI","time_correctFeedback","time_experiment","time_experimentalLoop","time_expsequence","time_fixation","time_incorrectFeedback","time_instruction1","time_instruction2","time_instruction3","time_keyboard_response","time_logger","time_memoryset","time_practiceloop","time_probe","title","total_correct","total_response_time","total_responses","uniform_coordinates","width"
"100","100","451","451","black","practice","legacy","legacy","legacy","0","uniform","1","undefined","1","left","0","0","0","0","0","0","0","0","0","0","0","0","0","0","0","10/23/22 09:53:51","The main experiment item","yes","SternbergTask.osexp","C:/Users/casme/OneDrive/Desktop/Fall 2022","no","mono","no","18","no","white","no","yes","768","legacy","0","0","C:/Users/casme/OneDrive/Desktop/Fall 2022/IC-subjectx-2.csv","legacy","1 5 2 9","Lentiform Loewenfeld","3.3.12","2","y","0","left","right","NA","NA","left","451","8882","NA","NA","451","2","legacy","4","1024","2","48000","-16","experiment","2","even","5","14493","NA","2523","NA","12284","12286","NA","2526","NA","NA","16497","16948","13288","11409","16497","Sternberg Task","1","451","1","yes","1024"
"100","100","539","539","black","practice","legacy","legacy","legacy","0","uniform","1","undefined","1","left","1","1","0","0","1","1","1","0","0","0","1","1","1","0","1","10/23/22 09:53:51","The main experiment item","yes","SternbergTask.osexp","C:/Users/casme/OneDrive/Desktop/Fall 2022","no","mono","no","18","no","white","no","yes","768","legacy","1","1","C:/Users/casme/OneDrive/Desktop/Fall 2022/IC-subjectx-2.csv","legacy","4 3 1 7 9 8","Lentiform Loewenfeld","3.3.12","1","y","0","left","right","NA","NA","left","627","8882","NA","NA","627","2","legacy","6","1024","2","48000","-16","experiment","2","even","4","20299","16996","2523","NA","18087","18089","NA","2526","NA","NA","22305","22932","19094","11409","22304","Sternberg Task","2","1078","2","yes","1024"
"100","100","523","523","black","practice","legacy","legacy","legacy","0","uniform","1","undefined","1","right","2","2","0","0","2","2","2","0","0","0","2","2","2","0","2","10/23/22 09:53:51","The main experiment item","yes","SternbergTask.osexp","C:/Users/casme/OneDrive/Desktop/Fall 2022","no","mono","no","18","no","white","no","yes","768","legacy","2","2","C:/Users/casme/OneDrive/Desktop/Fall 2022/IC-subjectx-2.csv","legacy","5","Lentiform Loewenfeld","3.3.12","0","n","0","right","right","NA","NA","right","491","8882","NA","NA","491","2","legacy","1","1024","2","48000","-16","experiment","2","even","3","26235","22939","2523","NA","24024","24026","NA","2526","NA","NA","28240","28732","25030","11409","28239","Sternberg Task","3","1569","3","yes","1024"
"100","100","556","556","black","practice","legacy","legacy","legacy","0","uniform","1","undefined","1","left","3","3","0","0","3","3","3","0","0","0","3","3","3","0","3","10/23/22 09:53:51","The main experiment item","yes","SternbergTask.osexp","C:/Users/casme/OneDrive/Desktop/Fall 2022","no","mono","no","18","no","white","no","yes","768","legacy","3","3","C:/Users/casme/OneDrive/Desktop/Fall 2022/IC-subjectx-2.csv","legacy","1 7 9 8 5","Lentiform Loewenfeld","3.3.12","4","y","0","left","right","NA","NA","left","655","8882","NA","NA","655","2","legacy","5","1024","2","48000","-16","experiment","2","even","8","32037","28738","2523","NA","29825","29827","NA","2526","NA","NA","34042","34697","30831","11409","34041","Sternberg Task","4","2224","4","yes","1024"
"100","100","638","638","black","practice","legacy","legacy","legacy","0","uniform","1","undefined","1","left","4","4","0","0","4","4","4","0","0","0","4","4","4","0","4","10/23/22 09:53:51","The main experiment item","yes","SternbergTask.osexp","C:/Users/casme/OneDrive/Desktop/Fall 2022","no","mono","no","18","no","white","no","yes","768","legacy","4","4","C:/Users/casme/OneDrive/Desktop/Fall 2022/IC-subjectx-2.csv","legacy","6","Lentiform Loewenfeld","3.3.12","1","y","0","left","right","NA","NA","left","966","8882","NA","NA","966","2","legacy","1","1024","2","48000","-16","experiment","2","even","6","37997","34703","2523","NA","35787","35788","NA","2526","NA","NA","40000","40966","36793","11409","40000","Sternberg Task","5","3190","5","yes","1024"
"100","100","626.833333333","626.833333333","black","practice","legacy","legacy","legacy","0","uniform","1","undefined","1","right","5","5","0","0","5","5","5","0","0","0","5","5","5","0","5","10/23/22 09:53:51","The main experiment item","yes","SternbergTask.osexp","C:/Users/casme/OneDrive/Desktop/Fall 2022","no","mono","no","18","no","white","no","yes","768","legacy","5","5","C:/Users/casme/OneDrive/Desktop/Fall 2022/IC-subjectx-2.csv","legacy","2 1","Lentiform Loewenfeld","3.3.12","0","n","0","right","right","NA","NA","right","571","8882","NA","NA","571","2","legacy","2","1024","2","48000","-16","experiment","2","even","5","44262","40972","2523","NA","42053","42055","NA","2526","NA","NA","46265","46836","43060","11409","46265","Sternberg Task","6","3761","6","yes","1024"
"100","100","605.142857143","605.142857143","black","practice","legacy","legacy","legacy","0","uniform","1","undefined","1","left","6","6","0","0","6","6","6","0","0","0","6","6","6","0","6","10/23/22 09:53:51","The main experiment item","yes","SternbergTask.osexp","C:/Users/casme/OneDrive/Desktop/Fall 2022","no","mono","no","18","no","white","no","yes","768","legacy","6","6","C:/Users/casme/OneDrive/Desktop/Fall 2022/IC-subjectx-2.csv","legacy","4 8","Lentiform Loewenfeld","3.3.12","1","y","0","left","right","NA","NA","left","475","8882","NA","NA","475","2","legacy","2","1024","2","48000","-16","experiment","2","even","4","50136","46842","2523","NA","47924","47925","NA","2526","NA","NA","52141","52617","48929","11409","52141","Sternberg Task","7","4236","7","yes","1024"
"100","100","614.75","614.75","black","practice","legacy","legacy","legacy","0","uniform","1","undefined","1","right","7","7","0","0","7","7","7","0","0","0","7","7","7","0","7","10/23/22 09:53:51","The main experiment item","yes","SternbergTask.osexp","C:/Users/casme/OneDrive/Desktop/Fall 2022","no","mono","no","18","no","white","no","yes","768","legacy","7","7","C:/Users/casme/OneDrive/Desktop/Fall 2022/IC-subjectx-2.csv","legacy","3 1 9 4","Lentiform Loewenfeld","3.3.12","0","n","0","right","right","NA","NA","right","682","8882","NA","NA","682","2","legacy","4","1024","2","48000","-16","experiment","2","even","6","55917","52623","2523","NA","53709","53711","NA","2526","NA","NA","57922","58604","54712","11409","57921","Sternberg Task","8","4918","8","yes","1024"
"100","100","615.222222222","615.222222222","black","practice","legacy","legacy","legacy","0","uniform","1","undefined","1","left","8","8","0","0","8","8","8","0","0","0","8","8","8","0","8","10/23/22 09:53:51","The main experiment item","yes","SternbergTask.osexp","C:/Users/casme/OneDrive/Desktop/Fall 2022","no","mono","no","18","no","white","no","yes","768","legacy","8","8","C:/Users/casme/OneDrive/Desktop/Fall 2022/IC-subjectx-2.csv","legacy","2 9 4","Lentiform Loewenfeld","3.3.12","3","y","0","left","right","NA","NA","left","619","8882","NA","NA","619","2","legacy","3","1024","2","48000","-16","experiment","2","even","4","61907","58610","2523","NA","59698","59700","NA","2526","NA","NA","63912","64531","60702","11409","63912","Sternberg Task","9","5537","9","yes","1024"
"100","100","637.7","637.7","black","practice","legacy","legacy","legacy","0","uniform","1","undefined","1","right","9","9","0","0","9","9","9","0","0","0","9","9","9","0","9","10/23/22 09:53:51","The main experiment item","yes","SternbergTask.osexp","C:/Users/casme/OneDrive/Desktop/Fall 2022","no","mono","no","18","no","white","no","yes","768","legacy","9","9","C:/Users/casme/OneDrive/Desktop/Fall 2022/IC-subjectx-2.csv","legacy","9 6 7 4 5","Lentiform Loewenfeld","3.3.12","0","n","0","right","right","NA","NA","right","840","8882","NA","NA","840","2","legacy","5","1024","2","48000","-16","experiment","2","even","3","67833","64537","2523","NA","65621","65623","NA","2526","NA","NA","69838","70678","66628","11409","69837","Sternberg Task","10","6377","10","yes","1024"
"100","100","652.545454545","652.545454545","black","practice","legacy","legacy","legacy","0","uniform","1","undefined","1","right","10","10","0","0","10","10","10","0","0","0","10","10","10","0","10","10/23/22 09:53:51","The main experiment item","yes","SternbergTask.osexp","C:/Users/casme/OneDrive/Desktop/Fall 2022","no","mono","no","18","no","white","no","yes","768","legacy","10","10","C:/Users/casme/OneDrive/Desktop/Fall 2022/IC-subjectx-2.csv","legacy","5 7 8 4 1 2","Lentiform Loewenfeld","3.3.12","0","n","0","right","right","NA","NA","right","801","8882","NA","NA","801","2","legacy","6","1024","2","48000","-16","experiment","2","even","6","73970","70685","2523","NA","71760","71761","NA","2526","NA","NA","75974","76775","72765","11409","75974","Sternberg Task","11","7178","11","yes","1024"
"100","100","647.25","647.25","black","practice","legacy","legacy","legacy","0","uniform","1","undefined","1","right","11","11","0","0","11","11","11","0","0","0","11","11","11","0","11","10/23/22 09:53:51","The main experiment item","yes","SternbergTask.osexp","C:/Users/casme/OneDrive/Desktop/Fall 2022","no","mono","no","18","no","white","no","yes","768","legacy","11","11","C:/Users/casme/OneDrive/Desktop/Fall 2022/IC-subjectx-2.csv","legacy","4 1 5","Lentiform Loewenfeld","3.3.12","0","n","0","right","right","NA","NA","right","589","8882","NA","NA","589","2","legacy","3","1024","2","48000","-16","experiment","2","even","2","80061","76781","2523","NA","77853","77856","NA","2526","NA","NA","82066","82655","78859","11409","82066","Sternberg Task","12","7767","12","yes","1024"
"100","100","647.076923077","647.076923077","black","experiment","legacy","legacy","legacy","0","uniform","1","undefined","1","right","12","12","0","0","12","12","12","0","0","0","12","12","12","0","12","10/23/22 09:53:51","The main experiment item","yes","SternbergTask.osexp","C:/Users/casme/OneDrive/Desktop/Fall 2022","no","mono","no","18","no","white","no","yes","768","legacy","0","11","C:/Users/casme/OneDrive/Desktop/Fall 2022/IC-subjectx-2.csv","legacy","6 8","Lentiform Loewenfeld","3.3.12","0","n","0","right","right","left","NA","right","645","8882","40773","NA","645","2","legacy","2","1024","2","48000","-16","experiment","2","even","9","126746","82663","2523","124463","124537","124538","NA","2526","83689","NA","128749","129395","125541","11409","128748","Sternberg Task","13","8412","13","yes","1024"
"92.8571428571","92.8571428571","743.714285714","743.714285714","black","experiment","legacy","legacy","legacy","0","uniform","0","undefined","0","right","13","13","0","0","13","13","13","0","0","0","13","13","13","0","13","10/23/22 09:53:51","The main experiment item","yes","SternbergTask.osexp","C:/Users/casme/OneDrive/Desktop/Fall 2022","no","mono","no","18","no","white","no","yes","768","legacy","1","11","C:/Users/casme/OneDrive/Desktop/Fall 2022/IC-subjectx-2.csv","legacy","8 5 4 2 9 6","Lentiform Loewenfeld","3.3.12","0","n","0","None","right","left","NA","None","2000","8882","40773","NA","2000","2","legacy","6","1024","2","48000","-16","experiment","2","even","3","132699","129402","2523","124463","130488","130490","NA","2526","83689","NA","134705","136705","131495","11409","134705","Sternberg Task","13","10412","14","yes","1024"
"93.3333333333","93.3333333333","777.733333333","777.733333333","black","experiment","legacy","legacy","legacy","0","uniform","1","undefined","1","left","14","14","0","0","14","14","14","0","0","0","14","14","14","0","14","10/23/22 09:53:51","The main experiment item","yes","SternbergTask.osexp","C:/Users/casme/OneDrive/Desktop/Fall 2022","no","mono","no","18","no","white","no","yes","768","legacy","2","11","C:/Users/casme/OneDrive/Desktop/Fall 2022/IC-subjectx-2.csv","legacy","6 9 7 4 5 1","Lentiform Loewenfeld","3.3.12","2","y","0","left","right","left","NA","left","1254","8882","40773","NA","1254","2","legacy","6","1024","2","48000","-16","experiment","2","even","9","140001","129402","2523","124463","137793","137795","136712","2526","83689","NA","142004","143258","138797","11409","142004","Sternberg Task","14","11666","15","yes","1024"
"93.75","93.75","791.4375","791.4375","black","experiment","legacy","legacy","legacy","0","uniform","1","undefined","1","left","15","15","0","0","15","15","15","0","0","0","15","15","15","0","15","10/23/22 09:53:51","The main experiment item","yes","SternbergTask.osexp","C:/Users/casme/OneDrive/Desktop/Fall 2022","no","mono","no","18","no","white","no","yes","768","legacy","3","11","C:/Users/casme/OneDrive/Desktop/Fall 2022/IC-subjectx-2.csv","legacy","3 5 7 1","Lentiform Loewenfeld","3.3.12","3","y","0","left","right","left","NA","left","997","8882","40773","NA","997","2","legacy","4","1024","2","48000","-16","experiment","2","even","7","146551","143265","2523","124463","144341","144343","136712","2526","83689","NA","148556","149553","145347","11409","148555","Sternberg Task","15","12663","16","yes","1024"
"94.1176470588","94.1176470588","804.647058824","804.647058824","black","experiment","legacy","legacy","legacy","0","uniform","1","undefined","1","left","16","16","0","0","16","16","16","0","0","0","16","16","16","0","16","10/23/22 09:53:51","The main experiment item","yes","SternbergTask.osexp","C:/Users/casme/OneDrive/Desktop/Fall 2022","no","mono","no","18","no","white","no","yes","768","legacy","4","11","C:/Users/casme/OneDrive/Desktop/Fall 2022/IC-subjectx-2.csv","legacy","2 8 5 1","Lentiform Loewenfeld","3.3.12","4","y","0","left","right","left","NA","left","1016","8882","40773","NA","1016","2","legacy","4","1024","2","48000","-16","experiment","2","even","1","152849","149561","2523","124463","150639","150641","136712","2526","83689","NA","154852","155869","151645","11409","154852","Sternberg Task","16","13679","17","yes","1024"
"94.4444444444","94.4444444444","794.111111111","794.111111111","black","experiment","legacy","legacy","legacy","0","uniform","1","undefined","1","right","17","17","0","0","17","17","17","0","0","0","17","17","17","0","17","10/23/22 09:53:51","The main experiment item","yes","SternbergTask.osexp","C:/Users/casme/OneDrive/Desktop/Fall 2022","no","mono","no","18","no","white","no","yes","768","legacy","5","11","C:/Users/casme/OneDrive/Desktop/Fall 2022/IC-subjectx-2.csv","legacy","7 8 6 1","Lentiform Loewenfeld","3.3.12","0","n","0","right","right","left","NA","right","615","8882","40773","NA","615","2","legacy","4","1024","2","48000","-16","experiment","2","even","3","159170","155874","2523","124463","156961","156963","136712","2526","83689","NA","161175","161791","157967","11409","161174","Sternberg Task","17","14294","18","yes","1024"
"94.7368421053","94.7368421053","791.842105263","791.842105263","black","experiment","legacy","legacy","legacy","0","uniform","1","undefined","1","left","18","18","0","0","18","18","18","0","0","0","18","18","18","0","18","10/23/22 09:53:51","The main experiment item","yes","SternbergTask.osexp","C:/Users/casme/OneDrive/Desktop/Fall 2022","no","mono","no","18","no","white","no","yes","768","legacy","6","11","C:/Users/casme/OneDrive/Desktop/Fall 2022/IC-subjectx-2.csv","legacy","4 1 5","Lentiform Loewenfeld","3.3.12","2","y","0","left","right","left","NA","left","751","8882","40773","NA","751","2","legacy","3","1024","2","48000","-16","experiment","2","even","1","165090","161797","2523","124463","162879","162880","136712","2526","83689","NA","167095","167847","163884","11409","167094","Sternberg Task","18","15045","19","yes","1024"
"95","95","783","783","black","experiment","legacy","legacy","legacy","0","uniform","1","undefined","1","left","19","19","0","0","19","19","19","0","0","0","19","19","19","0","19","10/23/22 09:53:51","The main experiment item","yes","SternbergTask.osexp","C:/Users/casme/OneDrive/Desktop/Fall 2022","no","mono","no","18","no","white","no","yes","768","legacy","7","11","C:/Users/casme/OneDrive/Desktop/Fall 2022/IC-subjectx-2.csv","legacy","9 1 7 2","Lentiform Loewenfeld","3.3.12","2","y","0","left","right","left","NA","left","615","8882","40773","NA","615","2","legacy","4","1024","2","48000","-16","experiment","2","even","1","171162","167854","2523","124463","168952","168953","136712","2526","83689","NA","173168","173783","169958","11409","173168","Sternberg Task","19","15660","20","yes","1024"
"90.4761904762","90.4761904762","782.428571429","782.428571429","black","experiment","legacy","legacy","legacy","0","uniform","0","undefined","0","right","20","20","0","0","20","20","20","0","0","0","20","20","20","0","20","10/23/22 09:53:51","The main experiment item","yes","SternbergTask.osexp","C:/Users/casme/OneDrive/Desktop/Fall 2022","no","mono","no","18","no","white","no","yes","768","legacy","8","11","C:/Users/casme/OneDrive/Desktop/Fall 2022/IC-subjectx-2.csv","legacy","3 9 8 1 6 4","Lentiform Loewenfeld","3.3.12","0","n","0","left","right","left","NA","left","771","8882","40773","NA","771","2","legacy","6","1024","2","48000","-16","experiment","2","even","7","177077","173790","2523","124463","174865","174867","136712","2526","83689","NA","179081","179852","175871","11409","179081","Sternberg Task","19","16431","21","yes","1024"
"90.9090909091","90.9090909091","774.727272727","774.727272727","black","experiment","legacy","legacy","legacy","0","uniform","1","undefined","1","right","21","21","0","0","21","21","21","0","0","0","21","21","21","0","21","10/23/22 09:53:51","The main experiment item","yes","SternbergTask.osexp","C:/Users/casme/OneDrive/Desktop/Fall 2022","no","mono","no","18","no","white","no","yes","768","legacy","9","11","C:/Users/casme/OneDrive/Desktop/Fall 2022/IC-subjectx-2.csv","legacy","1 4 9 3","Lentiform Loewenfeld","3.3.12","0","n","0","right","right","left","NA","right","613","8882","40773","NA","613","2","legacy","4","1024","2","48000","-16","experiment","2","even","5","183157","173790","2523","124463","180945","180947","179860","2526","83689","NA","185160","185774","181951","11409","185160","Sternberg Task","20","17044","22","yes","1024"
"91.3043478261","91.3043478261","767.739130435","767.739130435","black","experiment","legacy","legacy","legacy","0","uniform","1","undefined","1","right","22","22","0","0","22","22","22","0","0","0","22","22","22","0","22","10/23/22 09:53:51","The main experiment item","yes","SternbergTask.osexp","C:/Users/casme/OneDrive/Desktop/Fall 2022","no","mono","no","18","no","white","no","yes","768","legacy","10","11","C:/Users/casme/OneDrive/Desktop/Fall 2022/IC-subjectx-2.csv","legacy","4 2 7 6 1 3","Lentiform Loewenfeld","3.3.12","0","n","0","right","right","left","NA","right","614","8882","40773","NA","614","2","legacy","6","1024","2","48000","-16","experiment","2","even","8","189081","185780","2523","124463","186871","186873","179860","2526","83689","NA","191087","191701","187877","11409","191087","Sternberg Task","21","17658","23","yes","1024"
"91.6666666667","91.6666666667","761.291666667","761.291666667","black","experiment","legacy","legacy","legacy","0","uniform","1","undefined","1","left","23","23","0","0","23","23","23","0","0","0","23","23","23","0","23","10/23/22 09:53:51","The main experiment item","yes","SternbergTask.osexp","C:/Users/casme/OneDrive/Desktop/Fall 2022","no","mono","no","18","no","white","no","yes","768","legacy","11","11","C:/Users/casme/OneDrive/Desktop/Fall 2022/IC-subjectx-2.csv","legacy","9 3 8 2 1 4","Lentiform Loewenfeld","3.3.12","3","y","0","left","right","left","NA","left","613","8882","40773","NA","613","2","legacy","6","1024","2","48000","-16","experiment","2","even","8","195001","191709","2523","124463","192792","192793","179860","2526","83689","NA","197006","197619","193798","11409","197005","Sternberg Task","22","18271","24","yes","1024"
"92","92","760.6","760.6","black","experiment","legacy","legacy","legacy","0","uniform","1","undefined","1","right","24","24","0","0","24","24","24","0","0","0","24","24","24","0","24","10/23/22 09:53:51","The main experiment item","yes","SternbergTask.osexp","C:/Users/casme/OneDrive/Desktop/Fall 2022","no","mono","no","18","no","white","no","yes","768","legacy","12","11","C:/Users/casme/OneDrive/Desktop/Fall 2022/IC-subjectx-2.csv","legacy","4 2 6 9","Lentiform Loewenfeld","3.3.12","0","n","0","right","right","left","NA","right","744","8882","40773","NA","744","2","legacy","4","1024","2","48000","-16","experiment","2","even","7","200912","197625","2523","124463","198702","198703","179860","2526","83689","NA","202917","203661","199707","11409","202917","Sternberg Task","23","19015","25","yes","1024"
"92.3076923077","92.3076923077","759.923076923","759.923076923","black","experiment","legacy","legacy","legacy","0","uniform","1","undefined","1","left","25","25","0","0","25","25","25","0","0","0","25","25","25","0","25","10/23/22 09:53:51","The main experiment item","yes","SternbergTask.osexp","C:/Users/casme/OneDrive/Desktop/Fall 2022","no","mono","no","18","no","white","no","yes","768","legacy","13","11","C:/Users/casme/OneDrive/Desktop/Fall 2022/IC-subjectx-2.csv","legacy","5 7 8 2 3 8","Lentiform Loewenfeld","3.3.12","5","y","0","left","right","left","NA","left","743","8882","40773","NA","743","2","legacy","6","1024","2","48000","-16","experiment","2","even","3","206949","203667","2523","124463","204738","204740","179860","2526","83689","NA","208953","209697","205745","11409","208953","Sternberg Task","24","19758","26","yes","1024"
"92.5925925926","92.5925925926","768.851851852","768.851851852","black","experiment","legacy","legacy","legacy","0","uniform","1","undefined","1","left","26","26","0","0","26","26","26","0","0","0","26","26","26","0","26","10/23/22 09:53:51","The main experiment item","yes","SternbergTask.osexp","C:/Users/casme/OneDrive/Desktop/Fall 2022","no","mono","no","18","no","white","no","yes","768","legacy","14","11","C:/Users/casme/OneDrive/Desktop/Fall 2022/IC-subjectx-2.csv","legacy","4 7 6 8 2 3","Lentiform Loewenfeld","3.3.12","6","y","0","left","right","left","NA","left","1001","8882","40773","NA","1001","2","legacy","6","1024","2","48000","-16","experiment","2","even","3","212993","209704","2523","124463","210782","210783","179860","2526","83689","NA","214998","216000","211788","11409","214998","Sternberg Task","25","20759","27","yes","1024"
"92.8571428571","92.8571428571","766.75","766.75","black","experiment","legacy","legacy","legacy","0","uniform","1","undefined","1","left","27","27","0","0","27","27","27","0","0","0","27","27","27","0","27","10/23/22 09:53:51","The main experiment item","yes","SternbergTask.osexp","C:/Users/casme/OneDrive/Desktop/Fall 2022","no","mono","no","18","no","white","no","yes","768","legacy","15","11","C:/Users/casme/OneDrive/Desktop/Fall 2022/IC-subjectx-2.csv","legacy","9 6 2 4 1","Lentiform Loewenfeld","3.3.12","4","y","0","left","right","left","NA","left","710","8882","40773","NA","710","2","legacy","5","1024","2","48000","-16","experiment","2","even","4","219299","216007","2523","124463","217091","217092","179860","2526","83689","NA","221304","222015","218096","11409","221303","Sternberg Task","26","21469","28","yes","1024"
"93.1034482759","93.1034482759","759.24137931","759.24137931","black","experiment","legacy","legacy","legacy","0","uniform","1","undefined","1","left","28","28","0","0","28","28","28","0","0","0","28","28","28","0","28","10/23/22 09:53:51","The main experiment item","yes","SternbergTask.osexp","C:/Users/casme/OneDrive/Desktop/Fall 2022","no","mono","no","18","no","white","no","yes","768","legacy","16","11","C:/Users/casme/OneDrive/Desktop/Fall 2022/IC-subjectx-2.csv","legacy","8 5 3 7 4 6","Lentiform Loewenfeld","3.3.12","6","y","0","left","right","left","NA","left","549","8882","40773","NA","549","2","legacy","6","1024","2","48000","-16","experiment","2","even","6","225294","222021","2523","124463","223085","223087","179860","2526","83689","NA","227299","227849","224091","11409","227298","Sternberg Task","27","22018","29","yes","1024"
"93.3333333333","93.3333333333","750.833333333","750.833333333","black","experiment","legacy","legacy","legacy","0","uniform","1","undefined","1","right","29","29","0","0","29","29","29","0","0","0","29","29","29","0","29","10/23/22 09:53:51","The main experiment item","yes","SternbergTask.osexp","C:/Users/casme/OneDrive/Desktop/Fall 2022","no","mono","no","18","no","white","no","yes","768","legacy","17","11","C:/Users/casme/OneDrive/Desktop/Fall 2022/IC-subjectx-2.csv","legacy","2 7 5","Lentiform Loewenfeld","3.3.12","0","n","0","right","right","left","NA","right","507","8882","40773","NA","507","2","legacy","3","1024","2","48000","-16","experiment","2","even","8","231136","227855","2523","124463","228927","228928","179860","2526","83689","NA","233139","233647","229931","11409","233139","Sternberg Task","28","22525","30","yes","1024"
"93.5483870968","93.5483870968","751.35483871","751.35483871","black","experiment","legacy","legacy","legacy","0","uniform","1","undefined","1","left","30","30","0","0","30","30","30","0","0","0","30","30","30","0","30","10/23/22 09:53:51","The main experiment item","yes","SternbergTask.osexp","C:/Users/casme/OneDrive/Desktop/Fall 2022","no","mono","no","18","no","white","no","yes","768","legacy","18","11","C:/Users/casme/OneDrive/Desktop/Fall 2022/IC-subjectx-2.csv","legacy","8 5 4 7 3 1","Lentiform Loewenfeld","3.3.12","2","y","0","left","right","left","NA","left","767","8882","40773","NA","767","2","legacy","6","1024","2","48000","-16","experiment","2","even","5","236944","233653","2523","124463","234734","234736","179860","2526","83689","NA","238949","239717","235741","11409","238949","Sternberg Task","29","23292","31","yes","1024"
"93.75","93.75","751.125","751.125","black","experiment","legacy","legacy","legacy","0","uniform","1","undefined","1","right","31","31","0","0","31","31","31","0","0","0","31","31","31","0","31","10/23/22 09:53:51","The main experiment item","yes","SternbergTask.osexp","C:/Users/casme/OneDrive/Desktop/Fall 2022","no","mono","no","18","no","white","no","yes","768","legacy","19","11","C:/Users/casme/OneDrive/Desktop/Fall 2022/IC-subjectx-2.csv","legacy","1 6 4 3 9 7","Lentiform Loewenfeld","3.3.12","0","n","0","right","right","left","NA","right","744","8882","40773","NA","744","2","legacy","6","1024","2","48000","-16","experiment","2","even","8","243018","239724","2523","124463","240807","240808","179860","2526","83689","NA","245023","245767","241812","11409","245022","Sternberg Task","30","24036","32","yes","1024"
"93.9393939394","93.9393939394","761.272727273","761.272727273","black","experiment","legacy","legacy","legacy","0","uniform","1","undefined","1","left","32","32","0","0","32","32","32","0","0","0","32","32","32","0","32","10/23/22 09:53:51","The main experiment item","yes","SternbergTask.osexp","C:/Users/casme/OneDrive/Desktop/Fall 2022","no","mono","no","18","no","white","no","yes","768","legacy","20","11","C:/Users/casme/OneDrive/Desktop/Fall 2022/IC-subjectx-2.csv","legacy","3 2 1 4 7","Lentiform Loewenfeld","3.3.12","2","y","0","left","right","left","NA","left","1086","8882","40773","NA","1086","2","legacy","5","1024","2","48000","-16","experiment","2","even","2","249069","245773","2523","124463","246857","246859","179860","2526","83689","NA","251074","252160","247863","11409","251074","Sternberg Task","31","25122","33","yes","1024"
"94.1176470588","94.1176470588","758.558823529","758.558823529","black","experiment","legacy","legacy","legacy","0","uniform","1","undefined","1","left","33","33","0","0","33","33","33","0","0","0","33","33","33","0","33","10/23/22 09:53:51","The main experiment item","yes","SternbergTask.osexp","C:/Users/casme/OneDrive/Desktop/Fall 2022","no","mono","no","18","no","white","no","yes","768","legacy","21","11","C:/Users/casme/OneDrive/Desktop/Fall 2022/IC-subjectx-2.csv","legacy","6 8 9 3 4 9","Lentiform Loewenfeld","3.3.12","5","y","0","left","right","left","NA","left","669","8882","40773","NA","669","2","legacy","6","1024","2","48000","-16","experiment","2","even","4","255458","252166","2523","124463","253246","253248","179860","2526","83689","NA","257463","258133","254253","11409","257462","Sternberg Task","32","25791","34","yes","1024"
"94.2857142857","94.2857142857","754.714285714","754.714285714","black","experiment","legacy","legacy","legacy","0","uniform","1","undefined","1","left","34","34","0","0","34","34","34","0","0","0","34","34","34","0","34","10/23/22 09:53:51","The main experiment item","yes","SternbergTask.osexp","C:/Users/casme/OneDrive/Desktop/Fall 2022","no","mono","no","18","no","white","no","yes","768","legacy","22","11","C:/Users/casme/OneDrive/Desktop/Fall 2022/IC-subjectx-2.csv","legacy","3 4 9 6 2 9","Lentiform Loewenfeld","3.3.12","5","y","0","left","right","left","NA","left","624","8882","40773","NA","624","2","legacy","6","1024","2","48000","-16","experiment","2","even","2","261435","258139","2523","124463","259224","259225","179860","2526","83689","NA","263440","264064","260230","11409","263439","Sternberg Task","33","26415","35","yes","1024"
"94.4444444444","94.4444444444","753.444444444","753.444444444","black","experiment","legacy","legacy","legacy","0","uniform","1","undefined","1","right","35","35","0","0","35","35","35","0","0","0","35","35","35","0","35","10/23/22 09:53:51","The main experiment item","yes","SternbergTask.osexp","C:/Users/casme/OneDrive/Desktop/Fall 2022","no","mono","no","18","no","white","no","yes","768","legacy","23","11","C:/Users/casme/OneDrive/Desktop/Fall 2022/IC-subjectx-2.csv","legacy","9","Lentiform Loewenfeld","3.3.12","0","n","0","right","right","left","NA","right","709","8882","40773","NA","709","2","legacy","1","1024","2","48000","-16","experiment","2","even","6","267355","264071","2523","124463","265146","265147","179860","2526","83689","NA","269358","270068","266150","11409","269358","Sternberg Task","34","27124","36","yes","1024"
"91.8918918919","91.8918918919","759.540540541","759.540540541","black","experiment","legacy","legacy","legacy","0","uniform","0","undefined","0","right","36","36","0","0","36","36","36","0","0","0","36","36","36","0","36","10/23/22 09:53:51","The main experiment item","yes","SternbergTask.osexp","C:/Users/casme/OneDrive/Desktop/Fall 2022","no","mono","no","18","no","white","no","yes","768","legacy","24","11","C:/Users/casme/OneDrive/Desktop/Fall 2022/IC-subjectx-2.csv","legacy","5 2","Lentiform Loewenfeld","3.3.12","0","n","0","left","right","left","NA","left","979","8882","40773","NA","979","2","legacy","2","1024","2","48000","-16","experiment","2","even","7","273367","270075","2523","124463","271159","271161","179860","2526","83689","NA","275370","276350","272162","11409","275369","Sternberg Task","34","28103","37","yes","1024"
"92.1052631579","92.1052631579","752.921052632","752.921052632","black","experiment","legacy","legacy","legacy","0","uniform","1","undefined","1","right","37","37","0","0","37","37","37","0","0","0","37","37","37","0","37","10/23/22 09:53:51","The main experiment item","yes","SternbergTask.osexp","C:/Users/casme/OneDrive/Desktop/Fall 2022","no","mono","no","18","no","white","no","yes","768","legacy","25","11","C:/Users/casme/OneDrive/Desktop/Fall 2022/IC-subjectx-2.csv","legacy","4 1","Lentiform Loewenfeld","3.3.12","0","n","0","right","right","left","NA","right","508","8882","40773","NA","508","2","legacy","2","1024","2","48000","-16","experiment","2","even","6","279645","270075","2523","124463","277434","277435","276356","2526","83689","NA","281649","282157","278439","11409","281649","Sternberg Task","35","28611","38","yes","1024"
"92.3076923077","92.3076923077","746","746","black","experiment","legacy","legacy","legacy","0","uniform","1","undefined","1","left","38","38","0","0","38","38","38","0","0","0","38","38","38","0","38","10/23/22 09:53:51","The main experiment item","yes","SternbergTask.osexp","C:/Users/casme/OneDrive/Desktop/Fall 2022","no","mono","no","18","no","white","no","yes","768","legacy","26","11","C:/Users/casme/OneDrive/Desktop/Fall 2022/IC-subjectx-2.csv","legacy","9 8 4","Lentiform Loewenfeld","3.3.12","1","y","0","left","right","left","NA","left","483","8882","40773","NA","483","2","legacy","3","1024","2","48000","-16","experiment","2","even","9","285452","282164","2523","124463","283242","283244","276356","2526","83689","NA","287456","287940","284248","11409","287456","Sternberg Task","36","29094","39","yes","1024"
"92.5","92.5","753.15","753.15","black","experiment","legacy","legacy","legacy","0","uniform","1","undefined","1","right","39","39","0","0","39","39","39","0","0","0","39","39","39","0","39","10/23/22 09:53:51","The main experiment item","yes","SternbergTask.osexp","C:/Users/casme/OneDrive/Desktop/Fall 2022","no","mono","no","18","no","white","no","yes","768","legacy","27","11","C:/Users/casme/OneDrive/Desktop/Fall 2022/IC-subjectx-2.csv","legacy","6 3 1 7 9 8","Lentiform Loewenfeld","3.3.12","0","n","0","right","right","left","NA","right","1032","8882","40773","NA","1032","2","legacy","6","1024","2","48000","-16","experiment","2","even","4","291242","287948","2523","124463","289031","289032","276356","2526","83689","NA","293247","294279","290036","11409","293247","Sternberg Task","37","30126","40","yes","1024"
"90.243902439","90.243902439","748.707317073","748.707317073","black","experiment","legacy","legacy","legacy","0","uniform","0","undefined","0","left","40","40","0","0","40","40","40","0","0","0","40","40","40","0","40","10/23/22 09:53:51","The main experiment item","yes","SternbergTask.osexp","C:/Users/casme/OneDrive/Desktop/Fall 2022","no","mono","no","18","no","white","no","yes","768","legacy","28","11","C:/Users/casme/OneDrive/Desktop/Fall 2022/IC-subjectx-2.csv","legacy","7 4 2 6 3 5","Lentiform Loewenfeld","3.3.12","6","y","0","right","right","left","NA","right","571","8882","40773","NA","571","2","legacy","6","1024","2","48000","-16","experiment","2","even","5","297585","294285","2523","124463","295374","295376","276356","2526","83689","NA","299591","300163","296380","11409","299590","Sternberg Task","37","30697","41","yes","1024"
"90.4761904762","90.4761904762","749.619047619","749.619047619","black","experiment","legacy","legacy","legacy","0","uniform","1","undefined","1","left","41","41","0","0","41","41","41","0","0","0","41","41","41","0","41","10/23/22 09:53:51","The main experiment item","yes","SternbergTask.osexp","C:/Users/casme/OneDrive/Desktop/Fall 2022","no","mono","no","18","no","white","no","yes","768","legacy","29","11","C:/Users/casme/OneDrive/Desktop/Fall 2022/IC-subjectx-2.csv","legacy","8 9 5 6 7","Lentiform Loewenfeld","3.3.12","1","y","0","left","right","left","NA","left","787","8882","40773","NA","787","2","legacy","5","1024","2","48000","-16","experiment","2","even","8","303455","294285","2523","124463","301246","301248","300169","2526","83689","NA","305459","306247","302251","11409","305459","Sternberg Task","38","31484","42","yes","1024"
"90.6976744186","90.6976744186","746.11627907","746.11627907","black","experiment","legacy","legacy","legacy","0","uniform","1","undefined","1","right","42","42","0","0","42","42","42","0","0","0","42","42","42","0","42","10/23/22 09:53:51","The main experiment item","yes","SternbergTask.osexp","C:/Users/casme/OneDrive/Desktop/Fall 2022","no","mono","no","18","no","white","no","yes","768","legacy","30","11","C:/Users/casme/OneDrive/Desktop/Fall 2022/IC-subjectx-2.csv","legacy","8 9","Lentiform Loewenfeld","3.3.12","0","n","0","right","right","left","NA","right","599","8882","40773","NA","599","2","legacy","2","1024","2","48000","-16","experiment","2","even","5","309549","306254","2523","124463","307338","307340","300169","2526","83689","NA","311555","312154","308345","11409","311554","Sternberg Task","39","32083","43","yes","1024"
"90.9090909091","90.9090909091","741.318181818","741.318181818","black","experiment","legacy","legacy","legacy","0","uniform","1","undefined","1","right","43","43","0","0","43","43","43","0","0","0","43","43","43","0","43","10/23/22 09:53:51","The main experiment item","yes","SternbergTask.osexp","C:/Users/casme/OneDrive/Desktop/Fall 2022","no","mono","no","18","no","white","no","yes","768","legacy","31","11","C:/Users/casme/OneDrive/Desktop/Fall 2022/IC-subjectx-2.csv","legacy","3 4 2","Lentiform Loewenfeld","3.3.12","0","n","0","right","right","left","NA","right","535","8882","40773","NA","535","2","legacy","3","1024","2","48000","-16","experiment","2","even","5","315448","312160","2523","124463","313239","313241","300169","2526","83689","NA","317451","317986","314245","11409","317451","Sternberg Task","40","32618","44","yes","1024"
"88.8888888889","88.8888888889","769.288888889","769.288888889","black","experiment","legacy","legacy","legacy","0","uniform","0","undefined","0","right","44","44","0","0","44","44","44","0","0","0","44","44","44","0","44","10/23/22 09:53:51","The main experiment item","yes","SternbergTask.osexp","C:/Users/casme/OneDrive/Desktop/Fall 2022","no","mono","no","18","no","white","no","yes","768","legacy","32","11","C:/Users/casme/OneDrive/Desktop/Fall 2022/IC-subjectx-2.csv","legacy","4 8 1 2","Lentiform Loewenfeld","3.3.12","0","n","0","None","right","left","NA","None","2000","8882","40773","NA","2000","2","legacy","4","1024","2","48000","-16","experiment","2","even","7","321265","317991","2523","124463","319061","319063","300169","2526","83689","NA","323267","325267","320064","11409","323267","Sternberg Task","40","34618","45","yes","1024"
"89.1304347826","89.1304347826","767.217391304","767.217391304","black","experiment","legacy","legacy","legacy","0","uniform","1","undefined","1","left","45","45","0","0","45","45","45","0","0","0","45","45","45","0","45","10/23/22 09:53:51","The main experiment item","yes","SternbergTask.osexp","C:/Users/casme/OneDrive/Desktop/Fall 2022","no","mono","no","18","no","white","no","yes","768","legacy","33","11","C:/Users/casme/OneDrive/Desktop/Fall 2022/IC-subjectx-2.csv","legacy","8 9 5 7 1 6","Lentiform Loewenfeld","3.3.12","4","y","0","left","right","left","NA","left","674","8882","40773","NA","674","2","legacy","6","1024","2","48000","-16","experiment","2","even","7","328546","317991","2523","124463","326340","326341","325273","2526","83689","NA","330549","331223","327344","11409","330549","Sternberg Task","41","35292","46","yes","1024"
"89.3617021277","89.3617021277","761.957446809","761.957446809","black","experiment","legacy","legacy","legacy","0","uniform","1","undefined","1","right","46","46","0","0","46","46","46","0","0","0","46","46","46","0","46","10/23/22 09:53:51","The main experiment item","yes","SternbergTask.osexp","C:/Users/casme/OneDrive/Desktop/Fall 2022","no","mono","no","18","no","white","no","yes","768","legacy","34","11","C:/Users/casme/OneDrive/Desktop/Fall 2022/IC-subjectx-2.csv","legacy","7 6 4 8 1 2","Lentiform Loewenfeld","3.3.12","0","n","0","right","right","left","NA","right","520","8882","40773","NA","520","2","legacy","6","1024","2","48000","-16","experiment","2","even","9","334517","331229","2523","124463","332307","332309","325273","2526","83689","NA","336522","337043","333313","11409","336521","Sternberg Task","42","35812","47","yes","1024"
"89.5833333333","89.5833333333","761.458333333","761.458333333","black","experiment","legacy","legacy","legacy","0","uniform","1","undefined","1","right","47","47","0","0","47","47","47","0","0","0","47","47","47","0","47","10/23/22 09:53:51","The main experiment item","yes","SternbergTask.osexp","C:/Users/casme/OneDrive/Desktop/Fall 2022","no","mono","no","18","no","white","no","yes","768","legacy","35","11","C:/Users/casme/OneDrive/Desktop/Fall 2022/IC-subjectx-2.csv","legacy","2 8 6 3 1","Lentiform Loewenfeld","3.3.12","0","n","0","right","right","left","NA","right","738","8882","40773","NA","738","2","legacy","5","1024","2","48000","-16","experiment","2","even","7","340341","337051","2523","124463","338131","338133","325273","2526","83689","NA","342344","343083","339137","11409","342343","Sternberg Task","43","36550","48","yes","1024"
"89.7959183673","89.7959183673","759.285714286","759.285714286","black","experiment","legacy","legacy","legacy","0","uniform","1","undefined","1","right","48","48","0","0","48","48","48","0","0","0","48","48","48","0","48","10/23/22 09:53:51","The main experiment item","yes","SternbergTask.osexp","C:/Users/casme/OneDrive/Desktop/Fall 2022","no","mono","no","18","no","white","no","yes","768","legacy","36","11","C:/Users/casme/OneDrive/Desktop/Fall 2022/IC-subjectx-2.csv","legacy","6 9 7 3 8 2","Lentiform Loewenfeld","3.3.12","0","n","0","right","right","left","NA","right","655","8882","40773","NA","655","2","legacy","6","1024","2","48000","-16","experiment","2","even","5","346374","343088","2523","124463","344165","344167","325273","2526","83689","NA","348376","349032","345171","11409","348376","Sternberg Task","44","37205","49","yes","1024"
"90","90","758.46","758.46","black","experiment","legacy","legacy","legacy","0","uniform","1","undefined","1","right","49","49","0","0","49","49","49","0","0","0","49","49","49","0","49","10/23/22 09:53:51","The main experiment item","yes","SternbergTask.osexp","C:/Users/casme/OneDrive/Desktop/Fall 2022","no","mono","no","18","no","white","no","yes","768","legacy","37","11","C:/Users/casme/OneDrive/Desktop/Fall 2022/IC-subjectx-2.csv","legacy","5 3 2 6 9 8","Lentiform Loewenfeld","3.3.12","0","n","0","right","right","left","NA","right","718","8882","40773","NA","718","2","legacy","6","1024","2","48000","-16","experiment","2","even","4","352325","349037","2523","124463","350113","350115","325273","2526","83689","NA","354330","355048","351120","11409","354330","Sternberg Task","45","37923","50","yes","1024"
"90.1960784314","90.1960784314","759.098039216","759.098039216","black","experiment","legacy","legacy","legacy","0","uniform","1","undefined","1","left","50","50","0","0","50","50","50","0","0","0","50","50","50","0","50","10/23/22 09:53:51","The main experiment item","yes","SternbergTask.osexp","C:/Users/casme/OneDrive/Desktop/Fall 2022","no","mono","no","18","no","white","no","yes","768","legacy","38","11","C:/Users/casme/OneDrive/Desktop/Fall 2022/IC-subjectx-2.csv","legacy","4","Lentiform Loewenfeld","3.3.12","1","y","0","left","right","left","NA","left","791","8882","40773","NA","791","2","legacy","1","1024","2","48000","-16","experiment","2","even","4","358345","355054","2523","124463","356132","356135","325273","2526","83689","NA","360350","361142","357140","11409","360349","Sternberg Task","46","38714","51","yes","1024"
"90.3846153846","90.3846153846","755.057692308","755.057692308","black","experiment","legacy","legacy","legacy","0","uniform","1","undefined","1","left","51","51","0","0","51","51","51","0","0","0","51","51","51","0","51","10/23/22 09:53:51","The main experiment item","yes","SternbergTask.osexp","C:/Users/casme/OneDrive/Desktop/Fall 2022","no","mono","no","18","no","white","no","yes","768","legacy","39","11","C:/Users/casme/OneDrive/Desktop/Fall 2022/IC-subjectx-2.csv","legacy","9 5 8 1","Lentiform Loewenfeld","3.3.12","2","y","0","left","right","left","NA","left","549","8882","40773","NA","549","2","legacy","4","1024","2","48000","-16","experiment","2","even","5","364441","361147","2523","124463","362232","362234","325273","2526","83689","NA","366446","366995","363237","11409","366446","Sternberg Task","47","39263","52","yes","1024"
"90.5660377358","90.5660377358","756.358490566","756.358490566","black","experiment","legacy","legacy","legacy","0","uniform","1","undefined","1","left","52","52","0","0","52","52","52","0","0","0","52","52","52","0","52","10/23/22 09:53:51","The main experiment item","yes","SternbergTask.osexp","C:/Users/casme/OneDrive/Desktop/Fall 2022","no","mono","no","18","no","white","no","yes","768","legacy","40","11","C:/Users/casme/OneDrive/Desktop/Fall 2022/IC-subjectx-2.csv","legacy","5 7 3 6 2","Lentiform Loewenfeld","3.3.12","5","y","0","left","right","left","NA","left","824","8882","40773","NA","824","2","legacy","5","1024","2","48000","-16","experiment","2","even","2","370283","367002","2523","124463","368074","368076","325273","2526","83689","NA","372287","373112","369078","11409","372287","Sternberg Task","48","40087","53","yes","1024"
"90.7407407407","90.7407407407","763.185185185","763.185185185","black","experiment","legacy","legacy","legacy","0","uniform","1","undefined","1","left","53","53","0","0","53","53","53","0","0","0","53","53","53","0","53","10/23/22 09:53:51","The main experiment item","yes","SternbergTask.osexp","C:/Users/casme/OneDrive/Desktop/Fall 2022","no","mono","no","18","no","white","no","yes","768","legacy","41","11","C:/Users/casme/OneDrive/Desktop/Fall 2022/IC-subjectx-2.csv","legacy","8 1 6","Lentiform Loewenfeld","3.3.12","3","y","0","left","right","left","NA","left","1125","8882","40773","NA","1125","2","legacy","3","1024","2","48000","-16","experiment","2","even","6","376410","373118","2523","124463","374198","374200","325273","2526","83689","NA","378415","379540","375204","11409","378415","Sternberg Task","49","41212","54","yes","1024"
"90.9090909091","90.9090909091","765.636363636","765.636363636","black","experiment","legacy","legacy","legacy","0","uniform","1","undefined","1","left","54","54","0","0","54","54","54","0","0","0","54","54","54","0","54","10/23/22 09:53:51","The main experiment item","yes","SternbergTask.osexp","C:/Users/casme/OneDrive/Desktop/Fall 2022","no","mono","no","18","no","white","no","yes","768","legacy","42","11","C:/Users/casme/OneDrive/Desktop/Fall 2022/IC-subjectx-2.csv","legacy","8 3","Lentiform Loewenfeld","3.3.12","2","y","0","left","right","left","NA","left","898","8882","40773","NA","898","2","legacy","2","1024","2","48000","-16","experiment","2","even","3","382842","379546","2523","124463","380632","380633","325273","2526","83689","NA","384845","385744","381637","11409","384845","Sternberg Task","50","42110","55","yes","1024"
"91.0714285714","91.0714285714","763.625","763.625","black","experiment","legacy","legacy","legacy","0","uniform","1","undefined","1","right","55","55","0","0","55","55","55","0","0","0","55","55","55","0","55","10/23/22 09:53:51","The main experiment item","yes","SternbergTask.osexp","C:/Users/casme/OneDrive/Desktop/Fall 2022","no","mono","no","18","no","white","no","yes","768","legacy","43","11","C:/Users/casme/OneDrive/Desktop/Fall 2022/IC-subjectx-2.csv","legacy","7 1 5 6 3","Lentiform Loewenfeld","3.3.12","0","n","0","right","right","left","NA","right","653","8882","40773","NA","653","2","legacy","5","1024","2","48000","-16","experiment","2","even","8","389041","385751","2523","124463","386830","386832","325273","2526","83689","NA","391046","391700","387836","11409","391045","Sternberg Task","51","42763","56","yes","1024"
"91.2280701754","91.2280701754","765.333333333","765.333333333","black","experiment","legacy","legacy","legacy","0","uniform","1","undefined","1","right","56","56","0","0","56","56","56","0","0","0","56","56","56","0","56","10/23/22 09:53:51","The main experiment item","yes","SternbergTask.osexp","C:/Users/casme/OneDrive/Desktop/Fall 2022","no","mono","no","18","no","white","no","yes","768","legacy","44","11","C:/Users/casme/OneDrive/Desktop/Fall 2022/IC-subjectx-2.csv","legacy","7 3 2 8","Lentiform Loewenfeld","3.3.12","0","n","0","right","right","left","NA","right","861","8882","40773","NA","861","2","legacy","4","1024","2","48000","-16","experiment","2","even","4","394998","391706","2523","124463","392792","392794","325273","2526","83689","NA","397004","397866","393795","11409","397002","Sternberg Task","52","43624","57","yes","1024"
"91.3793103448","91.3793103448","765.034482759","765.034482759","black","experiment","legacy","legacy","legacy","0","uniform","1","undefined","1","left","57","57","0","0","57","57","57","0","0","0","57","57","57","0","57","10/23/22 09:53:51","The main experiment item","yes","SternbergTask.osexp","C:/Users/casme/OneDrive/Desktop/Fall 2022","no","mono","no","18","no","white","no","yes","768","legacy","45","11","C:/Users/casme/OneDrive/Desktop/Fall 2022/IC-subjectx-2.csv","legacy","5 2 6","Lentiform Loewenfeld","3.3.12","2","y","0","left","right","left","NA","left","748","8882","40773","NA","748","2","legacy","3","1024","2","48000","-16","experiment","2","even","2","401161","397871","2523","124463","398951","398953","325273","2526","83689","NA","403164","403912","399956","11409","403164","Sternberg Task","53","44372","58","yes","1024"
"91.5254237288","91.5254237288","768.728813559","768.728813559","black","experiment","legacy","legacy","legacy","0","uniform","1","undefined","1","left","58","58","0","0","58","58","58","0","0","0","58","58","58","0","58","10/23/22 09:53:51","The main experiment item","yes","SternbergTask.osexp","C:/Users/casme/OneDrive/Desktop/Fall 2022","no","mono","no","18","no","white","no","yes","768","legacy","46","11","C:/Users/casme/OneDrive/Desktop/Fall 2022/IC-subjectx-2.csv","legacy","7 8 4 6 9 5","Lentiform Loewenfeld","3.3.12","4","y","0","left","right","left","NA","left","983","8882","40773","NA","983","2","legacy","6","1024","2","48000","-16","experiment","2","even","6","407207","403918","2523","124463","404998","405000","325273","2526","83689","NA","409210","410194","406002","11409","409210","Sternberg Task","54","45355","59","yes","1024"
"91.6666666667","91.6666666667","766","766","black","experiment","legacy","legacy","legacy","0","uniform","1","undefined","1","right","59","59","0","0","59","59","59","0","0","0","59","59","59","0","59","10/23/22 09:53:51","The main experiment item","yes","SternbergTask.osexp","C:/Users/casme/OneDrive/Desktop/Fall 2022","no","mono","no","18","no","white","no","yes","768","legacy","47","11","C:/Users/casme/OneDrive/Desktop/Fall 2022/IC-subjectx-2.csv","legacy","6 8 4","Lentiform Loewenfeld","3.3.12","0","n","0","right","right","left","NA","right","605","8882","40773","NA","605","2","legacy","3","1024","2","48000","-16","experiment","2","even","1","413499","410200","2523","124463","411289","411291","325273","2526","83689","NA","415504","416110","412296","11409","415503","Sternberg Task","55","45960","60","yes","1024"
"91.8032786885","91.8032786885","764.213114754","764.213114754","black","experiment","legacy","legacy","legacy","0","uniform","1","undefined","1","left","60","60","0","0","60","60","60","0","0","0","60","60","60","0","60","10/23/22 09:53:51","The main experiment item","yes","SternbergTask.osexp","C:/Users/casme/OneDrive/Desktop/Fall 2022","no","mono","no","18","no","white","no","yes","768","legacy","48","11","C:/Users/casme/OneDrive/Desktop/Fall 2022/IC-subjectx-2.csv","legacy","8 9 6 1","Lentiform Loewenfeld","3.3.12","2","y","0","left","right","left","NA","left","657","8882","40773","NA","657","2","legacy","4","1024","2","48000","-16","experiment","2","even","9","419412","416116","2523","124463","417200","417202","325273","2526","83689","NA","421417","422075","418207","11409","421417","Sternberg Task","56","46617","61","yes","1024"
"91.935483871","91.935483871","764.85483871","764.85483871","black","experiment","legacy","legacy","legacy","0","uniform","1","undefined","1","right","61","61","0","0","61","61","61","0","0","0","61","61","61","0","61","10/23/22 09:53:51","The main experiment item","yes","SternbergTask.osexp","C:/Users/casme/OneDrive/Desktop/Fall 2022","no","mono","no","18","no","white","no","yes","768","legacy","49","11","C:/Users/casme/OneDrive/Desktop/Fall 2022/IC-subjectx-2.csv","legacy","5 3 8 7 2 4","Lentiform Loewenfeld","3.3.12","0","n","0","right","right","left","NA","right","804","8882","40773","NA","804","2","legacy","6","1024","2","48000","-16","experiment","2","even","9","425375","422081","2523","124463","423164","423166","325273","2526","83689","NA","427380","428185","424171","11409","427380","Sternberg Task","57","47421","62","yes","1024"
"92.0634920635","92.0634920635","761.26984127","761.26984127","black","experiment","legacy","legacy","legacy","0","uniform","1","undefined","1","left","62","62","0","0","62","62","62","0","0","0","62","62","62","0","62","10/23/22 09:53:51","The main experiment item","yes","SternbergTask.osexp","C:/Users/casme/OneDrive/Desktop/Fall 2022","no","mono","no","18","no","white","no","yes","768","legacy","50","11","C:/Users/casme/OneDrive/Desktop/Fall 2022/IC-subjectx-2.csv","legacy","9 1 6 7 8","Lentiform Loewenfeld","3.3.12","1","y","0","left","right","left","NA","left","539","8882","40773","NA","539","2","legacy","5","1024","2","48000","-16","experiment","2","even","9","431490","428193","2523","124463","429277","429279","325273","2526","83689","NA","433494","434035","430284","11409","433494","Sternberg Task","58","47960","63","yes","1024"
"92.1875","92.1875","759.984375","759.984375","black","experiment","legacy","legacy","legacy","0","uniform","1","undefined","1","right","63","63","0","0","63","63","63","0","0","0","63","63","63","0","63","10/23/22 09:53:51","The main experiment item","yes","SternbergTask.osexp","C:/Users/casme/OneDrive/Desktop/Fall 2022","no","mono","no","18","no","white","no","yes","768","legacy","51","11","C:/Users/casme/OneDrive/Desktop/Fall 2022/IC-subjectx-2.csv","legacy","1 6 4","Lentiform Loewenfeld","3.3.12","0","n","0","right","right","left","NA","right","679","8882","40773","NA","679","2","legacy","3","1024","2","48000","-16","experiment","2","even","7","437321","434041","2523","124463","435111","435113","325273","2526","83689","NA","439323","440003","436116","11409","439323","Sternberg Task","59","48639","64","yes","1024"
"92.3076923077","92.3076923077","755.676923077","755.676923077","black","experiment","legacy","legacy","legacy","0","uniform","1","undefined","1","right","64","64","0","0","64","64","64","0","0","0","64","64","64","0","64","10/23/22 09:53:51","The main experiment item","yes","SternbergTask.osexp","C:/Users/casme/OneDrive/Desktop/Fall 2022","no","mono","no","18","no","white","no","yes","768","legacy","52","11","C:/Users/casme/OneDrive/Desktop/Fall 2022/IC-subjectx-2.csv","legacy","3 9 1","Lentiform Loewenfeld","3.3.12","0","n","0","right","right","left","NA","right","480","8882","40773","NA","480","2","legacy","3","1024","2","48000","-16","experiment","2","even","7","443301","440008","2523","124463","441089","441091","325273","2526","83689","NA","445307","445788","442096","11409","445306","Sternberg Task","60","49119","65","yes","1024"
"92.4242424242","92.4242424242","755.045454545","755.045454545","black","experiment","legacy","legacy","legacy","0","uniform","1","undefined","1","left","65","65","0","0","65","65","65","0","0","0","65","65","65","0","65","10/23/22 09:53:51","The main experiment item","yes","SternbergTask.osexp","C:/Users/casme/OneDrive/Desktop/Fall 2022","no","mono","no","18","no","white","no","yes","768","legacy","53","11","C:/Users/casme/OneDrive/Desktop/Fall 2022/IC-subjectx-2.csv","legacy","7","Lentiform Loewenfeld","3.3.12","1","y","0","left","right","left","NA","left","714","8882","40773","NA","714","2","legacy","1","1024","2","48000","-16","experiment","2","even","7","449088","445793","2523","124463","446880","446882","325273","2526","83689","NA","451093","451808","447885","11409","451092","Sternberg Task","61","49833","66","yes","1024"
"92.5373134328","92.5373134328","752.47761194","752.47761194","black","experiment","legacy","legacy","legacy","0","uniform","1","undefined","1","right","66","66","0","0","66","66","66","0","0","0","66","66","66","0","66","10/23/22 09:53:51","The main experiment item","yes","SternbergTask.osexp","C:/Users/casme/OneDrive/Desktop/Fall 2022","no","mono","no","18","no","white","no","yes","768","legacy","54","11","C:/Users/casme/OneDrive/Desktop/Fall 2022/IC-subjectx-2.csv","legacy","9 7 4 5 8","Lentiform Loewenfeld","3.3.12","0","n","0","right","right","left","NA","right","583","8882","40773","NA","583","2","legacy","5","1024","2","48000","-16","experiment","2","even","6","455109","451813","2523","124463","452899","452900","325273","2526","83689","NA","457115","457699","453905","11409","457115","Sternberg Task","62","50416","67","yes","1024"
"92.6470588235","92.6470588235","749.5","749.5","black","experiment","legacy","legacy","legacy","0","uniform","1","undefined","1","left","67","67","0","0","67","67","67","0","0","0","67","67","67","0","67","10/23/22 09:53:51","The main experiment item","yes","SternbergTask.osexp","C:/Users/casme/OneDrive/Desktop/Fall 2022","no","mono","no","18","no","white","no","yes","768","legacy","55","11","C:/Users/casme/OneDrive/Desktop/Fall 2022/IC-subjectx-2.csv","legacy","8","Lentiform Loewenfeld","3.3.12","1","y","0","left","right","left","NA","left","550","8882","40773","NA","550","2","legacy","1","1024","2","48000","-16","experiment","2","even","8","460993","457706","2523","124463","458781","458783","325273","2526","83689","NA","462996","463546","459788","11409","462996","Sternberg Task","63","50966","68","yes","1024"
"92.7536231884","92.7536231884","745.753623188","745.753623188","black","experiment","legacy","legacy","legacy","0","uniform","1","undefined","1","left","68","68","0","0","68","68","68","0","0","0","68","68","68","0","68","10/23/22 09:53:51","The main experiment item","yes","SternbergTask.osexp","C:/Users/casme/OneDrive/Desktop/Fall 2022","no","mono","no","18","no","white","no","yes","768","legacy","56","11","C:/Users/casme/OneDrive/Desktop/Fall 2022/IC-subjectx-2.csv","legacy","3 5 4 7","Lentiform Loewenfeld","3.3.12","1","y","0","left","right","left","NA","left","491","8882","40773","NA","491","2","legacy","4","1024","2","48000","-16","experiment","2","even","3","466842","463553","2523","124463","464630","464632","325273","2526","83689","NA","468847","469338","465637","11409","468846","Sternberg Task","64","51457","69","yes","1024"
"92.8571428571","92.8571428571","744.742857143","744.742857143","black","experiment","legacy","legacy","legacy","0","uniform","1","undefined","1","right","69","69","0","0","69","69","69","0","0","0","69","69","69","0","69","10/23/22 09:53:51","The main experiment item","yes","SternbergTask.osexp","C:/Users/casme/OneDrive/Desktop/Fall 2022","no","mono","no","18","no","white","no","yes","768","legacy","57","11","C:/Users/casme/OneDrive/Desktop/Fall 2022/IC-subjectx-2.csv","legacy","2 6 4 3 9","Lentiform Loewenfeld","3.3.12","0","n","0","right","right","left","NA","right","675","8882","40773","NA","675","2","legacy","5","1024","2","48000","-16","experiment","2","even","1","472632","469345","2523","124463","470421","470423","325273","2526","83689","NA","474637","475313","471427","11409","474637","Sternberg Task","65","52132","70","yes","1024"
"92.9577464789","92.9577464789","742.732394366","742.732394366","black","experiment","legacy","legacy","legacy","0","uniform","1","undefined","1","right","70","70","0","0","70","70","70","0","0","0","70","70","70","0","70","10/23/22 09:53:51","The main experiment item","yes","SternbergTask.osexp","C:/Users/casme/OneDrive/Desktop/Fall 2022","no","mono","no","18","no","white","no","yes","768","legacy","58","11","C:/Users/casme/OneDrive/Desktop/Fall 2022/IC-subjectx-2.csv","legacy","8 4 3 5","Lentiform Loewenfeld","3.3.12","0","n","0","right","right","left","NA","right","602","8882","40773","NA","602","2","legacy","4","1024","2","48000","-16","experiment","2","even","6","478612","475320","2523","124463","476401","476403","325273","2526","83689","NA","480616","481219","477407","11409","480616","Sternberg Task","66","52734","71","yes","1024"
"93.0555555556","93.0555555556","740.069444444","740.069444444","black","experiment","legacy","legacy","legacy","0","uniform","1","undefined","1","left","71","71","0","0","71","71","71","0","0","0","71","71","71","0","71","10/23/22 09:53:51","The main experiment item","yes","SternbergTask.osexp","C:/Users/casme/OneDrive/Desktop/Fall 2022","no","mono","no","18","no","white","no","yes","768","legacy","59","11","C:/Users/casme/OneDrive/Desktop/Fall 2022/IC-subjectx-2.csv","legacy","8 7 3","Lentiform Loewenfeld","3.3.12","1","y","0","left","right","left","NA","left","551","8882","40773","NA","551","2","legacy","3","1024","2","48000","-16","experiment","2","even","8","484521","481224","2523","124463","482309","482311","325273","2526","83689","NA","486525","487077","483316","11409","486525","Sternberg Task","67","53285","72","yes","1024"
"93.1506849315","93.1506849315","738.767123288","738.767123288","black","experiment","legacy","legacy","legacy","0","uniform","1","undefined","1","left","72","72","0","0","72","72","72","0","0","0","72","72","72","0","72","10/23/22 09:53:51","The main experiment item","yes","SternbergTask.osexp","C:/Users/casme/OneDrive/Desktop/Fall 2022","no","mono","no","18","no","white","no","yes","768","legacy","60","11","C:/Users/casme/OneDrive/Desktop/Fall 2022/IC-subjectx-2.csv","legacy","4 6 5 8","Lentiform Loewenfeld","3.3.12","1","y","0","left","right","left","NA","left","645","8882","40773","NA","645","2","legacy","4","1024","2","48000","-16","experiment","2","even","4","490382","487084","2523","124463","488172","488174","325273","2526","83689","NA","492385","493031","489177","11409","492385","Sternberg Task","68","53930","73","yes","1024"
"91.8918918919","91.8918918919","755.810810811","755.810810811","black","experiment","legacy","legacy","legacy","0","uniform","0","undefined","0","right","73","73","0","0","73","73","73","0","0","0","73","73","73","0","73","10/23/22 09:53:51","The main experiment item","yes","SternbergTask.osexp","C:/Users/casme/OneDrive/Desktop/Fall 2022","no","mono","no","18","no","white","no","yes","768","legacy","61","11","C:/Users/casme/OneDrive/Desktop/Fall 2022/IC-subjectx-2.csv","legacy","8 2 1 4 5 9","Lentiform Loewenfeld","3.3.12","0","n","0","None","right","left","NA","None","2000","8882","40773","NA","2000","2","legacy","6","1024","2","48000","-16","experiment","2","even","7","496330","493038","2523","124463","494120","494122","325273","2526","83689","NA","498337","500337","495126","11409","498336","Sternberg Task","68","55930","74","yes","1024"
"92","92","750.706666667","750.706666667","black","experiment","legacy","legacy","legacy","0","uniform","1","undefined","1","right","74","74","0","0","74","74","74","0","0","0","74","74","74","0","74","10/23/22 09:53:51","The main experiment item","yes","SternbergTask.osexp","C:/Users/casme/OneDrive/Desktop/Fall 2022","no","mono","no","18","no","white","no","yes","768","legacy","62","11","C:/Users/casme/OneDrive/Desktop/Fall 2022/IC-subjectx-2.csv","legacy","1","Lentiform Loewenfeld","3.3.12","0","n","0","right","right","left","NA","right","373","8882","40773","NA","373","2","legacy","1","1024","2","48000","-16","experiment","2","even","7","503628","493038","2523","124463","501417","501418","500343","2526","83689","NA","505633","506007","502423","11409","505632","Sternberg Task","69","56303","75","yes","1024"
"92.1052631579","92.1052631579","753.355263158","753.355263158","black","experiment","legacy","legacy","legacy","0","uniform","1","undefined","1","left","75","75","0","0","75","75","75","0","0","0","75","75","75","0","75","10/23/22 09:53:51","The main experiment item","yes","SternbergTask.osexp","C:/Users/casme/OneDrive/Desktop/Fall 2022","no","mono","no","18","no","white","no","yes","768","legacy","63","11","C:/Users/casme/OneDrive/Desktop/Fall 2022/IC-subjectx-2.csv","legacy","7 8 6 3 1","Lentiform Loewenfeld","3.3.12","5","y","0","left","right","left","NA","left","952","8882","40773","NA","952","2","legacy","5","1024","2","48000","-16","experiment","2","even","1","509312","506012","2523","124463","507102","507103","500343","2526","83689","NA","511319","512271","508108","11409","511318","Sternberg Task","70","57255","76","yes","1024"
"92.2077922078","92.2077922078","755.649350649","755.649350649","black","experiment","legacy","legacy","legacy","0","uniform","1","undefined","1","left","76","76","0","0","76","76","76","0","0","0","76","76","76","0","76","10/23/22 09:53:51","The main experiment item","yes","SternbergTask.osexp","C:/Users/casme/OneDrive/Desktop/Fall 2022","no","mono","no","18","no","white","no","yes","768","legacy","64","11","C:/Users/casme/OneDrive/Desktop/Fall 2022/IC-subjectx-2.csv","legacy","3 9 6 2","Lentiform Loewenfeld","3.3.12","4","y","0","left","right","left","NA","left","930","8882","40773","NA","930","2","legacy","4","1024","2","48000","-16","experiment","2","even","2","515572","512278","2523","124463","513361","513363","500343","2526","83689","NA","517579","518509","514367","11409","517579","Sternberg Task","71","58185","77","yes","1024"
"92.3076923077","92.3076923077","757.769230769","757.769230769","black","experiment","legacy","legacy","legacy","0","uniform","1","undefined","1","left","77","77","0","0","77","77","77","0","0","0","77","77","77","0","77","10/23/22 09:53:51","The main experiment item","yes","SternbergTask.osexp","C:/Users/casme/OneDrive/Desktop/Fall 2022","no","mono","no","18","no","white","no","yes","768","legacy","65","11","C:/Users/casme/OneDrive/Desktop/Fall 2022/IC-subjectx-2.csv","legacy","3 9 7 6 4","Lentiform Loewenfeld","3.3.12","3","y","0","left","right","left","NA","left","921","8882","40773","NA","921","2","legacy","5","1024","2","48000","-16","experiment","2","even","7","521816","518516","2523","124463","519603","519605","500343","2526","83689","NA","523821","524743","520611","11409","523821","Sternberg Task","72","59106","78","yes","1024"
"92.4050632911","92.4050632911","759.405063291","759.405063291","black","experiment","legacy","legacy","legacy","0","uniform","1","undefined","1","left","78","78","0","0","78","78","78","0","0","0","78","78","78","0","78","10/23/22 09:53:51","The main experiment item","yes","SternbergTask.osexp","C:/Users/casme/OneDrive/Desktop/Fall 2022","no","mono","no","18","no","white","no","yes","768","legacy","66","11","C:/Users/casme/OneDrive/Desktop/Fall 2022/IC-subjectx-2.csv","legacy","2 5 4 8 7","Lentiform Loewenfeld","3.3.12","3","y","0","left","right","left","NA","left","887","8882","40773","NA","887","2","legacy","5","1024","2","48000","-16","experiment","2","even","4","528041","524751","2523","124463","525829","525831","500343","2526","83689","NA","530044","530932","526836","11409","530044","Sternberg Task","73","59993","79","yes","1024"
"92.5","92.5","756.225","756.225","black","experiment","legacy","legacy","legacy","0","uniform","1","undefined","1","right","79","79","0","0","79","79","79","0","0","0","79","79","79","0","79","10/23/22 09:53:51","The main experiment item","yes","SternbergTask.osexp","C:/Users/casme/OneDrive/Desktop/Fall 2022","no","mono","no","18","no","white","no","yes","768","legacy","67","11","C:/Users/casme/OneDrive/Desktop/Fall 2022/IC-subjectx-2.csv","legacy","9 8 2 7 4","Lentiform Loewenfeld","3.3.12","0","n","0","right","right","left","NA","right","505","8882","40773","NA","505","2","legacy","5","1024","2","48000","-16","experiment","2","even","5","534226","530938","2523","124463","532015","532017","500343","2526","83689","NA","536232","536738","533021","11409","536231","Sternberg Task","74","60498","80","yes","1024"
"92.5925925926","92.5925925926","756.87654321","756.87654321","black","experiment","legacy","legacy","legacy","0","uniform","1","undefined","1","right","80","80","0","0","80","80","80","0","0","0","80","80","80","0","80","10/23/22 09:53:51","The main experiment item","yes","SternbergTask.osexp","C:/Users/casme/OneDrive/Desktop/Fall 2022","no","mono","no","18","no","white","no","yes","768","legacy","68","11","C:/Users/casme/OneDrive/Desktop/Fall 2022/IC-subjectx-2.csv","legacy","1 8 7","Lentiform Loewenfeld","3.3.12","0","n","0","right","right","left","NA","right","809","8882","40773","NA","809","2","legacy","3","1024","2","48000","-16","experiment","2","even","4","540039","536745","2523","124463","537827","537829","500343","2526","83689","NA","542045","542854","538834","11409","542044","Sternberg Task","75","61307","81","yes","1024"
"92.6829268293","92.6829268293","756.890243902","756.890243902","black","experiment","legacy","legacy","legacy","0","uniform","1","undefined","1","left","81","81","0","0","81","81","81","0","0","0","81","81","81","0","81","10/23/22 09:53:51","The main experiment item","yes","SternbergTask.osexp","C:/Users/casme/OneDrive/Desktop/Fall 2022","no","mono","no","18","no","white","no","yes","768","legacy","69","11","C:/Users/casme/OneDrive/Desktop/Fall 2022/IC-subjectx-2.csv","legacy","9 4 2","Lentiform Loewenfeld","3.3.12","1","y","0","left","right","left","NA","left","758","8882","40773","NA","758","2","legacy","3","1024","2","48000","-16","experiment","2","even","9","546136","542860","2523","124463","543927","543929","500343","2526","83689","NA","548141","548899","544931","11409","548140","Sternberg Task","76","62065","82","yes","1024"
"92.7710843373","92.7710843373","756.626506024","756.626506024","black","experiment","legacy","legacy","legacy","0","uniform","1","undefined","1","left","82","82","0","0","82","82","82","0","0","0","82","82","82","0","82","10/23/22 09:53:51","The main experiment item","yes","SternbergTask.osexp","C:/Users/casme/OneDrive/Desktop/Fall 2022","no","mono","no","18","no","white","no","yes","768","legacy","70","11","C:/Users/casme/OneDrive/Desktop/Fall 2022/IC-subjectx-2.csv","legacy","6 5","Lentiform Loewenfeld","3.3.12","2","y","0","left","right","left","NA","left","735","8882","40773","NA","735","2","legacy","2","1024","2","48000","-16","experiment","2","even","5","552195","548906","2523","124463","549983","549985","500343","2526","83689","NA","554200","554935","550990","11409","554199","Sternberg Task","77","62800","83","yes","1024"
"92.8571428571","92.8571428571","752.797619048","752.797619048","black","experiment","legacy","legacy","legacy","0","uniform","1","undefined","1","right","83","83","0","0","83","83","83","0","0","0","83","83","83","0","83","10/23/22 09:53:51","The main experiment item","yes","SternbergTask.osexp","C:/Users/casme/OneDrive/Desktop/Fall 2022","no","mono","no","18","no","white","no","yes","768","legacy","71","11","C:/Users/casme/OneDrive/Desktop/Fall 2022/IC-subjectx-2.csv","legacy","1 3 2 6 9","Lentiform Loewenfeld","3.3.12","0","n","0","right","right","left","NA","right","435","8882","40773","NA","435","2","legacy","5","1024","2","48000","-16","experiment","2","even","5","558239","554942","2523","124463","556029","556031","500343","2526","83689","NA","560241","560676","557036","11409","560241","Sternberg Task","78","63235","84","yes","1024"
"92.9411764706","92.9411764706","756.788235294","756.788235294","black","experiment","legacy","legacy","legacy","0","uniform","1","undefined","1","right","84","84","0","0","84","84","84","0","0","0","84","84","84","0","84","10/23/22 09:53:51","The main experiment item","yes","SternbergTask.osexp","C:/Users/casme/OneDrive/Desktop/Fall 2022","no","mono","no","18","no","white","no","yes","768","legacy","72","11","C:/Users/casme/OneDrive/Desktop/Fall 2022/IC-subjectx-2.csv","legacy","9 5 3 2 8 6","Lentiform Loewenfeld","3.3.12","0","n","0","right","right","left","NA","right","1092","8882","40773","NA","1092","2","legacy","6","1024","2","48000","-16","experiment","2","even","7","563977","560683","2523","124463","561766","561768","500343","2526","83689","NA","565982","567075","562773","11409","565982","Sternberg Task","79","64327","85","yes","1024"
"93.023255814","93.023255814","757.604651163","757.604651163","black","experiment","legacy","legacy","legacy","0","uniform","1","undefined","1","left","85","85","0","0","85","85","85","0","0","0","85","85","85","0","85","10/23/22 09:53:51","The main experiment item","yes","SternbergTask.osexp","C:/Users/casme/OneDrive/Desktop/Fall 2022","no","mono","no","18","no","white","no","yes","768","legacy","73","11","C:/Users/casme/OneDrive/Desktop/Fall 2022/IC-subjectx-2.csv","legacy","7 1 8 5 6 2","Lentiform Loewenfeld","3.3.12","2","y","0","left","right","left","NA","left","827","8882","40773","NA","827","2","legacy","6","1024","2","48000","-16","experiment","2","even","1","570379","567082","2523","124463","568169","568170","500343","2526","83689","NA","572384","573212","569174","11409","572384","Sternberg Task","80","65154","86","yes","1024"
"93.1034482759","93.1034482759","757.609195402","757.609195402","black","experiment","legacy","legacy","legacy","0","uniform","1","undefined","1","left","86","86","0","0","86","86","86","0","0","0","86","86","86","0","86","10/23/22 09:53:51","The main experiment item","yes","SternbergTask.osexp","C:/Users/casme/OneDrive/Desktop/Fall 2022","no","mono","no","18","no","white","no","yes","768","legacy","74","11","C:/Users/casme/OneDrive/Desktop/Fall 2022/IC-subjectx-2.csv","legacy","6 9 3 1","Lentiform Loewenfeld","3.3.12","4","y","0","left","right","left","NA","left","758","8882","40773","NA","758","2","legacy","4","1024","2","48000","-16","experiment","2","even","1","576513","573218","2523","124463","574303","574305","500343","2526","83689","NA","578518","579277","575308","11409","578518","Sternberg Task","81","65912","87","yes","1024"
"93.1818181818","93.1818181818","756.75","756.75","black","experiment","legacy","legacy","legacy","0","uniform","1","undefined","1","left","87","87","0","0","87","87","87","0","0","0","87","87","87","0","87","10/23/22 09:53:51","The main experiment item","yes","SternbergTask.osexp","C:/Users/casme/OneDrive/Desktop/Fall 2022","no","mono","no","18","no","white","no","yes","768","legacy","75","11","C:/Users/casme/OneDrive/Desktop/Fall 2022/IC-subjectx-2.csv","legacy","7 6","Lentiform Loewenfeld","3.3.12","2","y","0","left","right","left","NA","left","682","8882","40773","NA","682","2","legacy","2","1024","2","48000","-16","experiment","2","even","6","582570","579283","2523","124463","580360","580362","500343","2526","83689","NA","584574","585257","581365","11409","584574","Sternberg Task","82","66594","88","yes","1024"
"93.2584269663","93.2584269663","757.235955056","757.235955056","black","experiment","legacy","legacy","legacy","0","uniform","1","undefined","1","right","88","88","0","0","88","88","88","0","0","0","88","88","88","0","88","10/23/22 09:53:51","The main experiment item","yes","SternbergTask.osexp","C:/Users/casme/OneDrive/Desktop/Fall 2022","no","mono","no","18","no","white","no","yes","768","legacy","76","11","C:/Users/casme/OneDrive/Desktop/Fall 2022/IC-subjectx-2.csv","legacy","8 6 3 4 7","Lentiform Loewenfeld","3.3.12","0","n","0","right","right","left","NA","right","800","8882","40773","NA","800","2","legacy","5","1024","2","48000","-16","experiment","2","even","1","588560","585264","2523","124463","586348","586350","500343","2526","83689","NA","590564","591364","587354","11409","590564","Sternberg Task","83","67394","89","yes","1024"
"93.3333333333","93.3333333333","756.033333333","756.033333333","black","experiment","legacy","legacy","legacy","0","uniform","1","undefined","1","right","89","89","0","0","89","89","89","0","0","0","89","89","89","0","89","10/23/22 09:53:51","The main experiment item","yes","SternbergTask.osexp","C:/Users/casme/OneDrive/Desktop/Fall 2022","no","mono","no","18","no","white","no","yes","768","legacy","77","11","C:/Users/casme/OneDrive/Desktop/Fall 2022/IC-subjectx-2.csv","legacy","1 5 3 2 8","Lentiform Loewenfeld","3.3.12","0","n","0","right","right","left","NA","right","649","8882","40773","NA","649","2","legacy","5","1024","2","48000","-16","experiment","2","even","4","594656","591371","2523","124463","592445","592446","500343","2526","83689","NA","596661","597310","593451","11409","596660","Sternberg Task","84","68043","90","yes","1024"
"93.4065934066","93.4065934066","758.791208791","758.791208791","black","experiment","legacy","legacy","legacy","0","uniform","1","undefined","1","left","90","90","0","0","90","90","90","0","0","0","90","90","90","0","90","10/23/22 09:53:51","The main experiment item","yes","SternbergTask.osexp","C:/Users/casme/OneDrive/Desktop/Fall 2022","no","mono","no","18","no","white","no","yes","768","legacy","78","11","C:/Users/casme/OneDrive/Desktop/Fall 2022/IC-subjectx-2.csv","legacy","2 6 1 7 4","Lentiform Loewenfeld","3.3.12","2","y","0","left","right","left","NA","left","1007","8882","40773","NA","1007","2","legacy","5","1024","2","48000","-16","experiment","2","even","6","600615","597316","2523","124463","598403","598405","500343","2526","83689","NA","602621","603629","599409","11409","602619","Sternberg Task","85","69050","91","yes","1024"
"93.4782608696","93.4782608696","757.423913043","757.423913043","black","experiment","legacy","legacy","legacy","0","uniform","1","undefined","1","right","91","91","0","0","91","91","91","0","0","0","91","91","91","0","91","10/23/22 09:53:51","The main experiment item","yes","SternbergTask.osexp","C:/Users/casme/OneDrive/Desktop/Fall 2022","no","mono","no","18","no","white","no","yes","768","legacy","79","11","C:/Users/casme/OneDrive/Desktop/Fall 2022/IC-subjectx-2.csv","legacy","2 8 9","Lentiform Loewenfeld","3.3.12","0","n","0","right","right","left","NA","right","633","8882","40773","NA","633","2","legacy","3","1024","2","48000","-16","experiment","2","even","6","606931","603637","2523","124463","604719","604721","500343","2526","83689","NA","608935","609568","605726","11409","608935","Sternberg Task","86","69683","92","yes","1024"
"92.4731182796","92.4731182796","759.52688172","759.52688172","black","experiment","legacy","legacy","legacy","0","uniform","0","undefined","0","right","92","92","0","0","92","92","92","0","0","0","92","92","92","0","92","10/23/22 09:53:51","The main experiment item","yes","SternbergTask.osexp","C:/Users/casme/OneDrive/Desktop/Fall 2022","no","mono","no","18","no","white","no","yes","768","legacy","80","11","C:/Users/casme/OneDrive/Desktop/Fall 2022/IC-subjectx-2.csv","legacy","5 9 2 3","Lentiform Loewenfeld","3.3.12","0","n","0","left","right","left","NA","left","953","8882","40773","NA","953","2","legacy","4","1024","2","48000","-16","experiment","2","even","8","612870","609575","2523","124463","610662","610664","500343","2526","83689","NA","614876","615829","611666","11409","614875","Sternberg Task","86","70636","93","yes","1024"
"92.5531914894","92.5531914894","757.978723404","757.978723404","black","experiment","legacy","legacy","legacy","0","uniform","1","undefined","1","left","93","93","0","0","93","93","93","0","0","0","93","93","93","0","93","10/23/22 09:53:51","The main experiment item","yes","SternbergTask.osexp","C:/Users/casme/OneDrive/Desktop/Fall 2022","no","mono","no","18","no","white","no","yes","768","legacy","81","11","C:/Users/casme/OneDrive/Desktop/Fall 2022/IC-subjectx-2.csv","legacy","7 2 3","Lentiform Loewenfeld","3.3.12","3","y","0","left","right","left","NA","left","614","8882","40773","NA","614","2","legacy","3","1024","2","48000","-16","experiment","2","even","3","619125","609575","2523","124463","616913","616915","615835","2526","83689","NA","621130","621745","617919","11409","621129","Sternberg Task","87","71250","94","yes","1024"
"92.6315789474","92.6315789474","757.284210526","757.284210526","black","experiment","legacy","legacy","legacy","0","uniform","1","undefined","1","right","94","94","0","0","94","94","94","0","0","0","94","94","94","0","94","10/23/22 09:53:51","The main experiment item","yes","SternbergTask.osexp","C:/Users/casme/OneDrive/Desktop/Fall 2022","no","mono","no","18","no","white","no","yes","768","legacy","82","11","C:/Users/casme/OneDrive/Desktop/Fall 2022/IC-subjectx-2.csv","legacy","6 9 5","Lentiform Loewenfeld","3.3.12","0","n","0","right","right","left","NA","right","692","8882","40773","NA","692","2","legacy","3","1024","2","48000","-16","experiment","2","even","8","625046","621752","2523","124463","622837","622839","615835","2526","83689","NA","627049","627742","623844","11409","627049","Sternberg Task","88","71942","95","yes","1024"
"91.6666666667","91.6666666667","763.260416667","763.260416667","black","experiment","legacy","legacy","legacy","0","uniform","0","undefined","0","right","95","95","0","0","95","95","95","0","0","0","95","95","95","0","95","10/23/22 09:53:51","The main experiment item","yes","SternbergTask.osexp","C:/Users/casme/OneDrive/Desktop/Fall 2022","no","mono","no","18","no","white","no","yes","768","legacy","83","11","C:/Users/casme/OneDrive/Desktop/Fall 2022/IC-subjectx-2.csv","legacy","3 4 9 6 7 8","Lentiform Loewenfeld","3.3.12","0","n","0","left","right","left","NA","left","1331","8882","40773","NA","1331","2","legacy","6","1024","2","48000","-16","experiment","2","even","2","631051","627749","2523","124463","628839","628840","615835","2526","83689","NA","633055","634387","629844","11409","633055","Sternberg Task","88","73273","96","yes","1024"
"91.7525773196","91.7525773196","763.195876289","763.195876289","black","experiment","legacy","legacy","legacy","0","uniform","1","undefined","1","left","96","96","0","0","96","96","96","0","0","0","96","96","96","0","96","10/23/22 09:53:51","The main experiment item","yes","SternbergTask.osexp","C:/Users/casme/OneDrive/Desktop/Fall 2022","no","mono","no","18","no","white","no","yes","768","legacy","84","11","C:/Users/casme/OneDrive/Desktop/Fall 2022/IC-subjectx-2.csv","legacy","4 9 7 8 5 3","Lentiform Loewenfeld","3.3.12","4","y","0","left","right","left","NA","left","757","8882","40773","NA","757","2","legacy","6","1024","2","48000","-16","experiment","2","even","8","637687","627749","2523","124463","635475","635477","634392","2526","83689","NA","639692","640450","636481","11409","639692","Sternberg Task","89","74030","97","yes","1024"
"91.8367346939","91.8367346939","764.020408163","764.020408163","black","experiment","legacy","legacy","legacy","0","uniform","1","undefined","1","left","97","97","0","0","97","97","97","0","0","0","97","97","97","0","97","10/23/22 09:53:51","The main experiment item","yes","SternbergTask.osexp","C:/Users/casme/OneDrive/Desktop/Fall 2022","no","mono","no","18","no","white","no","yes","768","legacy","85","11","C:/Users/casme/OneDrive/Desktop/Fall 2022/IC-subjectx-2.csv","legacy","2 4 6 9","Lentiform Loewenfeld","3.3.12","3","y","0","left","right","left","NA","left","844","8882","40773","NA","844","2","legacy","4","1024","2","48000","-16","experiment","2","even","6","643745","640456","2523","124463","641533","641535","634392","2526","83689","NA","645751","646596","642541","11409","645750","Sternberg Task","90","74874","98","yes","1024"
"91.9191919192","91.9191919192","760.97979798","760.97979798","black","experiment","legacy","legacy","legacy","0","uniform","1","undefined","1","right","98","98","0","0","98","98","98","0","0","0","98","98","98","0","98","10/23/22 09:53:51","The main experiment item","yes","SternbergTask.osexp","C:/Users/casme/OneDrive/Desktop/Fall 2022","no","mono","no","18","no","white","no","yes","768","legacy","86","11","C:/Users/casme/OneDrive/Desktop/Fall 2022/IC-subjectx-2.csv","legacy","5","Lentiform Loewenfeld","3.3.12","0","n","0","right","right","left","NA","right","463","8882","40773","NA","463","2","legacy","1","1024","2","48000","-16","experiment","2","even","8","649896","646602","2523","124463","647686","647688","634392","2526","83689","NA","651901","652366","648691","11409","651901","Sternberg Task","91","75337","99","yes","1024"
"92","92","760.8","760.8","black","experiment","legacy","legacy","legacy","0","uniform","1","undefined","1","right","99","99","0","0","99","99","99","0","0","0","99","99","99","0","99","10/23/22 09:53:51","The main experiment item","yes","SternbergTask.osexp","C:/Users/casme/OneDrive/Desktop/Fall 2022","no","mono","no","18","no","white","no","yes","768","legacy","87","11","C:/Users/casme/OneDrive/Desktop/Fall 2022/IC-subjectx-2.csv","legacy","7 1 8 4 9 3","Lentiform Loewenfeld","3.3.12","0","n","0","right","right","left","NA","right","743","8882","40773","NA","743","2","legacy","6","1024","2","48000","-16","experiment","2","even","6","655659","652373","2523","124463","653448","653450","634392","2526","83689","NA","657664","658408","654454","11409","657664","Sternberg Task","92","76080","100","yes","1024"
"92.0792079208","92.0792079208","757.376237624","757.376237624","black","experiment","legacy","legacy","legacy","0","uniform","1","undefined","1","left","100","100","0","0","100","100","100","0","0","0","100","100","100","0","100","10/23/22 09:53:51","The main experiment item","yes","SternbergTask.osexp","C:/Users/casme/OneDrive/Desktop/Fall 2022","no","mono","no","18","no","white","no","yes","768","legacy","88","11","C:/Users/casme/OneDrive/Desktop/Fall 2022/IC-subjectx-2.csv","legacy","8 5 1 3 9","Lentiform Loewenfeld","3.3.12","4","y","0","left","right","left","NA","left","415","8882","40773","NA","415","2","legacy","5","1024","2","48000","-16","experiment","2","even","3","661703","658413","2523","124463","659493","659494","634392","2526","83689","NA","663707","664122","660498","11409","663707","Sternberg Task","93","76495","101","yes","1024"
"92.1568627451","92.1568627451","753.892156863","753.892156863","black","experiment","legacy","legacy","legacy","0","uniform","1","undefined","1","right","101","101","0","0","101","101","101","0","0","0","101","101","101","0","101","10/23/22 09:53:51","The main experiment item","yes","SternbergTask.osexp","C:/Users/casme/OneDrive/Desktop/Fall 2022","no","mono","no","18","no","white","no","yes","768","legacy","89","11","C:/Users/casme/OneDrive/Desktop/Fall 2022/IC-subjectx-2.csv","legacy","8 4 3 9","Lentiform Loewenfeld","3.3.12","0","n","0","right","right","left","NA","right","402","8882","40773","NA","402","2","legacy","4","1024","2","48000","-16","experiment","2","even","5","667412","664128","2523","124463","665201","665203","634392","2526","83689","NA","669414","669817","666207","11409","669414","Sternberg Task","94","76897","102","yes","1024"
"92.2330097087","92.2330097087","751.737864078","751.737864078","black","experiment","legacy","legacy","legacy","0","uniform","1","undefined","1","right","102","102","0","0","102","102","102","0","0","0","102","102","102","0","102","10/23/22 09:53:51","The main experiment item","yes","SternbergTask.osexp","C:/Users/casme/OneDrive/Desktop/Fall 2022","no","mono","no","18","no","white","no","yes","768","legacy","90","11","C:/Users/casme/OneDrive/Desktop/Fall 2022/IC-subjectx-2.csv","legacy","1 7 8 3 9","Lentiform Loewenfeld","3.3.12","0","n","0","right","right","left","NA","right","532","8882","40773","NA","532","2","legacy","5","1024","2","48000","-16","experiment","2","even","2","673120","669823","2523","124463","670909","670911","634392","2526","83689","NA","675126","675660","671915","11409","675125","Sternberg Task","95","77429","103","yes","1024"
"91.3461538462","91.3461538462","749.182692308","749.182692308","black","experiment","legacy","legacy","legacy","0","uniform","0","undefined","0","left","103","103","0","0","103","103","103","0","0","0","103","103","103","0","103","10/23/22 09:53:51","The main experiment item","yes","SternbergTask.osexp","C:/Users/casme/OneDrive/Desktop/Fall 2022","no","mono","no","18","no","white","no","yes","768","legacy","91","11","C:/Users/casme/OneDrive/Desktop/Fall 2022/IC-subjectx-2.csv","legacy","2 3 7 4","Lentiform Loewenfeld","3.3.12","1","y","0","right","right","left","NA","right","486","8882","40773","NA","486","2","legacy","4","1024","2","48000","-16","experiment","2","even","2","678955","675668","2523","124463","676745","676747","634392","2526","83689","NA","680956","681443","677752","11409","680956","Sternberg Task","95","77915","104","yes","1024"
"91.4285714286","91.4285714286","749.8","749.8","black","experiment","legacy","legacy","legacy","0","uniform","1","undefined","1","left","104","104","0","0","104","104","104","0","0","0","104","104","104","0","104","10/23/22 09:53:51","The main experiment item","yes","SternbergTask.osexp","C:/Users/casme/OneDrive/Desktop/Fall 2022","no","mono","no","18","no","white","no","yes","768","legacy","92","11","C:/Users/casme/OneDrive/Desktop/Fall 2022/IC-subjectx-2.csv","legacy","3 5 9 6 2 4","Lentiform Loewenfeld","3.3.12","1","y","0","left","right","left","NA","left","814","8882","40773","NA","814","2","legacy","6","1024","2","48000","-16","experiment","2","even","3","684740","675668","2523","124463","682529","682531","681450","2526","83689","NA","686745","687560","683535","11409","686745","Sternberg Task","96","78729","105","yes","1024"
"91.5094339623","91.5094339623","750.490566038","750.490566038","black","experiment","legacy","legacy","legacy","0","uniform","1","undefined","1","left","105","105","0","0","105","105","105","0","0","0","105","105","105","0","105","10/23/22 09:53:51","The main experiment item","yes","SternbergTask.osexp","C:/Users/casme/OneDrive/Desktop/Fall 2022","no","mono","no","18","no","white","no","yes","768","legacy","93","11","C:/Users/casme/OneDrive/Desktop/Fall 2022/IC-subjectx-2.csv","legacy","2 4 8 5 1 3","Lentiform Loewenfeld","3.3.12","1","y","0","left","right","left","NA","left","823","8882","40773","NA","823","2","legacy","6","1024","2","48000","-16","experiment","2","even","2","690866","687567","2523","124463","688656","688657","681450","2526","83689","NA","692872","693696","689662","11409","692871","Sternberg Task","97","79552","106","yes","1024"
"91.5887850467","91.5887850467","750.457943925","750.457943925","black","experiment","legacy","legacy","legacy","0","uniform","1","undefined","1","right","106","106","0","0","106","106","106","0","0","0","106","106","106","0","106","10/23/22 09:53:51","The main experiment item","yes","SternbergTask.osexp","C:/Users/casme/OneDrive/Desktop/Fall 2022","no","mono","no","18","no","white","no","yes","768","legacy","94","11","C:/Users/casme/OneDrive/Desktop/Fall 2022/IC-subjectx-2.csv","legacy","1 4 9 2 5","Lentiform Loewenfeld","3.3.12","0","n","0","right","right","left","NA","right","747","8882","40773","NA","747","2","legacy","5","1024","2","48000","-16","experiment","2","even","7","696994","693702","2523","124463","694784","694785","681450","2526","83689","NA","698998","699746","695790","11409","698998","Sternberg Task","98","80299","107","yes","1024"
"91.6666666667","91.6666666667","751.074074074","751.074074074","black","experiment","legacy","legacy","legacy","0","uniform","1","undefined","1","right","107","107","0","0","107","107","107","0","0","0","107","107","107","0","107","10/23/22 09:53:51","The main experiment item","yes","SternbergTask.osexp","C:/Users/casme/OneDrive/Desktop/Fall 2022","no","mono","no","18","no","white","no","yes","768","legacy","95","11","C:/Users/casme/OneDrive/Desktop/Fall 2022/IC-subjectx-2.csv","legacy","1 7 5 2 9","Lentiform Loewenfeld","3.3.12","0","n","0","right","right","left","NA","right","817","8882","40773","NA","817","2","legacy","5","1024","2","48000","-16","experiment","2","even","3","703050","699753","2523","124463","700840","700841","681450","2526","83689","NA","705056","705874","701845","11409","705056","Sternberg Task","99","81116","108","yes","1024"
"91.7431192661","91.7431192661","750.559633028","750.559633028","black","experiment","legacy","legacy","legacy","0","uniform","1","undefined","1","right","108","108","0","0","108","108","108","0","0","0","108","108","108","0","108","10/23/22 09:53:51","The main experiment item","yes","SternbergTask.osexp","C:/Users/casme/OneDrive/Desktop/Fall 2022","no","mono","no","18","no","white","no","yes","768","legacy","96","11","C:/Users/casme/OneDrive/Desktop/Fall 2022/IC-subjectx-2.csv","legacy","6 2 9 3 8 4","Lentiform Loewenfeld","3.3.12","0","n","0","right","right","left","NA","right","695","8882","40773","NA","695","2","legacy","6","1024","2","48000","-16","experiment","2","even","1","709155","705880","2523","124463","706946","706948","681450","2526","83689","NA","711159","711855","707951","11409","711159","Sternberg Task","100","81811","109","yes","1024"
"91.8181818182","91.8181818182","755.109090909","755.109090909","black","experiment","legacy","legacy","legacy","0","uniform","1","undefined","1","left","109","109","0","0","109","109","109","0","0","0","109","109","109","0","109","10/23/22 09:53:51","The main experiment item","yes","SternbergTask.osexp","C:/Users/casme/OneDrive/Desktop/Fall 2022","no","mono","no","18","no","white","no","yes","768","legacy","97","11","C:/Users/casme/OneDrive/Desktop/Fall 2022/IC-subjectx-2.csv","legacy","6 1 2","Lentiform Loewenfeld","3.3.12","3","y","0","left","right","left","NA","left","1251","8882","40773","NA","1251","2","legacy","3","1024","2","48000","-16","experiment","2","even","2","715154","711861","2523","124463","712946","712947","681450","2526","83689","NA","717159","718411","713952","11409","717158","Sternberg Task","101","83062","110","yes","1024"
"91.8918918919","91.8918918919","753.657657658","753.657657658","black","experiment","legacy","legacy","legacy","0","uniform","1","undefined","1","left","110","110","0","0","110","110","110","0","0","0","110","110","110","0","110","10/23/22 09:53:51","The main experiment item","yes","SternbergTask.osexp","C:/Users/casme/OneDrive/Desktop/Fall 2022","no","mono","no","18","no","white","no","yes","768","legacy","98","11","C:/Users/casme/OneDrive/Desktop/Fall 2022/IC-subjectx-2.csv","legacy","3 4","Lentiform Loewenfeld","3.3.12","1","y","0","left","right","left","NA","left","594","8882","40773","NA","594","2","legacy","2","1024","2","48000","-16","experiment","2","even","3","721712","718417","2523","124463","719502","719503","681450","2526","83689","NA","723716","724311","720507","11409","723716","Sternberg Task","102","83656","111","yes","1024"
"91.0714285714","91.0714285714","754.151785714","754.151785714","black","experiment","legacy","legacy","legacy","0","uniform","0","undefined","0","left","111","111","0","0","111","111","111","0","0","0","111","111","111","0","111","10/23/22 09:53:51","The main experiment item","yes","SternbergTask.osexp","C:/Users/casme/OneDrive/Desktop/Fall 2022","no","mono","no","18","no","white","no","yes","768","legacy","99","11","C:/Users/casme/OneDrive/Desktop/Fall 2022/IC-subjectx-2.csv","legacy","4 6 2 5 1","Lentiform Loewenfeld","3.3.12","5","y","0","right","right","left","NA","right","809","8882","40773","NA","809","2","legacy","5","1024","2","48000","-16","experiment","2","even","1","727615","724316","2523","124463","725404","725406","681450","2526","83689","NA","729620","730430","726410","11409","729620","Sternberg Task","102","84465","112","yes","1024"
"90.2654867257","90.2654867257","754.814159292","754.814159292","black","experiment","legacy","legacy","legacy","0","uniform","0","undefined","0","right","112","112","0","0","112","112","112","0","0","0","112","112","112","0","112","10/23/22 09:53:51","The main experiment item","yes","SternbergTask.osexp","C:/Users/casme/OneDrive/Desktop/Fall 2022","no","mono","no","18","no","white","no","yes","768","legacy","100","11","C:/Users/casme/OneDrive/Desktop/Fall 2022/IC-subjectx-2.csv","legacy","2 8 9 4 1","Lentiform Loewenfeld","3.3.12","0","n","0","left","right","left","NA","left","829","8882","40773","NA","829","2","legacy","5","1024","2","48000","-16","experiment","2","even","5","733724","724316","2523","124463","731513","731514","730437","2526","83689","NA","735728","736558","732518","11409","735728","Sternberg Task","102","85294","113","yes","1024"
"90.350877193","90.350877193","753.394736842","753.394736842","black","experiment","legacy","legacy","legacy","0","uniform","1","undefined","1","right","113","113","0","0","113","113","113","0","0","0","113","113","113","0","113","10/23/22 09:53:51","The main experiment item","yes","SternbergTask.osexp","C:/Users/casme/OneDrive/Desktop/Fall 2022","no","mono","no","18","no","white","no","yes","768","legacy","101","11","C:/Users/casme/OneDrive/Desktop/Fall 2022/IC-subjectx-2.csv","legacy","5 7 3","Lentiform Loewenfeld","3.3.12","0","n","0","right","right","left","NA","right","593","8882","40773","NA","593","2","legacy","3","1024","2","48000","-16","experiment","2","even","9","739860","724316","2523","124463","737648","737650","736564","2526","83689","NA","741865","742460","738655","11409","741864","Sternberg Task","103","85887","114","yes","1024"
"90.4347826087","90.4347826087","752.617391304","752.617391304","black","experiment","legacy","legacy","legacy","0","uniform","1","undefined","1","right","114","114","0","0","114","114","114","0","0","0","114","114","114","0","114","10/23/22 09:53:51","The main experiment item","yes","SternbergTask.osexp","C:/Users/casme/OneDrive/Desktop/Fall 2022","no","mono","no","18","no","white","no","yes","768","legacy","102","11","C:/Users/casme/OneDrive/Desktop/Fall 2022/IC-subjectx-2.csv","legacy","8 5 7 3 6","Lentiform Loewenfeld","3.3.12","0","n","0","right","right","left","NA","right","664","8882","40773","NA","664","2","legacy","5","1024","2","48000","-16","experiment","2","even","9","745751","742465","2523","124463","743541","743543","736564","2526","83689","NA","747754","748418","744548","11409","747754","Sternberg Task","104","86551","115","yes","1024"
"90.5172413793","90.5172413793","757.5","757.5","black","experiment","legacy","legacy","legacy","0","uniform","1","undefined","1","right","115","115","0","0","115","115","115","0","0","0","115","115","115","0","115","10/23/22 09:53:51","The main experiment item","yes","SternbergTask.osexp","C:/Users/casme/OneDrive/Desktop/Fall 2022","no","mono","no","18","no","white","no","yes","768","legacy","103","11","C:/Users/casme/OneDrive/Desktop/Fall 2022/IC-subjectx-2.csv","legacy","2 8 7 9 5 3","Lentiform Loewenfeld","3.3.12","0","n","0","right","right","left","NA","right","1319","8882","40773","NA","1319","2","legacy","6","1024","2","48000","-16","experiment","2","even","6","751699","748425","2523","124463","749489","749491","736564","2526","83689","NA","753706","755026","750495","11409","753705","Sternberg Task","105","87870","116","yes","1024"
"90.5982905983","90.5982905983","757.068376068","757.068376068","black","experiment","legacy","legacy","legacy","0","uniform","1","undefined","1","right","116","116","0","0","116","116","116","0","0","0","116","116","116","0","116","10/23/22 09:53:51","The main experiment item","yes","SternbergTask.osexp","C:/Users/casme/OneDrive/Desktop/Fall 2022","no","mono","no","18","no","white","no","yes","768","legacy","104","11","C:/Users/casme/OneDrive/Desktop/Fall 2022/IC-subjectx-2.csv","legacy","6 9 4 5 2","Lentiform Loewenfeld","3.3.12","0","n","0","right","right","left","NA","right","707","8882","40773","NA","707","2","legacy","5","1024","2","48000","-16","experiment","2","even","1","758325","755032","2523","124463","756115","756116","736564","2526","83689","NA","760330","761038","757120","11409","760329","Sternberg Task","106","88577","117","yes","1024"
