"acc","accuracy","average_response_time","avg_rt","background","block","canvas_backend","clock_backend","color_backend","correct","correct_instruction1","correct_new_keyboard_response","correct_response","count_ISI","count_correctFeedback","count_experiment","count_experimentLoop","count_expsequence","count_fixation","count_incorrectFeedback","count_instruction1","count_instructions2","count_memoryset","count_new_keyboard_response","count_new_logger","count_practiceLoop","count_probe","count_thankyou","datetime","description","disable_garbage_collection","experiment_file","experiment_path","font_bold","font_family","font_italic","font_size","font_underline","foreground","form_clicks","fullscreen","height","keyboard_backend","live_row","live_row_practiceLoop","logfile","mouse_backend","numberSet","opensesame_codename","opensesame_version","posInSet","present","repeat_cycle","response","response_instruction1","response_instructions2","response_new_keyboard_response","response_thankyou","response_time","response_time_instruction1","response_time_instructions2","response_time_new_keyboard_response","response_time_thankyou","round_decimals","sampler_backend","setSize","sound_buf_size","sound_channels","sound_freq","sound_sample_size","start","subject_nr","subject_parity","target","time_ISI","time_correctFeedback","time_experiment","time_experimentLoop","time_expsequence","time_fixation","time_incorrectFeedback","time_instruction1","time_instructions2","time_memoryset","time_new_keyboard_response","time_new_logger","time_practiceLoop","time_probe","time_thankyou","title","total_correct","total_response_time","total_responses","width"
"100","100","364","364","#3d3846","practice","legacy","legacy","legacy","1","undefined","1","left","0","0","0","0","0","0","0","0","0","0","0","0","0","0","0","Sat Oct 21 14:40:16 2023","The main experiment item","True","SternbergTask.osexp","C:\Users\katjo\OneDrive\Desktop","False","mono","False","18","no","white","no","yes","768","legacy","0","0","C:/Users/katjo/OneDrive/Desktop/KEJ-subject-3.csv","legacy","4 8","Melodramatic Milgram","4.0.5","1","y","0","left","right","NA","left","NA","364.0","1330","NA","364","NA","2","legacy","2","1024","2","48000","-16","experiment","3","odd","4","11134","NA","5674","NA","8932","8933","NA","5681","NA","9933","13136","13500","7013","13135","NA","Sternberg Task","1","364.0","1","1024"
"50","50","337","337","#3d3846","practice","legacy","legacy","legacy","0","undefined","0","left","1","1","0","0","1","1","1","0","0","1","1","1","0","1","0","Sat Oct 21 14:40:16 2023","The main experiment item","True","SternbergTask.osexp","C:\Users\katjo\OneDrive\Desktop","False","mono","False","18","no","white","no","yes","768","legacy","1","1","C:/Users/katjo/OneDrive/Desktop/KEJ-subject-3.csv","legacy","6","Melodramatic Milgram","4.0.5","1","y","0","right","right","NA","right","NA","310.0","1330","NA","310","NA","2","legacy","1","1024","2","48000","-16","experiment","3","odd","6","16798","13543","5674","NA","14596","14597","NA","5681","NA","15597","18800","19110","7013","18799","NA","Sternberg Task","1","674.0","2","1024"
"66","66","413","413","#3d3846","practice","legacy","legacy","legacy","1","undefined","1","left","2","2","0","0","2","2","2","0","0","2","2","2","0","2","0","Sat Oct 21 14:40:16 2023","The main experiment item","True","SternbergTask.osexp","C:\Users\katjo\OneDrive\Desktop","False","mono","False","18","no","white","no","yes","768","legacy","2","2","C:/Users/katjo/OneDrive/Desktop/KEJ-subject-3.csv","legacy","1 7 9 8 5","Melodramatic Milgram","4.0.5","4","y","0","left","right","NA","left","NA","567.0","1330","NA","567","NA","2","legacy","5","1024","2","48000","-16","experiment","3","odd","8","22371","13543","5674","NA","20169","20170","19118","5681","NA","21171","24371","24939","7013","24371","NA","Sternberg Task","2","1241.0","3","1024"
"50","50","319","319","#3d3846","practice","legacy","legacy","legacy","0","undefined","0","left","3","3","0","0","3","3","3","0","0","3","3","3","0","3","0","Sat Oct 21 14:40:16 2023","The main experiment item","True","SternbergTask.osexp","C:\Users\katjo\OneDrive\Desktop","False","mono","False","18","no","white","no","yes","768","legacy","3","3","C:/Users/katjo/OneDrive/Desktop/KEJ-subject-3.csv","legacy","2 9 4","Melodramatic Milgram","4.0.5","3","y","0","right","right","NA","right","NA","37.0","1330","NA","37","NA","2","legacy","3","1024","2","48000","-16","experiment","3","odd","4","28211","24966","5674","NA","26009","26010","19118","5681","NA","27010","30213","30251","7013","30212","NA","Sternberg Task","2","1278.0","4","1024"
"40","40","310","310","#3d3846","practice","legacy","legacy","legacy","0","undefined","0","right","4","4","0","0","4","4","4","0","0","4","4","4","0","4","0","Sat Oct 21 14:40:16 2023","The main experiment item","True","SternbergTask.osexp","C:\Users\katjo\OneDrive\Desktop","False","mono","False","18","no","white","no","yes","768","legacy","4","4","C:/Users/katjo/OneDrive/Desktop/KEJ-subject-3.csv","legacy","2 1","Melodramatic Milgram","4.0.5","0","n","0","left","right","NA","left","NA","276.0","1330","NA","276","NA","2","legacy","2","1024","2","48000","-16","experiment","3","odd","5","33496","24966","5674","NA","31295","31296","30259","5681","NA","32296","35496","35773","7013","35496","NA","Sternberg Task","2","1554.0","5","1024"
"33","33","376","376","#3d3846","practice","legacy","legacy","legacy","0","undefined","0","left","5","5","0","0","5","5","5","0","0","5","5","5","0","5","0","Sat Oct 21 14:40:16 2023","The main experiment item","True","SternbergTask.osexp","C:\Users\katjo\OneDrive\Desktop","False","mono","False","18","no","white","no","yes","768","legacy","5","5","C:/Users/katjo/OneDrive/Desktop/KEJ-subject-3.csv","legacy","1 5 2 9","Melodramatic Milgram","4.0.5","2","y","0","right","right","NA","right","NA","706.0","1330","NA","706","NA","2","legacy","4","1024","2","48000","-16","experiment","3","odd","5","39036","24966","5674","NA","36835","36835","35781","5681","NA","37835","41036","41743","7013","41036","NA","Sternberg Task","2","2260.0","6","1024"
"28","28","385","385","#3d3846","practice","legacy","legacy","legacy","0","undefined","0","right","6","6","0","0","6","6","6","0","0","6","6","6","0","6","0","Sat Oct 21 14:40:16 2023","The main experiment item","True","SternbergTask.osexp","C:\Users\katjo\OneDrive\Desktop","False","mono","False","18","no","white","no","yes","768","legacy","6","6","C:/Users/katjo/OneDrive/Desktop/KEJ-subject-3.csv","legacy","9 6 7 4 5","Melodramatic Milgram","4.0.5","0","n","0","left","right","NA","left","NA","438.0","1330","NA","438","NA","2","legacy","5","1024","2","48000","-16","experiment","3","odd","3","45002","24966","5674","NA","42799","42801","41750","5681","NA","43801","47002","47441","7013","47002","NA","Sternberg Task","2","2698.0","7","1024"
"37","37","392","392","#3d3846","practice","legacy","legacy","legacy","1","undefined","1","right","7","7","0","0","7","7","7","0","0","7","7","7","0","7","0","Sat Oct 21 14:40:16 2023","The main experiment item","True","SternbergTask.osexp","C:\Users\katjo\OneDrive\Desktop","False","mono","False","18","no","white","no","yes","768","legacy","7","7","C:/Users/katjo/OneDrive/Desktop/KEJ-subject-3.csv","legacy","5","Melodramatic Milgram","4.0.5","0","n","0","right","right","NA","right","NA","442.0","1330","NA","442","NA","2","legacy","1","1024","2","48000","-16","experiment","3","odd","3","50695","24966","5674","NA","48493","48494","47448","5681","NA","49494","52695","53138","7013","52695","NA","Sternberg Task","3","3140.0","8","1024"
"33","33","398","398","#3d3846","practice","legacy","legacy","legacy","0","undefined","0","right","8","8","0","0","8","8","8","0","0","8","8","8","0","8","0","Sat Oct 21 14:40:16 2023","The main experiment item","True","SternbergTask.osexp","C:\Users\katjo\OneDrive\Desktop","False","mono","False","18","no","white","no","yes","768","legacy","8","8","C:/Users/katjo/OneDrive/Desktop/KEJ-subject-3.csv","legacy","4 1 5","Melodramatic Milgram","4.0.5","0","n","0","left","right","NA","left","NA","444.0","1330","NA","444","NA","2","legacy","3","1024","2","48000","-16","experiment","3","odd","2","56414","53164","5674","NA","54212","54213","47448","5681","NA","55213","58415","58860","7013","58414","NA","Sternberg Task","3","3584.0","9","1024"
"30","30","363","363","#3d3846","practice","legacy","legacy","legacy","0","undefined","0","left","9","9","0","0","9","9","9","0","0","9","9","9","0","9","0","Sat Oct 21 14:40:16 2023","The main experiment item","True","SternbergTask.osexp","C:\Users\katjo\OneDrive\Desktop","False","mono","False","18","no","white","no","yes","768","legacy","9","9","C:/Users/katjo/OneDrive/Desktop/KEJ-subject-3.csv","legacy","4 3 1 7 9 8","Melodramatic Milgram","4.0.5","1","y","0","right","right","NA","right","NA","55.0","1330","NA","55","NA","2","legacy","6","1024","2","48000","-16","experiment","3","odd","4","62110","53164","5674","NA","59907","59908","58868","5681","NA","60908","64111","64167","7013","64111","NA","Sternberg Task","3","3639.0","10","1024"
"27","27","398","398","#3d3846","practice","legacy","legacy","legacy","0","undefined","0","right","10","10","0","0","10","10","10","0","0","10","10","10","0","10","0","Sat Oct 21 14:40:16 2023","The main experiment item","True","SternbergTask.osexp","C:\Users\katjo\OneDrive\Desktop","False","mono","False","18","no","white","no","yes","768","legacy","10","10","C:/Users/katjo/OneDrive/Desktop/KEJ-subject-3.csv","legacy","5 7 8 4 1 2","Melodramatic Milgram","4.0.5","0","n","0","left","right","NA","left","NA","742.0","1330","NA","742","NA","2","legacy","6","1024","2","48000","-16","experiment","3","odd","6","67449","53164","5674","NA","65245","65246","64193","5681","NA","66247","69449","70192","7013","69449","NA","Sternberg Task","3","4381.0","11","1024"
"33","33","423","423","#3d3846","practice","legacy","legacy","legacy","1","undefined","1","right","11","11","0","0","11","11","11","0","0","11","11","11","0","11","0","Sat Oct 21 14:40:16 2023","The main experiment item","True","SternbergTask.osexp","C:\Users\katjo\OneDrive\Desktop","False","mono","False","18","no","white","no","yes","768","legacy","11","11","C:/Users/katjo/OneDrive/Desktop/KEJ-subject-3.csv","legacy","3 1 9 4","Melodramatic Milgram","4.0.5","0","n","0","right","right","NA","right","NA","696.0","1330","NA","696","NA","2","legacy","4","1024","2","48000","-16","experiment","3","odd","6","73454","53164","5674","NA","71252","71253","70197","5681","NA","72253","75455","76152","7013","75455","NA","Sternberg Task","4","5077.0","12","1024"
"38","38","429","429","#3d3846","experiment","legacy","legacy","legacy","1","undefined","1","left","12","12","0","0","12","12","12","0","0","12","12","12","0","12","0","Sat Oct 21 14:40:16 2023","The main experiment item","True","SternbergTask.osexp","C:\Users\katjo\OneDrive\Desktop","False","mono","False","18","no","white","no","yes","768","legacy","0","11","C:/Users/katjo/OneDrive/Desktop/KEJ-subject-3.csv","legacy","4","Melodramatic Milgram","4.0.5","1","y","0","left","right","right","left","NA","502.0","1330","2075","502","NA","2","legacy","1","1024","2","48000","-16","experiment","3","odd","4","81552","76160","5674","79235","79350","79351","70197","5681","77160","80351","83554","84057","7013","83553","NA","Sternberg Task","5","5579.0","13","1024"
"42","42","435","435","#3d3846","experiment","legacy","legacy","legacy","1","undefined","1","left","13","13","0","0","13","13","13","0","0","13","13","13","0","13","0","Sat Oct 21 14:40:16 2023","The main experiment item","True","SternbergTask.osexp","C:\Users\katjo\OneDrive\Desktop","False","mono","False","18","no","white","no","yes","768","legacy","1","11","C:/Users/katjo/OneDrive/Desktop/KEJ-subject-3.csv","legacy","8 9 5 6 7","Melodramatic Milgram","4.0.5","1","y","0","left","right","right","left","NA","511.0","1330","2075","511","NA","2","legacy","5","1024","2","48000","-16","experiment","3","odd","8","87316","84065","5674","79235","85114","85115","70197","5681","77160","86115","89316","89827","7013","89316","NA","Sternberg Task","6","6090.0","14","1024"
"40","40","430","430","#3d3846","experiment","legacy","legacy","legacy","0","undefined","0","left","14","14","0","0","14","14","14","0","0","14","14","14","0","14","0","Sat Oct 21 14:40:16 2023","The main experiment item","True","SternbergTask.osexp","C:\Users\katjo\OneDrive\Desktop","False","mono","False","18","no","white","no","yes","768","legacy","2","11","C:/Users/katjo/OneDrive/Desktop/KEJ-subject-3.csv","legacy","3 5 9 6 2 4","Melodramatic Milgram","4.0.5","1","y","0","right","right","right","right","NA","368.0","1330","2075","368","NA","2","legacy","6","1024","2","48000","-16","experiment","3","odd","3","93095","89854","5674","79235","90892","90893","70197","5681","77160","91894","95095","95463","7013","95095","NA","Sternberg Task","6","6458.0","15","1024"
"37","37","425","425","#3d3846","experiment","legacy","legacy","legacy","0","undefined","0","right","15","15","0","0","15","15","15","0","0","15","15","15","0","15","0","Sat Oct 21 14:40:16 2023","The main experiment item","True","SternbergTask.osexp","C:\Users\katjo\OneDrive\Desktop","False","mono","False","18","no","white","no","yes","768","legacy","3","11","C:/Users/katjo/OneDrive/Desktop/KEJ-subject-3.csv","legacy","1 5 3 2 8","Melodramatic Milgram","4.0.5","0","n","0","left","right","right","left","NA","349.0","1330","2075","349","NA","2","legacy","5","1024","2","48000","-16","experiment","3","odd","4","98714","89854","5674","79235","96512","96513","95471","5681","77160","97513","100715","101064","7013","100715","NA","Sternberg Task","6","6807.0","16","1024"
"41","41","429","429","#3d3846","experiment","legacy","legacy","legacy","1","undefined","1","right","16","16","0","0","16","16","16","0","0","16","16","16","0","16","0","Sat Oct 21 14:40:16 2023","The main experiment item","True","SternbergTask.osexp","C:\Users\katjo\OneDrive\Desktop","False","mono","False","18","no","white","no","yes","768","legacy","4","11","C:/Users/katjo/OneDrive/Desktop/KEJ-subject-3.csv","legacy","1 7 5 2","Melodramatic Milgram","4.0.5","0","n","0","right","right","right","right","NA","497.0","1330","2075","497","NA","2","legacy","4","1024","2","48000","-16","experiment","3","odd","3","104337","89854","5674","79235","102135","102136","101070","5681","77160","103136","106337","106835","7013","106337","NA","Sternberg Task","7","7304.0","17","1024"
"38","38","440","440","#3d3846","experiment","legacy","legacy","legacy","0","undefined","0","left","17","17","0","0","17","17","17","0","0","17","17","17","0","17","0","Sat Oct 21 14:40:16 2023","The main experiment item","True","SternbergTask.osexp","C:\Users\katjo\OneDrive\Desktop","False","mono","False","18","no","white","no","yes","768","legacy","5","11","C:/Users/katjo/OneDrive/Desktop/KEJ-subject-3.csv","legacy","4 1 8 7 5","Melodramatic Milgram","4.0.5","3","y","0","right","right","right","right","NA","619.0","1330","2075","619","NA","2","legacy","5","1024","2","48000","-16","experiment","3","odd","8","110081","106837","5674","79235","107878","107879","101070","5681","77160","108880","112081","112701","7013","112081","NA","Sternberg Task","7","7923.0","18","1024"
"42","42","461","461","#3d3846","experiment","legacy","legacy","legacy","1","undefined","1","left","18","18","0","0","18","18","18","0","0","18","18","18","0","18","0","Sat Oct 21 14:40:16 2023","The main experiment item","True","SternbergTask.osexp","C:\Users\katjo\OneDrive\Desktop","False","mono","False","18","no","white","no","yes","768","legacy","6","11","C:/Users/katjo/OneDrive/Desktop/KEJ-subject-3.csv","legacy","6 9 3 1","Melodramatic Milgram","4.0.5","4","y","0","left","right","right","left","NA","836.0","1330","2075","836","NA","2","legacy","4","1024","2","48000","-16","experiment","3","odd","1","115975","106837","5674","79235","113773","113774","112727","5681","77160","114774","117975","118812","7013","117975","NA","Sternberg Task","8","8759.0","19","1024"
"45","45","471","471","#3d3846","experiment","legacy","legacy","legacy","1","undefined","1","left","19","19","0","0","19","19","19","0","0","19","19","19","0","19","0","Sat Oct 21 14:40:16 2023","The main experiment item","True","SternbergTask.osexp","C:\Users\katjo\OneDrive\Desktop","False","mono","False","18","no","white","no","yes","768","legacy","7","11","C:/Users/katjo/OneDrive/Desktop/KEJ-subject-3.csv","legacy","3 4","Melodramatic Milgram","4.0.5","1","y","0","left","right","right","left","NA","668.0","1330","2075","668","NA","2","legacy","2","1024","2","48000","-16","experiment","3","odd","3","122059","118815","5674","79235","119856","119858","112727","5681","77160","120858","124060","124729","7013","124060","NA","Sternberg Task","9","9427.0","20","1024"
"47","47","491","491","#3d3846","experiment","legacy","legacy","legacy","1","undefined","1","right","20","20","0","0","20","20","20","0","0","20","20","20","0","20","0","Sat Oct 21 14:40:16 2023","The main experiment item","True","SternbergTask.osexp","C:\Users\katjo\OneDrive\Desktop","False","mono","False","18","no","white","no","yes","768","legacy","8","11","C:/Users/katjo/OneDrive/Desktop/KEJ-subject-3.csv","legacy","9 7 4 5 8","Melodramatic Milgram","4.0.5","0","n","0","right","right","right","right","NA","900.0","1330","2075","900","NA","2","legacy","5","1024","2","48000","-16","experiment","3","odd","6","127978","124737","5674","79235","125776","125776","112727","5681","77160","126777","129978","130880","7013","129978","NA","Sternberg Task","10","10327.0","21","1024"
"45","45","497","497","#3d3846","experiment","legacy","legacy","legacy","0","undefined","0","right","21","21","0","0","21","21","21","0","0","21","21","21","0","21","0","Sat Oct 21 14:40:16 2023","The main experiment item","True","SternbergTask.osexp","C:\Users\katjo\OneDrive\Desktop","False","mono","False","18","no","white","no","yes","768","legacy","9","11","C:/Users/katjo/OneDrive/Desktop/KEJ-subject-3.csv","legacy","9","Melodramatic Milgram","4.0.5","0","n","0","left","right","right","left","NA","610.0","1330","2075","610","NA","2","legacy","1","1024","2","48000","-16","experiment","3","odd","6","134132","130887","5674","79235","131930","131931","112727","5681","77160","132931","136133","136744","7013","136133","NA","Sternberg Task","10","10937.0","22","1024"
"43","43","511","511","#3d3846","experiment","legacy","legacy","legacy","0","undefined","0","left","22","22","0","0","22","22","22","0","0","22","22","22","0","22","0","Sat Oct 21 14:40:16 2023","The main experiment item","True","SternbergTask.osexp","C:\Users\katjo\OneDrive\Desktop","False","mono","False","18","no","white","no","yes","768","legacy","10","11","C:/Users/katjo/OneDrive/Desktop/KEJ-subject-3.csv","legacy","6 9 7 4 5 1","Melodramatic Milgram","4.0.5","2","y","0","right","right","right","right","NA","830.0","1330","2075","830","NA","2","legacy","6","1024","2","48000","-16","experiment","3","odd","9","139994","130887","5674","79235","137791","137792","136752","5681","77160","138793","141994","142824","7013","141994","NA","Sternberg Task","10","11767.0","23","1024"
"41","41","573","573","#3d3846","experiment","legacy","legacy","legacy","0","undefined","0","left","23","23","0","0","23","23","23","0","0","23","23","23","0","23","0","Sat Oct 21 14:40:16 2023","The main experiment item","True","SternbergTask.osexp","C:\Users\katjo\OneDrive\Desktop","False","mono","False","18","no","white","no","yes","768","legacy","11","11","C:/Users/katjo/OneDrive/Desktop/KEJ-subject-3.csv","legacy","5 7 8 2 3 8","Melodramatic Milgram","4.0.5","5","y","0","None","right","right","None","NA","2001.0","1330","2075","2001","NA","2","legacy","6","1024","2","48000","-16","experiment","3","odd","3","146098","130887","5674","79235","143896","143897","142832","5681","77160","144897","148099","150100","7013","148099","NA","Sternberg Task","10","13768.0","24","1024"
"40","40","581","581","#3d3846","experiment","legacy","legacy","legacy","0","undefined","0","left","24","24","0","0","24","24","24","0","0","24","24","24","0","24","0","Sat Oct 21 14:40:16 2023","The main experiment item","True","SternbergTask.osexp","C:\Users\katjo\OneDrive\Desktop","False","mono","False","18","no","white","no","yes","768","legacy","12","11","C:/Users/katjo/OneDrive/Desktop/KEJ-subject-3.csv","legacy","5 7 3 6 2","Melodramatic Milgram","4.0.5","5","y","0","right","right","right","right","NA","765.0","1330","2075","765","NA","2","legacy","5","1024","2","48000","-16","experiment","3","odd","2","153361","130887","5674","79235","151158","151160","150107","5681","77160","152160","155361","156127","7013","155361","NA","Sternberg Task","10","14533.0","25","1024"
"42","42","596","596","#3d3846","experiment","legacy","legacy","legacy","1","undefined","1","left","25","25","0","0","25","25","25","0","0","25","25","25","0","25","0","Sat Oct 21 14:40:16 2023","The main experiment item","True","SternbergTask.osexp","C:\Users\katjo\OneDrive\Desktop","False","mono","False","18","no","white","no","yes","768","legacy","13","11","C:/Users/katjo/OneDrive/Desktop/KEJ-subject-3.csv","legacy","2 5 4 8 7","Melodramatic Milgram","4.0.5","3","y","0","left","right","right","left","NA","963.0","1330","2075","963","NA","2","legacy","5","1024","2","48000","-16","experiment","3","odd","4","159377","130887","5674","79235","157174","157175","156135","5681","77160","158175","161377","162340","7013","161377","NA","Sternberg Task","11","15496.0","26","1024"
"44","44","580","580","#3d3846","experiment","legacy","legacy","legacy","1","undefined","1","right","26","26","0","0","26","26","26","0","0","26","26","26","0","26","0","Sat Oct 21 14:40:16 2023","The main experiment item","True","SternbergTask.osexp","C:\Users\katjo\OneDrive\Desktop","False","mono","False","18","no","white","no","yes","768","legacy","14","11","C:/Users/katjo/OneDrive/Desktop/KEJ-subject-3.csv","legacy","6 9 4 5 2","Melodramatic Milgram","4.0.5","0","n","0","right","right","right","right","NA","181.0","1330","2075","181","NA","2","legacy","5","1024","2","48000","-16","experiment","3","odd","1","165632","162367","5674","79235","163428","163429","156135","5681","77160","164430","167633","167815","7013","167632","NA","Sternberg Task","12","15677.0","27","1024"
"42","42","570","570","#3d3846","experiment","legacy","legacy","legacy","0","undefined","0","right","27","27","0","0","27","27","27","0","0","27","27","27","0","27","0","Sat Oct 21 14:40:16 2023","The main experiment item","True","SternbergTask.osexp","C:\Users\katjo\OneDrive\Desktop","False","mono","False","18","no","white","no","yes","768","legacy","15","11","C:/Users/katjo/OneDrive/Desktop/KEJ-subject-3.csv","legacy","6 3 1 7 9 8","Melodramatic Milgram","4.0.5","0","n","0","left","right","right","left","NA","304.0","1330","2075","304","NA","2","legacy","6","1024","2","48000","-16","experiment","3","odd","4","171074","167820","5674","79235","168872","168873","156135","5681","77160","169873","173075","173380","7013","173074","NA","Sternberg Task","12","15981.0","28","1024"
"44","44","574","574","#3d3846","experiment","legacy","legacy","legacy","1","undefined","1","right","28","28","0","0","28","28","28","0","0","28","28","28","0","28","0","Sat Oct 21 14:40:16 2023","The main experiment item","True","SternbergTask.osexp","C:\Users\katjo\OneDrive\Desktop","False","mono","False","18","no","white","no","yes","768","legacy","16","11","C:/Users/katjo/OneDrive/Desktop/KEJ-subject-3.csv","legacy","7 1","Melodramatic Milgram","4.0.5","0","n","0","right","right","right","right","NA","673.0","1330","2075","673","NA","2","legacy","2","1024","2","48000","-16","experiment","3","odd","8","176634","167820","5674","79235","174431","174432","173384","5681","77160","175433","178634","179308","7013","178634","NA","Sternberg Task","13","16654.0","29","1024"
"43","43","574","574","#3d3846","experiment","legacy","legacy","legacy","0","undefined","0","right","29","29","0","0","29","29","29","0","0","29","29","29","0","29","0","Sat Oct 21 14:40:16 2023","The main experiment item","True","SternbergTask.osexp","C:\Users\katjo\OneDrive\Desktop","False","mono","False","18","no","white","no","yes","768","legacy","17","11","C:/Users/katjo/OneDrive/Desktop/KEJ-subject-3.csv","legacy","1 7 8 3 9","Melodramatic Milgram","4.0.5","0","n","0","left","right","right","left","NA","566.0","1330","2075","566","NA","2","legacy","5","1024","2","48000","-16","experiment","3","odd","2","182557","179316","5674","79235","180354","180355","173384","5681","77160","181356","184557","185124","7013","184557","NA","Sternberg Task","13","17220.0","30","1024"
"45","45","565","565","#3d3846","experiment","legacy","legacy","legacy","1","undefined","1","right","30","30","0","0","30","30","30","0","0","30","30","30","0","30","0","Sat Oct 21 14:40:16 2023","The main experiment item","True","SternbergTask.osexp","C:\Users\katjo\OneDrive\Desktop","False","mono","False","18","no","white","no","yes","768","legacy","18","11","C:/Users/katjo/OneDrive/Desktop/KEJ-subject-3.csv","legacy","4 2 6 9","Melodramatic Milgram","4.0.5","0","n","0","right","right","right","right","NA","298.0","1330","2075","298","NA","2","legacy","4","1024","2","48000","-16","experiment","3","odd","7","188397","179316","5674","79235","186193","186194","185150","5681","77160","187195","190397","190696","7013","190397","NA","Sternberg Task","14","17518.0","31","1024"
"43","43","567","567","#3d3846","experiment","legacy","legacy","legacy","0","undefined","0","left","31","31","0","0","31","31","31","0","0","31","31","31","0","31","0","Sat Oct 21 14:40:16 2023","The main experiment item","True","SternbergTask.osexp","C:\Users\katjo\OneDrive\Desktop","False","mono","False","18","no","white","no","yes","768","legacy","19","11","C:/Users/katjo/OneDrive/Desktop/KEJ-subject-3.csv","legacy","4 7 6 8 2 3","Melodramatic Milgram","4.0.5","6","y","0","right","right","right","right","NA","628.0","1330","2075","628","NA","2","legacy","6","1024","2","48000","-16","experiment","3","odd","3","193957","190704","5674","79235","191755","191756","185150","5681","77160","192756","195958","196587","7013","195958","NA","Sternberg Task","14","18146.0","32","1024"
"45","45","560","560","#3d3846","experiment","legacy","legacy","legacy","1","undefined","1","left","32","32","0","0","32","32","32","0","0","32","32","32","0","32","0","Sat Oct 21 14:40:16 2023","The main experiment item","True","SternbergTask.osexp","C:\Users\katjo\OneDrive\Desktop","False","mono","False","18","no","white","no","yes","768","legacy","20","11","C:/Users/katjo/OneDrive/Desktop/KEJ-subject-3.csv","legacy","6 7 8 5","Melodramatic Milgram","4.0.5","3","y","0","left","right","right","left","NA","336.0","1330","2075","336","NA","2","legacy","4","1024","2","48000","-16","experiment","3","odd","8","199846","190704","5674","79235","197643","197644","196595","5681","77160","198645","201847","202184","7013","201847","NA","Sternberg Task","15","18482.0","33","1024"
"47","47","549","549","#3d3846","experiment","legacy","legacy","legacy","1","undefined","1","left","33","33","0","0","33","33","33","0","0","33","33","33","0","33","0","Sat Oct 21 14:40:16 2023","The main experiment item","True","SternbergTask.osexp","C:\Users\katjo\OneDrive\Desktop","False","mono","False","18","no","white","no","yes","768","legacy","21","11","C:/Users/katjo/OneDrive/Desktop/KEJ-subject-3.csv","legacy","9 1 7 2","Melodramatic Milgram","4.0.5","2","y","0","left","right","right","left","NA","200.0","1330","2075","200","NA","2","legacy","4","1024","2","48000","-16","experiment","3","odd","1","205461","202210","5674","79235","203259","203260","196595","5681","77160","204260","207461","207662","7013","207461","NA","Sternberg Task","16","18682.0","34","1024"
"45","45","543","543","#3d3846","experiment","legacy","legacy","legacy","0","undefined","0","left","34","34","0","0","34","34","34","0","0","34","34","34","0","34","0","Sat Oct 21 14:40:16 2023","The main experiment item","True","SternbergTask.osexp","C:\Users\katjo\OneDrive\Desktop","False","mono","False","18","no","white","no","yes","768","legacy","22","11","C:/Users/katjo/OneDrive/Desktop/KEJ-subject-3.csv","legacy","9 6 2 4 1","Melodramatic Milgram","4.0.5","4","y","0","right","right","right","right","NA","329.0","1330","2075","329","NA","2","legacy","5","1024","2","48000","-16","experiment","3","odd","4","210906","207665","5674","79235","208703","208704","196595","5681","77160","209705","212906","213236","7013","212906","NA","Sternberg Task","16","19011.0","35","1024"
"44","44","533","533","#3d3846","experiment","legacy","legacy","legacy","0","undefined","0","left","35","35","0","0","35","35","35","0","0","35","35","35","0","35","0","Sat Oct 21 14:40:16 2023","The main experiment item","True","SternbergTask.osexp","C:\Users\katjo\OneDrive\Desktop","False","mono","False","18","no","white","no","yes","768","legacy","23","11","C:/Users/katjo/OneDrive/Desktop/KEJ-subject-3.csv","legacy","1 4 9 3 2 5","Melodramatic Milgram","4.0.5","3","y","0","right","right","right","right","NA","206.0","1330","2075","206","NA","2","legacy","6","1024","2","48000","-16","experiment","3","odd","9","216502","207665","5674","79235","214299","214300","213244","5681","77160","215301","218503","218710","7013","218502","NA","Sternberg Task","16","19217.0","36","1024"
"43","43","526","526","#3d3846","experiment","legacy","legacy","legacy","0","undefined","0","right","36","36","0","0","36","36","36","0","0","36","36","36","0","36","0","Sat Oct 21 14:40:16 2023","The main experiment item","True","SternbergTask.osexp","C:\Users\katjo\OneDrive\Desktop","False","mono","False","18","no","white","no","yes","768","legacy","24","11","C:/Users/katjo/OneDrive/Desktop/KEJ-subject-3.csv","legacy","7 6 4 8 1 2","Melodramatic Milgram","4.0.5","0","n","0","left","right","right","left","NA","250.0","1330","2075","250","NA","2","legacy","6","1024","2","48000","-16","experiment","3","odd","9","221957","207665","5674","79235","219755","219756","218718","5681","77160","220756","223958","224209","7013","223957","NA","Sternberg Task","16","19467.0","37","1024"
"44","44","517","517","#3d3846","experiment","legacy","legacy","legacy","1","undefined","1","right","37","37","0","0","37","37","37","0","0","37","37","37","0","37","0","Sat Oct 21 14:40:16 2023","The main experiment item","True","SternbergTask.osexp","C:\Users\katjo\OneDrive\Desktop","False","mono","False","18","no","white","no","yes","768","legacy","25","11","C:/Users/katjo/OneDrive/Desktop/KEJ-subject-3.csv","legacy","7 1 8 4 9 3","Melodramatic Milgram","4.0.5","0","n","0","right","right","right","right","NA","215.0","1330","2075","215","NA","2","legacy","6","1024","2","48000","-16","experiment","3","odd","6","227471","207665","5674","79235","225269","225270","224216","5681","77160","226270","229472","229688","7013","229472","NA","Sternberg Task","17","19682.0","38","1024"
"46","46","512","512","#3d3846","experiment","legacy","legacy","legacy","1","undefined","1","left","38","38","0","0","38","38","38","0","0","38","38","38","0","38","0","Sat Oct 21 14:40:16 2023","The main experiment item","True","SternbergTask.osexp","C:\Users\katjo\OneDrive\Desktop","False","mono","False","18","no","white","no","yes","768","legacy","26","11","C:/Users/katjo/OneDrive/Desktop/KEJ-subject-3.csv","legacy","4 6 5 8","Melodramatic Milgram","4.0.5","1","y","0","left","right","right","left","NA","304.0","1330","2075","304","NA","2","legacy","4","1024","2","48000","-16","experiment","3","odd","4","232975","229714","5674","79235","230773","230774","224216","5681","77160","231774","234975","235280","7013","234975","NA","Sternberg Task","18","19986.0","39","1024"
"45","45","505","505","#3d3846","experiment","legacy","legacy","legacy","0","undefined","0","right","39","39","0","0","39","39","39","0","0","39","39","39","0","39","0","Sat Oct 21 14:40:16 2023","The main experiment item","True","SternbergTask.osexp","C:\Users\katjo\OneDrive\Desktop","False","mono","False","18","no","white","no","yes","768","legacy","27","11","C:/Users/katjo/OneDrive/Desktop/KEJ-subject-3.csv","legacy","7 1 5 6 3","Melodramatic Milgram","4.0.5","0","n","0","left","right","right","left","NA","250.0","1330","2075","250","NA","2","legacy","5","1024","2","48000","-16","experiment","3","odd","8","238528","235287","5674","79235","236325","236327","224216","5681","77160","237327","240528","240779","7013","240528","NA","Sternberg Task","18","20236.0","40","1024"
"43","43","501","501","#3d3846","experiment","legacy","legacy","legacy","0","undefined","0","left","40","40","0","0","40","40","40","0","0","40","40","40","0","40","0","Sat Oct 21 14:40:16 2023","The main experiment item","True","SternbergTask.osexp","C:\Users\katjo\OneDrive\Desktop","False","mono","False","18","no","white","no","yes","768","legacy","28","11","C:/Users/katjo/OneDrive/Desktop/KEJ-subject-3.csv","legacy","7 2 3","Melodramatic Milgram","4.0.5","3","y","0","right","right","right","right","NA","344.0","1330","2075","344","NA","2","legacy","3","1024","2","48000","-16","experiment","3","odd","3","244052","235287","5674","79235","241849","241850","240805","5681","77160","242851","246053","246398","7013","246053","NA","Sternberg Task","18","20580.0","41","1024"
"42","42","495","495","#3d3846","experiment","legacy","legacy","legacy","0","undefined","0","right","41","41","0","0","41","41","41","0","0","41","41","41","0","41","0","Sat Oct 21 14:40:16 2023","The main experiment item","True","SternbergTask.osexp","C:\Users\katjo\OneDrive\Desktop","False","mono","False","18","no","white","no","yes","768","legacy","29","11","C:/Users/katjo/OneDrive/Desktop/KEJ-subject-3.csv","legacy","3 9 8 1 6 4","Melodramatic Milgram","4.0.5","0","n","0","left","right","right","left","NA","233.0","1330","2075","233","NA","2","legacy","6","1024","2","48000","-16","experiment","3","odd","7","249648","235287","5674","79235","247446","247447","246406","5681","77160","248447","251648","251882","7013","251648","NA","Sternberg Task","18","20813.0","42","1024"
"44","44","496","496","#3d3846","experiment","legacy","legacy","legacy","1","undefined","1","right","42","42","0","0","42","42","42","0","0","42","42","42","0","42","0","Sat Oct 21 14:40:16 2023","The main experiment item","True","SternbergTask.osexp","C:\Users\katjo\OneDrive\Desktop","False","mono","False","18","no","white","no","yes","768","legacy","30","11","C:/Users/katjo/OneDrive/Desktop/KEJ-subject-3.csv","legacy","7 9 1 6","Melodramatic Milgram","4.0.5","0","n","0","right","right","right","right","NA","537.0","1330","2075","537","NA","2","legacy","4","1024","2","48000","-16","experiment","3","odd","4","255165","235287","5674","79235","252962","252963","251909","5681","77160","253964","257165","257703","7013","257165","NA","Sternberg Task","19","21350.0","43","1024"
"45","45","505","505","#3d3846","experiment","legacy","legacy","legacy","1","undefined","1","right","43","43","0","0","43","43","43","0","0","43","43","43","0","43","0","Sat Oct 21 14:40:16 2023","The main experiment item","True","SternbergTask.osexp","C:\Users\katjo\OneDrive\Desktop","False","mono","False","18","no","white","no","yes","768","legacy","31","11","C:/Users/katjo/OneDrive/Desktop/KEJ-subject-3.csv","legacy","8 4 3 5","Melodramatic Milgram","4.0.5","0","n","0","right","right","right","right","NA","879.0","1330","2075","879","NA","2","legacy","4","1024","2","48000","-16","experiment","3","odd","6","260976","257730","5674","79235","258773","258774","251909","5681","77160","259775","262976","263856","7013","262976","NA","Sternberg Task","20","22229.0","44","1024"
"46","46","507","507","#3d3846","experiment","legacy","legacy","legacy","1","undefined","1","left","44","44","0","0","44","44","44","0","0","44","44","44","0","44","0","Sat Oct 21 14:40:16 2023","The main experiment item","True","SternbergTask.osexp","C:\Users\katjo\OneDrive\Desktop","False","mono","False","18","no","white","no","yes","768","legacy","32","11","C:/Users/katjo/OneDrive/Desktop/KEJ-subject-3.csv","legacy","5 2 6","Melodramatic Milgram","4.0.5","2","y","0","left","right","right","left","NA","619.0","1330","2075","619","NA","2","legacy","3","1024","2","48000","-16","experiment","3","odd","2","267106","263863","5674","79235","264903","264904","251909","5681","77160","265905","269106","269726","7013","269106","NA","Sternberg Task","21","22848.0","45","1024"
"47","47","510","510","#3d3846","experiment","legacy","legacy","legacy","1","undefined","1","right","45","45","0","0","45","45","45","0","0","45","45","45","0","45","0","Sat Oct 21 14:40:16 2023","The main experiment item","True","SternbergTask.osexp","C:\Users\katjo\OneDrive\Desktop","False","mono","False","18","no","white","no","yes","768","legacy","33","11","C:/Users/katjo/OneDrive/Desktop/KEJ-subject-3.csv","legacy","2 8 9","Melodramatic Milgram","4.0.5","0","n","0","right","right","right","right","NA","616.0","1330","2075","616","NA","2","legacy","3","1024","2","48000","-16","experiment","3","odd","6","272974","269734","5674","79235","270772","270773","251909","5681","77160","271773","274975","275592","7013","274975","NA","Sternberg Task","22","23464.0","46","1024"
"46","46","514","514","#3d3846","experiment","legacy","legacy","legacy","0","undefined","0","right","46","46","0","0","46","46","46","0","0","46","46","46","0","46","0","Sat Oct 21 14:40:16 2023","The main experiment item","True","SternbergTask.osexp","C:\Users\katjo\OneDrive\Desktop","False","mono","False","18","no","white","no","yes","768","legacy","34","11","C:/Users/katjo/OneDrive/Desktop/KEJ-subject-3.csv","legacy","2 3 8 5 6 7","Melodramatic Milgram","4.0.5","0","n","0","left","right","right","left","NA","727.0","1330","2075","727","NA","2","legacy","6","1024","2","48000","-16","experiment","3","odd","1","278881","275619","5674","79235","276678","276679","251909","5681","77160","277680","280882","281609","7013","280882","NA","Sternberg Task","22","24191.0","47","1024"
"45","45","514","514","#3d3846","experiment","legacy","legacy","legacy","0","undefined","0","left","47","47","0","0","47","47","47","0","0","47","47","47","0","47","0","Sat Oct 21 14:40:16 2023","The main experiment item","True","SternbergTask.osexp","C:\Users\katjo\OneDrive\Desktop","False","mono","False","18","no","white","no","yes","768","legacy","35","11","C:/Users/katjo/OneDrive/Desktop/KEJ-subject-3.csv","legacy","8 3","Melodramatic Milgram","4.0.5","2","y","0","right","right","right","right","NA","501.0","1330","2075","501","NA","2","legacy","2","1024","2","48000","-16","experiment","3","odd","3","284879","275619","5674","79235","282676","282677","281636","5681","77160","283678","286880","287382","7013","286880","NA","Sternberg Task","22","24692.0","48","1024"
"44","44","520","520","#3d3846","experiment","legacy","legacy","legacy","0","undefined","0","right","48","48","0","0","48","48","48","0","0","48","48","48","0","48","0","Sat Oct 21 14:40:16 2023","The main experiment item","True","SternbergTask.osexp","C:\Users\katjo\OneDrive\Desktop","False","mono","False","18","no","white","no","yes","768","legacy","36","11","C:/Users/katjo/OneDrive/Desktop/KEJ-subject-3.csv","legacy","6 9 4 5 3 2","Melodramatic Milgram","4.0.5","0","n","0","left","right","right","left","NA","828.0","1330","2075","828","NA","2","legacy","6","1024","2","48000","-16","experiment","3","odd","8","290650","275619","5674","79235","288447","288448","287390","5681","77160","289449","292650","293479","7013","292650","NA","Sternberg Task","22","25520.0","49","1024"
"44","44","541","541","#3d3846","experiment","legacy","legacy","legacy","0","undefined","0","left","49","49","0","0","49","49","49","0","0","49","49","49","0","49","0","Sat Oct 21 14:40:16 2023","The main experiment item","True","SternbergTask.osexp","C:\Users\katjo\OneDrive\Desktop","False","mono","False","18","no","white","no","yes","768","legacy","37","11","C:/Users/katjo/OneDrive/Desktop/KEJ-subject-3.csv","legacy","7 1 3","Melodramatic Milgram","4.0.5","2","y","0","right","right","right","right","NA","1564.0","1330","2075","1564","NA","2","legacy","3","1024","2","48000","-16","experiment","3","odd","1","296728","275619","5674","79235","294525","294526","293487","5681","77160","295526","298728","300293","7013","298728","NA","Sternberg Task","22","27084.0","50","1024"
"45","45","543","543","#3d3846","experiment","legacy","legacy","legacy","1","undefined","1","left","50","50","0","0","50","50","50","0","0","50","50","50","0","50","0","Sat Oct 21 14:40:16 2023","The main experiment item","True","SternbergTask.osexp","C:\Users\katjo\OneDrive\Desktop","False","mono","False","18","no","white","no","yes","768","legacy","38","11","C:/Users/katjo/OneDrive/Desktop/KEJ-subject-3.csv","legacy","2 6 1 7 4","Melodramatic Milgram","4.0.5","2","y","0","left","right","right","left","NA","638.0","1330","2075","638","NA","2","legacy","5","1024","2","48000","-16","experiment","3","odd","6","303541","275619","5674","79235","301339","301340","300301","5681","77160","302341","305541","306180","7013","305541","NA","Sternberg Task","23","27722.0","51","1024"
"46","46","550","550","#3d3846","experiment","legacy","legacy","legacy","1","undefined","1","right","51","51","0","0","51","51","51","0","0","51","51","51","0","51","0","Sat Oct 21 14:40:16 2023","The main experiment item","True","SternbergTask.osexp","C:\Users\katjo\OneDrive\Desktop","False","mono","False","18","no","white","no","yes","768","legacy","39","11","C:/Users/katjo/OneDrive/Desktop/KEJ-subject-3.csv","legacy","7 9","Melodramatic Milgram","4.0.5","0","n","0","right","right","right","right","NA","878.0","1330","2075","878","NA","2","legacy","2","1024","2","48000","-16","experiment","3","odd","1","309449","306206","5674","79235","307247","307247","300301","5681","77160","308248","311450","312329","7013","311450","NA","Sternberg Task","24","28600.0","52","1024"
"45","45","570","570","#3d3846","experiment","legacy","legacy","legacy","0","undefined","0","right","52","52","0","0","52","52","52","0","0","52","52","52","0","52","0","Sat Oct 21 14:40:16 2023","The main experiment item","True","SternbergTask.osexp","C:\Users\katjo\OneDrive\Desktop","False","mono","False","18","no","white","no","yes","768","legacy","40","11","C:/Users/katjo/OneDrive/Desktop/KEJ-subject-3.csv","legacy","8 9","Melodramatic Milgram","4.0.5","0","n","0","left","right","right","left","NA","1628.0","1330","2075","1628","NA","2","legacy","2","1024","2","48000","-16","experiment","3","odd","5","315600","312356","5674","79235","313399","313400","300301","5681","77160","314400","317600","319229","7013","317600","NA","Sternberg Task","24","30228.0","53","1024"
"44","44","596","596","#3d3846","experiment","legacy","legacy","legacy","0","undefined","0","right","53","53","0","0","53","53","53","0","0","53","53","53","0","53","0","Sat Oct 21 14:40:16 2023","The main experiment item","True","SternbergTask.osexp","C:\Users\katjo\OneDrive\Desktop","False","mono","False","18","no","white","no","yes","768","legacy","41","11","C:/Users/katjo/OneDrive/Desktop/KEJ-subject-3.csv","legacy","8 2 1 4 5 9","Melodramatic Milgram","4.0.5","0","n","0","None","right","right","None","NA","2000.0","1330","2075","2000","NA","2","legacy","6","1024","2","48000","-16","experiment","3","odd","7","322502","312356","5674","79235","320300","320301","319237","5681","77160","321301","324502","326502","7013","324502","NA","Sternberg Task","24","32228.0","54","1024"
"45","45","606","606","#3d3846","experiment","legacy","legacy","legacy","1","undefined","1","left","54","54","0","0","54","54","54","0","0","54","54","54","0","54","0","Sat Oct 21 14:40:16 2023","The main experiment item","True","SternbergTask.osexp","C:\Users\katjo\OneDrive\Desktop","False","mono","False","18","no","white","no","yes","768","legacy","42","11","C:/Users/katjo/OneDrive/Desktop/KEJ-subject-3.csv","legacy","7 1 8 5 6 2","Melodramatic Milgram","4.0.5","2","y","0","left","right","right","left","NA","1131.0","1330","2075","1131","NA","2","legacy","6","1024","2","48000","-16","experiment","3","odd","1","329788","312356","5674","79235","327586","327587","326529","5681","77160","328587","331789","332921","7013","331789","NA","Sternberg Task","25","33359.0","55","1024"
"44","44","631","631","#3d3846","experiment","legacy","legacy","legacy","0","undefined","0","left","55","55","0","0","55","55","55","0","0","55","55","55","0","55","0","Sat Oct 21 14:40:16 2023","The main experiment item","True","SternbergTask.osexp","C:\Users\katjo\OneDrive\Desktop","False","mono","False","18","no","white","no","yes","768","legacy","43","11","C:/Users/katjo/OneDrive/Desktop/KEJ-subject-3.csv","legacy","8 5 4 7 3 1","Melodramatic Milgram","4.0.5","2","y","0","None","right","right","None","NA","2000.0","1330","2075","2000","NA","2","legacy","6","1024","2","48000","-16","experiment","3","odd","5","336196","332947","5674","79235","333993","333994","326529","5681","77160","334995","338196","340196","7013","338196","NA","Sternberg Task","25","35359.0","56","1024"
"45","45","632","632","#3d3846","experiment","legacy","legacy","legacy","1","undefined","1","left","56","56","0","0","56","56","56","0","0","56","56","56","0","56","0","Sat Oct 21 14:40:16 2023","The main experiment item","True","SternbergTask.osexp","C:\Users\katjo\OneDrive\Desktop","False","mono","False","18","no","white","no","yes","768","legacy","44","11","C:/Users/katjo/OneDrive/Desktop/KEJ-subject-3.csv","legacy","3 2 1 4 7","Melodramatic Milgram","4.0.5","2","y","0","left","right","right","left","NA","703.0","1330","2075","703","NA","2","legacy","5","1024","2","48000","-16","experiment","3","odd","2","343474","332947","5674","79235","341272","341272","340222","5681","77160","342273","345476","346180","7013","345475","NA","Sternberg Task","26","36062.0","57","1024"
"46","46","636","636","#3d3846","experiment","legacy","legacy","legacy","1","undefined","1","right","57","57","0","0","57","57","57","0","0","57","57","57","0","57","0","Sat Oct 21 14:40:16 2023","The main experiment item","True","SternbergTask.osexp","C:\Users\katjo\OneDrive\Desktop","False","mono","False","18","no","white","no","yes","768","legacy","45","11","C:/Users/katjo/OneDrive/Desktop/KEJ-subject-3.csv","legacy","4 8 1 2","Melodramatic Milgram","4.0.5","0","n","0","right","right","right","right","NA","831.0","1330","2075","831","NA","2","legacy","4","1024","2","48000","-16","experiment","3","odd","7","349423","346183","5674","79235","347220","347222","340222","5681","77160","348222","351423","352255","7013","351423","NA","Sternberg Task","27","36893.0","58","1024"
"45","45","647","647","#3d3846","experiment","legacy","legacy","legacy","0","undefined","0","right","58","58","0","0","58","58","58","0","0","58","58","58","0","58","0","Sat Oct 21 14:40:16 2023","The main experiment item","True","SternbergTask.osexp","C:\Users\katjo\OneDrive\Desktop","False","mono","False","18","no","white","no","yes","768","legacy","46","11","C:/Users/katjo/OneDrive/Desktop/KEJ-subject-3.csv","legacy","6 2 9 3 8 4","Melodramatic Milgram","4.0.5","0","n","0","left","right","right","left","NA","1280.0","1330","2075","1280","NA","2","legacy","6","1024","2","48000","-16","experiment","3","odd","1","355503","352263","5674","79235","353301","353302","340222","5681","77160","354302","357503","358784","7013","357503","NA","Sternberg Task","27","38173.0","59","1024"
"45","45","653","653","#3d3846","experiment","legacy","legacy","legacy","0","undefined","0","left","59","59","0","0","59","59","59","0","0","59","59","59","0","59","0","Sat Oct 21 14:40:16 2023","The main experiment item","True","SternbergTask.osexp","C:\Users\katjo\OneDrive\Desktop","False","mono","False","18","no","white","no","yes","768","legacy","47","11","C:/Users/katjo/OneDrive/Desktop/KEJ-subject-3.csv","legacy","3 5 7 1","Melodramatic Milgram","4.0.5","3","y","0","right","right","right","right","NA","1025.0","1330","2075","1025","NA","2","legacy","4","1024","2","48000","-16","experiment","3","odd","7","362055","352263","5674","79235","359852","359853","358811","5681","77160","360854","364056","365082","7013","364056","NA","Sternberg Task","27","39198.0","60","1024"
"45","45","667","667","#3d3846","experiment","legacy","legacy","legacy","1","undefined","1","left","60","60","0","0","60","60","60","0","0","60","60","60","0","60","0","Sat Oct 21 14:40:16 2023","The main experiment item","True","SternbergTask.osexp","C:\Users\katjo\OneDrive\Desktop","False","mono","False","18","no","white","no","yes","768","legacy","48","11","C:/Users/katjo/OneDrive/Desktop/KEJ-subject-3.csv","legacy","2 4 6 9","Melodramatic Milgram","4.0.5","3","y","0","left","right","right","left","NA","1526.0","1330","2075","1526","NA","2","legacy","4","1024","2","48000","-16","experiment","3","odd","6","368336","352263","5674","79235","366133","366134","365090","5681","77160","367135","370337","371864","7013","370337","NA","Sternberg Task","28","40724.0","61","1024"
"46","46","669","669","#3d3846","experiment","legacy","legacy","legacy","1","undefined","1","left","61","61","0","0","61","61","61","0","0","61","61","61","0","61","0","Sat Oct 21 14:40:16 2023","The main experiment item","True","SternbergTask.osexp","C:\Users\katjo\OneDrive\Desktop","False","mono","False","18","no","white","no","yes","768","legacy","49","11","C:/Users/katjo/OneDrive/Desktop/KEJ-subject-3.csv","legacy","7 8 4 6 9 5","Melodramatic Milgram","4.0.5","4","y","0","left","right","right","left","NA","775.0","1330","2075","775","NA","2","legacy","6","1024","2","48000","-16","experiment","3","odd","6","375132","371872","5674","79235","372931","372932","365090","5681","77160","373932","377132","377908","7013","377132","NA","Sternberg Task","29","41499.0","62","1024"
"47","47","661","661","#3d3846","experiment","legacy","legacy","legacy","1","undefined","1","right","62","62","0","0","62","62","62","0","0","62","62","62","0","62","0","Sat Oct 21 14:40:16 2023","The main experiment item","True","SternbergTask.osexp","C:\Users\katjo\OneDrive\Desktop","False","mono","False","18","no","white","no","yes","768","legacy","50","11","C:/Users/katjo/OneDrive/Desktop/KEJ-subject-3.csv","legacy","5 3 8 7 2 4","Melodramatic Milgram","4.0.5","0","n","0","right","right","right","right","NA","162.0","1330","2075","162","NA","2","legacy","6","1024","2","48000","-16","experiment","3","odd","9","381172","377916","5674","79235","378970","378970","365090","5681","77160","379971","383173","383336","7013","383173","NA","Sternberg Task","30","41661.0","63","1024"
"46","46","682","682","#3d3846","experiment","legacy","legacy","legacy","0","undefined","0","left","63","63","0","0","63","63","63","0","0","63","63","63","0","63","0","Sat Oct 21 14:40:16 2023","The main experiment item","True","SternbergTask.osexp","C:\Users\katjo\OneDrive\Desktop","False","mono","False","18","no","white","no","yes","768","legacy","51","11","C:/Users/katjo/OneDrive/Desktop/KEJ-subject-3.csv","legacy","7 6","Melodramatic Milgram","4.0.5","2","y","0","None","right","right","None","NA","2000.0","1330","2075","2000","NA","2","legacy","2","1024","2","48000","-16","experiment","3","odd","6","386591","383340","5674","79235","384388","384389","365090","5681","77160","385390","388592","390592","7013","388592","NA","Sternberg Task","30","43661.0","64","1024"
"46","46","699","699","#3d3846","experiment","legacy","legacy","legacy","0","undefined","0","left","64","64","0","0","64","64","64","0","0","64","64","64","0","64","0","Sat Oct 21 14:40:16 2023","The main experiment item","True","SternbergTask.osexp","C:\Users\katjo\OneDrive\Desktop","False","mono","False","18","no","white","no","yes","768","legacy","52","11","C:/Users/katjo/OneDrive/Desktop/KEJ-subject-3.csv","legacy","6 5","Melodramatic Milgram","4.0.5","2","y","0","right","right","right","right","NA","1834.0","1330","2075","1834","NA","2","legacy","2","1024","2","48000","-16","experiment","3","odd","5","393858","383340","5674","79235","391655","391656","390600","5681","77160","392657","395859","397694","7013","395859","NA","Sternberg Task","30","45495.0","65","1024"
"45","45","695","695","#3d3846","experiment","legacy","legacy","legacy","0","undefined","0","right","65","65","0","0","65","65","65","0","0","65","65","65","0","65","0","Sat Oct 21 14:40:16 2023","The main experiment item","True","SternbergTask.osexp","C:\Users\katjo\OneDrive\Desktop","False","mono","False","18","no","white","no","yes","768","legacy","53","11","C:/Users/katjo/OneDrive/Desktop/KEJ-subject-3.csv","legacy","2 5 1 4","Melodramatic Milgram","4.0.5","0","n","0","left","right","right","left","NA","389.0","1330","2075","389","NA","2","legacy","4","1024","2","48000","-16","experiment","3","odd","6","400942","383340","5674","79235","398740","398741","397702","5681","77160","399741","402943","403333","7013","402943","NA","Sternberg Task","30","45884.0","66","1024"
"44","44","689","689","#3d3846","experiment","legacy","legacy","legacy","0","undefined","0","left","66","66","0","0","66","66","66","0","0","66","66","66","0","66","0","Sat Oct 21 14:40:16 2023","The main experiment item","True","SternbergTask.osexp","C:\Users\katjo\OneDrive\Desktop","False","mono","False","18","no","white","no","yes","768","legacy","54","11","C:/Users/katjo/OneDrive/Desktop/KEJ-subject-3.csv","legacy","8 9 5 7 1 6","Melodramatic Milgram","4.0.5","4","y","0","right","right","right","right","NA","340.0","1330","2075","340","NA","2","legacy","6","1024","2","48000","-16","experiment","3","odd","7","406613","383340","5674","79235","404411","404412","403360","5681","77160","405413","408614","408955","7013","408613","NA","Sternberg Task","30","46224.0","67","1024"
"45","45","683","683","#3d3846","experiment","legacy","legacy","legacy","1","undefined","1","left","67","67","0","0","67","67","67","0","0","67","67","67","0","67","0","Sat Oct 21 14:40:16 2023","The main experiment item","True","SternbergTask.osexp","C:\Users\katjo\OneDrive\Desktop","False","mono","False","18","no","white","no","yes","768","legacy","55","11","C:/Users/katjo/OneDrive/Desktop/KEJ-subject-3.csv","legacy","5 2 9 6 1 7","Melodramatic Milgram","4.0.5","3","y","0","left","right","right","left","NA","250.0","1330","2075","250","NA","2","legacy","6","1024","2","48000","-16","experiment","3","odd","9","412220","383340","5674","79235","410018","410019","408963","5681","77160","411019","414220","414472","7013","414220","NA","Sternberg Task","31","46474.0","68","1024"
"44","44","698","698","#3d3846","experiment","legacy","legacy","legacy","0","undefined","0","left","68","68","0","0","68","68","68","0","0","68","68","68","0","68","0","Sat Oct 21 14:40:16 2023","The main experiment item","True","SternbergTask.osexp","C:\Users\katjo\OneDrive\Desktop","False","mono","False","18","no","white","no","yes","768","legacy","56","11","C:/Users/katjo/OneDrive/Desktop/KEJ-subject-3.csv","legacy","9 4 2","Melodramatic Milgram","4.0.5","1","y","0","right","right","right","right","NA","1718.0","1330","2075","1718","NA","2","legacy","3","1024","2","48000","-16","experiment","3","odd","9","417728","414479","5674","79235","415526","415527","408963","5681","77160","416527","419729","421448","7013","419728","NA","Sternberg Task","31","48192.0","69","1024"
"45","45","696","696","#3d3846","experiment","legacy","legacy","legacy","1","undefined","1","left","69","69","0","0","69","69","69","0","0","69","69","69","0","69","0","Sat Oct 21 14:40:16 2023","The main experiment item","True","SternbergTask.osexp","C:\Users\katjo\OneDrive\Desktop","False","mono","False","18","no","white","no","yes","768","legacy","57","11","C:/Users/katjo/OneDrive/Desktop/KEJ-subject-3.csv","legacy","2 3 7 4","Melodramatic Milgram","4.0.5","1","y","0","left","right","right","left","NA","544.0","1330","2075","544","NA","2","legacy","4","1024","2","48000","-16","experiment","3","odd","2","424695","414479","5674","79235","422492","422493","421455","5681","77160","423494","426695","427240","7013","426695","NA","Sternberg Task","32","48736.0","70","1024"
"46","46","690","690","#3d3846","experiment","legacy","legacy","legacy","1","undefined","1","left","70","70","0","0","70","70","70","0","0","70","70","70","0","70","0","Sat Oct 21 14:40:16 2023","The main experiment item","True","SternbergTask.osexp","C:\Users\katjo\OneDrive\Desktop","False","mono","False","18","no","white","no","yes","768","legacy","58","11","C:/Users/katjo/OneDrive/Desktop/KEJ-subject-3.csv","legacy","4 3 2 5 8","Melodramatic Milgram","4.0.5","2","y","0","left","right","right","left","NA","299.0","1330","2075","299","NA","2","legacy","5","1024","2","48000","-16","experiment","3","odd","3","430502","427248","5674","79235","428300","428301","421455","5681","77160","429301","432503","432803","7013","432503","NA","Sternberg Task","33","49035.0","71","1024"
"47","47","690","690","#3d3846","experiment","legacy","legacy","legacy","1","undefined","1","left","71","71","0","0","71","71","71","0","0","71","71","71","0","71","0","Sat Oct 21 14:40:16 2023","The main experiment item","True","SternbergTask.osexp","C:\Users\katjo\OneDrive\Desktop","False","mono","False","18","no","white","no","yes","768","legacy","59","11","C:/Users/katjo/OneDrive/Desktop/KEJ-subject-3.csv","legacy","8 1 6","Melodramatic Milgram","4.0.5","3","y","0","left","right","right","left","NA","675.0","1330","2075","675","NA","2","legacy","3","1024","2","48000","-16","experiment","3","odd","6","436061","432806","5674","79235","433859","433860","421455","5681","77160","434860","438062","438738","7013","438062","NA","Sternberg Task","34","49710.0","72","1024"
"46","46","708","708","#3d3846","experiment","legacy","legacy","legacy","0","undefined","0","left","72","72","0","0","72","72","72","0","0","72","72","72","0","72","0","Sat Oct 21 14:40:16 2023","The main experiment item","True","SternbergTask.osexp","C:\Users\katjo\OneDrive\Desktop","False","mono","False","18","no","white","no","yes","768","legacy","60","11","C:/Users/katjo/OneDrive/Desktop/KEJ-subject-3.csv","legacy","8","Melodramatic Milgram","4.0.5","1","y","0","None","right","right","None","NA","2000.0","1330","2075","2000","NA","2","legacy","1","1024","2","48000","-16","experiment","3","odd","8","441985","438746","5674","79235","439782","439783","421455","5681","77160","440784","443987","445987","7013","443986","NA","Sternberg Task","34","51710.0","73","1024"
"45","45","703","703","#3d3846","experiment","legacy","legacy","legacy","0","undefined","0","right","73","73","0","0","73","73","73","0","0","73","73","73","0","73","0","Sat Oct 21 14:40:16 2023","The main experiment item","True","SternbergTask.osexp","C:\Users\katjo\OneDrive\Desktop","False","mono","False","18","no","white","no","yes","768","legacy","61","11","C:/Users/katjo/OneDrive/Desktop/KEJ-subject-3.csv","legacy","9 8 2 7 4","Melodramatic Milgram","4.0.5","0","n","0","left","right","right","left","NA","352.0","1330","2075","352","NA","2","legacy","5","1024","2","48000","-16","experiment","3","odd","5","449240","438746","5674","79235","447037","447039","445995","5681","77160","448039","451240","451592","7013","451240","NA","Sternberg Task","34","52062.0","74","1024"
"46","46","697","697","#3d3846","experiment","legacy","legacy","legacy","1","undefined","1","right","74","74","0","0","74","74","74","0","0","74","74","74","0","74","0","Sat Oct 21 14:40:16 2023","The main experiment item","True","SternbergTask.osexp","C:\Users\katjo\OneDrive\Desktop","False","mono","False","18","no","white","no","yes","768","legacy","62","11","C:/Users/katjo/OneDrive/Desktop/KEJ-subject-3.csv","legacy","1","Melodramatic Milgram","4.0.5","0","n","0","right","right","right","right","NA","253.0","1330","2075","253","NA","2","legacy","1","1024","2","48000","-16","experiment","3","odd","7","454841","438746","5674","79235","452640","452640","451600","5681","77160","453640","456842","457096","7013","456842","NA","Sternberg Task","35","52315.0","75","1024"
"46","46","691","691","#3d3846","experiment","legacy","legacy","legacy","0","undefined","0","left","75","75","0","0","75","75","75","0","0","75","75","75","0","75","0","Sat Oct 21 14:40:16 2023","The main experiment item","True","SternbergTask.osexp","C:\Users\katjo\OneDrive\Desktop","False","mono","False","18","no","white","no","yes","768","legacy","63","11","C:/Users/katjo/OneDrive/Desktop/KEJ-subject-3.csv","legacy","9 1 6 7 8","Melodramatic Milgram","4.0.5","1","y","0","right","right","right","right","NA","261.0","1330","2075","261","NA","2","legacy","5","1024","2","48000","-16","experiment","3","odd","9","460354","457099","5674","79235","458152","458153","451600","5681","77160","459153","462354","462617","7013","462354","NA","Sternberg Task","35","52576.0","76","1024"
"46","46","695","695","#3d3846","experiment","legacy","legacy","legacy","1","undefined","1","left","76","76","0","0","76","76","76","0","0","76","76","76","0","76","0","Sat Oct 21 14:40:16 2023","The main experiment item","True","SternbergTask.osexp","C:\Users\katjo\OneDrive\Desktop","False","mono","False","18","no","white","no","yes","768","legacy","64","11","C:/Users/katjo/OneDrive/Desktop/KEJ-subject-3.csv","legacy","9 5 8 1","Melodramatic Milgram","4.0.5","2","y","0","left","right","right","left","NA","1015.0","1330","2075","1015","NA","2","legacy","4","1024","2","48000","-16","experiment","3","odd","5","465886","457099","5674","79235","463684","463685","462625","5681","77160","464685","467887","468903","7013","467887","NA","Sternberg Task","36","53591.0","77","1024"
"46","46","699","699","#3d3846","experiment","legacy","legacy","legacy","0","undefined","0","right","77","77","0","0","77","77","77","0","0","77","77","77","0","77","0","Sat Oct 21 14:40:16 2023","The main experiment item","True","SternbergTask.osexp","C:\Users\katjo\OneDrive\Desktop","False","mono","False","18","no","white","no","yes","768","legacy","65","11","C:/Users/katjo/OneDrive/Desktop/KEJ-subject-3.csv","legacy","6 7 5 9","Melodramatic Milgram","4.0.5","0","n","0","left","right","right","left","NA","940.0","1330","2075","940","NA","2","legacy","4","1024","2","48000","-16","experiment","3","odd","2","472183","468929","5674","79235","469981","469982","462625","5681","77160","470982","474184","475125","7013","474183","NA","Sternberg Task","36","54531.0","78","1024"
"45","45","694","694","#3d3846","experiment","legacy","legacy","legacy","0","undefined","0","left","78","78","0","0","78","78","78","0","0","78","78","78","0","78","0","Sat Oct 21 14:40:16 2023","The main experiment item","True","SternbergTask.osexp","C:\Users\katjo\OneDrive\Desktop","False","mono","False","18","no","white","no","yes","768","legacy","66","11","C:/Users/katjo/OneDrive/Desktop/KEJ-subject-3.csv","legacy","9 3 8 2 1 4","Melodramatic Milgram","4.0.5","3","y","0","right","right","right","right","NA","307.0","1330","2075","307","NA","2","legacy","6","1024","2","48000","-16","experiment","3","odd","8","478399","468929","5674","79235","476197","476198","475151","5681","77160","477198","480399","480706","7013","480399","NA","Sternberg Task","36","54838.0","79","1024"
"45","45","690","690","#3d3846","experiment","legacy","legacy","legacy","0","undefined","0","right","79","79","0","0","79","79","79","0","0","79","79","79","0","79","0","Sat Oct 21 14:40:16 2023","The main experiment item","True","SternbergTask.osexp","C:\Users\katjo\OneDrive\Desktop","False","mono","False","18","no","white","no","yes","768","legacy","67","11","C:/Users/katjo/OneDrive/Desktop/KEJ-subject-3.csv","legacy","5","Melodramatic Milgram","4.0.5","0","n","0","left","right","right","left","NA","426.0","1330","2075","426","NA","2","legacy","1","1024","2","48000","-16","experiment","3","odd","8","483954","468929","5674","79235","481752","481753","480714","5681","77160","482753","485954","486381","7013","485954","NA","Sternberg Task","36","55264.0","80","1024"
"45","45","685","685","#3d3846","experiment","legacy","legacy","legacy","1","undefined","1","right","80","80","0","0","80","80","80","0","0","80","80","80","0","80","0","Sat Oct 21 14:40:16 2023","The main experiment item","True","SternbergTask.osexp","C:\Users\katjo\OneDrive\Desktop","False","mono","False","18","no","white","no","yes","768","legacy","68","11","C:/Users/katjo/OneDrive/Desktop/KEJ-subject-3.csv","legacy","8 5 4 2 9 6","Melodramatic Milgram","4.0.5","0","n","0","right","right","right","right","NA","247.0","1330","2075","247","NA","2","legacy","6","1024","2","48000","-16","experiment","3","odd","3","489626","468929","5674","79235","487423","487424","486386","5681","77160","488424","491627","491875","7013","491626","NA","Sternberg Task","37","55511.0","81","1024"
"45","45","680","680","#3d3846","experiment","legacy","legacy","legacy","0","undefined","0","left","81","81","0","0","81","81","81","0","0","81","81","81","0","81","0","Sat Oct 21 14:40:16 2023","The main experiment item","True","SternbergTask.osexp","C:\Users\katjo\OneDrive\Desktop","False","mono","False","18","no","white","no","yes","768","legacy","69","11","C:/Users/katjo/OneDrive/Desktop/KEJ-subject-3.csv","legacy","9 5 3 8 4","Melodramatic Milgram","4.0.5","1","y","0","right","right","right","right","NA","303.0","1330","2075","303","NA","2","legacy","5","1024","2","48000","-16","experiment","3","odd","9","495132","491880","5674","79235","492929","492930","486386","5681","77160","493931","497134","497438","7013","497134","NA","Sternberg Task","37","55814.0","82","1024"
"44","44","691","691","#3d3846","experiment","legacy","legacy","legacy","0","undefined","0","right","82","82","0","0","82","82","82","0","0","82","82","82","0","82","0","Sat Oct 21 14:40:16 2023","The main experiment item","True","SternbergTask.osexp","C:\Users\katjo\OneDrive\Desktop","False","mono","False","18","no","white","no","yes","768","legacy","70","11","C:/Users/katjo/OneDrive/Desktop/KEJ-subject-3.csv","legacy","8 5 7 3 6","Melodramatic Milgram","4.0.5","0","n","0","left","right","right","left","NA","1576.0","1330","2075","1576","NA","2","legacy","5","1024","2","48000","-16","experiment","3","odd","9","500700","491880","5674","79235","498497","498498","497452","5681","77160","499499","502701","504278","7013","502701","NA","Sternberg Task","37","57390.0","83","1024"
"44","44","683","683","#3d3846","experiment","legacy","legacy","legacy","0","undefined","0","right","83","83","0","0","83","83","83","0","0","83","83","83","0","83","0","Sat Oct 21 14:40:16 2023","The main experiment item","True","SternbergTask.osexp","C:\Users\katjo\OneDrive\Desktop","False","mono","False","18","no","white","no","yes","768","legacy","71","11","C:/Users/katjo/OneDrive/Desktop/KEJ-subject-3.csv","legacy","7 4 2 8 1 9","Melodramatic Milgram","4.0.5","0","n","0","left","right","right","left","NA","3.0","1330","2075","3","NA","2","legacy","6","1024","2","48000","-16","experiment","3","odd","5","507545","491880","5674","79235","505342","505343","504286","5681","77160","506344","509546","509550","7013","509546","NA","Sternberg Task","37","57393.0","84","1024"
"44","44","685","685","#3d3846","experiment","legacy","legacy","legacy","1","undefined","1","right","84","84","0","0","84","84","84","0","0","84","84","84","0","84","0","Sat Oct 21 14:40:16 2023","The main experiment item","True","SternbergTask.osexp","C:\Users\katjo\OneDrive\Desktop","False","mono","False","18","no","white","no","yes","768","legacy","72","11","C:/Users/katjo/OneDrive/Desktop/KEJ-subject-3.csv","legacy","1 8 7","Melodramatic Milgram","4.0.5","0","n","0","right","right","right","right","NA","862.0","1330","2075","862","NA","2","legacy","3","1024","2","48000","-16","experiment","3","odd","4","512798","491880","5674","79235","510596","510597","509557","5681","77160","511597","514799","515662","7013","514798","NA","Sternberg Task","38","58255.0","85","1024"
"44","44","692","692","#3d3846","experiment","legacy","legacy","legacy","0","undefined","0","right","85","85","0","0","85","85","85","0","0","85","85","85","0","85","0","Sat Oct 21 14:40:16 2023","The main experiment item","True","SternbergTask.osexp","C:\Users\katjo\OneDrive\Desktop","False","mono","False","18","no","white","no","yes","768","legacy","73","11","C:/Users/katjo/OneDrive/Desktop/KEJ-subject-3.csv","legacy","2 8 7 9 5 3","Melodramatic Milgram","4.0.5","0","n","0","left","right","right","left","NA","1273.0","1330","2075","1273","NA","2","legacy","6","1024","2","48000","-16","experiment","3","odd","6","518924","515667","5674","79235","516721","516722","509557","5681","77160","517722","520925","522199","7013","520925","NA","Sternberg Task","38","59528.0","86","1024"
"43","43","707","707","#3d3846","experiment","legacy","legacy","legacy","0","undefined","0","left","86","86","0","0","86","86","86","0","0","86","86","86","0","86","0","Sat Oct 21 14:40:16 2023","The main experiment item","True","SternbergTask.osexp","C:\Users\katjo\OneDrive\Desktop","False","mono","False","18","no","white","no","yes","768","legacy","74","11","C:/Users/katjo/OneDrive/Desktop/KEJ-subject-3.csv","legacy","3 9 6 2","Melodramatic Milgram","4.0.5","4","y","0","None","right","right","None","NA","2000.0","1330","2075","2000","NA","2","legacy","4","1024","2","48000","-16","experiment","3","odd","2","525458","515667","5674","79235","523257","523257","522207","5681","77160","524257","527460","529460","7013","527459","NA","Sternberg Task","38","61528.0","87","1024"
"43","43","721","721","#3d3846","experiment","legacy","legacy","legacy","0","undefined","0","left","87","87","0","0","87","87","87","0","0","87","87","87","0","87","0","Sat Oct 21 14:40:16 2023","The main experiment item","True","SternbergTask.osexp","C:\Users\katjo\OneDrive\Desktop","False","mono","False","18","no","white","no","yes","768","legacy","75","11","C:/Users/katjo/OneDrive/Desktop/KEJ-subject-3.csv","legacy","9 8 4","Melodramatic Milgram","4.0.5","1","y","0","None","right","right","None","NA","2000.0","1330","2075","2000","NA","2","legacy","3","1024","2","48000","-16","experiment","3","odd","9","532712","515667","5674","79235","530510","530511","529468","5681","77160","531511","534712","536712","7013","534712","NA","Sternberg Task","38","63528.0","88","1024"
"43","43","720","720","#3d3846","experiment","legacy","legacy","legacy","1","undefined","1","right","88","88","0","0","88","88","88","0","0","88","88","88","0","88","0","Sat Oct 21 14:40:16 2023","The main experiment item","True","SternbergTask.osexp","C:\Users\katjo\OneDrive\Desktop","False","mono","False","18","no","white","no","yes","768","legacy","76","11","C:/Users/katjo/OneDrive/Desktop/KEJ-subject-3.csv","legacy","1 4 9 2 5","Melodramatic Milgram","4.0.5","0","n","0","right","right","right","right","NA","635.0","1330","2075","635","NA","2","legacy","5","1024","2","48000","-16","experiment","3","odd","7","539964","515667","5674","79235","537760","537762","536720","5681","77160","538763","541964","542600","7013","541964","NA","Sternberg Task","39","64163.0","89","1024"
"44","44","723","723","#3d3846","experiment","legacy","legacy","legacy","1","undefined","1","right","89","89","0","0","89","89","89","0","0","89","89","89","0","89","0","Sat Oct 21 14:40:16 2023","The main experiment item","True","SternbergTask.osexp","C:\Users\katjo\OneDrive\Desktop","False","mono","False","18","no","white","no","yes","768","legacy","77","11","C:/Users/katjo/OneDrive/Desktop/KEJ-subject-3.csv","legacy","6 9 5","Melodramatic Milgram","4.0.5","0","n","0","right","right","right","right","NA","937.0","1330","2075","937","NA","2","legacy","3","1024","2","48000","-16","experiment","3","odd","8","545860","542608","5674","79235","543658","543659","536720","5681","77160","544659","547860","548799","7013","547860","NA","Sternberg Task","40","65100.0","90","1024"
"43","43","721","721","#3d3846","experiment","legacy","legacy","legacy","0","undefined","0","right","90","90","0","0","90","90","90","0","0","90","90","90","0","90","0","Sat Oct 21 14:40:16 2023","The main experiment item","True","SternbergTask.osexp","C:\Users\katjo\OneDrive\Desktop","False","mono","False","18","no","white","no","yes","768","legacy","78","11","C:/Users/katjo/OneDrive/Desktop/KEJ-subject-3.csv","legacy","1 4 9 3","Melodramatic Milgram","4.0.5","0","n","0","left","right","right","left","NA","583.0","1330","2075","583","NA","2","legacy","4","1024","2","48000","-16","experiment","3","odd","5","552057","548806","5674","79235","549855","549855","536720","5681","77160","550856","554059","554643","7013","554059","NA","Sternberg Task","40","65683.0","91","1024"
"44","44","720","720","#3d3846","experiment","legacy","legacy","legacy","1","undefined","1","left","91","91","0","0","91","91","91","0","0","91","91","91","0","91","0","Sat Oct 21 14:40:16 2023","The main experiment item","True","SternbergTask.osexp","C:\Users\katjo\OneDrive\Desktop","False","mono","False","18","no","white","no","yes","768","legacy","79","11","C:/Users/katjo/OneDrive/Desktop/KEJ-subject-3.csv","legacy","7 4 2 6 3 5","Melodramatic Milgram","4.0.5","6","y","0","left","right","right","left","NA","619.0","1330","2075","619","NA","2","legacy","6","1024","2","48000","-16","experiment","3","odd","5","557947","548806","5674","79235","555744","555745","554669","5681","77160","556746","559949","560569","7013","559948","NA","Sternberg Task","41","66302.0","92","1024"
"45","45","718","718","#3d3846","experiment","legacy","legacy","legacy","1","undefined","1","right","92","92","0","0","92","92","92","0","0","92","92","92","0","92","0","Sat Oct 21 14:40:16 2023","The main experiment item","True","SternbergTask.osexp","C:\Users\katjo\OneDrive\Desktop","False","mono","False","18","no","white","no","yes","768","legacy","80","11","C:/Users/katjo/OneDrive/Desktop/KEJ-subject-3.csv","legacy","7 8 6 1","Melodramatic Milgram","4.0.5","0","n","0","right","right","right","right","NA","555.0","1330","2075","555","NA","2","legacy","4","1024","2","48000","-16","experiment","3","odd","3","563819","560577","5674","79235","561615","561617","554669","5681","77160","562618","565819","566375","7013","565819","NA","Sternberg Task","42","66857.0","93","1024"
"44","44","715","715","#3d3846","experiment","legacy","legacy","legacy","0","undefined","0","right","93","93","0","0","93","93","93","0","0","93","93","93","0","93","0","Sat Oct 21 14:40:16 2023","The main experiment item","True","SternbergTask.osexp","C:\Users\katjo\OneDrive\Desktop","False","mono","False","18","no","white","no","yes","768","legacy","81","11","C:/Users/katjo/OneDrive/Desktop/KEJ-subject-3.csv","legacy","6 9 7 3 8 2","Melodramatic Milgram","4.0.5","0","n","0","left","right","right","left","NA","373.0","1330","2075","373","NA","2","legacy","6","1024","2","48000","-16","experiment","3","odd","5","569632","566383","5674","79235","567430","567431","554669","5681","77160","568431","571632","572006","7013","571632","NA","Sternberg Task","42","67230.0","94","1024"
"44","44","724","724","#3d3846","experiment","legacy","legacy","legacy","0","undefined","0","right","94","94","0","0","94","94","94","0","0","94","94","94","0","94","0","Sat Oct 21 14:40:16 2023","The main experiment item","True","SternbergTask.osexp","C:\Users\katjo\OneDrive\Desktop","False","mono","False","18","no","white","no","yes","768","legacy","82","11","C:/Users/katjo/OneDrive/Desktop/KEJ-subject-3.csv","legacy","5 7 3","Melodramatic Milgram","4.0.5","0","n","0","left","right","right","left","NA","1599.0","1330","2075","1599","NA","2","legacy","3","1024","2","48000","-16","experiment","3","odd","9","575254","566383","5674","79235","573051","573052","572014","5681","77160","574053","577255","578855","7013","577255","NA","Sternberg Task","42","68829.0","95","1024"
"43","43","726","726","#3d3846","experiment","legacy","legacy","legacy","0","undefined","0","left","95","95","0","0","95","95","95","0","0","95","95","95","0","95","0","Sat Oct 21 14:40:16 2023","The main experiment item","True","SternbergTask.osexp","C:\Users\katjo\OneDrive\Desktop","False","mono","False","18","no","white","no","yes","768","legacy","83","11","C:/Users/katjo/OneDrive/Desktop/KEJ-subject-3.csv","legacy","6 8 9 3 4 9","Melodramatic Milgram","4.0.5","5","y","0","right","right","right","right","NA","896.0","1330","2075","896","NA","2","legacy","6","1024","2","48000","-16","experiment","3","odd","4","582136","566383","5674","79235","579933","579934","578881","5681","77160","580935","584136","585033","7013","584136","NA","Sternberg Task","42","69725.0","96","1024"
"43","43","733","733","#3d3846","experiment","legacy","legacy","legacy","0","undefined","0","right","96","96","0","0","96","96","96","0","0","96","96","96","0","96","0","Sat Oct 21 14:40:16 2023","The main experiment item","True","SternbergTask.osexp","C:\Users\katjo\OneDrive\Desktop","False","mono","False","18","no","white","no","yes","768","legacy","84","11","C:/Users/katjo/OneDrive/Desktop/KEJ-subject-3.csv","legacy","4 2 7 6 1 3","Melodramatic Milgram","4.0.5","0","n","0","left","right","right","left","NA","1452.0","1330","2075","1452","NA","2","legacy","6","1024","2","48000","-16","experiment","3","odd","8","588300","566383","5674","79235","586098","586099","585045","5681","77160","587099","590301","591754","7013","590301","NA","Sternberg Task","42","71177.0","97","1024"
"42","42","726","726","#3d3846","experiment","legacy","legacy","legacy","0","undefined","0","left","97","97","0","0","97","97","97","0","0","97","97","97","0","97","0","Sat Oct 21 14:40:16 2023","The main experiment item","True","SternbergTask.osexp","C:\Users\katjo\OneDrive\Desktop","False","mono","False","18","no","white","no","yes","768","legacy","85","11","C:/Users/katjo/OneDrive/Desktop/KEJ-subject-3.csv","legacy","3 4 9 6 2 9","Melodramatic Milgram","4.0.5","5","y","0","right","right","right","right","NA","5.0","1330","2075","5","NA","2","legacy","6","1024","2","48000","-16","experiment","3","odd","2","595002","566383","5674","79235","592800","592801","591762","5681","77160","593801","597005","597013","7013","597004","NA","Sternberg Task","42","71182.0","98","1024"
"42","42","732","732","#3d3846","experiment","legacy","legacy","legacy","0","undefined","0","right","98","98","0","0","98","98","98","0","0","98","98","98","0","98","0","Sat Oct 21 14:40:16 2023","The main experiment item","True","SternbergTask.osexp","C:\Users\katjo\OneDrive\Desktop","False","mono","False","18","no","white","no","yes","768","legacy","86","11","C:/Users/katjo/OneDrive/Desktop/KEJ-subject-3.csv","legacy","3 9 1","Melodramatic Milgram","4.0.5","0","n","0","left","right","right","left","NA","1320.0","1330","2075","1320","NA","2","legacy","3","1024","2","48000","-16","experiment","3","odd","7","600273","566383","5674","79235","598070","598071","597022","5681","77160","599072","602275","603596","7013","602274","NA","Sternberg Task","42","72502.0","99","1024"
"43","43","725","725","#3d3846","experiment","legacy","legacy","legacy","1","undefined","1","right","99","99","0","0","99","99","99","0","0","99","99","99","0","99","0","Sat Oct 21 14:40:16 2023","The main experiment item","True","SternbergTask.osexp","C:\Users\katjo\OneDrive\Desktop","False","mono","False","18","no","white","no","yes","768","legacy","87","11","C:/Users/katjo/OneDrive/Desktop/KEJ-subject-3.csv","legacy","5 3 2 6 9 8","Melodramatic Milgram","4.0.5","0","n","0","right","right","right","right","NA","87.0","1330","2075","87","NA","2","legacy","6","1024","2","48000","-16","experiment","3","odd","4","606867","566383","5674","79235","604664","604665","603623","5681","77160","605666","608870","608958","7013","608869","NA","Sternberg Task","43","72589.0","100","1024"
"43","43","720","720","#3d3846","experiment","legacy","legacy","legacy","1","undefined","1","left","100","100","0","0","100","100","100","0","0","100","100","100","0","100","0","Sat Oct 21 14:40:16 2023","The main experiment item","True","SternbergTask.osexp","C:\Users\katjo\OneDrive\Desktop","False","mono","False","18","no","white","no","yes","768","legacy","88","11","C:/Users/katjo/OneDrive/Desktop/KEJ-subject-3.csv","legacy","8 5 3 7 4 6","Melodramatic Milgram","4.0.5","6","y","0","left","right","right","left","NA","144.0","1330","2075","144","NA","2","legacy","6","1024","2","48000","-16","experiment","3","odd","6","612207","608966","5674","79235","610005","610006","603623","5681","77160","611006","614207","614352","7013","614207","NA","Sternberg Task","44","72733.0","101","1024"
"44","44","720","720","#3d3846","experiment","legacy","legacy","legacy","1","undefined","1","right","101","101","0","0","101","101","101","0","0","101","101","101","0","101","0","Sat Oct 21 14:40:16 2023","The main experiment item","True","SternbergTask.osexp","C:\Users\katjo\OneDrive\Desktop","False","mono","False","18","no","white","no","yes","768","legacy","89","11","C:/Users/katjo/OneDrive/Desktop/KEJ-subject-3.csv","legacy","6 8 4","Melodramatic Milgram","4.0.5","0","n","0","right","right","right","right","NA","803.0","1330","2075","803","NA","2","legacy","3","1024","2","48000","-16","experiment","3","odd","1","617632","614379","5674","79235","615430","615431","603623","5681","77160","616432","619632","620437","7013","619632","NA","Sternberg Task","45","73536.0","102","1024"
"44","44","718","718","#3d3846","experiment","legacy","legacy","legacy","1","undefined","1","left","102","102","0","0","102","102","102","0","0","102","102","102","0","102","0","Sat Oct 21 14:40:16 2023","The main experiment item","True","SternbergTask.osexp","C:\Users\katjo\OneDrive\Desktop","False","mono","False","18","no","white","no","yes","768","legacy","90","11","C:/Users/katjo/OneDrive/Desktop/KEJ-subject-3.csv","legacy","6 1 2","Melodramatic Milgram","4.0.5","3","y","0","left","right","right","left","NA","520.0","1330","2075","520","NA","2","legacy","3","1024","2","48000","-16","experiment","3","odd","2","623702","620441","5674","79235","621499","621500","603623","5681","77160","622500","625702","626224","7013","625702","NA","Sternberg Task","46","74056.0","103","1024"
"45","45","717","717","#3d3846","experiment","legacy","legacy","legacy","1","undefined","1","left","103","103","0","0","103","103","103","0","0","103","103","103","0","103","0","Sat Oct 21 14:40:16 2023","The main experiment item","True","SternbergTask.osexp","C:\Users\katjo\OneDrive\Desktop","False","mono","False","18","no","white","no","yes","768","legacy","91","11","C:/Users/katjo/OneDrive/Desktop/KEJ-subject-3.csv","legacy","4 6 2 5 1","Melodramatic Milgram","4.0.5","5","y","0","left","right","right","left","NA","530.0","1330","2075","530","NA","2","legacy","5","1024","2","48000","-16","experiment","3","odd","1","629471","626229","5674","79235","627269","627270","603623","5681","77160","628270","631472","632003","7013","631472","NA","Sternberg Task","47","74586.0","104","1024"
"44","44","718","718","#3d3846","experiment","legacy","legacy","legacy","0","undefined","0","right","104","104","0","0","104","104","104","0","0","104","104","104","0","104","0","Sat Oct 21 14:40:16 2023","The main experiment item","True","SternbergTask.osexp","C:\Users\katjo\OneDrive\Desktop","False","mono","False","18","no","white","no","yes","768","legacy","92","11","C:/Users/katjo/OneDrive/Desktop/KEJ-subject-3.csv","legacy","3 4 9 6 7 8","Melodramatic Milgram","4.0.5","0","n","0","left","right","right","left","NA","907.0","1330","2075","907","NA","2","legacy","6","1024","2","48000","-16","experiment","3","odd","2","635253","632011","5674","79235","633051","633052","603623","5681","77160","634052","637254","638162","7013","637253","NA","Sternberg Task","47","75493.0","105","1024"
"45","45","717","717","#3d3846","experiment","legacy","legacy","legacy","1","undefined","1","right","105","105","0","0","105","105","105","0","0","105","105","105","0","105","0","Sat Oct 21 14:40:16 2023","The main experiment item","True","SternbergTask.osexp","C:\Users\katjo\OneDrive\Desktop","False","mono","False","18","no","white","no","yes","768","legacy","93","11","C:/Users/katjo/OneDrive/Desktop/KEJ-subject-3.csv","legacy","2 8 9 4 1","Melodramatic Milgram","4.0.5","0","n","0","right","right","right","right","NA","559.0","1330","2075","559","NA","2","legacy","5","1024","2","48000","-16","experiment","3","odd","5","641407","632011","5674","79235","639205","639205","638170","5681","77160","640206","643407","643967","7013","643407","NA","Sternberg Task","48","76052.0","106","1024"
"45","45","717","717","#3d3846","experiment","legacy","legacy","legacy","1","undefined","1","left","106","106","0","0","106","106","106","0","0","106","106","106","0","106","0","Sat Oct 21 14:40:16 2023","The main experiment item","True","SternbergTask.osexp","C:\Users\katjo\OneDrive\Desktop","False","mono","False","18","no","white","no","yes","768","legacy","94","11","C:/Users/katjo/OneDrive/Desktop/KEJ-subject-3.csv","legacy","3 9 7 6 4","Melodramatic Milgram","4.0.5","3","y","0","left","right","right","left","NA","710.0","1330","2075","710","NA","2","legacy","5","1024","2","48000","-16","experiment","3","odd","7","647226","643975","5674","79235","645024","645025","638170","5681","77160","646025","649227","649938","7013","649226","NA","Sternberg Task","49","76762.0","107","1024"
"46","46","715","715","#3d3846","experiment","legacy","legacy","legacy","1","undefined","1","right","107","107","0","0","107","107","107","0","0","107","107","107","0","107","0","Sat Oct 21 14:40:16 2023","The main experiment item","True","SternbergTask.osexp","C:\Users\katjo\OneDrive\Desktop","False","mono","False","18","no","white","no","yes","768","legacy","95","11","C:/Users/katjo/OneDrive/Desktop/KEJ-subject-3.csv","legacy","3 4 2","Melodramatic Milgram","4.0.5","0","n","0","right","right","right","right","NA","489.0","1330","2075","489","NA","2","legacy","3","1024","2","48000","-16","experiment","3","odd","5","653198","649945","5674","79235","650995","650997","638170","5681","77160","651997","655200","655690","7013","655199","NA","Sternberg Task","50","77251.0","108","1024"
"46","46","714","714","#3d3846","experiment","legacy","legacy","legacy","1","undefined","1","right","108","108","0","0","108","108","108","0","0","108","108","108","0","108","0","Sat Oct 21 14:40:16 2023","The main experiment item","True","SternbergTask.osexp","C:\Users\katjo\OneDrive\Desktop","False","mono","False","18","no","white","no","yes","768","legacy","96","11","C:/Users/katjo/OneDrive/Desktop/KEJ-subject-3.csv","legacy","2 6 4 3 9","Melodramatic Milgram","4.0.5","0","n","0","right","right","right","right","NA","602.0","1330","2075","602","NA","2","legacy","5","1024","2","48000","-16","experiment","3","odd","1","658945","655697","5674","79235","656742","656742","638170","5681","77160","657743","660945","661549","7013","660945","NA","Sternberg Task","51","77853.0","109","1024"
"47","47","711","711","#3d3846","experiment","legacy","legacy","legacy","1","undefined","1","left","109","109","0","0","109","109","109","0","0","109","109","109","0","109","0","Sat Oct 21 14:40:16 2023","The main experiment item","True","SternbergTask.osexp","C:\Users\katjo\OneDrive\Desktop","False","mono","False","18","no","white","no","yes","768","legacy","97","11","C:/Users/katjo/OneDrive/Desktop/KEJ-subject-3.csv","legacy","7","Melodramatic Milgram","4.0.5","1","y","0","left","right","right","left","NA","459.0","1330","2075","459","NA","2","legacy","1","1024","2","48000","-16","experiment","3","odd","7","664796","661557","5674","79235","662593","662594","638170","5681","77160","663594","666796","667256","7013","666796","NA","Sternberg Task","52","78312.0","110","1024"
"47","47","710","710","#3d3846","experiment","legacy","legacy","legacy","1","undefined","1","left","110","110","0","0","110","110","110","0","0","110","110","110","0","110","0","Sat Oct 21 14:40:16 2023","The main experiment item","True","SternbergTask.osexp","C:\Users\katjo\OneDrive\Desktop","False","mono","False","18","no","white","no","yes","768","legacy","98","11","C:/Users/katjo/OneDrive/Desktop/KEJ-subject-3.csv","legacy","6 2","Melodramatic Milgram","4.0.5","1","y","0","left","right","right","left","NA","590.0","1330","2075","590","NA","2","legacy","2","1024","2","48000","-16","experiment","3","odd","6","670521","667264","5674","79235","668318","668319","638170","5681","77160","669320","672523","673114","7013","672523","NA","Sternberg Task","53","78902.0","111","1024"
"48","48","711","711","#3d3846","experiment","legacy","legacy","legacy","1","undefined","1","left","111","111","0","0","111","111","111","0","0","111","111","111","0","111","0","Sat Oct 21 14:40:16 2023","The main experiment item","True","SternbergTask.osexp","C:\Users\katjo\OneDrive\Desktop","False","mono","False","18","no","white","no","yes","768","legacy","99","11","C:/Users/katjo/OneDrive/Desktop/KEJ-subject-3.csv","legacy","8 9 6 1","Melodramatic Milgram","4.0.5","2","y","0","left","right","right","left","NA","744.0","1330","2075","744","NA","2","legacy","4","1024","2","48000","-16","experiment","3","odd","9","676357","673117","5674","79235","674155","674156","638170","5681","77160","675156","678358","679103","7013","678357","NA","Sternberg Task","54","79646.0","112","1024"
"48","48","709","709","#3d3846","experiment","legacy","legacy","legacy","1","undefined","1","left","112","112","0","0","112","112","112","0","0","112","112","112","0","112","0","Sat Oct 21 14:40:16 2023","The main experiment item","True","SternbergTask.osexp","C:\Users\katjo\OneDrive\Desktop","False","mono","False","18","no","white","no","yes","768","legacy","100","11","C:/Users/katjo/OneDrive/Desktop/KEJ-subject-3.csv","legacy","7 8 6 3 1","Melodramatic Milgram","4.0.5","5","y","0","left","right","right","left","NA","513.0","1330","2075","513","NA","2","legacy","5","1024","2","48000","-16","experiment","3","odd","1","682365","679111","5674","79235","680163","680164","638170","5681","77160","681164","684365","684879","7013","684365","NA","Sternberg Task","55","80159.0","113","1024"
"49","49","707","707","#3d3846","experiment","legacy","legacy","legacy","1","undefined","1","left","113","113","0","0","113","113","113","0","0","113","113","113","0","113","0","Sat Oct 21 14:40:16 2023","The main experiment item","True","SternbergTask.osexp","C:\Users\katjo\OneDrive\Desktop","False","mono","False","18","no","white","no","yes","768","legacy","101","11","C:/Users/katjo/OneDrive/Desktop/KEJ-subject-3.csv","legacy","8 7 3","Melodramatic Milgram","4.0.5","1","y","0","left","right","right","left","NA","514.0","1330","2075","514","NA","2","legacy","3","1024","2","48000","-16","experiment","3","odd","8","688138","684887","5674","79235","685936","685937","638170","5681","77160","686937","690139","690654","7013","690139","NA","Sternberg Task","56","80673.0","114","1024"
"49","49","707","707","#3d3846","experiment","legacy","legacy","legacy","1","undefined","1","right","114","114","0","0","114","114","114","0","0","114","114","114","0","114","0","Sat Oct 21 14:40:16 2023","The main experiment item","True","SternbergTask.osexp","C:\Users\katjo\OneDrive\Desktop","False","mono","False","18","no","white","no","yes","768","legacy","102","11","C:/Users/katjo/OneDrive/Desktop/KEJ-subject-3.csv","legacy","1 6 4","Melodramatic Milgram","4.0.5","0","n","0","right","right","right","right","NA","725.0","1330","2075","725","NA","2","legacy","3","1024","2","48000","-16","experiment","3","odd","7","693901","690662","5674","79235","691699","691700","638170","5681","77160","692700","695901","696627","7013","695901","NA","Sternberg Task","57","81398.0","115","1024"
"50","50","706","706","#3d3846","experiment","legacy","legacy","legacy","1","undefined","1","right","115","115","0","0","115","115","115","0","0","115","115","115","0","115","0","Sat Oct 21 14:40:16 2023","The main experiment item","True","SternbergTask.osexp","C:\Users\katjo\OneDrive\Desktop","False","mono","False","18","no","white","no","yes","768","legacy","103","11","C:/Users/katjo/OneDrive/Desktop/KEJ-subject-3.csv","legacy","5 2","Melodramatic Milgram","4.0.5","0","n","0","right","right","right","right","NA","576.0","1330","2075","576","NA","2","legacy","2","1024","2","48000","-16","experiment","3","odd","7","699891","696635","5674","79235","697689","697690","638170","5681","77160","698690","701891","702468","7013","701891","NA","Sternberg Task","58","81974.0","116","1024"
"50","50","705","705","#3d3846","experiment","legacy","legacy","legacy","1","undefined","1","left","116","116","0","0","116","116","116","0","0","116","116","116","0","116","0","Sat Oct 21 14:40:16 2023","The main experiment item","True","SternbergTask.osexp","C:\Users\katjo\OneDrive\Desktop","False","mono","False","18","no","white","no","yes","768","legacy","104","11","C:/Users/katjo/OneDrive/Desktop/KEJ-subject-3.csv","legacy","2 3","Melodramatic Milgram","4.0.5","1","y","0","left","right","right","left","NA","594.0","1330","2075","594","NA","2","legacy","2","1024","2","48000","-16","experiment","3","odd","2","705714","702476","5674","79235","703511","703512","638170","5681","77160","704513","707714","708310","7013","707714","NA","Sternberg Task","59","82568.0","117","1024"
"50","50","711","711","#3d3846","experiment","legacy","legacy","legacy","1","undefined","1","right","117","117","0","0","117","117","117","0","0","117","117","117","0","117","0","Sat Oct 21 14:40:16 2023","The main experiment item","True","SternbergTask.osexp","C:\Users\katjo\OneDrive\Desktop","False","mono","False","18","no","white","no","yes","768","legacy","105","11","C:/Users/katjo/OneDrive/Desktop/KEJ-subject-3.csv","legacy","2 8 6 3 1","Melodramatic Milgram","4.0.5","0","n","0","right","right","right","right","NA","1334.0","1330","2075","1334","NA","2","legacy","5","1024","2","48000","-16","experiment","3","odd","7","711591","708336","5674","79235","709389","709390","638170","5681","77160","710390","713591","714926","7013","713591","NA","Sternberg Task","60","83902.0","118","1024"
"50","50","707","707","#3d3846","experiment","legacy","legacy","legacy","0","undefined","0","right","118","118","0","0","118","118","118","0","0","118","118","118","0","118","0","Sat Oct 21 14:40:16 2023","The main experiment item","True","SternbergTask.osexp","C:\Users\katjo\OneDrive\Desktop","False","mono","False","18","no","white","no","yes","768","legacy","106","11","C:/Users/katjo/OneDrive/Desktop/KEJ-subject-3.csv","legacy","1 6 4 3 9 7","Melodramatic Milgram","4.0.5","0","n","0","left","right","right","left","NA","307.0","1330","2075","307","NA","2","legacy","6","1024","2","48000","-16","experiment","3","odd","8","718196","714952","5674","79235","715994","715995","638170","5681","77160","716995","720196","720505","7013","720196","NA","Sternberg Task","60","84209.0","119","1024"
"50","50","706","706","#3d3846","experiment","legacy","legacy","legacy","1","undefined","1","right","119","119","0","0","119","119","119","0","0","119","119","119","0","119","0","Sat Oct 21 14:40:16 2023","The main experiment item","True","SternbergTask.osexp","C:\Users\katjo\OneDrive\Desktop","False","mono","False","18","no","white","no","yes","768","legacy","107","11","C:/Users/katjo/OneDrive/Desktop/KEJ-subject-3.csv","legacy","1 7 5 2 9","Melodramatic Milgram","4.0.5","0","n","0","right","right","right","right","NA","592.0","1330","2075","592","NA","2","legacy","5","1024","2","48000","-16","experiment","3","odd","3","723758","714952","5674","79235","721555","721556","720512","5681","77160","722557","725759","726353","7013","725759","NA","Sternberg Task","61","84801.0","120","1024"
"51","51","706","706","#3d3846","experiment","legacy","legacy","legacy","1","undefined","1","left","120","120","0","0","120","120","120","0","0","120","120","120","0","120","0","Sat Oct 21 14:40:16 2023","The main experiment item","True","SternbergTask.osexp","C:\Users\katjo\OneDrive\Desktop","False","mono","False","18","no","white","no","yes","768","legacy","108","11","C:/Users/katjo/OneDrive/Desktop/KEJ-subject-3.csv","legacy","4 1 5","Melodramatic Milgram","4.0.5","2","y","0","left","right","right","left","NA","714.0","1330","2075","714","NA","2","legacy","3","1024","2","48000","-16","experiment","3","odd","1","729602","726360","5674","79235","727400","727400","720512","5681","77160","728401","731602","732317","7013","731602","NA","Sternberg Task","62","85515.0","121","1024"
"51","51","708","708","#3d3846","experiment","legacy","legacy","legacy","1","undefined","1","right","121","121","0","0","121","121","121","0","0","121","121","121","0","121","0","Sat Oct 21 14:40:16 2023","The main experiment item","True","SternbergTask.osexp","C:\Users\katjo\OneDrive\Desktop","False","mono","False","18","no","white","no","yes","768","legacy","109","11","C:/Users/katjo/OneDrive/Desktop/KEJ-subject-3.csv","legacy","5 9 2 3","Melodramatic Milgram","4.0.5","0","n","0","right","right","right","right","NA","883.0","1330","2075","883","NA","2","legacy","4","1024","2","48000","-16","experiment","3","odd","8","735577","732325","5674","79235","733374","733376","720512","5681","77160","734376","737579","738464","7013","737579","NA","Sternberg Task","63","86398.0","122","1024"
"51","51","709","709","#3d3846","experiment","legacy","legacy","legacy","0","undefined","0","right","122","122","0","0","122","122","122","0","0","122","122","122","0","122","0","Sat Oct 21 14:40:16 2023","The main experiment item","True","SternbergTask.osexp","C:\Users\katjo\OneDrive\Desktop","False","mono","False","18","no","white","no","yes","768","legacy","110","11","C:/Users/katjo/OneDrive/Desktop/KEJ-subject-3.csv","legacy","4 1","Melodramatic Milgram","4.0.5","0","n","0","left","right","right","left","NA","888.0","1330","2075","888","NA","2","legacy","2","1024","2","48000","-16","experiment","3","odd","6","741719","738472","5674","79235","739517","739518","720512","5681","77160","740518","743720","744610","7013","743720","NA","Sternberg Task","63","87286.0","123","1024"
"51","51","708","708","#3d3846","experiment","legacy","legacy","legacy","1","undefined","1","right","123","123","0","0","123","123","123","0","0","123","123","123","0","123","0","Sat Oct 21 14:40:16 2023","The main experiment item","True","SternbergTask.osexp","C:\Users\katjo\OneDrive\Desktop","False","mono","False","18","no","white","no","yes","768","legacy","111","11","C:/Users/katjo/OneDrive/Desktop/KEJ-subject-3.csv","legacy","1 4 3 6 5","Melodramatic Milgram","4.0.5","0","n","0","right","right","right","right","NA","567.0","1330","2075","567","NA","2","legacy","5","1024","2","48000","-16","experiment","3","odd","8","747860","738472","5674","79235","745657","745658","744617","5681","77160","746659","749861","750429","7013","749860","NA","Sternberg Task","64","87853.0","124","1024"
"52","52","707","707","#3d3846","experiment","legacy","legacy","legacy","1","undefined","1","left","124","124","0","0","124","124","124","0","0","124","124","124","0","124","0","Sat Oct 21 14:40:16 2023","The main experiment item","True","SternbergTask.osexp","C:\Users\katjo\OneDrive\Desktop","False","mono","False","18","no","white","no","yes","768","legacy","112","11","C:/Users/katjo/OneDrive/Desktop/KEJ-subject-3.csv","legacy","2 8 5 1","Melodramatic Milgram","4.0.5","4","y","0","left","right","right","left","NA","585.0","1330","2075","585","NA","2","legacy","4","1024","2","48000","-16","experiment","3","odd","1","753690","750437","5674","79235","751488","751489","744617","5681","77160","752489","755690","756276","7013","755690","NA","Sternberg Task","65","88438.0","125","1024"
