"acc","accuracy","average_response_time","avg_rt","background","block","canvas_backend","clock_backend","color_backend","compensation","coordinates","correct","correct_instruction1","correct_keyboard_response","correct_response","count_ISI","count_correctFeedback","count_expSequence","count_experiment","count_experimentLoop","count_fixation","count_incorrectFeedback","count_instruction1","count_instructions2","count_keyboard_response","count_logger","count_memorySet","count_practiceLoop","count_probe","count_thankYou","datetime","description","disable_garbage_collection","experiment_file","experiment_path","font_bold","font_family","font_italic","font_size","font_underline","foreground","form_clicks","fullscreen","height","keyboard_backend","live_row","live_row_practiceLoop","logfile","mouse_backend","numberSet","opensesame_codename","opensesame_version","posInSet","present","repeat_cycle","response","response_instruction1","response_instructions2","response_keyboard_response","response_thankYou","response_time","response_time_instruction1","response_time_instructions2","response_time_keyboard_response","response_time_thankYou","round_decimals","sampler_backend","setSize","sound_buf_size","sound_channels","sound_freq","sound_sample_size","start","subject_nr","subject_parity","target","time_ISI","time_correctFeedback","time_expSequence","time_experiment","time_experimentLoop","time_fixation","time_incorrectFeedback","time_instruction1","time_instructions2","time_keyboard_response","time_logger","time_memorySet","time_practiceLoop","time_probe","time_thankYou","title","total_correct","total_response_time","total_responses","uniform_coordinates","width"
"100","100","742","742","black","practice","legacy","legacy","legacy","0","uniform","1","undefined","1","left","0","0","0","0","0","0","0","0","0","0","0","0","0","0","0","Sun Oct 17 22:41:41 2021","The main experiment item","yes","Sternbergtask.osexp","C:/Users/19565/Desktop","no","mono","no","18","no","white","no","yes","768","legacy","0","0","C:/Users/19565/Desktop/Lab 3/MR-subject-1.csv","legacy","1 5 2 9","Lentiform Loewenfeld","3.3.9","2","y","0","left","left","NA","left","NA","742","10708","NA","742","NA","2","legacy","4","1024","2","48000","-16","experiment","1","odd","5","16941","NA","14730","3148","NA","14733","NA","3154","NA","18947","19690","15737","13864","18947","NA","Sternberg task","1","742","1","yes","1024"
"100","100","734","734","black","practice","legacy","legacy","legacy","0","uniform","1","undefined","1","left","1","1","1","0","0","1","1","0","0","1","1","1","0","1","0","Sun Oct 17 22:41:41 2021","The main experiment item","yes","Sternbergtask.osexp","C:/Users/19565/Desktop","no","mono","no","18","no","white","no","yes","768","legacy","1","1","C:/Users/19565/Desktop/Lab 3/MR-subject-1.csv","legacy","4 3 1 7 9 8","Lentiform Loewenfeld","3.3.9","1","y","0","left","left","NA","left","NA","726","10708","NA","726","NA","2","legacy","6","1024","2","48000","-16","experiment","1","odd","4","23087","19742","20874","3148","NA","20876","NA","3154","NA","25089","25816","21881","13864","25089","NA","Sternberg task","2","1468","2","yes","1024"
"100","100","794.6666666666666","794.6666666666666","black","practice","legacy","legacy","legacy","0","uniform","1","undefined","1","right","2","2","2","0","0","2","2","0","0","2","2","2","0","2","0","Sun Oct 17 22:41:41 2021","The main experiment item","yes","Sternbergtask.osexp","C:/Users/19565/Desktop","no","mono","no","18","no","white","no","yes","768","legacy","2","2","C:/Users/19565/Desktop/Lab 3/MR-subject-1.csv","legacy","4 1 5","Lentiform Loewenfeld","3.3.9","0","n","0","right","left","NA","right","NA","916","10708","NA","916","NA","2","legacy","3","1024","2","48000","-16","experiment","1","odd","2","29177","25823","26969","3148","NA","26971","NA","3154","NA","31182","32098","27975","13864","31182","NA","Sternberg task","3","2384","3","yes","1024"
"75","75","831","831","black","practice","legacy","legacy","legacy","0","uniform","0","undefined","0","left","3","3","3","0","0","3","3","0","0","3","3","3","0","3","0","Sun Oct 17 22:41:41 2021","The main experiment item","yes","Sternbergtask.osexp","C:/Users/19565/Desktop","no","mono","no","18","no","white","no","yes","768","legacy","3","3","C:/Users/19565/Desktop/Lab 3/MR-subject-1.csv","legacy","1 7 9 8 5","Lentiform Loewenfeld","3.3.9","4","y","0","right","left","NA","right","NA","940","10708","NA","940","NA","2","legacy","5","1024","2","48000","-16","experiment","1","odd","8","35489","32104","33277","3148","NA","33279","NA","3154","NA","37494","38435","34285","13864","37494","NA","Sternberg task","3","3324","4","yes","1024"
"80","80","859.2","859.2","black","practice","legacy","legacy","legacy","0","uniform","1","undefined","1","right","4","4","4","0","0","4","4","0","0","4","4","4","0","4","0","Sun Oct 17 22:41:41 2021","The main experiment item","yes","Sternbergtask.osexp","C:/Users/19565/Desktop","no","mono","no","18","no","white","no","yes","768","legacy","4","4","C:/Users/19565/Desktop/Lab 3/MR-subject-1.csv","legacy","5 7 8 4 1 2","Lentiform Loewenfeld","3.3.9","0","n","0","right","left","NA","right","NA","972","10708","NA","972","NA","2","legacy","6","1024","2","48000","-16","experiment","1","odd","6","41821","32104","39609","3148","NA","39611","38441","3154","NA","43827","44799","40616","13864","43826","NA","Sternberg task","4","4296","5","yes","1024"
"83.33333333333333","83.33333333333333","854.5","854.5","black","practice","legacy","legacy","legacy","0","uniform","1","undefined","1","right","5","5","5","0","0","5","5","0","0","5","5","5","0","5","0","Sun Oct 17 22:41:41 2021","The main experiment item","yes","Sternbergtask.osexp","C:/Users/19565/Desktop","no","mono","no","18","no","white","no","yes","768","legacy","5","5","C:/Users/19565/Desktop/Lab 3/MR-subject-1.csv","legacy","2 1","Lentiform Loewenfeld","3.3.9","0","n","0","right","left","NA","right","NA","831","10708","NA","831","NA","2","legacy","2","1024","2","48000","-16","experiment","1","odd","5","48153","44805","45940","3148","NA","45942","38441","3154","NA","50159","50991","46948","13864","50158","NA","Sternberg task","5","5127","6","yes","1024"
"85.71428571428571","85.71428571428571","893.1428571428571","893.1428571428571","black","practice","legacy","legacy","legacy","0","uniform","1","undefined","1","right","6","6","6","0","0","6","6","0","0","6","6","6","0","6","0","Sun Oct 17 22:41:41 2021","The main experiment item","yes","Sternbergtask.osexp","C:/Users/19565/Desktop","no","mono","no","18","no","white","no","yes","768","legacy","6","6","C:/Users/19565/Desktop/Lab 3/MR-subject-1.csv","legacy","9 6 7 4 5","Lentiform Loewenfeld","3.3.9","0","n","0","right","left","NA","right","NA","1125","10708","NA","1125","NA","2","legacy","5","1024","2","48000","-16","experiment","1","odd","3","54319","50997","52106","3148","NA","52108","38441","3154","NA","56324","57449","53114","13864","56324","NA","Sternberg task","6","6252","7","yes","1024"
"87.5","87.5","844","844","black","practice","legacy","legacy","legacy","0","uniform","1","undefined","1","left","7","7","7","0","0","7","7","0","0","7","7","7","0","7","0","Sun Oct 17 22:41:41 2021","The main experiment item","yes","Sternbergtask.osexp","C:/Users/19565/Desktop","no","mono","no","18","no","white","no","yes","768","legacy","7","7","C:/Users/19565/Desktop/Lab 3/MR-subject-1.csv","legacy","4 8","Lentiform Loewenfeld","3.3.9","1","y","0","left","left","NA","left","NA","500","10708","NA","500","NA","2","legacy","2","1024","2","48000","-16","experiment","1","odd","4","60796","57455","58584","3148","NA","58586","38441","3154","NA","62801","63301","59591","13864","62801","NA","Sternberg task","7","6752","8","yes","1024"
"88.88888888888889","88.88888888888889","942","942","black","practice","legacy","legacy","legacy","0","uniform","1","undefined","1","right","8","8","8","0","0","8","8","0","0","8","8","8","0","8","0","Sun Oct 17 22:41:41 2021","The main experiment item","yes","Sternbergtask.osexp","C:/Users/19565/Desktop","no","mono","no","18","no","white","no","yes","768","legacy","8","8","C:/Users/19565/Desktop/Lab 3/MR-subject-1.csv","legacy","3 1 9 4","Lentiform Loewenfeld","3.3.9","0","n","0","right","left","NA","right","NA","1726","10708","NA","1726","NA","2","legacy","4","1024","2","48000","-16","experiment","1","odd","6","66667","63307","64454","3148","NA","64456","38441","3154","NA","68673","70399","65461","13864","68673","NA","Sternberg task","8","8478","9","yes","1024"
"80","80","894.8","894.8","black","practice","legacy","legacy","legacy","0","uniform","0","undefined","0","left","9","9","9","0","0","9","9","0","0","9","9","9","0","9","0","Sun Oct 17 22:41:41 2021","The main experiment item","yes","Sternbergtask.osexp","C:/Users/19565/Desktop","no","mono","no","18","no","white","no","yes","768","legacy","9","9","C:/Users/19565/Desktop/Lab 3/MR-subject-1.csv","legacy","6","Lentiform Loewenfeld","3.3.9","1","y","0","right","left","NA","right","NA","470","10708","NA","470","NA","2","legacy","1","1024","2","48000","-16","experiment","1","odd","6","73758","70420","71545","3148","NA","71548","38441","3154","NA","75764","76234","72553","13864","75763","NA","Sternberg task","8","8948","10","yes","1024"
"81.81818181818181","81.81818181818181","912.2727272727273","912.2727272727273","black","practice","legacy","legacy","legacy","0","uniform","1","undefined","1","right","10","10","10","0","0","10","10","0","0","10","10","10","0","10","0","Sun Oct 17 22:41:41 2021","The main experiment item","yes","Sternbergtask.osexp","C:/Users/19565/Desktop","no","mono","no","18","no","white","no","yes","768","legacy","10","10","C:/Users/19565/Desktop/Lab 3/MR-subject-1.csv","legacy","5","Lentiform Loewenfeld","3.3.9","0","n","0","right","left","NA","right","NA","1087","10708","NA","1087","NA","2","legacy","1","1024","2","48000","-16","experiment","1","odd","3","79579","70420","77366","3148","NA","77369","76240","3154","NA","81584","82672","78374","13864","81584","NA","Sternberg task","9","10035","11","yes","1024"
"83.33333333333333","83.33333333333333","932.0833333333334","932.0833333333334","black","practice","legacy","legacy","legacy","0","uniform","1","undefined","1","left","11","11","11","0","0","11","11","0","0","11","11","11","0","11","0","Sun Oct 17 22:41:41 2021","The main experiment item","yes","Sternbergtask.osexp","C:/Users/19565/Desktop","no","mono","no","18","no","white","no","yes","768","legacy","11","11","C:/Users/19565/Desktop/Lab 3/MR-subject-1.csv","legacy","2 9 4","Lentiform Loewenfeld","3.3.9","3","y","0","left","left","NA","left","NA","1150","10708","NA","1150","NA","2","legacy","3","1024","2","48000","-16","experiment","1","odd","4","86015","82678","83809","3148","NA","83811","76240","3154","NA","88019","89170","84813","13864","88019","NA","Sternberg task","10","11185","12","yes","1024"
"84.61538461538461","84.61538461538461","914.3846153846154","914.3846153846154","black","experiment","legacy","legacy","legacy","0","uniform","1","undefined","1","right","12","12","12","0","0","12","12","0","0","12","12","12","0","12","0","Sun Oct 17 22:41:41 2021","The main experiment item","yes","Sternbergtask.osexp","C:/Users/19565/Desktop","no","mono","no","18","no","white","no","yes","768","legacy","0","11","C:/Users/19565/Desktop/Lab 3/MR-subject-1.csv","legacy","8 4 3 5","Lentiform Loewenfeld","3.3.9","0","n","0","right","left","left","right","NA","702","10708","5134","702","NA","2","legacy","4","1024","2","48000","-16","experiment","1","odd","6","97698","89176","95485","3148","95358","95488","76240","3154","90223","99703","100406","96492","13864","99703","NA","Sternberg task","11","11887","13","yes","1024"
"78.57142857142857","78.57142857142857","944.5714285714286","944.5714285714286","black","experiment","legacy","legacy","legacy","0","uniform","0","undefined","0","right","13","13","13","0","0","13","13","0","0","13","13","13","0","13","0","Sun Oct 17 22:41:41 2021","The main experiment item","yes","Sternbergtask.osexp","C:/Users/19565/Desktop","no","mono","no","18","no","white","no","yes","768","legacy","1","11","C:/Users/19565/Desktop/Lab 3/MR-subject-1.csv","legacy","5 3 2 6 9 8","Lentiform Loewenfeld","3.3.9","0","n","0","left","left","left","left","NA","1337","10708","5134","1337","NA","2","legacy","6","1024","2","48000","-16","experiment","1","odd","4","103759","100412","101547","3148","95358","101549","76240","3154","90223","105764","107101","102554","13864","105764","NA","Sternberg task","11","13224","14","yes","1024"
"80","80","975.9333333333333","975.9333333333333","black","experiment","legacy","legacy","legacy","0","uniform","1","undefined","1","right","14","14","14","0","0","14","14","0","0","14","14","14","0","14","0","Sun Oct 17 22:41:41 2021","The main experiment item","yes","Sternbergtask.osexp","C:/Users/19565/Desktop","no","mono","no","18","no","white","no","yes","768","legacy","2","11","C:/Users/19565/Desktop/Lab 3/MR-subject-1.csv","legacy","6 9 4 5 2","Lentiform Loewenfeld","3.3.9","0","n","0","right","left","left","right","NA","1415","10708","5134","1415","NA","2","legacy","5","1024","2","48000","-16","experiment","1","odd","1","110494","100412","108281","3148","95358","108284","107123","3154","90223","112499","113915","109287","13864","112498","NA","Sternberg task","12","14639","15","yes","1024"
"81.25","81.25","1027.6875","1027.6875","black","experiment","legacy","legacy","legacy","0","uniform","1","undefined","1","left","15","15","15","0","0","15","15","0","0","15","15","15","0","15","0","Sun Oct 17 22:41:41 2021","The main experiment item","yes","Sternbergtask.osexp","C:/Users/19565/Desktop","no","mono","no","18","no","white","no","yes","768","legacy","3","11","C:/Users/19565/Desktop/Lab 3/MR-subject-1.csv","legacy","4 6 5 8","Lentiform Loewenfeld","3.3.9","1","y","0","left","left","left","left","NA","1804","10708","5134","1804","NA","2","legacy","4","1024","2","48000","-16","experiment","1","odd","4","117253","113920","115040","3148","95358","115043","107123","3154","90223","119258","121063","116048","13864","119257","NA","Sternberg task","13","16443","16","yes","1024"
"82.3529411764706","82.3529411764706","1018.1176470588235","1018.1176470588235","black","experiment","legacy","legacy","legacy","0","uniform","1","undefined","1","right","16","16","16","0","0","16","16","0","0","16","16","16","0","16","0","Sun Oct 17 22:41:41 2021","The main experiment item","yes","Sternbergtask.osexp","C:/Users/19565/Desktop","no","mono","no","18","no","white","no","yes","768","legacy","4","11","C:/Users/19565/Desktop/Lab 3/MR-subject-1.csv","legacy","7 8 6 1","Lentiform Loewenfeld","3.3.9","0","n","0","right","left","left","right","NA","865","10708","5134","865","NA","2","legacy","4","1024","2","48000","-16","experiment","1","odd","3","124419","121069","122207","3148","95358","122209","107123","3154","90223","126424","127290","123214","13864","126424","NA","Sternberg task","14","17308","17","yes","1024"
"83.33333333333333","83.33333333333333","1035.1666666666667","1035.1666666666667","black","experiment","legacy","legacy","legacy","0","uniform","1","undefined","1","left","17","17","17","0","0","17","17","0","0","17","17","17","0","17","0","Sun Oct 17 22:41:41 2021","The main experiment item","yes","Sternbergtask.osexp","C:/Users/19565/Desktop","no","mono","no","18","no","white","no","yes","768","legacy","5","11","C:/Users/19565/Desktop/Lab 3/MR-subject-1.csv","legacy","8 7 3","Lentiform Loewenfeld","3.3.9","1","y","0","left","left","left","left","NA","1325","10708","5134","1325","NA","2","legacy","3","1024","2","48000","-16","experiment","1","odd","8","130657","127311","128445","3148","95358","128447","107123","3154","90223","132662","133988","129451","13864","132662","NA","Sternberg task","15","18633","18","yes","1024"
"84.21052631578948","84.21052631578948","1025.1052631578948","1025.1052631578948","black","experiment","legacy","legacy","legacy","0","uniform","1","undefined","1","right","18","18","18","0","0","18","18","0","0","18","18","18","0","18","0","Sun Oct 17 22:41:41 2021","The main experiment item","yes","Sternbergtask.osexp","C:/Users/19565/Desktop","no","mono","no","18","no","white","no","yes","768","legacy","6","11","C:/Users/19565/Desktop/Lab 3/MR-subject-1.csv","legacy","1","Lentiform Loewenfeld","3.3.9","0","n","0","right","left","left","right","NA","844","10708","5134","844","NA","2","legacy","1","1024","2","48000","-16","experiment","1","odd","7","137342","133994","135130","3148","95358","135132","107123","3154","90223","139347","140192","136137","13864","139347","NA","Sternberg task","16","19477","19","yes","1024"
"85","85","1056.35","1056.35","black","experiment","legacy","legacy","legacy","0","uniform","1","undefined","1","right","19","19","19","0","0","19","19","0","0","19","19","19","0","19","0","Sun Oct 17 22:41:41 2021","The main experiment item","yes","Sternbergtask.osexp","C:/Users/19565/Desktop","no","mono","no","18","no","white","no","yes","768","legacy","7","11","C:/Users/19565/Desktop/Lab 3/MR-subject-1.csv","legacy","2 7 5","Lentiform Loewenfeld","3.3.9","0","n","0","right","left","left","right","NA","1650","10708","5134","1650","NA","2","legacy","3","1024","2","48000","-16","experiment","1","odd","8","143536","140198","141326","3148","95358","141328","107123","3154","90223","145541","147192","142331","13864","145540","NA","Sternberg task","17","21127","20","yes","1024"
"85.71428571428571","85.71428571428571","1045.142857142857","1045.142857142857","black","experiment","legacy","legacy","legacy","0","uniform","1","undefined","1","left","20","20","20","0","0","20","20","0","0","20","20","20","0","20","0","Sun Oct 17 22:41:41 2021","The main experiment item","yes","Sternbergtask.osexp","C:/Users/19565/Desktop","no","mono","no","18","no","white","no","yes","768","legacy","8","11","C:/Users/19565/Desktop/Lab 3/MR-subject-1.csv","legacy","8 5 4 7 3 1","Lentiform Loewenfeld","3.3.9","2","y","0","left","left","left","left","NA","821","10708","5134","821","NA","2","legacy","6","1024","2","48000","-16","experiment","1","odd","5","150564","147198","148351","3148","95358","148354","107123","3154","90223","152567","153389","149358","13864","152567","NA","Sternberg task","18","21948","21","yes","1024"
"86.36363636363636","86.36363636363636","1053.6818181818182","1053.6818181818182","black","experiment","legacy","legacy","legacy","0","uniform","1","undefined","1","left","21","21","21","0","0","21","21","0","0","21","21","21","0","21","0","Sun Oct 17 22:41:41 2021","The main experiment item","yes","Sternbergtask.osexp","C:/Users/19565/Desktop","no","mono","no","18","no","white","no","yes","768","legacy","9","11","C:/Users/19565/Desktop/Lab 3/MR-subject-1.csv","legacy","8 5 1 3 9","Lentiform Loewenfeld","3.3.9","4","y","0","left","left","left","left","NA","1233","10708","5134","1233","NA","2","legacy","5","1024","2","48000","-16","experiment","1","odd","3","156732","153394","154520","3148","95358","154522","107123","3154","90223","158737","159970","155527","13864","158736","NA","Sternberg task","19","23181","22","yes","1024"
"86.95652173913044","86.95652173913044","1038.9130434782608","1038.9130434782608","black","experiment","legacy","legacy","legacy","0","uniform","1","undefined","1","left","22","22","22","0","0","22","22","0","0","22","22","22","0","22","0","Sun Oct 17 22:41:41 2021","The main experiment item","yes","Sternbergtask.osexp","C:/Users/19565/Desktop","no","mono","no","18","no","white","no","yes","768","legacy","10","11","C:/Users/19565/Desktop/Lab 3/MR-subject-1.csv","legacy","4 1 5","Lentiform Loewenfeld","3.3.9","2","y","0","left","left","left","left","NA","714","10708","5134","714","NA","2","legacy","3","1024","2","48000","-16","experiment","1","odd","1","163310","159977","161101","3148","95358","161103","107123","3154","90223","165315","166029","162107","13864","165315","NA","Sternberg task","20","23895","23","yes","1024"
"87.5","87.5","1033.1666666666667","1033.1666666666667","black","experiment","legacy","legacy","legacy","0","uniform","1","undefined","1","left","23","23","23","0","0","23","23","0","0","23","23","23","0","23","0","Sun Oct 17 22:41:41 2021","The main experiment item","yes","Sternbergtask.osexp","C:/Users/19565/Desktop","no","mono","no","18","no","white","no","yes","768","legacy","11","11","C:/Users/19565/Desktop/Lab 3/MR-subject-1.csv","legacy","9 5 8 1","Lentiform Loewenfeld","3.3.9","2","y","0","left","left","left","left","NA","901","10708","5134","901","NA","2","legacy","4","1024","2","48000","-16","experiment","1","odd","5","169369","166035","167157","3148","95358","167159","107123","3154","90223","171375","172276","168165","13864","171375","NA","Sternberg task","21","24796","24","yes","1024"
"88","88","1039.44","1039.44","black","experiment","legacy","legacy","legacy","0","uniform","1","undefined","1","right","24","24","24","0","0","24","24","0","0","24","24","24","0","24","0","Sun Oct 17 22:41:41 2021","The main experiment item","yes","Sternbergtask.osexp","C:/Users/19565/Desktop","no","mono","no","18","no","white","no","yes","768","legacy","12","11","C:/Users/19565/Desktop/Lab 3/MR-subject-1.csv","legacy","9 8 2 7 4","Lentiform Loewenfeld","3.3.9","0","n","0","right","left","left","right","NA","1190","10708","5134","1190","NA","2","legacy","5","1024","2","48000","-16","experiment","1","odd","5","175627","172282","173418","3148","95358","173420","107123","3154","90223","177632","178822","174425","13864","177632","NA","Sternberg task","22","25986","25","yes","1024"
"88.46153846153847","88.46153846153847","1036.9615384615386","1036.9615384615386","black","experiment","legacy","legacy","legacy","0","uniform","1","undefined","1","right","25","25","25","0","0","25","25","0","0","25","25","25","0","25","0","Sun Oct 17 22:41:41 2021","The main experiment item","yes","Sternbergtask.osexp","C:/Users/19565/Desktop","no","mono","no","18","no","white","no","yes","768","legacy","13","11","C:/Users/19565/Desktop/Lab 3/MR-subject-1.csv","legacy","3 9 8 1 6 4","Lentiform Loewenfeld","3.3.9","0","n","0","right","left","left","right","NA","975","10708","5134","975","NA","2","legacy","6","1024","2","48000","-16","experiment","1","odd","7","182175","178828","179962","3148","95358","179965","107123","3154","90223","184180","185156","180969","13864","184179","NA","Sternberg task","23","26961","26","yes","1024"
"88.88888888888889","88.88888888888889","1028.888888888889","1028.888888888889","black","experiment","legacy","legacy","legacy","0","uniform","1","undefined","1","left","26","26","26","0","0","26","26","0","0","26","26","26","0","26","0","Sun Oct 17 22:41:41 2021","The main experiment item","yes","Sternbergtask.osexp","C:/Users/19565/Desktop","no","mono","no","18","no","white","no","yes","768","legacy","14","11","C:/Users/19565/Desktop/Lab 3/MR-subject-1.csv","legacy","6 7 8 5","Lentiform Loewenfeld","3.3.9","3","y","0","left","left","left","left","NA","819","10708","5134","819","NA","2","legacy","4","1024","2","48000","-16","experiment","1","odd","8","188490","185162","186278","3148","95358","186280","107123","3154","90223","190495","191315","187285","13864","190495","NA","Sternberg task","24","27780","27","yes","1024"
"89.28571428571429","89.28571428571429","1018.5357142857143","1018.5357142857143","black","experiment","legacy","legacy","legacy","0","uniform","1","undefined","1","left","27","27","27","0","0","27","27","0","0","27","27","27","0","27","0","Sun Oct 17 22:41:41 2021","The main experiment item","yes","Sternbergtask.osexp","C:/Users/19565/Desktop","no","mono","no","18","no","white","no","yes","768","legacy","15","11","C:/Users/19565/Desktop/Lab 3/MR-subject-1.csv","legacy","2 8 5 1","Lentiform Loewenfeld","3.3.9","4","y","0","left","left","left","left","NA","739","10708","5134","739","NA","2","legacy","4","1024","2","48000","-16","experiment","1","odd","1","194674","191321","192462","3148","95358","192464","107123","3154","90223","196679","197419","193469","13864","196677","NA","Sternberg task","25","28519","28","yes","1024"
"89.65517241379311","89.65517241379311","1011.4137931034483","1011.4137931034483","black","experiment","legacy","legacy","legacy","0","uniform","1","undefined","1","left","28","28","28","0","0","28","28","0","0","28","28","28","0","28","0","Sun Oct 17 22:41:41 2021","The main experiment item","yes","Sternbergtask.osexp","C:/Users/19565/Desktop","no","mono","no","18","no","white","no","yes","768","legacy","16","11","C:/Users/19565/Desktop/Lab 3/MR-subject-1.csv","legacy","5 2 9 6 1 7","Lentiform Loewenfeld","3.3.9","3","y","0","left","left","left","left","NA","812","10708","5134","812","NA","2","legacy","6","1024","2","48000","-16","experiment","1","odd","9","200773","197440","198563","3148","95358","198565","107123","3154","90223","202778","203591","199569","13864","202777","NA","Sternberg task","26","29331","29","yes","1024"
"90","90","1001.3333333333334","1001.3333333333334","black","experiment","legacy","legacy","legacy","0","uniform","1","undefined","1","right","29","29","29","0","0","29","29","0","0","29","29","29","0","29","0","Sun Oct 17 22:41:41 2021","The main experiment item","yes","Sternbergtask.osexp","C:/Users/19565/Desktop","no","mono","no","18","no","white","no","yes","768","legacy","17","11","C:/Users/19565/Desktop/Lab 3/MR-subject-1.csv","legacy","8 5 4 2 9 6","Lentiform Loewenfeld","3.3.9","0","n","0","right","left","left","right","NA","709","10708","5134","709","NA","2","legacy","6","1024","2","48000","-16","experiment","1","odd","3","206948","203598","204736","3148","95358","204738","107123","3154","90223","208953","209662","205743","13864","208953","NA","Sternberg task","27","30040","30","yes","1024"
"90.3225806451613","90.3225806451613","1005.8387096774194","1005.8387096774194","black","experiment","legacy","legacy","legacy","0","uniform","1","undefined","1","right","30","30","30","0","0","30","30","0","0","30","30","30","0","30","0","Sun Oct 17 22:41:41 2021","The main experiment item","yes","Sternbergtask.osexp","C:/Users/19565/Desktop","no","mono","no","18","no","white","no","yes","768","legacy","18","11","C:/Users/19565/Desktop/Lab 3/MR-subject-1.csv","legacy","7 4 2 8 1 9","Lentiform Loewenfeld","3.3.9","0","n","0","right","left","left","right","NA","1141","10708","5134","1141","NA","2","legacy","6","1024","2","48000","-16","experiment","1","odd","5","213020","209669","210808","3148","95358","210810","107123","3154","90223","215026","216168","211816","13864","215026","NA","Sternberg task","28","31181","31","yes","1024"
"90.625","90.625","1005.28125","1005.28125","black","experiment","legacy","legacy","legacy","0","uniform","1","undefined","1","right","31","31","31","0","0","31","31","0","0","31","31","31","0","31","0","Sun Oct 17 22:41:41 2021","The main experiment item","yes","Sternbergtask.osexp","C:/Users/19565/Desktop","no","mono","no","18","no","white","no","yes","768","legacy","19","11","C:/Users/19565/Desktop/Lab 3/MR-subject-1.csv","legacy","4 8 1 2","Lentiform Loewenfeld","3.3.9","0","n","0","right","left","left","right","NA","988","10708","5134","988","NA","2","legacy","4","1024","2","48000","-16","experiment","1","odd","7","219522","216174","217309","3148","95358","217312","107123","3154","90223","221527","222516","218317","13864","221527","NA","Sternberg task","29","32169","32","yes","1024"
"90.9090909090909","90.9090909090909","1018.5757575757576","1018.5757575757576","black","experiment","legacy","legacy","legacy","0","uniform","1","undefined","1","left","32","32","32","0","0","32","32","0","0","32","32","32","0","32","0","Sun Oct 17 22:41:41 2021","The main experiment item","yes","Sternbergtask.osexp","C:/Users/19565/Desktop","no","mono","no","18","no","white","no","yes","768","legacy","20","11","C:/Users/19565/Desktop/Lab 3/MR-subject-1.csv","legacy","6 7 9 3 1 2","Lentiform Loewenfeld","3.3.9","1","y","0","left","left","left","left","NA","1444","10708","5134","1444","NA","2","legacy","6","1024","2","48000","-16","experiment","1","odd","6","225862","222522","223649","3148","95358","223652","107123","3154","90223","227868","229312","224657","13864","227867","NA","Sternberg task","30","33613","33","yes","1024"
"91.17647058823529","91.17647058823529","1015.7647058823529","1015.7647058823529","black","experiment","legacy","legacy","legacy","0","uniform","1","undefined","1","right","33","33","33","0","0","33","33","0","0","33","33","33","0","33","0","Sun Oct 17 22:41:41 2021","The main experiment item","yes","Sternbergtask.osexp","C:/Users/19565/Desktop","no","mono","no","18","no","white","no","yes","768","legacy","21","11","C:/Users/19565/Desktop/Lab 3/MR-subject-1.csv","legacy","5 9 2 3","Lentiform Loewenfeld","3.3.9","0","n","0","right","left","left","right","NA","923","10708","5134","923","NA","2","legacy","4","1024","2","48000","-16","experiment","1","odd","8","232655","229318","230443","3148","95358","230446","107123","3154","90223","234660","235584","231450","13864","234659","NA","Sternberg task","31","34536","34","yes","1024"
"91.42857142857143","91.42857142857143","1005.4571428571429","1005.4571428571429","black","experiment","legacy","legacy","legacy","0","uniform","1","undefined","1","right","34","34","34","0","0","34","34","0","0","34","34","34","0","34","0","Sun Oct 17 22:41:41 2021","The main experiment item","yes","Sternbergtask.osexp","C:/Users/19565/Desktop","no","mono","no","18","no","white","no","yes","768","legacy","22","11","C:/Users/19565/Desktop/Lab 3/MR-subject-1.csv","legacy","2 8 9 4 1","Lentiform Loewenfeld","3.3.9","0","n","0","right","left","left","right","NA","655","10708","5134","655","NA","2","legacy","5","1024","2","48000","-16","experiment","1","odd","5","238933","235590","236721","3148","95358","236723","107123","3154","90223","240938","241593","237728","13864","240937","NA","Sternberg task","32","35191","35","yes","1024"
"91.66666666666667","91.66666666666667","1009.2222222222222","1009.2222222222222","black","experiment","legacy","legacy","legacy","0","uniform","1","undefined","1","right","35","35","35","0","0","35","35","0","0","35","35","35","0","35","0","Sun Oct 17 22:41:41 2021","The main experiment item","yes","Sternbergtask.osexp","C:/Users/19565/Desktop","no","mono","no","18","no","white","no","yes","768","legacy","23","11","C:/Users/19565/Desktop/Lab 3/MR-subject-1.csv","legacy","6 9 4 5 3 2","Lentiform Loewenfeld","3.3.9","0","n","0","right","left","left","right","NA","1141","10708","5134","1141","NA","2","legacy","6","1024","2","48000","-16","experiment","1","odd","8","244937","241599","242724","3148","95358","242726","107123","3154","90223","246942","248084","243730","13864","246942","NA","Sternberg task","33","36332","36","yes","1024"
"91.89189189189189","91.89189189189189","1019.5405405405405","1019.5405405405405","black","experiment","legacy","legacy","legacy","0","uniform","1","undefined","1","right","36","36","36","0","0","36","36","0","0","36","36","36","0","36","0","Sun Oct 17 22:41:41 2021","The main experiment item","yes","Sternbergtask.osexp","C:/Users/19565/Desktop","no","mono","no","18","no","white","no","yes","768","legacy","24","11","C:/Users/19565/Desktop/Lab 3/MR-subject-1.csv","legacy","7 9","Lentiform Loewenfeld","3.3.9","0","n","0","right","left","left","right","NA","1391","10708","5134","1391","NA","2","legacy","2","1024","2","48000","-16","experiment","1","odd","1","251445","248105","249232","3148","95358","249235","107123","3154","90223","253450","254842","250239","13864","253450","NA","Sternberg task","34","37723","37","yes","1024"
"92.10526315789474","92.10526315789474","1023.6052631578947","1023.6052631578947","black","experiment","legacy","legacy","legacy","0","uniform","1","undefined","1","right","37","37","37","0","0","37","37","0","0","37","37","37","0","37","0","Sun Oct 17 22:41:41 2021","The main experiment item","yes","Sternbergtask.osexp","C:/Users/19565/Desktop","no","mono","no","18","no","white","no","yes","768","legacy","25","11","C:/Users/19565/Desktop/Lab 3/MR-subject-1.csv","legacy","2 8 9","Lentiform Loewenfeld","3.3.9","0","n","0","right","left","left","right","NA","1174","10708","5134","1174","NA","2","legacy","3","1024","2","48000","-16","experiment","1","odd","6","258194","254848","255982","3148","95358","255984","107123","3154","90223","260200","261374","256988","13864","260199","NA","Sternberg task","35","38897","38","yes","1024"
"92.3076923076923","92.3076923076923","1023.8717948717949","1023.8717948717949","black","experiment","legacy","legacy","legacy","0","uniform","1","undefined","1","right","38","38","38","0","0","38","38","0","0","38","38","38","0","38","0","Sun Oct 17 22:41:41 2021","The main experiment item","yes","Sternbergtask.osexp","C:/Users/19565/Desktop","no","mono","no","18","no","white","no","yes","768","legacy","26","11","C:/Users/19565/Desktop/Lab 3/MR-subject-1.csv","legacy","5","Lentiform Loewenfeld","3.3.9","0","n","0","right","left","left","right","NA","1034","10708","5134","1034","NA","2","legacy","1","1024","2","48000","-16","experiment","1","odd","8","264724","261380","262513","3148","95358","262515","107123","3154","90223","266729","267764","263519","13864","266728","NA","Sternberg task","36","39931","39","yes","1024"
"90","90","1023.875","1023.875","black","experiment","legacy","legacy","legacy","0","uniform","0","undefined","0","left","39","39","39","0","0","39","39","0","0","39","39","39","0","39","0","Sun Oct 17 22:41:41 2021","The main experiment item","yes","Sternbergtask.osexp","C:/Users/19565/Desktop","no","mono","no","18","no","white","no","yes","768","legacy","27","11","C:/Users/19565/Desktop/Lab 3/MR-subject-1.csv","legacy","4 6 2 5 1","Lentiform Loewenfeld","3.3.9","5","y","0","right","left","left","right","NA","1024","10708","5134","1024","NA","2","legacy","5","1024","2","48000","-16","experiment","1","odd","1","271104","267768","268892","3148","95358","268894","107123","3154","90223","273109","274134","269898","13864","273108","NA","Sternberg task","36","40955","40","yes","1024"
"90.2439024390244","90.2439024390244","1024.3170731707316","1024.3170731707316","black","experiment","legacy","legacy","legacy","0","uniform","1","undefined","1","left","40","40","40","0","0","40","40","0","0","40","40","40","0","40","0","Sun Oct 17 22:41:41 2021","The main experiment item","yes","Sternbergtask.osexp","C:/Users/19565/Desktop","no","mono","no","18","no","white","no","yes","768","legacy","28","11","C:/Users/19565/Desktop/Lab 3/MR-subject-1.csv","legacy","6 9 3 1","Lentiform Loewenfeld","3.3.9","4","y","0","left","left","left","left","NA","1042","10708","5134","1042","NA","2","legacy","4","1024","2","48000","-16","experiment","1","odd","1","277483","267768","275270","3148","95358","275273","274141","3154","90223","279488","280531","276278","13864","279488","NA","Sternberg task","37","41997","41","yes","1024"
"90.47619047619048","90.47619047619048","1030.2857142857142","1030.2857142857142","black","experiment","legacy","legacy","legacy","0","uniform","1","undefined","1","right","41","41","41","0","0","41","41","0","0","41","41","41","0","41","0","Sun Oct 17 22:41:41 2021","The main experiment item","yes","Sternbergtask.osexp","C:/Users/19565/Desktop","no","mono","no","18","no","white","no","yes","768","legacy","29","11","C:/Users/19565/Desktop/Lab 3/MR-subject-1.csv","legacy","1 7 5 2","Lentiform Loewenfeld","3.3.9","0","n","0","right","left","left","right","NA","1275","10708","5134","1275","NA","2","legacy","4","1024","2","48000","-16","experiment","1","odd","3","283894","280537","281683","3148","95358","281685","274141","3154","90223","285899","287174","282689","13864","285899","NA","Sternberg task","38","43272","42","yes","1024"
"90.69767441860465","90.69767441860465","1032.5116279069769","1032.5116279069769","black","experiment","legacy","legacy","legacy","0","uniform","1","undefined","1","left","42","42","42","0","0","42","42","0","0","42","42","42","0","42","0","Sun Oct 17 22:41:41 2021","The main experiment item","yes","Sternbergtask.osexp","C:/Users/19565/Desktop","no","mono","no","18","no","white","no","yes","768","legacy","30","11","C:/Users/19565/Desktop/Lab 3/MR-subject-1.csv","legacy","6 8 9 3 4 9","Lentiform Loewenfeld","3.3.9","5","y","0","left","left","left","left","NA","1126","10708","5134","1126","NA","2","legacy","6","1024","2","48000","-16","experiment","1","odd","4","290528","287180","288316","3148","95358","288318","274141","3154","90223","292533","293659","289323","13864","292533","NA","Sternberg task","39","44398","43","yes","1024"
"90.9090909090909","90.9090909090909","1039.7045454545455","1039.7045454545455","black","experiment","legacy","legacy","legacy","0","uniform","1","undefined","1","right","43","43","43","0","0","43","43","0","0","43","43","43","0","43","0","Sun Oct 17 22:41:41 2021","The main experiment item","yes","Sternbergtask.osexp","C:/Users/19565/Desktop","no","mono","no","18","no","white","no","yes","768","legacy","31","11","C:/Users/19565/Desktop/Lab 3/MR-subject-1.csv","legacy","3 4 2","Lentiform Loewenfeld","3.3.9","0","n","0","right","left","left","right","NA","1349","10708","5134","1349","NA","2","legacy","3","1024","2","48000","-16","experiment","1","odd","5","297024","293680","294812","3148","95358","294815","274141","3154","90223","299029","300379","295819","13864","299029","NA","Sternberg task","40","45747","44","yes","1024"
"91.11111111111111","91.11111111111111","1030.6","1030.6","black","experiment","legacy","legacy","legacy","0","uniform","1","undefined","1","left","44","44","44","0","0","44","44","0","0","44","44","44","0","44","0","Sun Oct 17 22:41:41 2021","The main experiment item","yes","Sternbergtask.osexp","C:/Users/19565/Desktop","no","mono","no","18","no","white","no","yes","768","legacy","32","11","C:/Users/19565/Desktop/Lab 3/MR-subject-1.csv","legacy","9 5 3 8 4","Lentiform Loewenfeld","3.3.9","1","y","0","left","left","left","left","NA","630","10708","5134","630","NA","2","legacy","5","1024","2","48000","-16","experiment","1","odd","9","303728","300385","301516","3148","95358","301518","274141","3154","90223","305733","306364","302523","13864","305733","NA","Sternberg task","41","46377","45","yes","1024"
"91.30434782608695","91.30434782608695","1028.2826086956522","1028.2826086956522","black","experiment","legacy","legacy","legacy","0","uniform","1","undefined","1","left","45","45","45","0","0","45","45","0","0","45","45","45","0","45","0","Sun Oct 17 22:41:41 2021","The main experiment item","yes","Sternbergtask.osexp","C:/Users/19565/Desktop","no","mono","no","18","no","white","no","yes","768","legacy","33","11","C:/Users/19565/Desktop/Lab 3/MR-subject-1.csv","legacy","2 5 4 8 7","Lentiform Loewenfeld","3.3.9","3","y","0","left","left","left","left","NA","924","10708","5134","924","NA","2","legacy","5","1024","2","48000","-16","experiment","1","odd","4","309723","306370","307510","3148","95358","307513","274141","3154","90223","311728","312653","308517","13864","311727","NA","Sternberg task","42","47301","46","yes","1024"
"89.36170212765957","89.36170212765957","1028.0851063829787","1028.0851063829787","black","experiment","legacy","legacy","legacy","0","uniform","0","undefined","0","left","46","46","46","0","0","46","46","0","0","46","46","46","0","46","0","Sun Oct 17 22:41:41 2021","The main experiment item","yes","Sternbergtask.osexp","C:/Users/19565/Desktop","no","mono","no","18","no","white","no","yes","768","legacy","34","11","C:/Users/19565/Desktop/Lab 3/MR-subject-1.csv","legacy","8 9 6 1","Lentiform Loewenfeld","3.3.9","2","y","0","right","left","left","right","NA","1019","10708","5134","1019","NA","2","legacy","4","1024","2","48000","-16","experiment","1","odd","9","316017","312674","313804","3148","95358","313807","274141","3154","90223","318023","319043","314812","13864","318023","NA","Sternberg task","42","48320","47","yes","1024"
"89.58333333333333","89.58333333333333","1021.5625","1021.5625","black","experiment","legacy","legacy","legacy","0","uniform","1","undefined","1","left","47","47","47","0","0","47","47","0","0","47","47","47","0","47","0","Sun Oct 17 22:41:41 2021","The main experiment item","yes","Sternbergtask.osexp","C:/Users/19565/Desktop","no","mono","no","18","no","white","no","yes","768","legacy","35","11","C:/Users/19565/Desktop/Lab 3/MR-subject-1.csv","legacy","8 9 5 7 1 6","Lentiform Loewenfeld","3.3.9","4","y","0","left","left","left","left","NA","715","10708","5134","715","NA","2","legacy","6","1024","2","48000","-16","experiment","1","odd","7","322377","312674","320167","3148","95358","320169","319049","3154","90223","324382","325098","321172","13864","324382","NA","Sternberg task","43","49035","48","yes","1024"
"89.79591836734694","89.79591836734694","1019.3469387755102","1019.3469387755102","black","experiment","legacy","legacy","legacy","0","uniform","1","undefined","1","left","48","48","48","0","0","48","48","0","0","48","48","48","0","48","0","Sun Oct 17 22:41:41 2021","The main experiment item","yes","Sternbergtask.osexp","C:/Users/19565/Desktop","no","mono","no","18","no","white","no","yes","768","legacy","36","11","C:/Users/19565/Desktop/Lab 3/MR-subject-1.csv","legacy","3 5 9 6 2 4","Lentiform Loewenfeld","3.3.9","1","y","0","left","left","left","left","NA","913","10708","5134","913","NA","2","legacy","6","1024","2","48000","-16","experiment","1","odd","3","328451","325103","326239","3148","95358","326241","319049","3154","90223","330457","331371","327246","13864","330456","NA","Sternberg task","44","49948","49","yes","1024"
"90","90","1026.3","1026.3","black","experiment","legacy","legacy","legacy","0","uniform","1","undefined","1","right","49","49","49","0","0","49","49","0","0","49","49","49","0","49","0","Sun Oct 17 22:41:41 2021","The main experiment item","yes","Sternbergtask.osexp","C:/Users/19565/Desktop","no","mono","no","18","no","white","no","yes","768","legacy","37","11","C:/Users/19565/Desktop/Lab 3/MR-subject-1.csv","legacy","2 5 1 4","Lentiform Loewenfeld","3.3.9","0","n","0","right","left","left","right","NA","1367","10708","5134","1367","NA","2","legacy","4","1024","2","48000","-16","experiment","1","odd","6","334724","331376","332512","3148","95358","332514","319049","3154","90223","336729","338097","333518","13864","336728","NA","Sternberg task","45","51315","50","yes","1024"
"90.19607843137256","90.19607843137256","1025.7450980392157","1025.7450980392157","black","experiment","legacy","legacy","legacy","0","uniform","1","undefined","1","left","50","50","50","0","0","50","50","0","0","50","50","50","0","50","0","Sun Oct 17 22:41:41 2021","The main experiment item","yes","Sternbergtask.osexp","C:/Users/19565/Desktop","no","mono","no","18","no","white","no","yes","768","legacy","38","11","C:/Users/19565/Desktop/Lab 3/MR-subject-1.csv","legacy","2 6 1 7 4","Lentiform Loewenfeld","3.3.9","2","y","0","left","left","left","left","NA","998","10708","5134","998","NA","2","legacy","5","1024","2","48000","-16","experiment","1","odd","6","341495","338118","339282","3148","95358","339285","319049","3154","90223","343500","344498","340290","13864","343500","NA","Sternberg task","46","52313","51","yes","1024"
"90.38461538461539","90.38461538461539","1018.8461538461538","1018.8461538461538","black","experiment","legacy","legacy","legacy","0","uniform","1","undefined","1","left","51","51","51","0","0","51","51","0","0","51","51","51","0","51","0","Sun Oct 17 22:41:41 2021","The main experiment item","yes","Sternbergtask.osexp","C:/Users/19565/Desktop","no","mono","no","18","no","white","no","yes","768","legacy","39","11","C:/Users/19565/Desktop/Lab 3/MR-subject-1.csv","legacy","6 2","Lentiform Loewenfeld","3.3.9","1","y","0","left","left","left","left","NA","667","10708","5134","667","NA","2","legacy","2","1024","2","48000","-16","experiment","1","odd","6","347875","344504","345663","3148","95358","345665","319049","3154","90223","349880","350548","346669","13864","349879","NA","Sternberg task","47","52980","52","yes","1024"
"90.56603773584905","90.56603773584905","1013.377358490566","1013.377358490566","black","experiment","legacy","legacy","legacy","0","uniform","1","undefined","1","right","52","52","52","0","0","52","52","0","0","52","52","52","0","52","0","Sun Oct 17 22:41:41 2021","The main experiment item","yes","Sternbergtask.osexp","C:/Users/19565/Desktop","no","mono","no","18","no","white","no","yes","768","legacy","40","11","C:/Users/19565/Desktop/Lab 3/MR-subject-1.csv","legacy","7 1 5 6 3","Lentiform Loewenfeld","3.3.9","0","n","0","right","left","left","right","NA","729","10708","5134","729","NA","2","legacy","5","1024","2","48000","-16","experiment","1","odd","8","353895","350554","351682","3148","95358","351685","319049","3154","90223","355900","356630","352689","13864","355899","NA","Sternberg task","48","53709","53","yes","1024"
"90.74074074074075","90.74074074074075","1008.4074074074074","1008.4074074074074","black","experiment","legacy","legacy","legacy","0","uniform","1","undefined","1","right","53","53","53","0","0","53","53","0","0","53","53","53","0","53","0","Sun Oct 17 22:41:41 2021","The main experiment item","yes","Sternbergtask.osexp","C:/Users/19565/Desktop","no","mono","no","18","no","white","no","yes","768","legacy","41","11","C:/Users/19565/Desktop/Lab 3/MR-subject-1.csv","legacy","9 5 3 2 8 6","Lentiform Loewenfeld","3.3.9","0","n","0","right","left","left","right","NA","745","10708","5134","745","NA","2","legacy","6","1024","2","48000","-16","experiment","1","odd","7","359983","356637","357771","3148","95358","357773","319049","3154","90223","361989","362735","358777","13864","361988","NA","Sternberg task","49","54454","54","yes","1024"
"90.9090909090909","90.9090909090909","1017.5090909090909","1017.5090909090909","black","experiment","legacy","legacy","legacy","0","uniform","1","undefined","1","left","54","54","54","0","0","54","54","0","0","54","54","54","0","54","0","Sun Oct 17 22:41:41 2021","The main experiment item","yes","Sternbergtask.osexp","C:/Users/19565/Desktop","no","mono","no","18","no","white","no","yes","768","legacy","42","11","C:/Users/19565/Desktop/Lab 3/MR-subject-1.csv","legacy","6 5","Lentiform Loewenfeld","3.3.9","2","y","0","left","left","left","left","NA","1509","10708","5134","1509","NA","2","legacy","2","1024","2","48000","-16","experiment","1","odd","5","366100","362756","363889","3148","95358","363892","319049","3154","90223","368105","369615","364897","13864","368105","NA","Sternberg task","50","55963","55","yes","1024"
"91.07142857142857","91.07142857142857","1015.1607142857143","1015.1607142857143","black","experiment","legacy","legacy","legacy","0","uniform","1","undefined","1","left","55","55","55","0","0","55","55","0","0","55","55","55","0","55","0","Sun Oct 17 22:41:41 2021","The main experiment item","yes","Sternbergtask.osexp","C:/Users/19565/Desktop","no","mono","no","18","no","white","no","yes","768","legacy","43","11","C:/Users/19565/Desktop/Lab 3/MR-subject-1.csv","legacy","9 1 6 7 8","Lentiform Loewenfeld","3.3.9","1","y","0","left","left","left","left","NA","886","10708","5134","886","NA","2","legacy","5","1024","2","48000","-16","experiment","1","odd","9","372964","369620","370753","3148","95358","370755","319049","3154","90223","374969","375856","371759","13864","374969","NA","Sternberg task","51","56849","56","yes","1024"
"91.2280701754386","91.2280701754386","1009.4912280701755","1009.4912280701755","black","experiment","legacy","legacy","legacy","0","uniform","1","undefined","1","left","56","56","56","0","0","56","56","0","0","56","56","56","0","56","0","Sun Oct 17 22:41:41 2021","The main experiment item","yes","Sternbergtask.osexp","C:/Users/19565/Desktop","no","mono","no","18","no","white","no","yes","768","legacy","44","11","C:/Users/19565/Desktop/Lab 3/MR-subject-1.csv","legacy","3 5 7 1","Lentiform Loewenfeld","3.3.9","3","y","0","left","left","left","left","NA","692","10708","5134","692","NA","2","legacy","4","1024","2","48000","-16","experiment","1","odd","7","379222","375861","377009","3148","95358","377012","319049","3154","90223","381227","381920","378017","13864","381227","NA","Sternberg task","52","57541","57","yes","1024"
"91.37931034482759","91.37931034482759","1008.6034482758621","1008.6034482758621","black","experiment","legacy","legacy","legacy","0","uniform","1","undefined","1","left","57","57","57","0","0","57","57","0","0","57","57","57","0","57","0","Sun Oct 17 22:41:41 2021","The main experiment item","yes","Sternbergtask.osexp","C:/Users/19565/Desktop","no","mono","no","18","no","white","no","yes","768","legacy","45","11","C:/Users/19565/Desktop/Lab 3/MR-subject-1.csv","legacy","6 1 2","Lentiform Loewenfeld","3.3.9","3","y","0","left","left","left","left","NA","958","10708","5134","958","NA","2","legacy","3","1024","2","48000","-16","experiment","1","odd","2","385279","381926","383066","3148","95358","383069","319049","3154","90223","387285","388244","384074","13864","387284","NA","Sternberg task","53","58499","58","yes","1024"
"91.52542372881356","91.52542372881356","999.8644067796611","999.8644067796611","black","experiment","legacy","legacy","legacy","0","uniform","1","undefined","1","left","58","58","58","0","0","58","58","0","0","58","58","58","0","58","0","Sun Oct 17 22:41:41 2021","The main experiment item","yes","Sternbergtask.osexp","C:/Users/19565/Desktop","no","mono","no","18","no","white","no","yes","768","legacy","46","11","C:/Users/19565/Desktop/Lab 3/MR-subject-1.csv","legacy","3 4","Lentiform Loewenfeld","3.3.9","1","y","0","left","left","left","left","NA","493","10708","5134","493","NA","2","legacy","2","1024","2","48000","-16","experiment","1","odd","3","391604","388250","389391","3148","95358","389393","319049","3154","90223","393609","394103","390398","13864","393608","NA","Sternberg task","54","58992","59","yes","1024"
"91.66666666666667","91.66666666666667","1006.2166666666667","1006.2166666666667","black","experiment","legacy","legacy","legacy","0","uniform","1","undefined","1","right","59","59","59","0","0","59","59","0","0","59","59","59","0","59","0","Sun Oct 17 22:41:41 2021","The main experiment item","yes","Sternbergtask.osexp","C:/Users/19565/Desktop","no","mono","no","18","no","white","no","yes","768","legacy","47","11","C:/Users/19565/Desktop/Lab 3/MR-subject-1.csv","legacy","5 3 8 7 2 4","Lentiform Loewenfeld","3.3.9","0","n","0","right","left","left","right","NA","1381","10708","5134","1381","NA","2","legacy","6","1024","2","48000","-16","experiment","1","odd","9","397463","394124","395250","3148","95358","395253","319049","3154","90223","399468","400850","396258","13864","399468","NA","Sternberg task","55","60373","60","yes","1024"
"90.1639344262295","90.1639344262295","1001.016393442623","1001.016393442623","black","experiment","legacy","legacy","legacy","0","uniform","0","undefined","0","right","60","60","60","0","0","60","60","0","0","60","60","60","0","60","0","Sun Oct 17 22:41:41 2021","The main experiment item","yes","Sternbergtask.osexp","C:/Users/19565/Desktop","no","mono","no","18","no","white","no","yes","768","legacy","48","11","C:/Users/19565/Desktop/Lab 3/MR-subject-1.csv","legacy","4 2 7 6 1 3","Lentiform Loewenfeld","3.3.9","0","n","0","left","left","left","left","NA","689","10708","5134","689","NA","2","legacy","6","1024","2","48000","-16","experiment","1","odd","8","404197","400857","401987","3148","95358","401990","319049","3154","90223","406202","406892","402995","13864","406202","NA","Sternberg task","55","61062","61","yes","1024"
"90.3225806451613","90.3225806451613","996.4677419354839","996.4677419354839","black","experiment","legacy","legacy","legacy","0","uniform","1","undefined","1","right","61","61","61","0","0","61","61","0","0","61","61","61","0","61","0","Sun Oct 17 22:41:41 2021","The main experiment item","yes","Sternbergtask.osexp","C:/Users/19565/Desktop","no","mono","no","18","no","white","no","yes","768","legacy","49","11","C:/Users/19565/Desktop/Lab 3/MR-subject-1.csv","legacy","5 7 3","Lentiform Loewenfeld","3.3.9","0","n","0","right","left","left","right","NA","719","10708","5134","719","NA","2","legacy","3","1024","2","48000","-16","experiment","1","odd","9","410255","400857","408041","3148","95358","408043","406897","3154","90223","412260","412980","409049","13864","412259","NA","Sternberg task","56","61781","62","yes","1024"
"90.47619047619048","90.47619047619048","987.4444444444445","987.4444444444445","black","experiment","legacy","legacy","legacy","0","uniform","1","undefined","1","left","62","62","62","0","0","62","62","0","0","62","62","62","0","62","0","Sun Oct 17 22:41:41 2021","The main experiment item","yes","Sternbergtask.osexp","C:/Users/19565/Desktop","no","mono","no","18","no","white","no","yes","768","legacy","50","11","C:/Users/19565/Desktop/Lab 3/MR-subject-1.csv","legacy","8","Lentiform Loewenfeld","3.3.9","1","y","0","left","left","left","left","NA","428","10708","5134","428","NA","2","legacy","1","1024","2","48000","-16","experiment","1","odd","8","416359","413001","414147","3148","95358","414149","406897","3154","90223","418364","418793","415154","13864","418364","NA","Sternberg task","57","62209","63","yes","1024"
"90.625","90.625","984.109375","984.109375","black","experiment","legacy","legacy","legacy","0","uniform","1","undefined","1","left","63","63","63","0","0","63","63","0","0","63","63","63","0","63","0","Sun Oct 17 22:41:41 2021","The main experiment item","yes","Sternbergtask.osexp","C:/Users/19565/Desktop","no","mono","no","18","no","white","no","yes","768","legacy","51","11","C:/Users/19565/Desktop/Lab 3/MR-subject-1.csv","legacy","8 3","Lentiform Loewenfeld","3.3.9","2","y","0","left","left","left","left","NA","774","10708","5134","774","NA","2","legacy","2","1024","2","48000","-16","experiment","1","odd","3","422139","418798","419926","3148","95358","419928","406897","3154","90223","424144","424919","420934","13864","424144","NA","Sternberg task","58","62983","64","yes","1024"
"89.23076923076923","89.23076923076923","989.8461538461538","989.8461538461538","black","experiment","legacy","legacy","legacy","0","uniform","0","undefined","0","right","64","64","64","0","0","64","64","0","0","64","64","64","0","64","0","Sun Oct 17 22:41:41 2021","The main experiment item","yes","Sternbergtask.osexp","C:/Users/19565/Desktop","no","mono","no","18","no","white","no","yes","768","legacy","52","11","C:/Users/19565/Desktop/Lab 3/MR-subject-1.csv","legacy","8 6 3 4 7","Lentiform Loewenfeld","3.3.9","0","n","0","left","left","left","left","NA","1357","10708","5134","1357","NA","2","legacy","5","1024","2","48000","-16","experiment","1","odd","1","428268","424925","426055","3148","95358","426057","406897","3154","90223","430274","431632","427062","13864","430273","NA","Sternberg task","58","64340","65","yes","1024"
"89.39393939393939","89.39393939393939","989.030303030303","989.030303030303","black","experiment","legacy","legacy","legacy","0","uniform","1","undefined","1","left","65","65","65","0","0","65","65","0","0","65","65","65","0","65","0","Sun Oct 17 22:41:41 2021","The main experiment item","yes","Sternbergtask.osexp","C:/Users/19565/Desktop","no","mono","no","18","no","white","no","yes","768","legacy","53","11","C:/Users/19565/Desktop/Lab 3/MR-subject-1.csv","legacy","2 3","Lentiform Loewenfeld","3.3.9","1","y","0","left","left","left","left","NA","936","10708","5134","936","NA","2","legacy","2","1024","2","48000","-16","experiment","1","odd","2","434976","424925","432764","3148","95358","432766","431638","3154","90223","436981","437918","433770","13864","436980","NA","Sternberg task","59","65276","66","yes","1024"
"88.05970149253731","88.05970149253731","985.2089552238806","985.2089552238806","black","experiment","legacy","legacy","legacy","0","uniform","0","undefined","0","right","66","66","66","0","0","66","66","0","0","66","66","66","0","66","0","Sun Oct 17 22:41:41 2021","The main experiment item","yes","Sternbergtask.osexp","C:/Users/19565/Desktop","no","mono","no","18","no","white","no","yes","768","legacy","54","11","C:/Users/19565/Desktop/Lab 3/MR-subject-1.csv","legacy","6 3 1 7 9 8","Lentiform Loewenfeld","3.3.9","0","n","0","left","left","left","left","NA","733","10708","5134","733","NA","2","legacy","6","1024","2","48000","-16","experiment","1","odd","4","441284","437940","439071","3148","95358","439074","431638","3154","90223","443289","444024","440079","13864","443289","NA","Sternberg task","59","66009","67","yes","1024"
"88.23529411764706","88.23529411764706","983.0441176470588","983.0441176470588","black","experiment","legacy","legacy","legacy","0","uniform","1","undefined","1","right","67","67","67","0","0","67","67","0","0","67","67","67","0","67","0","Sun Oct 17 22:41:41 2021","The main experiment item","yes","Sternbergtask.osexp","C:/Users/19565/Desktop","no","mono","no","18","no","white","no","yes","768","legacy","55","11","C:/Users/19565/Desktop/Lab 3/MR-subject-1.csv","legacy","4 2 6 9","Lentiform Loewenfeld","3.3.9","0","n","0","right","left","left","right","NA","838","10708","5134","838","NA","2","legacy","4","1024","2","48000","-16","experiment","1","odd","7","447375","437940","445162","3148","95358","445165","444030","3154","90223","449380","450219","446169","13864","449379","NA","Sternberg task","60","66847","68","yes","1024"
"88.40579710144928","88.40579710144928","983.5652173913044","983.5652173913044","black","experiment","legacy","legacy","legacy","0","uniform","1","undefined","1","right","68","68","68","0","0","68","68","0","0","68","68","68","0","68","0","Sun Oct 17 22:41:41 2021","The main experiment item","yes","Sternbergtask.osexp","C:/Users/19565/Desktop","no","mono","no","18","no","white","no","yes","768","legacy","56","11","C:/Users/19565/Desktop/Lab 3/MR-subject-1.csv","legacy","1 8 7","Lentiform Loewenfeld","3.3.9","0","n","0","right","left","left","right","NA","1019","10708","5134","1019","NA","2","legacy","3","1024","2","48000","-16","experiment","1","odd","4","453560","450225","451347","3148","95358","451350","444030","3154","90223","455565","456586","452355","13864","455565","NA","Sternberg task","61","67866","69","yes","1024"
"88.57142857142857","88.57142857142857","986.8428571428572","986.8428571428572","black","experiment","legacy","legacy","legacy","0","uniform","1","undefined","1","left","69","69","69","0","0","69","69","0","0","69","69","69","0","69","0","Sun Oct 17 22:41:41 2021","The main experiment item","yes","Sternbergtask.osexp","C:/Users/19565/Desktop","no","mono","no","18","no","white","no","yes","768","legacy","57","11","C:/Users/19565/Desktop/Lab 3/MR-subject-1.csv","legacy","4 3 2 5 8","Lentiform Loewenfeld","3.3.9","2","y","0","left","left","left","left","NA","1213","10708","5134","1213","NA","2","legacy","5","1024","2","48000","-16","experiment","1","odd","3","459938","456593","457726","3148","95358","457728","444030","3154","90223","461943","463157","458733","13864","461943","NA","Sternberg task","62","69079","70","yes","1024"
"88.73239436619718","88.73239436619718","993.056338028169","993.056338028169","black","experiment","legacy","legacy","legacy","0","uniform","1","undefined","1","left","70","70","70","0","0","70","70","0","0","70","70","70","0","70","0","Sun Oct 17 22:41:41 2021","The main experiment item","yes","Sternbergtask.osexp","C:/Users/19565/Desktop","no","mono","no","18","no","white","no","yes","768","legacy","58","11","C:/Users/19565/Desktop/Lab 3/MR-subject-1.csv","legacy","9 3 1 2 5","Lentiform Loewenfeld","3.3.9","4","y","0","left","left","left","left","NA","1428","10708","5134","1428","NA","2","legacy","5","1024","2","48000","-16","experiment","1","odd","2","466539","463178","464327","3148","95358","464329","444030","3154","90223","468544","469973","465334","13864","468544","NA","Sternberg task","63","70507","71","yes","1024"
"88.88888888888889","88.88888888888889","999","999","black","experiment","legacy","legacy","legacy","0","uniform","1","undefined","1","right","71","71","71","0","0","71","71","0","0","71","71","71","0","71","0","Sun Oct 17 22:41:41 2021","The main experiment item","yes","Sternbergtask.osexp","C:/Users/19565/Desktop","no","mono","no","18","no","white","no","yes","768","legacy","59","11","C:/Users/19565/Desktop/Lab 3/MR-subject-1.csv","legacy","1 3 2 6 9","Lentiform Loewenfeld","3.3.9","0","n","0","right","left","left","right","NA","1421","10708","5134","1421","NA","2","legacy","5","1024","2","48000","-16","experiment","1","odd","5","473320","469979","471108","3148","95358","471110","444030","3154","90223","475325","476747","472115","13864","475325","NA","Sternberg task","64","71928","72","yes","1024"
"89.04109589041096","89.04109589041096","993.7534246575342","993.7534246575342","black","experiment","legacy","legacy","legacy","0","uniform","1","undefined","1","left","72","72","72","0","0","72","72","0","0","72","72","72","0","72","0","Sun Oct 17 22:41:41 2021","The main experiment item","yes","Sternbergtask.osexp","C:/Users/19565/Desktop","no","mono","no","18","no","white","no","yes","768","legacy","60","11","C:/Users/19565/Desktop/Lab 3/MR-subject-1.csv","legacy","9 8 4","Lentiform Loewenfeld","3.3.9","1","y","0","left","left","left","left","NA","616","10708","5134","616","NA","2","legacy","3","1024","2","48000","-16","experiment","1","odd","9","480100","476753","477888","3148","95358","477890","444030","3154","90223","482105","482723","478895","13864","482105","NA","Sternberg task","65","72544","73","yes","1024"
"89.1891891891892","89.1891891891892","993.3918918918919","993.3918918918919","black","experiment","legacy","legacy","legacy","0","uniform","1","undefined","1","left","73","73","73","0","0","73","73","0","0","73","73","73","0","73","0","Sun Oct 17 22:41:41 2021","The main experiment item","yes","Sternbergtask.osexp","C:/Users/19565/Desktop","no","mono","no","18","no","white","no","yes","768","legacy","61","11","C:/Users/19565/Desktop/Lab 3/MR-subject-1.csv","legacy","5 2 6","Lentiform Loewenfeld","3.3.9","2","y","0","left","left","left","left","NA","967","10708","5134","967","NA","2","legacy","3","1024","2","48000","-16","experiment","1","odd","2","486070","482728","483858","3148","95358","483860","444030","3154","90223","488075","489043","484865","13864","488075","NA","Sternberg task","66","73511","74","yes","1024"
"89.33333333333333","89.33333333333333","990.92","990.92","black","experiment","legacy","legacy","legacy","0","uniform","1","undefined","1","right","74","74","74","0","0","74","74","0","0","74","74","74","0","74","0","Sun Oct 17 22:41:41 2021","The main experiment item","yes","Sternbergtask.osexp","C:/Users/19565/Desktop","no","mono","no","18","no","white","no","yes","768","legacy","62","11","C:/Users/19565/Desktop/Lab 3/MR-subject-1.csv","legacy","6 8 4","Lentiform Loewenfeld","3.3.9","0","n","0","right","left","left","right","NA","808","10708","5134","808","NA","2","legacy","3","1024","2","48000","-16","experiment","1","odd","1","492405","489064","490192","3148","95358","490194","444030","3154","90223","494410","495219","491199","13864","494409","NA","Sternberg task","67","74319","75","yes","1024"
"88.15789473684211","88.15789473684211","1003.578947368421","1003.578947368421","black","experiment","legacy","legacy","legacy","0","uniform","0","undefined","0","left","75","75","75","0","0","75","75","0","0","75","75","75","0","75","0","Sun Oct 17 22:41:41 2021","The main experiment item","yes","Sternbergtask.osexp","C:/Users/19565/Desktop","no","mono","no","18","no","white","no","yes","768","legacy","63","11","C:/Users/19565/Desktop/Lab 3/MR-subject-1.csv","legacy","1 4 9 3 2 5","Lentiform Loewenfeld","3.3.9","3","y","0","right","left","left","right","NA","1953","10708","5134","1953","NA","2","legacy","6","1024","2","48000","-16","experiment","1","odd","9","498563","495225","496351","3148","95358","496353","444030","3154","90223","500568","502523","497357","13864","500567","NA","Sternberg task","67","76272","76","yes","1024"
"88.31168831168831","88.31168831168831","1002.974025974026","1002.974025974026","black","experiment","legacy","legacy","legacy","0","uniform","1","undefined","1","left","76","76","76","0","0","76","76","0","0","76","76","76","0","76","0","Sun Oct 17 22:41:41 2021","The main experiment item","yes","Sternbergtask.osexp","C:/Users/19565/Desktop","no","mono","no","18","no","white","no","yes","768","legacy","64","11","C:/Users/19565/Desktop/Lab 3/MR-subject-1.csv","legacy","3 2 1 4 7","Lentiform Loewenfeld","3.3.9","2","y","0","left","left","left","left","NA","957","10708","5134","957","NA","2","legacy","5","1024","2","48000","-16","experiment","1","odd","2","505867","495225","503654","3148","95358","503657","502529","3154","90223","507872","508830","504661","13864","507872","NA","Sternberg task","68","77229","77","yes","1024"
"88.46153846153847","88.46153846153847","999.025641025641","999.025641025641","black","experiment","legacy","legacy","legacy","0","uniform","1","undefined","1","right","77","77","77","0","0","77","77","0","0","77","77","77","0","77","0","Sun Oct 17 22:41:41 2021","The main experiment item","yes","Sternbergtask.osexp","C:/Users/19565/Desktop","no","mono","no","18","no","white","no","yes","768","legacy","65","11","C:/Users/19565/Desktop/Lab 3/MR-subject-1.csv","legacy","9","Lentiform Loewenfeld","3.3.9","0","n","0","right","left","left","right","NA","695","10708","5134","695","NA","2","legacy","1","1024","2","48000","-16","experiment","1","odd","6","512204","508852","509992","3148","95358","509994","502529","3154","90223","514210","514906","510998","13864","514209","NA","Sternberg task","69","77924","78","yes","1024"
"88.60759493670886","88.60759493670886","996.2278481012659","996.2278481012659","black","experiment","legacy","legacy","legacy","0","uniform","1","undefined","1","left","78","78","78","0","0","78","78","0","0","78","78","78","0","78","0","Sun Oct 17 22:41:41 2021","The main experiment item","yes","Sternbergtask.osexp","C:/Users/19565/Desktop","no","mono","no","18","no","white","no","yes","768","legacy","66","11","C:/Users/19565/Desktop/Lab 3/MR-subject-1.csv","legacy","5 7 8 2 3 8","Lentiform Loewenfeld","3.3.9","5","y","0","left","left","left","left","NA","778","10708","5134","778","NA","2","legacy","6","1024","2","48000","-16","experiment","1","odd","3","518266","514912","516053","3148","95358","516055","502529","3154","90223","520271","521051","517060","13864","520270","NA","Sternberg task","70","78702","79","yes","1024"
"88.75","88.75","994.4375","994.4375","black","experiment","legacy","legacy","legacy","0","uniform","1","undefined","1","left","79","79","79","0","0","79","79","0","0","79","79","79","0","79","0","Sun Oct 17 22:41:41 2021","The main experiment item","yes","Sternbergtask.osexp","C:/Users/19565/Desktop","no","mono","no","18","no","white","no","yes","768","legacy","67","11","C:/Users/19565/Desktop/Lab 3/MR-subject-1.csv","legacy","9 3 8 2 1 4","Lentiform Loewenfeld","3.3.9","3","y","0","left","left","left","left","NA","853","10708","5134","853","NA","2","legacy","6","1024","2","48000","-16","experiment","1","odd","8","524400","521057","522187","3148","95358","522190","502529","3154","90223","526406","527260","523196","13864","526406","NA","Sternberg task","71","79555","80","yes","1024"
"88.88888888888889","88.88888888888889","995.3827160493827","995.3827160493827","black","experiment","legacy","legacy","legacy","0","uniform","1","undefined","1","left","80","80","80","0","0","80","80","0","0","80","80","80","0","80","0","Sun Oct 17 22:41:41 2021","The main experiment item","yes","Sternbergtask.osexp","C:/Users/19565/Desktop","no","mono","no","18","no","white","no","yes","768","legacy","68","11","C:/Users/19565/Desktop/Lab 3/MR-subject-1.csv","legacy","9 1 7 2","Lentiform Loewenfeld","3.3.9","2","y","0","left","left","left","left","NA","1071","10708","5134","1071","NA","2","legacy","4","1024","2","48000","-16","experiment","1","odd","1","530627","527267","528416","3148","95358","528418","502529","3154","90223","532632","533704","529422","13864","532632","NA","Sternberg task","72","80626","81","yes","1024"
"87.8048780487805","87.8048780487805","992.219512195122","992.219512195122","black","experiment","legacy","legacy","legacy","0","uniform","0","undefined","0","right","81","81","81","0","0","81","81","0","0","81","81","81","0","81","0","Sun Oct 17 22:41:41 2021","The main experiment item","yes","Sternbergtask.osexp","C:/Users/19565/Desktop","no","mono","no","18","no","white","no","yes","768","legacy","69","11","C:/Users/19565/Desktop/Lab 3/MR-subject-1.csv","legacy","3 4 9 6 7 8","Lentiform Loewenfeld","3.3.9","0","n","0","left","left","left","left","NA","736","10708","5134","736","NA","2","legacy","6","1024","2","48000","-16","experiment","1","odd","2","537074","533710","534862","3148","95358","534864","502529","3154","90223","539079","539816","535868","13864","539079","NA","Sternberg task","72","81362","82","yes","1024"
"87.95180722891567","87.95180722891567","990.6144578313254","990.6144578313254","black","experiment","legacy","legacy","legacy","0","uniform","1","undefined","1","right","82","82","82","0","0","82","82","0","0","82","82","82","0","82","0","Sun Oct 17 22:41:41 2021","The main experiment item","yes","Sternbergtask.osexp","C:/Users/19565/Desktop","no","mono","no","18","no","white","no","yes","768","legacy","70","11","C:/Users/19565/Desktop/Lab 3/MR-subject-1.csv","legacy","1 5 3 2 8","Lentiform Loewenfeld","3.3.9","0","n","0","right","left","left","right","NA","859","10708","5134","859","NA","2","legacy","5","1024","2","48000","-16","experiment","1","odd","4","543199","533710","540987","3148","95358","540989","539822","3154","90223","545204","546064","541994","13864","545204","NA","Sternberg task","73","82221","83","yes","1024"
"88.0952380952381","88.0952380952381","989.1904761904761","989.1904761904761","black","experiment","legacy","legacy","legacy","0","uniform","1","undefined","1","left","83","83","83","0","0","83","83","0","0","83","83","83","0","83","0","Sun Oct 17 22:41:41 2021","The main experiment item","yes","Sternbergtask.osexp","C:/Users/19565/Desktop","no","mono","no","18","no","white","no","yes","768","legacy","71","11","C:/Users/19565/Desktop/Lab 3/MR-subject-1.csv","legacy","4 9 7 8 5 3","Lentiform Loewenfeld","3.3.9","4","y","0","left","left","left","left","NA","871","10708","5134","871","NA","2","legacy","6","1024","2","48000","-16","experiment","1","odd","8","549415","546070","547203","3148","95358","547205","539822","3154","90223","551422","552294","548210","13864","551422","NA","Sternberg task","74","83092","84","yes","1024"
"88.23529411764706","88.23529411764706","982.2705882352941","982.2705882352941","black","experiment","legacy","legacy","legacy","0","uniform","1","undefined","1","left","84","84","84","0","0","84","84","0","0","84","84","84","0","84","0","Sun Oct 17 22:41:41 2021","The main experiment item","yes","Sternbergtask.osexp","C:/Users/19565/Desktop","no","mono","no","18","no","white","no","yes","768","legacy","72","11","C:/Users/19565/Desktop/Lab 3/MR-subject-1.csv","legacy","4","Lentiform Loewenfeld","3.3.9","1","y","0","left","left","left","left","NA","401","10708","5134","401","NA","2","legacy","1","1024","2","48000","-16","experiment","1","odd","4","555657","552300","553445","3148","95358","553447","539822","3154","90223","557663","558065","554452","13864","557663","NA","Sternberg task","75","83493","85","yes","1024"
"88.37209302325581","88.37209302325581","978.5232558139535","978.5232558139535","black","experiment","legacy","legacy","legacy","0","uniform","1","undefined","1","left","85","85","85","0","0","85","85","0","0","85","85","85","0","85","0","Sun Oct 17 22:41:41 2021","The main experiment item","yes","Sternbergtask.osexp","C:/Users/19565/Desktop","no","mono","no","18","no","white","no","yes","768","legacy","73","11","C:/Users/19565/Desktop/Lab 3/MR-subject-1.csv","legacy","8 1 6","Lentiform Loewenfeld","3.3.9","3","y","0","left","left","left","left","NA","660","10708","5134","660","NA","2","legacy","3","1024","2","48000","-16","experiment","1","odd","6","561435","558086","559221","3148","95358","559224","539822","3154","90223","563440","564101","560229","13864","563439","NA","Sternberg task","76","84153","86","yes","1024"
"87.35632183908046","87.35632183908046","977.7701149425287","977.7701149425287","black","experiment","legacy","legacy","legacy","0","uniform","0","undefined","0","left","86","86","86","0","0","86","86","0","0","86","86","86","0","86","0","Sun Oct 17 22:41:41 2021","The main experiment item","yes","Sternbergtask.osexp","C:/Users/19565/Desktop","no","mono","no","18","no","white","no","yes","768","legacy","74","11","C:/Users/19565/Desktop/Lab 3/MR-subject-1.csv","legacy","7 1 8 5 6 2","Lentiform Loewenfeld","3.3.9","2","y","0","right","left","left","right","NA","913","10708","5134","913","NA","2","legacy","6","1024","2","48000","-16","experiment","1","odd","1","567456","564107","565243","3148","95358","565245","539822","3154","90223","569461","570375","566250","13864","569460","NA","Sternberg task","76","85066","87","yes","1024"
"87.5","87.5","979.2272727272727","979.2272727272727","black","experiment","legacy","legacy","legacy","0","uniform","1","undefined","1","right","87","87","87","0","0","87","87","0","0","87","87","87","0","87","0","Sun Oct 17 22:41:41 2021","The main experiment item","yes","Sternbergtask.osexp","C:/Users/19565/Desktop","no","mono","no","18","no","white","no","yes","768","legacy","75","11","C:/Users/19565/Desktop/Lab 3/MR-subject-1.csv","legacy","9 7 4 5 8","Lentiform Loewenfeld","3.3.9","0","n","0","right","left","left","right","NA","1106","10708","5134","1106","NA","2","legacy","5","1024","2","48000","-16","experiment","1","odd","6","573729","564107","571518","3148","95358","571520","570381","3154","90223","575736","576843","572525","13864","575736","NA","Sternberg task","77","86172","88","yes","1024"
"87.64044943820225","87.64044943820225","979.5280898876405","979.5280898876405","black","experiment","legacy","legacy","legacy","0","uniform","1","undefined","1","right","88","88","88","0","0","88","88","0","0","88","88","88","0","88","0","Sun Oct 17 22:41:41 2021","The main experiment item","yes","Sternbergtask.osexp","C:/Users/19565/Desktop","no","mono","no","18","no","white","no","yes","768","legacy","76","11","C:/Users/19565/Desktop/Lab 3/MR-subject-1.csv","legacy","7 6 4 8 1 2","Lentiform Loewenfeld","3.3.9","0","n","0","right","left","left","right","NA","1006","10708","5134","1006","NA","2","legacy","6","1024","2","48000","-16","experiment","1","odd","9","580183","576849","577970","3148","95358","577973","570381","3154","90223","582188","583196","578978","13864","582187","NA","Sternberg task","78","87178","89","yes","1024"
"87.77777777777777","87.77777777777777","976.6222222222223","976.6222222222223","black","experiment","legacy","legacy","legacy","0","uniform","1","undefined","1","right","89","89","89","0","0","89","89","0","0","89","89","89","0","89","0","Sun Oct 17 22:41:41 2021","The main experiment item","yes","Sternbergtask.osexp","C:/Users/19565/Desktop","no","mono","no","18","no","white","no","yes","768","legacy","77","11","C:/Users/19565/Desktop/Lab 3/MR-subject-1.csv","legacy","6 9 7 3 8 2","Lentiform Loewenfeld","3.3.9","0","n","0","right","left","left","right","NA","718","10708","5134","718","NA","2","legacy","6","1024","2","48000","-16","experiment","1","odd","5","586567","583217","584355","3148","95358","584357","570381","3154","90223","588572","589292","585362","13864","588572","NA","Sternberg task","79","87896","90","yes","1024"
"87.91208791208791","87.91208791208791","975.1208791208791","975.1208791208791","black","experiment","legacy","legacy","legacy","0","uniform","1","undefined","1","right","90","90","90","0","0","90","90","0","0","90","90","90","0","90","0","Sun Oct 17 22:41:41 2021","The main experiment item","yes","Sternbergtask.osexp","C:/Users/19565/Desktop","no","mono","no","18","no","white","no","yes","768","legacy","78","11","C:/Users/19565/Desktop/Lab 3/MR-subject-1.csv","legacy","7 3 2 8","Lentiform Loewenfeld","3.3.9","0","n","0","right","left","left","right","NA","840","10708","5134","840","NA","2","legacy","4","1024","2","48000","-16","experiment","1","odd","4","592683","589313","590471","3148","95358","590474","570381","3154","90223","594688","595529","591479","13864","594687","NA","Sternberg task","80","88736","91","yes","1024"
"88.04347826086956","88.04347826086956","972.7608695652174","972.7608695652174","black","experiment","legacy","legacy","legacy","0","uniform","1","undefined","1","right","91","91","91","0","0","91","91","0","0","91","91","91","0","91","0","Sun Oct 17 22:41:41 2021","The main experiment item","yes","Sternbergtask.osexp","C:/Users/19565/Desktop","no","mono","no","18","no","white","no","yes","768","legacy","79","11","C:/Users/19565/Desktop/Lab 3/MR-subject-1.csv","legacy","2 8 6 3 1","Lentiform Loewenfeld","3.3.9","0","n","0","right","left","left","right","NA","758","10708","5134","758","NA","2","legacy","5","1024","2","48000","-16","experiment","1","odd","7","598894","595535","596681","3148","95358","596683","570381","3154","90223","600899","601658","597688","13864","600898","NA","Sternberg task","81","89494","92","yes","1024"
"88.17204301075269","88.17204301075269","972.0752688172043","972.0752688172043","black","experiment","legacy","legacy","legacy","0","uniform","1","undefined","1","right","92","92","92","0","0","92","92","0","0","92","92","92","0","92","0","Sun Oct 17 22:41:41 2021","The main experiment item","yes","Sternbergtask.osexp","C:/Users/19565/Desktop","no","mono","no","18","no","white","no","yes","768","legacy","80","11","C:/Users/19565/Desktop/Lab 3/MR-subject-1.csv","legacy","8 4 3 9","Lentiform Loewenfeld","3.3.9","0","n","0","right","left","left","right","NA","909","10708","5134","909","NA","2","legacy","4","1024","2","48000","-16","experiment","1","odd","5","605018","601663","602806","3148","95358","602808","570381","3154","90223","607023","607933","603813","13864","607023","NA","Sternberg task","82","90403","93","yes","1024"
"88.29787234042553","88.29787234042553","973.6276595744681","973.6276595744681","black","experiment","legacy","legacy","legacy","0","uniform","1","undefined","1","right","93","93","93","0","0","93","93","0","0","93","93","93","0","93","0","Sun Oct 17 22:41:41 2021","The main experiment item","yes","Sternbergtask.osexp","C:/Users/19565/Desktop","no","mono","no","18","no","white","no","yes","768","legacy","81","11","C:/Users/19565/Desktop/Lab 3/MR-subject-1.csv","legacy","1 6 4 3 9 7","Lentiform Loewenfeld","3.3.9","0","n","0","right","left","left","right","NA","1118","10708","5134","1118","NA","2","legacy","6","1024","2","48000","-16","experiment","1","odd","8","611305","607954","609092","3148","95358","609095","570381","3154","90223","613310","614429","610100","13864","613310","NA","Sternberg task","83","91521","94","yes","1024"
"88.42105263157895","88.42105263157895","974.2842105263157","974.2842105263157","black","experiment","legacy","legacy","legacy","0","uniform","1","undefined","1","left","94","94","94","0","0","94","94","0","0","94","94","94","0","94","0","Sun Oct 17 22:41:41 2021","The main experiment item","yes","Sternbergtask.osexp","C:/Users/19565/Desktop","no","mono","no","18","no","white","no","yes","768","legacy","82","11","C:/Users/19565/Desktop/Lab 3/MR-subject-1.csv","legacy","5 7 3 6 2","Lentiform Loewenfeld","3.3.9","5","y","0","left","left","left","left","NA","1036","10708","5134","1036","NA","2","legacy","5","1024","2","48000","-16","experiment","1","odd","2","617794","614435","615583","3148","95358","615585","570381","3154","90223","619800","620837","616588","13864","619799","NA","Sternberg task","84","92557","95","yes","1024"
"88.54166666666667","88.54166666666667","977.2604166666666","977.2604166666666","black","experiment","legacy","legacy","legacy","0","uniform","1","undefined","1","right","95","95","95","0","0","95","95","0","0","95","95","95","0","95","0","Sun Oct 17 22:41:41 2021","The main experiment item","yes","Sternbergtask.osexp","C:/Users/19565/Desktop","no","mono","no","18","no","white","no","yes","768","legacy","83","11","C:/Users/19565/Desktop/Lab 3/MR-subject-1.csv","legacy","6 8","Lentiform Loewenfeld","3.3.9","0","n","0","right","left","left","right","NA","1260","10708","5134","1260","NA","2","legacy","2","1024","2","48000","-16","experiment","1","odd","9","624199","620843","621986","3148","95358","621988","570381","3154","90223","626204","627465","622993","13864","626204","NA","Sternberg task","85","93817","96","yes","1024"
"88.65979381443299","88.65979381443299","977.7835051546392","977.7835051546392","black","experiment","legacy","legacy","legacy","0","uniform","1","undefined","1","left","96","96","96","0","0","96","96","0","0","96","96","96","0","96","0","Sun Oct 17 22:41:41 2021","The main experiment item","yes","Sternbergtask.osexp","C:/Users/19565/Desktop","no","mono","no","18","no","white","no","yes","768","legacy","84","11","C:/Users/19565/Desktop/Lab 3/MR-subject-1.csv","legacy","7 1 3","Lentiform Loewenfeld","3.3.9","2","y","0","left","left","left","left","NA","1028","10708","5134","1028","NA","2","legacy","3","1024","2","48000","-16","experiment","1","odd","1","630829","627471","628617","3148","95358","628619","570381","3154","90223","632834","633863","629624","13864","632834","NA","Sternberg task","86","94845","97","yes","1024"
"88.77551020408163","88.77551020408163","978.2755102040817","978.2755102040817","black","experiment","legacy","legacy","legacy","0","uniform","1","undefined","1","left","97","97","97","0","0","97","97","0","0","97","97","97","0","97","0","Sun Oct 17 22:41:41 2021","The main experiment item","yes","Sternbergtask.osexp","C:/Users/19565/Desktop","no","mono","no","18","no","white","no","yes","768","legacy","85","11","C:/Users/19565/Desktop/Lab 3/MR-subject-1.csv","legacy","3 9 6 2","Lentiform Loewenfeld","3.3.9","4","y","0","left","left","left","left","NA","1026","10708","5134","1026","NA","2","legacy","4","1024","2","48000","-16","experiment","1","odd","2","637224","633869","635011","3148","95358","635014","570381","3154","90223","639229","640256","636018","13864","639228","NA","Sternberg task","87","95871","98","yes","1024"
"88.88888888888889","88.88888888888889","978.2727272727273","978.2727272727273","black","experiment","legacy","legacy","legacy","0","uniform","1","undefined","1","left","98","98","98","0","0","98","98","0","0","98","98","98","0","98","0","Sun Oct 17 22:41:41 2021","The main experiment item","yes","Sternbergtask.osexp","C:/Users/19565/Desktop","no","mono","no","18","no","white","no","yes","768","legacy","86","11","C:/Users/19565/Desktop/Lab 3/MR-subject-1.csv","legacy","2 3 7 4","Lentiform Loewenfeld","3.3.9","1","y","0","left","left","left","left","NA","978","10708","5134","978","NA","2","legacy","4","1024","2","48000","-16","experiment","1","odd","2","643602","640262","641389","3148","95358","641392","570381","3154","90223","645607","646586","642396","13864","645607","NA","Sternberg task","88","96849","99","yes","1024"
"89","89","975.53","975.53","black","experiment","legacy","legacy","legacy","0","uniform","1","undefined","1","right","99","99","99","0","0","99","99","0","0","99","99","99","0","99","0","Sun Oct 17 22:41:41 2021","The main experiment item","yes","Sternbergtask.osexp","C:/Users/19565/Desktop","no","mono","no","18","no","white","no","yes","768","legacy","87","11","C:/Users/19565/Desktop/Lab 3/MR-subject-1.csv","legacy","6 2 9 3 8 4","Lentiform Loewenfeld","3.3.9","0","n","0","right","left","left","right","NA","704","10708","5134","704","NA","2","legacy","6","1024","2","48000","-16","experiment","1","odd","1","649931","646592","647719","3148","95358","647721","570381","3154","90223","651937","652642","648726","13864","651937","NA","Sternberg task","89","97553","100","yes","1024"
"89.10891089108911","89.10891089108911","973.950495049505","973.950495049505","black","experiment","legacy","legacy","legacy","0","uniform","1","undefined","1","right","100","100","100","0","0","100","100","0","0","100","100","100","0","100","0","Sun Oct 17 22:41:41 2021","The main experiment item","yes","Sternbergtask.osexp","C:/Users/19565/Desktop","no","mono","no","18","no","white","no","yes","768","legacy","88","11","C:/Users/19565/Desktop/Lab 3/MR-subject-1.csv","legacy","1 4 9 2 5","Lentiform Loewenfeld","3.3.9","0","n","0","right","left","left","right","NA","816","10708","5134","816","NA","2","legacy","5","1024","2","48000","-16","experiment","1","odd","7","655989","652648","653776","3148","95358","653779","570381","3154","90223","657994","658812","654784","13864","657994","NA","Sternberg task","90","98369","101","yes","1024"
"89.2156862745098","89.2156862745098","970.4705882352941","970.4705882352941","black","experiment","legacy","legacy","legacy","0","uniform","1","undefined","1","right","101","101","101","0","0","101","101","0","0","101","101","101","0","101","0","Sun Oct 17 22:41:41 2021","The main experiment item","yes","Sternbergtask.osexp","C:/Users/19565/Desktop","no","mono","no","18","no","white","no","yes","768","legacy","89","11","C:/Users/19565/Desktop/Lab 3/MR-subject-1.csv","legacy","7 1","Lentiform Loewenfeld","3.3.9","0","n","0","right","left","left","right","NA","619","10708","5134","619","NA","2","legacy","2","1024","2","48000","-16","experiment","1","odd","8","662173","658832","659961","3148","95358","659963","570381","3154","90223","664179","664799","660967","13864","664178","NA","Sternberg task","91","98988","102","yes","1024"
"88.3495145631068","88.3495145631068","969.9223300970874","969.9223300970874","black","experiment","legacy","legacy","legacy","0","uniform","0","undefined","0","left","102","102","102","0","0","102","102","0","0","102","102","102","0","102","0","Sun Oct 17 22:41:41 2021","The main experiment item","yes","Sternbergtask.osexp","C:/Users/19565/Desktop","no","mono","no","18","no","white","no","yes","768","legacy","90","11","C:/Users/19565/Desktop/Lab 3/MR-subject-1.csv","legacy","4 7 6 8 2 3","Lentiform Loewenfeld","3.3.9","6","y","0","right","left","left","right","NA","914","10708","5134","914","NA","2","legacy","6","1024","2","48000","-16","experiment","1","odd","3","668144","664806","665935","3148","95358","665937","570381","3154","90223","670149","671064","666942","13864","670149","NA","Sternberg task","91","99902","103","yes","1024"
"88.46153846153847","88.46153846153847","968.3653846153846","968.3653846153846","black","experiment","legacy","legacy","legacy","0","uniform","1","undefined","1","left","103","103","103","0","0","103","103","0","0","103","103","103","0","103","0","Sun Oct 17 22:41:41 2021","The main experiment item","yes","Sternbergtask.osexp","C:/Users/19565/Desktop","no","mono","no","18","no","white","no","yes","768","legacy","91","11","C:/Users/19565/Desktop/Lab 3/MR-subject-1.csv","legacy","3 4 9 6 2 9","Lentiform Loewenfeld","3.3.9","5","y","0","left","left","left","left","NA","808","10708","5134","808","NA","2","legacy","6","1024","2","48000","-16","experiment","1","odd","2","674418","664806","672206","3148","95358","672208","671070","3154","90223","676424","677233","673214","13864","676424","NA","Sternberg task","92","100710","104","yes","1024"
"88.57142857142857","88.57142857142857","965.5809523809523","965.5809523809523","black","experiment","legacy","legacy","legacy","0","uniform","1","undefined","1","left","104","104","104","0","0","104","104","0","0","104","104","104","0","104","0","Sun Oct 17 22:41:41 2021","The main experiment item","yes","Sternbergtask.osexp","C:/Users/19565/Desktop","no","mono","no","18","no","white","no","yes","768","legacy","92","11","C:/Users/19565/Desktop/Lab 3/MR-subject-1.csv","legacy","3 5 4 7","Lentiform Loewenfeld","3.3.9","1","y","0","left","left","left","left","NA","676","10708","5134","676","NA","2","legacy","4","1024","2","48000","-16","experiment","1","odd","3","680591","677239","678378","3148","95358","678381","671070","3154","90223","682596","683273","679386","13864","682596","NA","Sternberg task","93","101386","105","yes","1024"
"88.67924528301887","88.67924528301887","962.2452830188679","962.2452830188679","black","experiment","legacy","legacy","legacy","0","uniform","1","undefined","1","right","105","105","105","0","0","105","105","0","0","105","105","105","0","105","0","Sun Oct 17 22:41:41 2021","The main experiment item","yes","Sternbergtask.osexp","C:/Users/19565/Desktop","no","mono","no","18","no","white","no","yes","768","legacy","93","11","C:/Users/19565/Desktop/Lab 3/MR-subject-1.csv","legacy","1 6 4","Lentiform Loewenfeld","3.3.9","0","n","0","right","left","left","right","NA","612","10708","5134","612","NA","2","legacy","3","1024","2","48000","-16","experiment","1","odd","7","686633","683295","684421","3148","95358","684423","671070","3154","90223","688638","689252","685427","13864","688637","NA","Sternberg task","94","101998","106","yes","1024"
"88.78504672897196","88.78504672897196","958.6355140186915","958.6355140186915","black","experiment","legacy","legacy","legacy","0","uniform","1","undefined","1","left","106","106","106","0","0","106","106","0","0","106","106","106","0","106","0","Sun Oct 17 22:41:41 2021","The main experiment item","yes","Sternbergtask.osexp","C:/Users/19565/Desktop","no","mono","no","18","no","white","no","yes","768","legacy","94","11","C:/Users/19565/Desktop/Lab 3/MR-subject-1.csv","legacy","7 8 6 3 1","Lentiform Loewenfeld","3.3.9","5","y","0","left","left","left","left","NA","576","10708","5134","576","NA","2","legacy","5","1024","2","48000","-16","experiment","1","odd","1","692607","689258","690394","3148","95358","690396","671070","3154","90223","694612","695190","691401","13864","694612","NA","Sternberg task","95","102574","107","yes","1024"
"88.88888888888889","88.88888888888889","960.3148148148148","960.3148148148148","black","experiment","legacy","legacy","legacy","0","uniform","1","undefined","1","left","107","107","107","0","0","107","107","0","0","107","107","107","0","107","0","Sun Oct 17 22:41:41 2021","The main experiment item","yes","Sternbergtask.osexp","C:/Users/19565/Desktop","no","mono","no","18","no","white","no","yes","768","legacy","95","11","C:/Users/19565/Desktop/Lab 3/MR-subject-1.csv","legacy","4 1 8 7 5","Lentiform Loewenfeld","3.3.9","3","y","0","left","left","left","left","NA","1140","10708","5134","1140","NA","2","legacy","5","1024","2","48000","-16","experiment","1","odd","8","698534","695194","696322","3148","95358","696324","671070","3154","90223","700539","701681","697329","13864","700538","NA","Sternberg task","96","103714","108","yes","1024"
"88.9908256880734","88.9908256880734","962.1284403669724","962.1284403669724","black","experiment","legacy","legacy","legacy","0","uniform","1","undefined","1","right","108","108","108","0","0","108","108","0","0","108","108","108","0","108","0","Sun Oct 17 22:41:41 2021","The main experiment item","yes","Sternbergtask.osexp","C:/Users/19565/Desktop","no","mono","no","18","no","white","no","yes","768","legacy","96","11","C:/Users/19565/Desktop/Lab 3/MR-subject-1.csv","legacy","7 1 8 4 9 3","Lentiform Loewenfeld","3.3.9","0","n","0","right","left","left","right","NA","1158","10708","5134","1158","NA","2","legacy","6","1024","2","48000","-16","experiment","1","odd","6","705023","701687","702811","3148","95358","702814","671070","3154","90223","707029","708188","703818","13864","707029","NA","Sternberg task","97","104872","109","yes","1024"
"88.18181818181819","88.18181818181819","964.8636363636364","964.8636363636364","black","experiment","legacy","legacy","legacy","0","uniform","0","undefined","0","right","109","109","109","0","0","109","109","0","0","109","109","109","0","109","0","Sun Oct 17 22:41:41 2021","The main experiment item","yes","Sternbergtask.osexp","C:/Users/19565/Desktop","no","mono","no","18","no","white","no","yes","768","legacy","97","11","C:/Users/19565/Desktop/Lab 3/MR-subject-1.csv","legacy","7 9 1 6","Lentiform Loewenfeld","3.3.9","0","n","0","left","left","left","left","NA","1263","10708","5134","1263","NA","2","legacy","4","1024","2","48000","-16","experiment","1","odd","4","711553","708209","709341","3148","95358","709343","671070","3154","90223","713557","714822","710347","13864","713557","NA","Sternberg task","97","106135","110","yes","1024"
"88.28828828828829","88.28828828828829","965.4054054054054","965.4054054054054","black","experiment","legacy","legacy","legacy","0","uniform","1","undefined","1","left","110","110","110","0","0","110","110","0","0","110","110","110","0","110","0","Sun Oct 17 22:41:41 2021","The main experiment item","yes","Sternbergtask.osexp","C:/Users/19565/Desktop","no","mono","no","18","no","white","no","yes","768","legacy","98","11","C:/Users/19565/Desktop/Lab 3/MR-subject-1.csv","legacy","6 9 7 4 5 1","Lentiform Loewenfeld","3.3.9","2","y","0","left","left","left","left","NA","1025","10708","5134","1025","NA","2","legacy","6","1024","2","48000","-16","experiment","1","odd","9","718187","708209","715974","3148","95358","715977","714843","3154","90223","720193","721219","716982","13864","720193","NA","Sternberg task","98","107160","111","yes","1024"
"88.39285714285714","88.39285714285714","974.4642857142857","974.4642857142857","black","experiment","legacy","legacy","legacy","0","uniform","1","undefined","1","left","111","111","111","0","0","111","111","0","0","111","111","111","0","111","0","Sun Oct 17 22:41:41 2021","The main experiment item","yes","Sternbergtask.osexp","C:/Users/19565/Desktop","no","mono","no","18","no","white","no","yes","768","legacy","99","11","C:/Users/19565/Desktop/Lab 3/MR-subject-1.csv","legacy","7","Lentiform Loewenfeld","3.3.9","1","y","0","left","left","left","left","NA","1980","10708","5134","1980","NA","2","legacy","1","1024","2","48000","-16","experiment","1","odd","7","724574","721225","722362","3148","95358","722364","714843","3154","90223","726579","728562","723368","13864","726579","NA","Sternberg task","99","109140","112","yes","1024"
"88.49557522123894","88.49557522123894","973.9646017699115","973.9646017699115","black","experiment","legacy","legacy","legacy","0","uniform","1","undefined","1","left","112","112","112","0","0","112","112","0","0","112","112","112","0","112","0","Sun Oct 17 22:41:41 2021","The main experiment item","yes","Sternbergtask.osexp","C:/Users/19565/Desktop","no","mono","no","18","no","white","no","yes","768","legacy","100","11","C:/Users/19565/Desktop/Lab 3/MR-subject-1.csv","legacy","2 4 8 5 1 3","Lentiform Loewenfeld","3.3.9","1","y","0","left","left","left","left","NA","918","10708","5134","918","NA","2","legacy","6","1024","2","48000","-16","experiment","1","odd","2","731909","728568","729698","3148","95358","729700","714843","3154","90223","733915","734834","730705","13864","733915","NA","Sternberg task","100","110058","113","yes","1024"
"88.59649122807018","88.59649122807018","971.4561403508771","971.4561403508771","black","experiment","legacy","legacy","legacy","0","uniform","1","undefined","1","right","113","113","113","0","0","113","113","0","0","113","113","113","0","113","0","Sun Oct 17 22:41:41 2021","The main experiment item","yes","Sternbergtask.osexp","C:/Users/19565/Desktop","no","mono","no","18","no","white","no","yes","768","legacy","101","11","C:/Users/19565/Desktop/Lab 3/MR-subject-1.csv","legacy","8 5 7 3 6","Lentiform Loewenfeld","3.3.9","0","n","0","right","left","left","right","NA","688","10708","5134","688","NA","2","legacy","5","1024","2","48000","-16","experiment","1","odd","9","738216","734840","736004","3148","95358","736006","714843","3154","90223","740220","740910","737010","13864","740219","NA","Sternberg task","101","110746","114","yes","1024"
"87.82608695652173","87.82608695652173","969.895652173913","969.895652173913","black","experiment","legacy","legacy","legacy","0","uniform","0","undefined","0","right","114","114","114","0","0","114","114","0","0","114","114","114","0","114","0","Sun Oct 17 22:41:41 2021","The main experiment item","yes","Sternbergtask.osexp","C:/Users/19565/Desktop","no","mono","no","18","no","white","no","yes","768","legacy","102","11","C:/Users/19565/Desktop/Lab 3/MR-subject-1.csv","legacy","2 8 7 9 5 3","Lentiform Loewenfeld","3.3.9","0","n","0","left","left","left","left","NA","792","10708","5134","792","NA","2","legacy","6","1024","2","48000","-16","experiment","1","odd","6","744258","740916","742046","3148","95358","742049","714843","3154","90223","746263","747056","743054","13864","746263","NA","Sternberg task","101","111538","115","yes","1024"
"87.93103448275862","87.93103448275862","970.8448275862069","970.8448275862069","black","experiment","legacy","legacy","legacy","0","uniform","1","undefined","1","left","115","115","115","0","0","115","115","0","0","115","115","115","0","115","0","Sun Oct 17 22:41:41 2021","The main experiment item","yes","Sternbergtask.osexp","C:/Users/19565/Desktop","no","mono","no","18","no","white","no","yes","768","legacy","103","11","C:/Users/19565/Desktop/Lab 3/MR-subject-1.csv","legacy","3 9 7 6 4","Lentiform Loewenfeld","3.3.9","3","y","0","left","left","left","left","NA","1080","10708","5134","1080","NA","2","legacy","5","1024","2","48000","-16","experiment","1","odd","7","750397","740916","748186","3148","95358","748188","747062","3154","90223","752399","753482","749192","13864","752399","NA","Sternberg task","102","112618","116","yes","1024"
"88.03418803418803","88.03418803418803","968.9230769230769","968.9230769230769","black","experiment","legacy","legacy","legacy","0","uniform","1","undefined","1","left","116","116","116","0","0","116","116","0","0","116","116","116","0","116","0","Sun Oct 17 22:41:41 2021","The main experiment item","yes","Sternbergtask.osexp","C:/Users/19565/Desktop","no","mono","no","18","no","white","no","yes","768","legacy","104","11","C:/Users/19565/Desktop/Lab 3/MR-subject-1.csv","legacy","9 4 2","Lentiform Loewenfeld","3.3.9","1","y","0","left","left","left","left","NA","746","10708","5134","746","NA","2","legacy","3","1024","2","48000","-16","experiment","1","odd","9","756836","753490","754624","3148","95358","754626","747062","3154","90223","758841","759588","755630","13864","758841","NA","Sternberg task","103","113364","117","yes","1024"
"88.13559322033899","88.13559322033899","966.6271186440678","966.6271186440678","black","experiment","legacy","legacy","legacy","0","uniform","1","undefined","1","right","117","117","117","0","0","117","117","0","0","117","117","117","0","117","0","Sun Oct 17 22:41:41 2021","The main experiment item","yes","Sternbergtask.osexp","C:/Users/19565/Desktop","no","mono","no","18","no","white","no","yes","768","legacy","105","11","C:/Users/19565/Desktop/Lab 3/MR-subject-1.csv","legacy","4 1","Lentiform Loewenfeld","3.3.9","0","n","0","right","left","left","right","NA","698","10708","5134","698","NA","2","legacy","2","1024","2","48000","-16","experiment","1","odd","6","762938","759593","760725","3148","95358","760728","747062","3154","90223","764943","765642","761733","13864","764943","NA","Sternberg task","104","114062","118","yes","1024"
"88.23529411764706","88.23529411764706","966.2605042016806","966.2605042016806","black","experiment","legacy","legacy","legacy","0","uniform","1","undefined","1","right","118","118","118","0","0","118","118","0","0","118","118","118","0","118","0","Sun Oct 17 22:41:41 2021","The main experiment item","yes","Sternbergtask.osexp","C:/Users/19565/Desktop","no","mono","no","18","no","white","no","yes","768","legacy","106","11","C:/Users/19565/Desktop/Lab 3/MR-subject-1.csv","legacy","1 4 3 6 5","Lentiform Loewenfeld","3.3.9","0","n","0","right","left","left","right","NA","923","10708","5134","923","NA","2","legacy","5","1024","2","48000","-16","experiment","1","odd","8","769030","765649","766817","3148","95358","766819","747062","3154","90223","771036","771960","767824","13864","771036","NA","Sternberg task","105","114985","119","yes","1024"
