"acc","accuracy","average_response_time","avg_rt","background","block","canvas_backend","clock_backend","color_backend","compensation","coordinates","correct","correct_instruction1","correct_keyboard_response","correct_response","count_correctFeedback","count_expSequence","count_experiment","count_experimentLoop","count_fixation","count_iSi","count_incorrectFeedback","count_instruction1","count_instructions2","count_keyboard_response","count_logger","count_memorySet","count_practiceLoop","count_probe","count_thankYou","datetime","description","disable_garbage_collection","experiment_file","experiment_path","font_bold","font_family","font_italic","font_size","font_underline","foreground","form_clicks","fullscreen","height","keyboard_backend","live_row","live_row_practiceLoop","logfile","mouse_backend","numberSet","opensesame_codename","opensesame_version","posInSet","present","repeat_cycle","response","response_instruction1","response_instructions2","response_keyboard_response","response_thankYou","response_time","response_time_instruction1","response_time_instructions2","response_time_keyboard_response","response_time_thankYou","round_decimals","sampler_backend","setSize","sound_buf_size","sound_channels","sound_freq","sound_sample_size","start","subject_nr","subject_parity","target","time_correctFeedback","time_expSequence","time_experiment","time_experimentLoop","time_fixation","time_iSi","time_incorrectFeedback","time_instruction1","time_instructions2","time_keyboard_response","time_logger","time_memorySet","time_practiceLoop","time_probe","time_thankYou","title","total_correct","total_response_time","total_responses","uniform_coordinates","width"
"100","100","929","929","black","practice","legacy","legacy","legacy","0","uniform","1","undefined","1","right","0","0","0","0","0","0","0","0","0","0","0","0","0","0","0","Sun Oct 24 19:39:13 2021","The main experiment item","yes","Sternbergtask.osexp","C:/Users/rayra/Documents","no","mono","no","18","no","white","no","yes","768","legacy","0","0","C:/Users/rayra/Documents/subject-3.csv","legacy","5 7 8 4 1 2","Lentiform Loewenfeld","3.3.9","0","n","0","right","return","NA","right","NA","929","19509","NA","929","NA","2","legacy","6","1024","2","48000","-16","experiment","3","odd","6","NA","23311","2843","NA","23314","25521","NA","2847","NA","27525","28455","24317","22358","27525","NA","Sternberg task","1","929","1","yes","1024"
"50","50","1010","1010","black","practice","legacy","legacy","legacy","0","uniform","0","undefined","0","left","1","1","0","0","1","1","1","0","0","1","1","1","0","1","0","Sun Oct 24 19:39:13 2021","The main experiment item","yes","Sternbergtask.osexp","C:/Users/rayra/Documents","no","mono","no","18","no","white","no","yes","768","legacy","1","1","C:/Users/rayra/Documents/subject-3.csv","legacy","4 3 1 7 9 8","Lentiform Loewenfeld","3.3.9","1","y","0","right","return","NA","right","NA","1091","19509","NA","1091","NA","2","legacy","6","1024","2","48000","-16","experiment","3","odd","4","28545","29723","2843","NA","29725","31933","NA","2847","NA","33936","35028","30729","22358","33936","NA","Sternberg task","1","2020","2","yes","1024"
"66.66666666666667","66.66666666666667","905.6666666666666","905.6666666666666","black","practice","legacy","legacy","legacy","0","uniform","1","undefined","1","right","2","2","0","0","2","2","2","0","0","2","2","2","0","2","0","Sun Oct 24 19:39:13 2021","The main experiment item","yes","Sternbergtask.osexp","C:/Users/rayra/Documents","no","mono","no","18","no","white","no","yes","768","legacy","2","2","C:/Users/rayra/Documents/subject-3.csv","legacy","2 1","Lentiform Loewenfeld","3.3.9","0","n","0","right","return","NA","right","NA","697","19509","NA","697","NA","2","legacy","2","1024","2","48000","-16","experiment","3","odd","5","28545","36216","2843","NA","36218","38426","35034","2847","NA","40430","41128","37222","22358","40430","NA","Sternberg task","2","2717","3","yes","1024"
"75","75","906","906","black","practice","legacy","legacy","legacy","0","uniform","1","undefined","1","left","3","3","0","0","3","3","3","0","0","3","3","3","0","3","0","Sun Oct 24 19:39:13 2021","The main experiment item","yes","Sternbergtask.osexp","C:/Users/rayra/Documents","no","mono","no","18","no","white","no","yes","768","legacy","3","3","C:/Users/rayra/Documents/subject-3.csv","legacy","1 7 9 8 5","Lentiform Loewenfeld","3.3.9","4","y","0","left","return","NA","left","NA","907","19509","NA","907","NA","2","legacy","5","1024","2","48000","-16","experiment","3","odd","8","41133","42300","2843","NA","42302","44512","35034","2847","NA","46516","47424","43306","22358","46516","NA","Sternberg task","3","3624","4","yes","1024"
"80","80","851.2","851.2","black","practice","legacy","legacy","legacy","0","uniform","1","undefined","1","left","4","4","0","0","4","4","4","0","0","4","4","4","0","4","0","Sun Oct 24 19:39:13 2021","The main experiment item","yes","Sternbergtask.osexp","C:/Users/rayra/Documents","no","mono","no","18","no","white","no","yes","768","legacy","4","4","C:/Users/rayra/Documents/subject-3.csv","legacy","6","Lentiform Loewenfeld","3.3.9","1","y","0","left","return","NA","left","NA","632","19509","NA","632","NA","2","legacy","1","1024","2","48000","-16","experiment","3","odd","6","47430","48615","2843","NA","48617","50824","35034","2847","NA","52829","53461","49620","22358","52829","NA","Sternberg task","4","4256","5","yes","1024"
"83.33333333333333","83.33333333333333","793.6666666666666","793.6666666666666","black","practice","legacy","legacy","legacy","0","uniform","1","undefined","1","right","5","5","0","0","5","5","5","0","0","5","5","5","0","5","0","Sun Oct 24 19:39:13 2021","The main experiment item","yes","Sternbergtask.osexp","C:/Users/rayra/Documents","no","mono","no","18","no","white","no","yes","768","legacy","5","5","C:/Users/rayra/Documents/subject-3.csv","legacy","4 1 5","Lentiform Loewenfeld","3.3.9","0","n","0","right","return","NA","right","NA","506","19509","NA","506","NA","2","legacy","3","1024","2","48000","-16","experiment","3","odd","2","53467","54634","2843","NA","54636","56846","35034","2847","NA","58850","59356","55641","22358","58850","NA","Sternberg task","5","4762","6","yes","1024"
"85.71428571428571","85.71428571428571","761.4285714285714","761.4285714285714","black","practice","legacy","legacy","legacy","0","uniform","1","undefined","1","left","6","6","0","0","6","6","6","0","0","6","6","6","0","6","0","Sun Oct 24 19:39:13 2021","The main experiment item","yes","Sternbergtask.osexp","C:/Users/rayra/Documents","no","mono","no","18","no","white","no","yes","768","legacy","6","6","C:/Users/rayra/Documents/subject-3.csv","legacy","1 5 2 9","Lentiform Loewenfeld","3.3.9","2","y","0","left","return","NA","left","NA","568","19509","NA","568","NA","2","legacy","4","1024","2","48000","-16","experiment","3","odd","5","59363","60554","2843","NA","60556","62764","35034","2847","NA","64769","65337","61560","22358","64767","NA","Sternberg task","6","5330","7","yes","1024"
"87.5","87.5","759.25","759.25","black","practice","legacy","legacy","legacy","0","uniform","1","undefined","1","left","7","7","0","0","7","7","7","0","0","7","7","7","0","7","0","Sun Oct 24 19:39:13 2021","The main experiment item","yes","Sternbergtask.osexp","C:/Users/rayra/Documents","no","mono","no","18","no","white","no","yes","768","legacy","7","7","C:/Users/rayra/Documents/subject-3.csv","legacy","2 9 4","Lentiform Loewenfeld","3.3.9","3","y","0","left","return","NA","left","NA","744","19509","NA","744","NA","2","legacy","3","1024","2","48000","-16","experiment","3","odd","4","65344","66521","2843","NA","66524","68732","35034","2847","NA","70737","71482","67528","22358","70737","NA","Sternberg task","7","6074","8","yes","1024"
"88.88888888888889","88.88888888888889","730.4444444444445","730.4444444444445","black","practice","legacy","legacy","legacy","0","uniform","1","undefined","1","left","8","8","0","0","8","8","8","0","0","8","8","8","0","8","0","Sun Oct 24 19:39:13 2021","The main experiment item","yes","Sternbergtask.osexp","C:/Users/rayra/Documents","no","mono","no","18","no","white","no","yes","768","legacy","8","8","C:/Users/rayra/Documents/subject-3.csv","legacy","4 8","Lentiform Loewenfeld","3.3.9","1","y","0","left","return","NA","left","NA","500","19509","NA","500","NA","2","legacy","2","1024","2","48000","-16","experiment","3","odd","4","71488","72662","2843","NA","72664","74871","35034","2847","NA","76876","77377","73667","22358","76875","NA","Sternberg task","8","6574","9","yes","1024"
"90","90","715.7","715.7","black","practice","legacy","legacy","legacy","0","uniform","1","undefined","1","right","9","9","0","0","9","9","9","0","0","9","9","9","0","9","0","Sun Oct 24 19:39:13 2021","The main experiment item","yes","Sternbergtask.osexp","C:/Users/rayra/Documents","no","mono","no","18","no","white","no","yes","768","legacy","9","9","C:/Users/rayra/Documents/subject-3.csv","legacy","9 6 7 4 5","Lentiform Loewenfeld","3.3.9","0","n","0","right","return","NA","right","NA","583","19509","NA","583","NA","2","legacy","5","1024","2","48000","-16","experiment","3","odd","3","77383","78594","2843","NA","78596","80803","35034","2847","NA","82809","83392","79599","22358","82808","NA","Sternberg task","9","7157","10","yes","1024"
"90.9090909090909","90.9090909090909","736.2727272727273","736.2727272727273","black","practice","legacy","legacy","legacy","0","uniform","1","undefined","1","right","10","10","0","0","10","10","10","0","0","10","10","10","0","10","0","Sun Oct 24 19:39:13 2021","The main experiment item","yes","Sternbergtask.osexp","C:/Users/rayra/Documents","no","mono","no","18","no","white","no","yes","768","legacy","10","10","C:/Users/rayra/Documents/subject-3.csv","legacy","3 1 9 4","Lentiform Loewenfeld","3.3.9","0","n","0","right","return","NA","right","NA","942","19509","NA","942","NA","2","legacy","4","1024","2","48000","-16","experiment","3","odd","6","83415","84636","2843","NA","84639","86847","35034","2847","NA","88853","89795","85643","22358","88853","NA","Sternberg task","10","8099","11","yes","1024"
"91.66666666666667","91.66666666666667","726.75","726.75","black","practice","legacy","legacy","legacy","0","uniform","1","undefined","1","right","11","11","0","0","11","11","11","0","0","11","11","11","0","11","0","Sun Oct 24 19:39:13 2021","The main experiment item","yes","Sternbergtask.osexp","C:/Users/rayra/Documents","no","mono","no","18","no","white","no","yes","768","legacy","11","11","C:/Users/rayra/Documents/subject-3.csv","legacy","5","Lentiform Loewenfeld","3.3.9","0","n","0","right","return","NA","right","NA","622","19509","NA","622","NA","2","legacy","1","1024","2","48000","-16","experiment","3","odd","3","89802","90999","2843","NA","91001","93209","35034","2847","NA","95213","95835","92005","22358","95213","NA","Sternberg task","11","8721","12","yes","1024"
"92.3076923076923","92.3076923076923","722.4615384615385","722.4615384615385","black","experiment","legacy","legacy","legacy","0","uniform","1","undefined","1","left","12","12","0","0","12","12","12","0","0","12","12","12","0","12","0","Sun Oct 24 19:39:13 2021","The main experiment item","yes","Sternbergtask.osexp","C:/Users/rayra/Documents","no","mono","no","18","no","white","no","yes","768","legacy","0","11","C:/Users/rayra/Documents/subject-3.csv","legacy","3 4 9 6 2 9","Lentiform Loewenfeld","3.3.9","5","y","0","left","return","return","left","NA","671","19509","10671","671","NA","2","legacy","6","1024","2","48000","-16","experiment","3","odd","2","95841","107728","2843","107566","107730","109938","35034","2847","96894","111942","112613","108734","22358","111942","NA","Sternberg task","12","9392","13","yes","1024"
"92.85714285714286","92.85714285714286","704.2142857142857","704.2142857142857","black","experiment","legacy","legacy","legacy","0","uniform","1","undefined","1","right","13","13","0","0","13","13","13","0","0","13","13","13","0","13","0","Sun Oct 24 19:39:13 2021","The main experiment item","yes","Sternbergtask.osexp","C:/Users/rayra/Documents","no","mono","no","18","no","white","no","yes","768","legacy","1","11","C:/Users/rayra/Documents/subject-3.csv","legacy","3 4 2","Lentiform Loewenfeld","3.3.9","0","n","0","right","return","return","right","NA","467","19509","10671","467","NA","2","legacy","3","1024","2","48000","-16","experiment","3","odd","5","112620","113815","2843","107566","113818","116026","35034","2847","96894","118031","118499","114822","22358","118031","NA","Sternberg task","13","9859","14","yes","1024"
"93.33333333333333","93.33333333333333","704.2666666666667","704.2666666666667","black","experiment","legacy","legacy","legacy","0","uniform","1","undefined","1","left","14","14","0","0","14","14","14","0","0","14","14","14","0","14","0","Sun Oct 24 19:39:13 2021","The main experiment item","yes","Sternbergtask.osexp","C:/Users/rayra/Documents","no","mono","no","18","no","white","no","yes","768","legacy","2","11","C:/Users/rayra/Documents/subject-3.csv","legacy","7 6","Lentiform Loewenfeld","3.3.9","2","y","0","left","return","return","left","NA","705","19509","10671","705","NA","2","legacy","2","1024","2","48000","-16","experiment","3","odd","6","118520","119729","2843","107566","119731","121940","35034","2847","96894","123944","124649","120735","22358","123944","NA","Sternberg task","14","10564","15","yes","1024"
"93.75","93.75","700.75","700.75","black","experiment","legacy","legacy","legacy","0","uniform","1","undefined","1","right","15","15","0","0","15","15","15","0","0","15","15","15","0","15","0","Sun Oct 24 19:39:13 2021","The main experiment item","yes","Sternbergtask.osexp","C:/Users/rayra/Documents","no","mono","no","18","no","white","no","yes","768","legacy","3","11","C:/Users/rayra/Documents/subject-3.csv","legacy","1 3 2 6 9","Lentiform Loewenfeld","3.3.9","0","n","0","right","return","return","right","NA","648","19509","10671","648","NA","2","legacy","5","1024","2","48000","-16","experiment","3","odd","5","124655","125874","2843","107566","125877","128085","35034","2847","96894","130089","130737","126881","22358","130089","NA","Sternberg task","15","11212","16","yes","1024"
"94.11764705882354","94.11764705882354","690.2941176470588","690.2941176470588","black","experiment","legacy","legacy","legacy","0","uniform","1","undefined","1","right","16","16","0","0","16","16","16","0","0","16","16","16","0","16","0","Sun Oct 24 19:39:13 2021","The main experiment item","yes","Sternbergtask.osexp","C:/Users/rayra/Documents","no","mono","no","18","no","white","no","yes","768","legacy","4","11","C:/Users/rayra/Documents/subject-3.csv","legacy","5 3 8 7 2 4","Lentiform Loewenfeld","3.3.9","0","n","0","right","return","return","right","NA","523","19509","10671","523","NA","2","legacy","6","1024","2","48000","-16","experiment","3","odd","9","130744","131936","2843","107566","131938","134148","35034","2847","96894","136152","136676","132943","22358","136152","NA","Sternberg task","16","11735","17","yes","1024"
"94.44444444444444","94.44444444444444","702.5","702.5","black","experiment","legacy","legacy","legacy","0","uniform","1","undefined","1","right","17","17","0","0","17","17","17","0","0","17","17","17","0","17","0","Sun Oct 24 19:39:13 2021","The main experiment item","yes","Sternbergtask.osexp","C:/Users/rayra/Documents","no","mono","no","18","no","white","no","yes","768","legacy","5","11","C:/Users/rayra/Documents/subject-3.csv","legacy","7 4 2 8 1 9","Lentiform Loewenfeld","3.3.9","0","n","0","right","return","return","right","NA","910","19509","10671","910","NA","2","legacy","6","1024","2","48000","-16","experiment","3","odd","5","136682","137862","2843","107566","137864","140070","35034","2847","96894","142075","142986","138865","22358","142075","NA","Sternberg task","17","12645","18","yes","1024"
"94.73684210526316","94.73684210526316","696.1578947368421","696.1578947368421","black","experiment","legacy","legacy","legacy","0","uniform","1","undefined","1","left","18","18","0","0","18","18","18","0","0","18","18","18","0","18","0","Sun Oct 24 19:39:13 2021","The main experiment item","yes","Sternbergtask.osexp","C:/Users/rayra/Documents","no","mono","no","18","no","white","no","yes","768","legacy","6","11","C:/Users/rayra/Documents/subject-3.csv","legacy","9 4 2","Lentiform Loewenfeld","3.3.9","1","y","0","left","return","return","left","NA","582","19509","10671","582","NA","2","legacy","3","1024","2","48000","-16","experiment","3","odd","9","142992","144177","2843","107566","144179","146387","35034","2847","96894","148391","148973","145183","22358","148391","NA","Sternberg task","18","13227","19","yes","1024"
"95","95","715","715","black","experiment","legacy","legacy","legacy","0","uniform","1","undefined","1","left","19","19","0","0","19","19","19","0","0","19","19","19","0","19","0","Sun Oct 24 19:39:13 2021","The main experiment item","yes","Sternbergtask.osexp","C:/Users/rayra/Documents","no","mono","no","18","no","white","no","yes","768","legacy","7","11","C:/Users/rayra/Documents/subject-3.csv","legacy","2 4 8 5 1 3","Lentiform Loewenfeld","3.3.9","1","y","0","left","return","return","left","NA","1073","19509","10671","1073","NA","2","legacy","6","1024","2","48000","-16","experiment","3","odd","2","148981","150152","2843","107566","150154","152360","35034","2847","96894","154363","155436","151158","22358","154363","NA","Sternberg task","19","14300","20","yes","1024"
"95.23809523809524","95.23809523809524","707.5238095238095","707.5238095238095","black","experiment","legacy","legacy","legacy","0","uniform","1","undefined","1","right","20","20","0","0","20","20","20","0","0","20","20","20","0","20","0","Sun Oct 24 19:39:13 2021","The main experiment item","yes","Sternbergtask.osexp","C:/Users/rayra/Documents","no","mono","no","18","no","white","no","yes","768","legacy","8","11","C:/Users/rayra/Documents/subject-3.csv","legacy","5 2","Lentiform Loewenfeld","3.3.9","0","n","0","right","return","return","right","NA","558","19509","10671","558","NA","2","legacy","2","1024","2","48000","-16","experiment","3","odd","7","155442","156641","2843","107566","156644","158852","35034","2847","96894","160857","161415","157648","22358","160856","NA","Sternberg task","20","14858","21","yes","1024"
"90.9090909090909","90.9090909090909","705.7272727272727","705.7272727272727","black","experiment","legacy","legacy","legacy","0","uniform","0","undefined","0","left","21","21","0","0","21","21","21","0","0","21","21","21","0","21","0","Sun Oct 24 19:39:13 2021","The main experiment item","yes","Sternbergtask.osexp","C:/Users/rayra/Documents","no","mono","no","18","no","white","no","yes","768","legacy","9","11","C:/Users/rayra/Documents/subject-3.csv","legacy","3 9 7 6 4","Lentiform Loewenfeld","3.3.9","3","y","0","right","return","return","right","NA","668","19509","10671","668","NA","2","legacy","5","1024","2","48000","-16","experiment","3","odd","7","161422","162599","2843","107566","162602","164810","35034","2847","96894","166814","167482","163606","22358","166814","NA","Sternberg task","20","15526","22","yes","1024"
"91.30434782608695","91.30434782608695","697.7826086956521","697.7826086956521","black","experiment","legacy","legacy","legacy","0","uniform","1","undefined","1","left","22","22","0","0","22","22","22","0","0","22","22","22","0","22","0","Sun Oct 24 19:39:13 2021","The main experiment item","yes","Sternbergtask.osexp","C:/Users/rayra/Documents","no","mono","no","18","no","white","no","yes","768","legacy","10","11","C:/Users/rayra/Documents/subject-3.csv","legacy","7 1 3","Lentiform Loewenfeld","3.3.9","2","y","0","left","return","return","left","NA","523","19509","10671","523","NA","2","legacy","3","1024","2","48000","-16","experiment","3","odd","1","161422","168675","2843","107566","168678","170886","167489","2847","96894","172890","173413","169682","22358","172890","NA","Sternberg task","21","16049","23","yes","1024"
"91.66666666666667","91.66666666666667","689.4166666666666","689.4166666666666","black","experiment","legacy","legacy","legacy","0","uniform","1","undefined","1","left","23","23","0","0","23","23","23","0","0","23","23","23","0","23","0","Sun Oct 24 19:39:13 2021","The main experiment item","yes","Sternbergtask.osexp","C:/Users/rayra/Documents","no","mono","no","18","no","white","no","yes","768","legacy","11","11","C:/Users/rayra/Documents/subject-3.csv","legacy","9 8 4","Lentiform Loewenfeld","3.3.9","1","y","0","left","return","return","left","NA","497","19509","10671","497","NA","2","legacy","3","1024","2","48000","-16","experiment","3","odd","9","173420","174613","2843","107566","174615","176822","167489","2847","96894","178827","179325","175618","22358","178827","NA","Sternberg task","22","16546","24","yes","1024"
"92","92","680.6","680.6","black","experiment","legacy","legacy","legacy","0","uniform","1","undefined","1","left","24","24","0","0","24","24","24","0","0","24","24","24","0","24","0","Sun Oct 24 19:39:13 2021","The main experiment item","yes","Sternbergtask.osexp","C:/Users/rayra/Documents","no","mono","no","18","no","white","no","yes","768","legacy","12","11","C:/Users/rayra/Documents/subject-3.csv","legacy","2 5 4 8 7","Lentiform Loewenfeld","3.3.9","3","y","0","left","return","return","left","NA","469","19509","10671","469","NA","2","legacy","5","1024","2","48000","-16","experiment","3","odd","4","179331","180548","2843","107566","180551","182759","167489","2847","96894","184763","185232","181555","22358","184762","NA","Sternberg task","23","17015","25","yes","1024"
"92.3076923076923","92.3076923076923","694.5384615384615","694.5384615384615","black","experiment","legacy","legacy","legacy","0","uniform","1","undefined","1","right","25","25","0","0","25","25","25","0","0","25","25","25","0","25","0","Sun Oct 24 19:39:13 2021","The main experiment item","yes","Sternbergtask.osexp","C:/Users/rayra/Documents","no","mono","no","18","no","white","no","yes","768","legacy","13","11","C:/Users/rayra/Documents/subject-3.csv","legacy","3 4 9 6 7 8","Lentiform Loewenfeld","3.3.9","0","n","0","right","return","return","right","NA","1043","19509","10671","1043","NA","2","legacy","6","1024","2","48000","-16","experiment","3","odd","2","185239","186446","2843","107566","186448","188656","167489","2847","96894","190661","191705","187452","22358","190661","NA","Sternberg task","24","18058","26","yes","1024"
"92.5925925925926","92.5925925925926","686.1481481481482","686.1481481481482","black","experiment","legacy","legacy","legacy","0","uniform","1","undefined","1","right","26","26","0","0","26","26","26","0","0","26","26","26","0","26","0","Sun Oct 24 19:39:13 2021","The main experiment item","yes","Sternbergtask.osexp","C:/Users/rayra/Documents","no","mono","no","18","no","white","no","yes","768","legacy","14","11","C:/Users/rayra/Documents/subject-3.csv","legacy","9","Lentiform Loewenfeld","3.3.9","0","n","0","right","return","return","right","NA","468","19509","10671","468","NA","2","legacy","1","1024","2","48000","-16","experiment","3","odd","6","191712","192890","2843","107566","192892","195101","167489","2847","96894","197105","197574","193897","22358","197105","NA","Sternberg task","25","18526","27","yes","1024"
"92.85714285714286","92.85714285714286","683.9642857142857","683.9642857142857","black","experiment","legacy","legacy","legacy","0","uniform","1","undefined","1","right","27","27","0","0","27","27","27","0","0","27","27","27","0","27","0","Sun Oct 24 19:39:13 2021","The main experiment item","yes","Sternbergtask.osexp","C:/Users/rayra/Documents","no","mono","no","18","no","white","no","yes","768","legacy","15","11","C:/Users/rayra/Documents/subject-3.csv","legacy","1 8 7","Lentiform Loewenfeld","3.3.9","0","n","0","right","return","return","right","NA","625","19509","10671","625","NA","2","legacy","3","1024","2","48000","-16","experiment","3","odd","4","197581","198789","2843","107566","198792","201000","167489","2847","96894","203004","203630","199796","22358","203004","NA","Sternberg task","26","19151","28","yes","1024"
"93.10344827586206","93.10344827586206","686.2413793103449","686.2413793103449","black","experiment","legacy","legacy","legacy","0","uniform","1","undefined","1","left","28","28","0","0","28","28","28","0","0","28","28","28","0","28","0","Sun Oct 24 19:39:13 2021","The main experiment item","yes","Sternbergtask.osexp","C:/Users/rayra/Documents","no","mono","no","18","no","white","no","yes","768","legacy","16","11","C:/Users/rayra/Documents/subject-3.csv","legacy","3 4","Lentiform Loewenfeld","3.3.9","1","y","0","left","return","return","left","NA","750","19509","10671","750","NA","2","legacy","2","1024","2","48000","-16","experiment","3","odd","3","203653","204873","2843","107566","204875","207084","167489","2847","96894","209088","209839","205880","22358","209088","NA","Sternberg task","27","19901","29","yes","1024"
"93.33333333333333","93.33333333333333","678.6","678.6","black","experiment","legacy","legacy","legacy","0","uniform","1","undefined","1","right","29","29","0","0","29","29","29","0","0","29","29","29","0","29","0","Sun Oct 24 19:39:13 2021","The main experiment item","yes","Sternbergtask.osexp","C:/Users/rayra/Documents","no","mono","no","18","no","white","no","yes","768","legacy","17","11","C:/Users/rayra/Documents/subject-3.csv","legacy","4 1","Lentiform Loewenfeld","3.3.9","0","n","0","right","return","return","right","NA","457","19509","10671","457","NA","2","legacy","2","1024","2","48000","-16","experiment","3","odd","6","209845","211065","2843","107566","211068","213277","167489","2847","96894","215282","215739","212072","22358","215282","NA","Sternberg task","28","20358","30","yes","1024"
"90.3225806451613","90.3225806451613","684.3225806451613","684.3225806451613","black","experiment","legacy","legacy","legacy","0","uniform","0","undefined","0","left","30","30","0","0","30","30","30","0","0","30","30","30","0","30","0","Sun Oct 24 19:39:13 2021","The main experiment item","yes","Sternbergtask.osexp","C:/Users/rayra/Documents","no","mono","no","18","no","white","no","yes","768","legacy","18","11","C:/Users/rayra/Documents/subject-3.csv","legacy","5 2 6","Lentiform Loewenfeld","3.3.9","2","y","0","right","return","return","right","NA","856","19509","10671","856","NA","2","legacy","3","1024","2","48000","-16","experiment","3","odd","2","215745","216922","2843","107566","216924","219133","167489","2847","96894","221137","221993","217928","22358","221137","NA","Sternberg task","28","21214","31","yes","1024"
"90.625","90.625","679.21875","679.21875","black","experiment","legacy","legacy","legacy","0","uniform","1","undefined","1","left","31","31","0","0","31","31","31","0","0","31","31","31","0","31","0","Sun Oct 24 19:39:13 2021","The main experiment item","yes","Sternbergtask.osexp","C:/Users/rayra/Documents","no","mono","no","18","no","white","no","yes","768","legacy","19","11","C:/Users/rayra/Documents/subject-3.csv","legacy","7","Lentiform Loewenfeld","3.3.9","1","y","0","left","return","return","left","NA","521","19509","10671","521","NA","2","legacy","1","1024","2","48000","-16","experiment","3","odd","7","215745","223184","2843","107566","223187","225396","221999","2847","96894","227400","227921","224190","22358","227400","NA","Sternberg task","29","21735","32","yes","1024"
"90.9090909090909","90.9090909090909","690.6666666666666","690.6666666666666","black","experiment","legacy","legacy","legacy","0","uniform","1","undefined","1","left","32","32","0","0","32","32","32","0","0","32","32","32","0","32","0","Sun Oct 24 19:39:13 2021","The main experiment item","yes","Sternbergtask.osexp","C:/Users/rayra/Documents","no","mono","no","18","no","white","no","yes","768","legacy","20","11","C:/Users/rayra/Documents/subject-3.csv","legacy","4 9 7 8 5 3","Lentiform Loewenfeld","3.3.9","4","y","0","left","return","return","left","NA","1057","19509","10671","1057","NA","2","legacy","6","1024","2","48000","-16","experiment","3","odd","8","227931","229110","2843","107566","229113","231323","221999","2847","96894","233327","234385","230118","22358","233327","NA","Sternberg task","30","22792","33","yes","1024"
"91.17647058823529","91.17647058823529","683.8235294117648","683.8235294117648","black","experiment","legacy","legacy","legacy","0","uniform","1","undefined","1","left","33","33","0","0","33","33","33","0","0","33","33","33","0","33","0","Sun Oct 24 19:39:13 2021","The main experiment item","yes","Sternbergtask.osexp","C:/Users/rayra/Documents","no","mono","no","18","no","white","no","yes","768","legacy","21","11","C:/Users/rayra/Documents/subject-3.csv","legacy","2 3 7 4","Lentiform Loewenfeld","3.3.9","1","y","0","left","return","return","left","NA","458","19509","10671","458","NA","2","legacy","4","1024","2","48000","-16","experiment","3","odd","2","234391","235592","2843","107566","235594","237803","221999","2847","96894","239807","240266","236599","22358","239806","NA","Sternberg task","31","23250","34","yes","1024"
"91.42857142857143","91.42857142857143","686.4285714285714","686.4285714285714","black","experiment","legacy","legacy","legacy","0","uniform","1","undefined","1","left","34","34","0","0","34","34","34","0","0","34","34","34","0","34","0","Sun Oct 24 19:39:13 2021","The main experiment item","yes","Sternbergtask.osexp","C:/Users/rayra/Documents","no","mono","no","18","no","white","no","yes","768","legacy","22","11","C:/Users/rayra/Documents/subject-3.csv","legacy","3 5 9 6 2 4","Lentiform Loewenfeld","3.3.9","1","y","0","left","return","return","left","NA","775","19509","10671","775","NA","2","legacy","6","1024","2","48000","-16","experiment","3","odd","3","240270","241448","2843","107566","241451","243660","221999","2847","96894","245665","246441","242456","22358","245664","NA","Sternberg task","32","24025","35","yes","1024"
"91.66666666666667","91.66666666666667","689.0277777777778","689.0277777777778","black","experiment","legacy","legacy","legacy","0","uniform","1","undefined","1","right","35","35","0","0","35","35","35","0","0","35","35","35","0","35","0","Sun Oct 24 19:39:13 2021","The main experiment item","yes","Sternbergtask.osexp","C:/Users/rayra/Documents","no","mono","no","18","no","white","no","yes","768","legacy","23","11","C:/Users/rayra/Documents/subject-3.csv","legacy","5 7 3","Lentiform Loewenfeld","3.3.9","0","n","0","right","return","return","right","NA","780","19509","10671","780","NA","2","legacy","3","1024","2","48000","-16","experiment","3","odd","9","246447","247622","2843","107566","247624","249833","221999","2847","96894","251839","252620","248629","22358","251839","NA","Sternberg task","33","24805","36","yes","1024"
"91.89189189189189","91.89189189189189","686.7297297297297","686.7297297297297","black","experiment","legacy","legacy","legacy","0","uniform","1","undefined","1","left","36","36","0","0","36","36","36","0","0","36","36","36","0","36","0","Sun Oct 24 19:39:13 2021","The main experiment item","yes","Sternbergtask.osexp","C:/Users/rayra/Documents","no","mono","no","18","no","white","no","yes","768","legacy","24","11","C:/Users/rayra/Documents/subject-3.csv","legacy","6 5","Lentiform Loewenfeld","3.3.9","2","y","0","left","return","return","left","NA","604","19509","10671","604","NA","2","legacy","2","1024","2","48000","-16","experiment","3","odd","5","252626","253824","2843","107566","253826","256034","221999","2847","96894","258038","258642","254830","22358","258038","NA","Sternberg task","34","25409","37","yes","1024"
"92.10526315789474","92.10526315789474","685.2894736842105","685.2894736842105","black","experiment","legacy","legacy","legacy","0","uniform","1","undefined","1","left","37","37","0","0","37","37","37","0","0","37","37","37","0","37","0","Sun Oct 24 19:39:13 2021","The main experiment item","yes","Sternbergtask.osexp","C:/Users/rayra/Documents","no","mono","no","18","no","white","no","yes","768","legacy","25","11","C:/Users/rayra/Documents/subject-3.csv","legacy","8 1 6","Lentiform Loewenfeld","3.3.9","3","y","0","left","return","return","left","NA","632","19509","10671","632","NA","2","legacy","3","1024","2","48000","-16","experiment","3","odd","6","258648","259853","2843","107566","259855","262062","221999","2847","96894","264067","264700","260858","22358","264066","NA","Sternberg task","35","26041","38","yes","1024"
"92.3076923076923","92.3076923076923","682","682","black","experiment","legacy","legacy","legacy","0","uniform","1","undefined","1","right","38","38","0","0","38","38","38","0","0","38","38","38","0","38","0","Sun Oct 24 19:39:13 2021","The main experiment item","yes","Sternbergtask.osexp","C:/Users/rayra/Documents","no","mono","no","18","no","white","no","yes","768","legacy","26","11","C:/Users/rayra/Documents/subject-3.csv","legacy","2 7 5","Lentiform Loewenfeld","3.3.9","0","n","0","right","return","return","right","NA","557","19509","10671","557","NA","2","legacy","3","1024","2","48000","-16","experiment","3","odd","8","264706","265911","2843","107566","265913","268123","221999","2847","96894","270127","270685","266918","22358","270127","NA","Sternberg task","36","26598","39","yes","1024"
"92.5","92.5","683.2","683.2","black","experiment","legacy","legacy","legacy","0","uniform","1","undefined","1","left","39","39","0","0","39","39","39","0","0","39","39","39","0","39","0","Sun Oct 24 19:39:13 2021","The main experiment item","yes","Sternbergtask.osexp","C:/Users/rayra/Documents","no","mono","no","18","no","white","no","yes","768","legacy","27","11","C:/Users/rayra/Documents/subject-3.csv","legacy","9 1 7 2","Lentiform Loewenfeld","3.3.9","2","y","0","left","return","return","left","NA","730","19509","10671","730","NA","2","legacy","4","1024","2","48000","-16","experiment","3","odd","1","270691","271883","2843","107566","271886","274094","221999","2847","96894","276099","276830","272890","22358","276098","NA","Sternberg task","37","27328","40","yes","1024"
"92.6829268292683","92.6829268292683","677.560975609756","677.560975609756","black","experiment","legacy","legacy","legacy","0","uniform","1","undefined","1","right","40","40","0","0","40","40","40","0","0","40","40","40","0","40","0","Sun Oct 24 19:39:13 2021","The main experiment item","yes","Sternbergtask.osexp","C:/Users/rayra/Documents","no","mono","no","18","no","white","no","yes","768","legacy","28","11","C:/Users/rayra/Documents/subject-3.csv","legacy","7 1","Lentiform Loewenfeld","3.3.9","0","n","0","right","return","return","right","NA","452","19509","10671","452","NA","2","legacy","2","1024","2","48000","-16","experiment","3","odd","8","276835","278017","2843","107566","278020","280229","221999","2847","96894","282233","282686","279024","22358","282233","NA","Sternberg task","38","27780","41","yes","1024"
"92.85714285714286","92.85714285714286","675.452380952381","675.452380952381","black","experiment","legacy","legacy","legacy","0","uniform","1","undefined","1","right","41","41","0","0","41","41","41","0","0","41","41","41","0","41","0","Sun Oct 24 19:39:13 2021","The main experiment item","yes","Sternbergtask.osexp","C:/Users/rayra/Documents","no","mono","no","18","no","white","no","yes","768","legacy","29","11","C:/Users/rayra/Documents/subject-3.csv","legacy","9 5 3 2 8 6","Lentiform Loewenfeld","3.3.9","0","n","0","right","return","return","right","NA","589","19509","10671","589","NA","2","legacy","6","1024","2","48000","-16","experiment","3","odd","7","282691","283907","2843","107566","283909","286118","221999","2847","96894","288122","288713","284913","22358","288122","NA","Sternberg task","39","28369","42","yes","1024"
"93.02325581395348","93.02325581395348","679.3953488372093","679.3953488372093","black","experiment","legacy","legacy","legacy","0","uniform","1","undefined","1","left","42","42","0","0","42","42","42","0","0","42","42","42","0","42","0","Sun Oct 24 19:39:13 2021","The main experiment item","yes","Sternbergtask.osexp","C:/Users/rayra/Documents","no","mono","no","18","no","white","no","yes","768","legacy","30","11","C:/Users/rayra/Documents/subject-3.csv","legacy","7 8 6 3 1","Lentiform Loewenfeld","3.3.9","5","y","0","left","return","return","left","NA","845","19509","10671","845","NA","2","legacy","5","1024","2","48000","-16","experiment","3","odd","1","288721","289921","2843","107566","289924","292134","221999","2847","96894","294139","294985","290928","22358","294139","NA","Sternberg task","40","29214","43","yes","1024"
"93.18181818181819","93.18181818181819","672.9318181818181","672.9318181818181","black","experiment","legacy","legacy","legacy","0","uniform","1","undefined","1","left","43","43","0","0","43","43","43","0","0","43","43","43","0","43","0","Sun Oct 24 19:39:13 2021","The main experiment item","yes","Sternbergtask.osexp","C:/Users/rayra/Documents","no","mono","no","18","no","white","no","yes","768","legacy","31","11","C:/Users/rayra/Documents/subject-3.csv","legacy","2 3","Lentiform Loewenfeld","3.3.9","1","y","0","left","return","return","left","NA","395","19509","10671","395","NA","2","legacy","2","1024","2","48000","-16","experiment","3","odd","2","295007","296210","2843","107566","296212","298422","221999","2847","96894","300426","300822","297218","22358","300426","NA","Sternberg task","41","29609","44","yes","1024"
"93.33333333333333","93.33333333333333","670.3333333333334","670.3333333333334","black","experiment","legacy","legacy","legacy","0","uniform","1","undefined","1","left","44","44","0","0","44","44","44","0","0","44","44","44","0","44","0","Sun Oct 24 19:39:13 2021","The main experiment item","yes","Sternbergtask.osexp","C:/Users/rayra/Documents","no","mono","no","18","no","white","no","yes","768","legacy","32","11","C:/Users/rayra/Documents/subject-3.csv","legacy","3 2 1 4 7","Lentiform Loewenfeld","3.3.9","2","y","0","left","return","return","left","NA","556","19509","10671","556","NA","2","legacy","5","1024","2","48000","-16","experiment","3","odd","2","300829","302033","2843","107566","302035","304244","221999","2847","96894","306249","306806","303039","22358","306248","NA","Sternberg task","42","30165","45","yes","1024"
"93.47826086956522","93.47826086956522","669.8913043478261","669.8913043478261","black","experiment","legacy","legacy","legacy","0","uniform","1","undefined","1","left","45","45","0","0","45","45","45","0","0","45","45","45","0","45","0","Sun Oct 24 19:39:13 2021","The main experiment item","yes","Sternbergtask.osexp","C:/Users/rayra/Documents","no","mono","no","18","no","white","no","yes","768","legacy","33","11","C:/Users/rayra/Documents/subject-3.csv","legacy","4 6 2 5 1","Lentiform Loewenfeld","3.3.9","5","y","0","left","return","return","left","NA","650","19509","10671","650","NA","2","legacy","5","1024","2","48000","-16","experiment","3","odd","1","306812","308014","2843","107566","308017","310226","221999","2847","96894","312231","312881","309021","22358","312230","NA","Sternberg task","43","30815","46","yes","1024"
"93.61702127659575","93.61702127659575","667.5957446808511","667.5957446808511","black","experiment","legacy","legacy","legacy","0","uniform","1","undefined","1","right","46","46","0","0","46","46","46","0","0","46","46","46","0","46","0","Sun Oct 24 19:39:13 2021","The main experiment item","yes","Sternbergtask.osexp","C:/Users/rayra/Documents","no","mono","no","18","no","white","no","yes","768","legacy","34","11","C:/Users/rayra/Documents/subject-3.csv","legacy","1 7 8 3 9","Lentiform Loewenfeld","3.3.9","0","n","0","right","return","return","right","NA","562","19509","10671","562","NA","2","legacy","5","1024","2","48000","-16","experiment","3","odd","2","312888","314076","2843","107566","314078","316286","221999","2847","96894","318290","318852","315082","22358","318289","NA","Sternberg task","44","31377","47","yes","1024"
"93.75","93.75","664.1875","664.1875","black","experiment","legacy","legacy","legacy","0","uniform","1","undefined","1","left","47","47","0","0","47","47","47","0","0","47","47","47","0","47","0","Sun Oct 24 19:39:13 2021","The main experiment item","yes","Sternbergtask.osexp","C:/Users/rayra/Documents","no","mono","no","18","no","white","no","yes","768","legacy","35","11","C:/Users/rayra/Documents/subject-3.csv","legacy","6 9 3 1","Lentiform Loewenfeld","3.3.9","4","y","0","left","return","return","left","NA","504","19509","10671","504","NA","2","legacy","4","1024","2","48000","-16","experiment","3","odd","1","318858","320029","2843","107566","320032","322242","221999","2847","96894","324246","324751","321037","22358","324246","NA","Sternberg task","45","31881","48","yes","1024"
"93.87755102040816","93.87755102040816","663.265306122449","663.265306122449","black","experiment","legacy","legacy","legacy","0","uniform","1","undefined","1","right","48","48","0","0","48","48","48","0","0","48","48","48","0","48","0","Sun Oct 24 19:39:13 2021","The main experiment item","yes","Sternbergtask.osexp","C:/Users/rayra/Documents","no","mono","no","18","no","white","no","yes","768","legacy","36","11","C:/Users/rayra/Documents/subject-3.csv","legacy","6 8 4","Lentiform Loewenfeld","3.3.9","0","n","0","right","return","return","right","NA","619","19509","10671","619","NA","2","legacy","3","1024","2","48000","-16","experiment","3","odd","1","324757","325937","2843","107566","325940","328149","221999","2847","96894","330153","330773","326944","22358","330153","NA","Sternberg task","46","32500","49","yes","1024"
"92","92","659.7","659.7","black","experiment","legacy","legacy","legacy","0","uniform","0","undefined","0","right","49","49","0","0","49","49","49","0","0","49","49","49","0","49","0","Sun Oct 24 19:39:13 2021","The main experiment item","yes","Sternbergtask.osexp","C:/Users/rayra/Documents","no","mono","no","18","no","white","no","yes","768","legacy","37","11","C:/Users/rayra/Documents/subject-3.csv","legacy","6 2 9 3 8 4","Lentiform Loewenfeld","3.3.9","0","n","0","left","return","return","left","NA","485","19509","10671","485","NA","2","legacy","6","1024","2","48000","-16","experiment","3","odd","1","330779","332004","2843","107566","332006","334216","221999","2847","96894","336220","336705","333010","22358","336220","NA","Sternberg task","46","32985","50","yes","1024"
"90.19607843137256","90.19607843137256","671.156862745098","671.156862745098","black","experiment","legacy","legacy","legacy","0","uniform","0","undefined","0","right","50","50","0","0","50","50","50","0","0","50","50","50","0","50","0","Sun Oct 24 19:39:13 2021","The main experiment item","yes","Sternbergtask.osexp","C:/Users/rayra/Documents","no","mono","no","18","no","white","no","yes","768","legacy","38","11","C:/Users/rayra/Documents/subject-3.csv","legacy","6 9 5","Lentiform Loewenfeld","3.3.9","0","n","0","left","return","return","left","NA","1244","19509","10671","1244","NA","2","legacy","3","1024","2","48000","-16","experiment","3","odd","8","330779","337902","2843","107566","337904","340114","336712","2847","96894","342118","343363","338909","22358","342118","NA","Sternberg task","46","34229","51","yes","1024"
"90.38461538461539","90.38461538461539","678.4615384615385","678.4615384615385","black","experiment","legacy","legacy","legacy","0","uniform","1","undefined","1","left","51","51","0","0","51","51","51","0","0","51","51","51","0","51","0","Sun Oct 24 19:39:13 2021","The main experiment item","yes","Sternbergtask.osexp","C:/Users/rayra/Documents","no","mono","no","18","no","white","no","yes","768","legacy","39","11","C:/Users/rayra/Documents/subject-3.csv","legacy","6 8 9 3 4 9","Lentiform Loewenfeld","3.3.9","5","y","0","left","return","return","left","NA","1051","19509","10671","1051","NA","2","legacy","6","1024","2","48000","-16","experiment","3","odd","4","330779","344577","2843","107566","344579","346787","343384","2847","96894","348791","349843","345583","22358","348791","NA","Sternberg task","47","35280","52","yes","1024"
"90.56603773584905","90.56603773584905","679.3207547169811","679.3207547169811","black","experiment","legacy","legacy","legacy","0","uniform","1","undefined","1","left","52","52","0","0","52","52","52","0","0","52","52","52","0","52","0","Sun Oct 24 19:39:13 2021","The main experiment item","yes","Sternbergtask.osexp","C:/Users/rayra/Documents","no","mono","no","18","no","white","no","yes","768","legacy","40","11","C:/Users/rayra/Documents/subject-3.csv","legacy","2 6 1 7 4","Lentiform Loewenfeld","3.3.9","2","y","0","left","return","return","left","NA","724","19509","10671","724","NA","2","legacy","5","1024","2","48000","-16","experiment","3","odd","6","349851","351058","2843","107566","351059","353268","343384","2847","96894","355272","355997","352063","22358","355272","NA","Sternberg task","48","36004","53","yes","1024"
"90.74074074074075","90.74074074074075","677.9074074074074","677.9074074074074","black","experiment","legacy","legacy","legacy","0","uniform","1","undefined","1","right","53","53","0","0","53","53","53","0","0","53","53","53","0","53","0","Sun Oct 24 19:39:13 2021","The main experiment item","yes","Sternbergtask.osexp","C:/Users/rayra/Documents","no","mono","no","18","no","white","no","yes","768","legacy","41","11","C:/Users/rayra/Documents/subject-3.csv","legacy","4 2 7 6 1 3","Lentiform Loewenfeld","3.3.9","0","n","0","right","return","return","right","NA","603","19509","10671","603","NA","2","legacy","6","1024","2","48000","-16","experiment","3","odd","8","356003","357182","2843","107566","357183","359388","343384","2847","96894","361392","361996","358185","22358","361392","NA","Sternberg task","49","36607","54","yes","1024"
"90.9090909090909","90.9090909090909","677.4909090909091","677.4909090909091","black","experiment","legacy","legacy","legacy","0","uniform","1","undefined","1","right","54","54","0","0","54","54","54","0","0","54","54","54","0","54","0","Sun Oct 24 19:39:13 2021","The main experiment item","yes","Sternbergtask.osexp","C:/Users/rayra/Documents","no","mono","no","18","no","white","no","yes","768","legacy","42","11","C:/Users/rayra/Documents/subject-3.csv","legacy","1 7 5 2 9","Lentiform Loewenfeld","3.3.9","0","n","0","right","return","return","right","NA","655","19509","10671","655","NA","2","legacy","5","1024","2","48000","-16","experiment","3","odd","3","362004","363201","2843","107566","363203","365413","343384","2847","96894","367418","368074","364208","22358","367418","NA","Sternberg task","50","37262","55","yes","1024"
"89.28571428571429","89.28571428571429","674.125","674.125","black","experiment","legacy","legacy","legacy","0","uniform","0","undefined","0","right","55","55","0","0","55","55","55","0","0","55","55","55","0","55","0","Sun Oct 24 19:39:13 2021","The main experiment item","yes","Sternbergtask.osexp","C:/Users/rayra/Documents","no","mono","no","18","no","white","no","yes","768","legacy","43","11","C:/Users/rayra/Documents/subject-3.csv","legacy","1 7 5 2","Lentiform Loewenfeld","3.3.9","0","n","0","left","return","return","left","NA","489","19509","10671","489","NA","2","legacy","4","1024","2","48000","-16","experiment","3","odd","3","368079","369300","2843","107566","369302","371511","343384","2847","96894","373515","374006","370306","22358","373515","NA","Sternberg task","50","37751","56","yes","1024"
"89.47368421052632","89.47368421052632","672.8947368421053","672.8947368421053","black","experiment","legacy","legacy","legacy","0","uniform","1","undefined","1","right","56","56","0","0","56","56","56","0","0","56","56","56","0","56","0","Sun Oct 24 19:39:13 2021","The main experiment item","yes","Sternbergtask.osexp","C:/Users/rayra/Documents","no","mono","no","18","no","white","no","yes","768","legacy","44","11","C:/Users/rayra/Documents/subject-3.csv","legacy","7 3 2 8","Lentiform Loewenfeld","3.3.9","0","n","0","right","return","return","right","NA","604","19509","10671","604","NA","2","legacy","4","1024","2","48000","-16","experiment","3","odd","4","368079","375206","2843","107566","375208","377419","374014","2847","96894","379423","380028","376213","22358","379423","NA","Sternberg task","51","38355","57","yes","1024"
"89.65517241379311","89.65517241379311","669.0862068965517","669.0862068965517","black","experiment","legacy","legacy","legacy","0","uniform","1","undefined","1","right","57","57","0","0","57","57","57","0","0","57","57","57","0","57","0","Sun Oct 24 19:39:13 2021","The main experiment item","yes","Sternbergtask.osexp","C:/Users/rayra/Documents","no","mono","no","18","no","white","no","yes","768","legacy","45","11","C:/Users/rayra/Documents/subject-3.csv","legacy","1","Lentiform Loewenfeld","3.3.9","0","n","0","right","return","return","right","NA","452","19509","10671","452","NA","2","legacy","1","1024","2","48000","-16","experiment","3","odd","7","380049","381234","2843","107566","381236","383444","374014","2847","96894","385450","385902","382240","22358","385450","NA","Sternberg task","52","38807","58","yes","1024"
"89.83050847457628","89.83050847457628","671.6271186440678","671.6271186440678","black","experiment","legacy","legacy","legacy","0","uniform","1","undefined","1","left","58","58","0","0","58","58","58","0","0","58","58","58","0","58","0","Sun Oct 24 19:39:13 2021","The main experiment item","yes","Sternbergtask.osexp","C:/Users/rayra/Documents","no","mono","no","18","no","white","no","yes","768","legacy","46","11","C:/Users/rayra/Documents/subject-3.csv","legacy","4 1 8 7 5","Lentiform Loewenfeld","3.3.9","3","y","0","left","return","return","left","NA","819","19509","10671","819","NA","2","legacy","5","1024","2","48000","-16","experiment","3","odd","8","385909","387094","2843","107566","387097","389307","374014","2847","96894","391312","392132","388101","22358","391312","NA","Sternberg task","53","39626","59","yes","1024"
"90","90","670.75","670.75","black","experiment","legacy","legacy","legacy","0","uniform","1","undefined","1","right","59","59","0","0","59","59","59","0","0","59","59","59","0","59","0","Sun Oct 24 19:39:13 2021","The main experiment item","yes","Sternbergtask.osexp","C:/Users/rayra/Documents","no","mono","no","18","no","white","no","yes","768","legacy","47","11","C:/Users/rayra/Documents/subject-3.csv","legacy","2 8 7 9 5 3","Lentiform Loewenfeld","3.3.9","0","n","0","right","return","return","right","NA","619","19509","10671","619","NA","2","legacy","6","1024","2","48000","-16","experiment","3","odd","6","392138","393341","2843","107566","393343","395552","374014","2847","96894","397556","398177","394347","22358","397556","NA","Sternberg task","54","40245","60","yes","1024"
"90.1639344262295","90.1639344262295","666.8524590163935","666.8524590163935","black","experiment","legacy","legacy","legacy","0","uniform","1","undefined","1","left","60","60","0","0","60","60","60","0","0","60","60","60","0","60","0","Sun Oct 24 19:39:13 2021","The main experiment item","yes","Sternbergtask.osexp","C:/Users/rayra/Documents","no","mono","no","18","no","white","no","yes","768","legacy","48","11","C:/Users/rayra/Documents/subject-3.csv","legacy","4","Lentiform Loewenfeld","3.3.9","1","y","0","left","return","return","left","NA","433","19509","10671","433","NA","2","legacy","1","1024","2","48000","-16","experiment","3","odd","4","398183","399356","2843","107566","399358","401566","374014","2847","96894","403571","404005","400362","22358","403570","NA","Sternberg task","55","40678","61","yes","1024"
"90.3225806451613","90.3225806451613","671.6612903225806","671.6612903225806","black","experiment","legacy","legacy","legacy","0","uniform","1","undefined","1","right","61","61","0","0","61","61","61","0","0","61","61","61","0","61","0","Sun Oct 24 19:39:13 2021","The main experiment item","yes","Sternbergtask.osexp","C:/Users/rayra/Documents","no","mono","no","18","no","white","no","yes","768","legacy","49","11","C:/Users/rayra/Documents/subject-3.csv","legacy","1 6 4 3 9 7","Lentiform Loewenfeld","3.3.9","0","n","0","right","return","return","right","NA","965","19509","10671","965","NA","2","legacy","6","1024","2","48000","-16","experiment","3","odd","8","404011","405239","2843","107566","405242","407451","374014","2847","96894","409455","410421","406246","22358","409455","NA","Sternberg task","56","41643","62","yes","1024"
"90.47619047619048","90.47619047619048","670.984126984127","670.984126984127","black","experiment","legacy","legacy","legacy","0","uniform","1","undefined","1","right","62","62","0","0","62","62","62","0","0","62","62","62","0","62","0","Sun Oct 24 19:39:13 2021","The main experiment item","yes","Sternbergtask.osexp","C:/Users/rayra/Documents","no","mono","no","18","no","white","no","yes","768","legacy","50","11","C:/Users/rayra/Documents/subject-3.csv","legacy","2 6 4 3 9","Lentiform Loewenfeld","3.3.9","0","n","0","right","return","return","right","NA","629","19509","10671","629","NA","2","legacy","5","1024","2","48000","-16","experiment","3","odd","1","410427","411620","2843","107566","411622","413831","374014","2847","96894","415835","416466","412626","22358","415835","NA","Sternberg task","57","42272","63","yes","1024"
"90.625","90.625","672.390625","672.390625","black","experiment","legacy","legacy","legacy","0","uniform","1","undefined","1","right","63","63","0","0","63","63","63","0","0","63","63","63","0","63","0","Sun Oct 24 19:39:13 2021","The main experiment item","yes","Sternbergtask.osexp","C:/Users/rayra/Documents","no","mono","no","18","no","white","no","yes","768","legacy","51","11","C:/Users/rayra/Documents/subject-3.csv","legacy","1 5 3 2 8","Lentiform Loewenfeld","3.3.9","0","n","0","right","return","return","right","NA","761","19509","10671","761","NA","2","legacy","5","1024","2","48000","-16","experiment","3","odd","4","416473","417680","2843","107566","417682","419892","374014","2847","96894","421897","422659","418687","22358","421897","NA","Sternberg task","58","43033","64","yes","1024"
"89.23076923076923","89.23076923076923","673.6769230769231","673.6769230769231","black","experiment","legacy","legacy","legacy","0","uniform","0","undefined","0","left","64","64","0","0","64","64","64","0","0","64","64","64","0","64","0","Sun Oct 24 19:39:13 2021","The main experiment item","yes","Sternbergtask.osexp","C:/Users/rayra/Documents","no","mono","no","18","no","white","no","yes","768","legacy","52","11","C:/Users/rayra/Documents/subject-3.csv","legacy","9 5 8 1","Lentiform Loewenfeld","3.3.9","2","y","0","right","return","return","right","NA","756","19509","10671","756","NA","2","legacy","4","1024","2","48000","-16","experiment","3","odd","5","422665","423836","2843","107566","423838","426047","374014","2847","96894","428051","428808","424842","22358","428051","NA","Sternberg task","58","43789","65","yes","1024"
"89.39393939393939","89.39393939393939","671.0757575757576","671.0757575757576","black","experiment","legacy","legacy","legacy","0","uniform","1","undefined","1","right","65","65","0","0","65","65","65","0","0","65","65","65","0","65","0","Sun Oct 24 19:39:13 2021","The main experiment item","yes","Sternbergtask.osexp","C:/Users/rayra/Documents","no","mono","no","18","no","white","no","yes","768","legacy","53","11","C:/Users/rayra/Documents/subject-3.csv","legacy","3 9 1","Lentiform Loewenfeld","3.3.9","0","n","0","right","return","return","right","NA","502","19509","10671","502","NA","2","legacy","3","1024","2","48000","-16","experiment","3","odd","7","422665","430011","2843","107566","430013","432221","428830","2847","96894","434226","434728","431017","22358","434226","NA","Sternberg task","59","44291","66","yes","1024"
"89.55223880597015","89.55223880597015","676.9104477611941","676.9104477611941","black","experiment","legacy","legacy","legacy","0","uniform","1","undefined","1","left","66","66","0","0","66","66","66","0","0","66","66","66","0","66","0","Sun Oct 24 19:39:13 2021","The main experiment item","yes","Sternbergtask.osexp","C:/Users/rayra/Documents","no","mono","no","18","no","white","no","yes","768","legacy","54","11","C:/Users/rayra/Documents/subject-3.csv","legacy","6 9 7 4 5 1","Lentiform Loewenfeld","3.3.9","2","y","0","left","return","return","left","NA","1062","19509","10671","1062","NA","2","legacy","6","1024","2","48000","-16","experiment","3","odd","9","434735","435921","2843","107566","435923","438131","428830","2847","96894","440135","441198","436927","22358","440135","NA","Sternberg task","60","45353","67","yes","1024"
"89.70588235294117","89.70588235294117","677.9558823529412","677.9558823529412","black","experiment","legacy","legacy","legacy","0","uniform","1","undefined","1","left","67","67","0","0","67","67","67","0","0","67","67","67","0","67","0","Sun Oct 24 19:39:13 2021","The main experiment item","yes","Sternbergtask.osexp","C:/Users/rayra/Documents","no","mono","no","18","no","white","no","yes","768","legacy","55","11","C:/Users/rayra/Documents/subject-3.csv","legacy","8 7 3","Lentiform Loewenfeld","3.3.9","1","y","0","left","return","return","left","NA","748","19509","10671","748","NA","2","legacy","3","1024","2","48000","-16","experiment","3","odd","8","441204","442368","2843","107566","442370","444577","428830","2847","96894","446582","447332","443374","22358","446581","NA","Sternberg task","61","46101","68","yes","1024"
"89.85507246376811","89.85507246376811","679.304347826087","679.304347826087","black","experiment","legacy","legacy","legacy","0","uniform","1","undefined","1","right","68","68","0","0","68","68","68","0","0","68","68","68","0","68","0","Sun Oct 24 19:39:13 2021","The main experiment item","yes","Sternbergtask.osexp","C:/Users/rayra/Documents","no","mono","no","18","no","white","no","yes","768","legacy","56","11","C:/Users/rayra/Documents/subject-3.csv","legacy","3 9 8 1 6 4","Lentiform Loewenfeld","3.3.9","0","n","0","right","return","return","right","NA","771","19509","10671","771","NA","2","legacy","6","1024","2","48000","-16","experiment","3","odd","7","447338","448519","2843","107566","448521","450730","428830","2847","96894","452734","453506","449526","22358","452734","NA","Sternberg task","62","46872","69","yes","1024"
"88.57142857142857","88.57142857142857","685.7142857142857","685.7142857142857","black","experiment","legacy","legacy","legacy","0","uniform","0","undefined","0","right","69","69","0","0","69","69","69","0","0","69","69","69","0","69","0","Sun Oct 24 19:39:13 2021","The main experiment item","yes","Sternbergtask.osexp","C:/Users/rayra/Documents","no","mono","no","18","no","white","no","yes","768","legacy","57","11","C:/Users/rayra/Documents/subject-3.csv","legacy","8 4 3 9","Lentiform Loewenfeld","3.3.9","0","n","0","left","return","return","left","NA","1128","19509","10671","1128","NA","2","legacy","4","1024","2","48000","-16","experiment","3","odd","5","453513","454700","2843","107566","454702","456912","428830","2847","96894","458918","460048","455706","22358","458916","NA","Sternberg task","62","48000","70","yes","1024"
"87.32394366197182","87.32394366197182","686.7746478873239","686.7746478873239","black","experiment","legacy","legacy","legacy","0","uniform","0","undefined","0","right","70","70","0","0","70","70","70","0","0","70","70","70","0","70","0","Sun Oct 24 19:39:13 2021","The main experiment item","yes","Sternbergtask.osexp","C:/Users/rayra/Documents","no","mono","no","18","no","white","no","yes","768","legacy","58","11","C:/Users/rayra/Documents/subject-3.csv","legacy","5 3 2 6 9 8","Lentiform Loewenfeld","3.3.9","0","n","0","left","return","return","left","NA","761","19509","10671","761","NA","2","legacy","6","1024","2","48000","-16","experiment","3","odd","4","453513","461253","2843","107566","461256","463464","460069","2847","96894","465468","466230","462259","22358","465468","NA","Sternberg task","62","48761","71","yes","1024"
"86.11111111111111","86.11111111111111","684.8888888888889","684.8888888888889","black","experiment","legacy","legacy","legacy","0","uniform","0","undefined","0","right","71","71","0","0","71","71","71","0","0","71","71","71","0","71","0","Sun Oct 24 19:39:13 2021","The main experiment item","yes","Sternbergtask.osexp","C:/Users/rayra/Documents","no","mono","no","18","no","white","no","yes","768","legacy","59","11","C:/Users/rayra/Documents/subject-3.csv","legacy","2 3 8 5 6 7","Lentiform Loewenfeld","3.3.9","0","n","0","left","return","return","left","NA","551","19509","10671","551","NA","2","legacy","6","1024","2","48000","-16","experiment","3","odd","1","453513","467406","2843","107566","467408","469616","466236","2847","96894","471620","472172","468412","22358","471620","NA","Sternberg task","62","49312","72","yes","1024"
"86.3013698630137","86.3013698630137","688.4109589041096","688.4109589041096","black","experiment","legacy","legacy","legacy","0","uniform","1","undefined","1","right","72","72","0","0","72","72","72","0","0","72","72","72","0","72","0","Sun Oct 24 19:39:13 2021","The main experiment item","yes","Sternbergtask.osexp","C:/Users/rayra/Documents","no","mono","no","18","no","white","no","yes","768","legacy","60","11","C:/Users/rayra/Documents/subject-3.csv","legacy","8 5 7 3 6","Lentiform Loewenfeld","3.3.9","0","n","0","right","return","return","right","NA","942","19509","10671","942","NA","2","legacy","5","1024","2","48000","-16","experiment","3","odd","9","453513","473385","2843","107566","473387","475597","472179","2847","96894","477601","478544","474391","22358","477601","NA","Sternberg task","63","50254","73","yes","1024"
"86.48648648648648","86.48648648648648","691.1216216216217","691.1216216216217","black","experiment","legacy","legacy","legacy","0","uniform","1","undefined","1","right","73","73","0","0","73","73","73","0","0","73","73","73","0","73","0","Sun Oct 24 19:39:13 2021","The main experiment item","yes","Sternbergtask.osexp","C:/Users/rayra/Documents","no","mono","no","18","no","white","no","yes","768","legacy","61","11","C:/Users/rayra/Documents/subject-3.csv","legacy","9 7 4 5 8","Lentiform Loewenfeld","3.3.9","0","n","0","right","return","return","right","NA","889","19509","10671","889","NA","2","legacy","5","1024","2","48000","-16","experiment","3","odd","6","478549","479725","2843","107566","479727","481935","472179","2847","96894","483940","484830","480731","22358","483939","NA","Sternberg task","64","51143","74","yes","1024"
"85.33333333333333","85.33333333333333","690.36","690.36","black","experiment","legacy","legacy","legacy","0","uniform","0","undefined","0","left","74","74","0","0","74","74","74","0","0","74","74","74","0","74","0","Sun Oct 24 19:39:13 2021","The main experiment item","yes","Sternbergtask.osexp","C:/Users/rayra/Documents","no","mono","no","18","no","white","no","yes","768","legacy","62","11","C:/Users/rayra/Documents/subject-3.csv","legacy","3 5 7 1","Lentiform Loewenfeld","3.3.9","3","y","0","right","return","return","right","NA","634","19509","10671","634","NA","2","legacy","4","1024","2","48000","-16","experiment","3","odd","7","484852","486039","2843","107566","486041","488249","472179","2847","96894","490253","490888","487045","22358","490253","NA","Sternberg task","64","51777","75","yes","1024"
"85.52631578947368","85.52631578947368","686.8684210526316","686.8684210526316","black","experiment","legacy","legacy","legacy","0","uniform","1","undefined","1","left","75","75","0","0","75","75","75","0","0","75","75","75","0","75","0","Sun Oct 24 19:39:13 2021","The main experiment item","yes","Sternbergtask.osexp","C:/Users/rayra/Documents","no","mono","no","18","no","white","no","yes","768","legacy","63","11","C:/Users/rayra/Documents/subject-3.csv","legacy","8 3","Lentiform Loewenfeld","3.3.9","2","y","0","left","return","return","left","NA","425","19509","10671","425","NA","2","legacy","2","1024","2","48000","-16","experiment","3","odd","3","484852","492077","2843","107566","492079","494290","490892","2847","96894","496295","496721","493084","22358","496294","NA","Sternberg task","65","52202","76","yes","1024"
"85.71428571428571","85.71428571428571","684.7792207792207","684.7792207792207","black","experiment","legacy","legacy","legacy","0","uniform","1","undefined","1","left","76","76","0","0","76","76","76","0","0","76","76","76","0","76","0","Sun Oct 24 19:39:13 2021","The main experiment item","yes","Sternbergtask.osexp","C:/Users/rayra/Documents","no","mono","no","18","no","white","no","yes","768","legacy","64","11","C:/Users/rayra/Documents/subject-3.csv","legacy","6 1 2","Lentiform Loewenfeld","3.3.9","3","y","0","left","return","return","left","NA","526","19509","10671","526","NA","2","legacy","3","1024","2","48000","-16","experiment","3","odd","2","496727","497929","2843","107566","497932","500141","490892","2847","96894","502146","502674","498937","22358","502146","NA","Sternberg task","66","52728","77","yes","1024"
"85.8974358974359","85.8974358974359","683.6025641025641","683.6025641025641","black","experiment","legacy","legacy","legacy","0","uniform","1","undefined","1","right","77","77","0","0","77","77","77","0","0","77","77","77","0","77","0","Sun Oct 24 19:39:13 2021","The main experiment item","yes","Sternbergtask.osexp","C:/Users/rayra/Documents","no","mono","no","18","no","white","no","yes","768","legacy","65","11","C:/Users/rayra/Documents/subject-3.csv","legacy","2 8 9 4 1","Lentiform Loewenfeld","3.3.9","0","n","0","right","return","return","right","NA","593","19509","10671","593","NA","2","legacy","5","1024","2","48000","-16","experiment","3","odd","5","502678","503852","2843","107566","503854","506063","490892","2847","96894","508068","508663","504858","22358","508068","NA","Sternberg task","67","53321","78","yes","1024"
"86.07594936708861","86.07594936708861","680.5696202531645","680.5696202531645","black","experiment","legacy","legacy","legacy","0","uniform","1","undefined","1","left","78","78","0","0","78","78","78","0","0","78","78","78","0","78","0","Sun Oct 24 19:39:13 2021","The main experiment item","yes","Sternbergtask.osexp","C:/Users/rayra/Documents","no","mono","no","18","no","white","no","yes","768","legacy","66","11","C:/Users/rayra/Documents/subject-3.csv","legacy","9 1 6 7 8","Lentiform Loewenfeld","3.3.9","1","y","0","left","return","return","left","NA","444","19509","10671","444","NA","2","legacy","5","1024","2","48000","-16","experiment","3","odd","9","508668","509851","2843","107566","509853","512062","490892","2847","96894","514067","514512","510857","22358","514066","NA","Sternberg task","68","53765","79","yes","1024"
"85","85","684.35","684.35","black","experiment","legacy","legacy","legacy","0","uniform","0","undefined","0","left","79","79","0","0","79","79","79","0","0","79","79","79","0","79","0","Sun Oct 24 19:39:13 2021","The main experiment item","yes","Sternbergtask.osexp","C:/Users/rayra/Documents","no","mono","no","18","no","white","no","yes","768","legacy","67","11","C:/Users/rayra/Documents/subject-3.csv","legacy","3 9 6 2","Lentiform Loewenfeld","3.3.9","4","y","0","right","return","return","right","NA","983","19509","10671","983","NA","2","legacy","4","1024","2","48000","-16","experiment","3","odd","2","514518","515702","2843","107566","515704","517913","490892","2847","96894","519917","520902","516709","22358","519917","NA","Sternberg task","68","54748","80","yes","1024"
"85.18518518518519","85.18518518518519","682.7407407407408","682.7407407407408","black","experiment","legacy","legacy","legacy","0","uniform","1","undefined","1","right","80","80","0","0","80","80","80","0","0","80","80","80","0","80","0","Sun Oct 24 19:39:13 2021","The main experiment item","yes","Sternbergtask.osexp","C:/Users/rayra/Documents","no","mono","no","18","no","white","no","yes","768","legacy","68","11","C:/Users/rayra/Documents/subject-3.csv","legacy","4 2 6 9","Lentiform Loewenfeld","3.3.9","0","n","0","right","return","return","right","NA","554","19509","10671","554","NA","2","legacy","4","1024","2","48000","-16","experiment","3","odd","7","514518","522093","2843","107566","522095","524302","520908","2847","96894","526307","526863","523098","22358","526306","NA","Sternberg task","69","55302","81","yes","1024"
"85.36585365853658","85.36585365853658","680.9756097560976","680.9756097560976","black","experiment","legacy","legacy","legacy","0","uniform","1","undefined","1","left","81","81","0","0","81","81","81","0","0","81","81","81","0","81","0","Sun Oct 24 19:39:13 2021","The main experiment item","yes","Sternbergtask.osexp","C:/Users/rayra/Documents","no","mono","no","18","no","white","no","yes","768","legacy","69","11","C:/Users/rayra/Documents/subject-3.csv","legacy","4 6 5 8","Lentiform Loewenfeld","3.3.9","1","y","0","left","return","return","left","NA","538","19509","10671","538","NA","2","legacy","4","1024","2","48000","-16","experiment","3","odd","4","526870","528051","2843","107566","528054","530263","520908","2847","96894","532266","532806","529059","22358","532266","NA","Sternberg task","70","55840","82","yes","1024"
"84.33734939759036","84.33734939759036","681.8674698795181","681.8674698795181","black","experiment","legacy","legacy","legacy","0","uniform","0","undefined","0","right","82","82","0","0","82","82","82","0","0","82","82","82","0","82","0","Sun Oct 24 19:39:13 2021","The main experiment item","yes","Sternbergtask.osexp","C:/Users/rayra/Documents","no","mono","no","18","no","white","no","yes","768","legacy","70","11","C:/Users/rayra/Documents/subject-3.csv","legacy","6 9 7 3 8 2","Lentiform Loewenfeld","3.3.9","0","n","0","left","return","return","left","NA","755","19509","10671","755","NA","2","legacy","6","1024","2","48000","-16","experiment","3","odd","5","532812","533990","2843","107566","533992","536200","520908","2847","96894","538204","538960","534996","22358","538204","NA","Sternberg task","70","56595","83","yes","1024"
"84.52380952380952","84.52380952380952","681.5","681.5","black","experiment","legacy","legacy","legacy","0","uniform","1","undefined","1","right","83","83","0","0","83","83","83","0","0","83","83","83","0","83","0","Sun Oct 24 19:39:13 2021","The main experiment item","yes","Sternbergtask.osexp","C:/Users/rayra/Documents","no","mono","no","18","no","white","no","yes","768","legacy","71","11","C:/Users/rayra/Documents/subject-3.csv","legacy","8 5 4 2 9 6","Lentiform Loewenfeld","3.3.9","0","n","0","right","return","return","right","NA","651","19509","10671","651","NA","2","legacy","6","1024","2","48000","-16","experiment","3","odd","3","532812","540146","2843","107566","540148","542356","538980","2847","96894","544362","545013","541152","22358","544361","NA","Sternberg task","71","57246","84","yes","1024"
"84.70588235294117","84.70588235294117","679.6588235294117","679.6588235294117","black","experiment","legacy","legacy","legacy","0","uniform","1","undefined","1","left","84","84","0","0","84","84","84","0","0","84","84","84","0","84","0","Sun Oct 24 19:39:13 2021","The main experiment item","yes","Sternbergtask.osexp","C:/Users/rayra/Documents","no","mono","no","18","no","white","no","yes","768","legacy","72","11","C:/Users/rayra/Documents/subject-3.csv","legacy","5 7 3 6 2","Lentiform Loewenfeld","3.3.9","5","y","0","left","return","return","left","NA","525","19509","10671","525","NA","2","legacy","5","1024","2","48000","-16","experiment","3","odd","2","545020","546189","2843","107566","546192","548402","538980","2847","96894","550406","550933","547197","22358","550406","NA","Sternberg task","72","57771","85","yes","1024"
"84.88372093023256","84.88372093023256","680.5813953488372","680.5813953488372","black","experiment","legacy","legacy","legacy","0","uniform","1","undefined","1","left","85","85","0","0","85","85","85","0","0","85","85","85","0","85","0","Sun Oct 24 19:39:13 2021","The main experiment item","yes","Sternbergtask.osexp","C:/Users/rayra/Documents","no","mono","no","18","no","white","no","yes","768","legacy","73","11","C:/Users/rayra/Documents/subject-3.csv","legacy","8 9 5 6 7","Lentiform Loewenfeld","3.3.9","1","y","0","left","return","return","left","NA","759","19509","10671","759","NA","2","legacy","5","1024","2","48000","-16","experiment","3","odd","8","550939","552115","2843","107566","552117","554326","538980","2847","96894","556332","557093","553121","22358","556332","NA","Sternberg task","73","58530","86","yes","1024"
"85.05747126436782","85.05747126436782","678.5172413793103","678.5172413793103","black","experiment","legacy","legacy","legacy","0","uniform","1","undefined","1","left","86","86","0","0","86","86","86","0","0","86","86","86","0","86","0","Sun Oct 24 19:39:13 2021","The main experiment item","yes","Sternbergtask.osexp","C:/Users/rayra/Documents","no","mono","no","18","no","white","no","yes","768","legacy","74","11","C:/Users/rayra/Documents/subject-3.csv","legacy","8 5 3 7 4 6","Lentiform Loewenfeld","3.3.9","6","y","0","left","return","return","left","NA","501","19509","10671","501","NA","2","legacy","6","1024","2","48000","-16","experiment","3","odd","6","557100","558267","2843","107566","558270","560478","538980","2847","96894","562482","562985","559274","22358","562482","NA","Sternberg task","74","59031","87","yes","1024"
"84.0909090909091","84.0909090909091","674.7272727272727","674.7272727272727","black","experiment","legacy","legacy","legacy","0","uniform","0","undefined","0","right","87","87","0","0","87","87","87","0","0","87","87","87","0","87","0","Sun Oct 24 19:39:13 2021","The main experiment item","yes","Sternbergtask.osexp","C:/Users/rayra/Documents","no","mono","no","18","no","white","no","yes","768","legacy","75","11","C:/Users/rayra/Documents/subject-3.csv","legacy","6 3 1 7 9 8","Lentiform Loewenfeld","3.3.9","0","n","0","left","return","return","left","NA","345","19509","10671","345","NA","2","legacy","6","1024","2","48000","-16","experiment","3","odd","4","562991","564197","2843","107566","564199","566408","538980","2847","96894","568412","568758","565203","22358","568412","NA","Sternberg task","74","59376","88","yes","1024"
"84.26966292134831","84.26966292134831","674.1797752808989","674.1797752808989","black","experiment","legacy","legacy","legacy","0","uniform","1","undefined","1","right","88","88","0","0","88","88","88","0","0","88","88","88","0","88","0","Sun Oct 24 19:39:13 2021","The main experiment item","yes","Sternbergtask.osexp","C:/Users/rayra/Documents","no","mono","no","18","no","white","no","yes","768","legacy","76","11","C:/Users/rayra/Documents/subject-3.csv","legacy","2 8 9","Lentiform Loewenfeld","3.3.9","0","n","0","right","return","return","right","NA","626","19509","10671","626","NA","2","legacy","3","1024","2","48000","-16","experiment","3","odd","6","562991","569962","2843","107566","569964","572173","568764","2847","96894","574177","574804","570968","22358","574177","NA","Sternberg task","75","60002","89","yes","1024"
"84.44444444444444","84.44444444444444","673.6777777777778","673.6777777777778","black","experiment","legacy","legacy","legacy","0","uniform","1","undefined","1","left","89","89","0","0","89","89","89","0","0","89","89","89","0","89","0","Sun Oct 24 19:39:13 2021","The main experiment item","yes","Sternbergtask.osexp","C:/Users/rayra/Documents","no","mono","no","18","no","white","no","yes","768","legacy","77","11","C:/Users/rayra/Documents/subject-3.csv","legacy","9 5 3 8 4","Lentiform Loewenfeld","3.3.9","1","y","0","left","return","return","left","NA","629","19509","10671","629","NA","2","legacy","5","1024","2","48000","-16","experiment","3","odd","9","574810","575998","2843","107566","576001","578211","568764","2847","96894","580216","580845","577006","22358","580216","NA","Sternberg task","76","60631","90","yes","1024"
"83.51648351648352","83.51648351648352","671.8461538461538","671.8461538461538","black","experiment","legacy","legacy","legacy","0","uniform","0","undefined","0","right","90","90","0","0","90","90","90","0","0","90","90","90","0","90","0","Sun Oct 24 19:39:13 2021","The main experiment item","yes","Sternbergtask.osexp","C:/Users/rayra/Documents","no","mono","no","18","no","white","no","yes","768","legacy","78","11","C:/Users/rayra/Documents/subject-3.csv","legacy","6 9 4 5 3 2","Lentiform Loewenfeld","3.3.9","0","n","0","left","return","return","left","NA","507","19509","10671","507","NA","2","legacy","6","1024","2","48000","-16","experiment","3","odd","8","580852","582046","2843","107566","582048","584256","568764","2847","96894","586261","586769","583051","22358","586260","NA","Sternberg task","76","61138","91","yes","1024"
"83.69565217391305","83.69565217391305","671.75","671.75","black","experiment","legacy","legacy","legacy","0","uniform","1","undefined","1","left","91","91","0","0","91","91","91","0","0","91","91","91","0","91","0","Sun Oct 24 19:39:13 2021","The main experiment item","yes","Sternbergtask.osexp","C:/Users/rayra/Documents","no","mono","no","18","no","white","no","yes","768","legacy","79","11","C:/Users/rayra/Documents/subject-3.csv","legacy","4 1 5","Lentiform Loewenfeld","3.3.9","2","y","0","left","return","return","left","NA","663","19509","10671","663","NA","2","legacy","3","1024","2","48000","-16","experiment","3","odd","1","580852","587996","2843","107566","587998","590205","586775","2847","96894","592210","592875","589002","22358","592210","NA","Sternberg task","77","61801","92","yes","1024"
"83.87096774193549","83.87096774193549","670.8387096774194","670.8387096774194","black","experiment","legacy","legacy","legacy","0","uniform","1","undefined","1","right","92","92","0","0","92","92","92","0","0","92","92","92","0","92","0","Sun Oct 24 19:39:13 2021","The main experiment item","yes","Sternbergtask.osexp","C:/Users/rayra/Documents","no","mono","no","18","no","white","no","yes","768","legacy","80","11","C:/Users/rayra/Documents/subject-3.csv","legacy","6 8","Lentiform Loewenfeld","3.3.9","0","n","0","right","return","return","right","NA","587","19509","10671","587","NA","2","legacy","2","1024","2","48000","-16","experiment","3","odd","9","592880","594083","2843","107566","594085","596293","586775","2847","96894","598297","598885","595088","22358","598297","NA","Sternberg task","78","62388","93","yes","1024"
"84.04255319148936","84.04255319148936","670.3191489361702","670.3191489361702","black","experiment","legacy","legacy","legacy","0","uniform","1","undefined","1","right","93","93","0","0","93","93","93","0","0","93","93","93","0","93","0","Sun Oct 24 19:39:13 2021","The main experiment item","yes","Sternbergtask.osexp","C:/Users/rayra/Documents","no","mono","no","18","no","white","no","yes","768","legacy","81","11","C:/Users/rayra/Documents/subject-3.csv","legacy","5 9 2 3","Lentiform Loewenfeld","3.3.9","0","n","0","right","return","return","right","NA","622","19509","10671","622","NA","2","legacy","4","1024","2","48000","-16","experiment","3","odd","8","598892","600078","2843","107566","600080","602288","586775","2847","96894","604292","604916","601083","22358","604292","NA","Sternberg task","79","63010","94","yes","1024"
"83.15789473684211","83.15789473684211","669.8315789473684","669.8315789473684","black","experiment","legacy","legacy","legacy","0","uniform","0","undefined","0","left","94","94","0","0","94","94","94","0","0","94","94","94","0","94","0","Sun Oct 24 19:39:13 2021","The main experiment item","yes","Sternbergtask.osexp","C:/Users/rayra/Documents","no","mono","no","18","no","white","no","yes","768","legacy","82","11","C:/Users/rayra/Documents/subject-3.csv","legacy","8 9 5 7 1 6","Lentiform Loewenfeld","3.3.9","4","y","0","right","return","return","right","NA","624","19509","10671","624","NA","2","legacy","6","1024","2","48000","-16","experiment","3","odd","7","604921","606122","2843","107566","606125","608333","586775","2847","96894","610337","610962","607129","22358","610337","NA","Sternberg task","79","63634","95","yes","1024"
"83.33333333333333","83.33333333333333","670.8645833333334","670.8645833333334","black","experiment","legacy","legacy","legacy","0","uniform","1","undefined","1","left","95","95","0","0","95","95","95","0","0","95","95","95","0","95","0","Sun Oct 24 19:39:13 2021","The main experiment item","yes","Sternbergtask.osexp","C:/Users/rayra/Documents","no","mono","no","18","no","white","no","yes","768","legacy","83","11","C:/Users/rayra/Documents/subject-3.csv","legacy","4 7 6 8 2 3","Lentiform Loewenfeld","3.3.9","6","y","0","left","return","return","left","NA","769","19509","10671","769","NA","2","legacy","6","1024","2","48000","-16","experiment","3","odd","3","604921","612128","2843","107566","612130","614338","610983","2847","96894","616342","617112","613134","22358","616342","NA","Sternberg task","80","64403","96","yes","1024"
"82.47422680412372","82.47422680412372","670.1855670103092","670.1855670103092","black","experiment","legacy","legacy","legacy","0","uniform","0","undefined","0","left","96","96","0","0","96","96","96","0","0","96","96","96","0","96","0","Sun Oct 24 19:39:13 2021","The main experiment item","yes","Sternbergtask.osexp","C:/Users/rayra/Documents","no","mono","no","18","no","white","no","yes","768","legacy","84","11","C:/Users/rayra/Documents/subject-3.csv","legacy","6 7 9 3 1 2","Lentiform Loewenfeld","3.3.9","1","y","0","right","return","return","right","NA","605","19509","10671","605","NA","2","legacy","6","1024","2","48000","-16","experiment","3","odd","6","617119","618296","2843","107566","618298","620506","610983","2847","96894","622510","623118","619302","22358","622510","NA","Sternberg task","80","65008","97","yes","1024"
"82.65306122448979","82.65306122448979","669.8673469387755","669.8673469387755","black","experiment","legacy","legacy","legacy","0","uniform","1","undefined","1","right","97","97","0","0","97","97","97","0","0","97","97","97","0","97","0","Sun Oct 24 19:39:13 2021","The main experiment item","yes","Sternbergtask.osexp","C:/Users/rayra/Documents","no","mono","no","18","no","white","no","yes","768","legacy","85","11","C:/Users/rayra/Documents/subject-3.csv","legacy","6 7 5 9","Lentiform Loewenfeld","3.3.9","0","n","0","right","return","return","right","NA","639","19509","10671","639","NA","2","legacy","4","1024","2","48000","-16","experiment","3","odd","2","617119","624319","2843","107566","624322","626531","623125","2847","96894","628536","629177","625327","22358","628536","NA","Sternberg task","81","65647","98","yes","1024"
"82.82828282828282","82.82828282828282","668.1515151515151","668.1515151515151","black","experiment","legacy","legacy","legacy","0","uniform","1","undefined","1","left","98","98","0","0","98","98","98","0","0","98","98","98","0","98","0","Sun Oct 24 19:39:13 2021","The main experiment item","yes","Sternbergtask.osexp","C:/Users/rayra/Documents","no","mono","no","18","no","white","no","yes","768","legacy","86","11","C:/Users/rayra/Documents/subject-3.csv","legacy","2 4 6 9","Lentiform Loewenfeld","3.3.9","3","y","0","left","return","return","left","NA","500","19509","10671","500","NA","2","legacy","4","1024","2","48000","-16","experiment","3","odd","6","629198","630406","2843","107566","630408","632618","623125","2847","96894","634622","635124","631413","22358","634622","NA","Sternberg task","82","66147","99","yes","1024"
"83","83","666.62","666.62","black","experiment","legacy","legacy","legacy","0","uniform","1","undefined","1","right","99","99","0","0","99","99","99","0","0","99","99","99","0","99","0","Sun Oct 24 19:39:13 2021","The main experiment item","yes","Sternbergtask.osexp","C:/Users/rayra/Documents","no","mono","no","18","no","white","no","yes","768","legacy","87","11","C:/Users/rayra/Documents/subject-3.csv","legacy","1 4 3 6 5","Lentiform Loewenfeld","3.3.9","0","n","0","right","return","return","right","NA","515","19509","10671","515","NA","2","legacy","5","1024","2","48000","-16","experiment","3","odd","8","635130","636303","2843","107566","636305","638514","623125","2847","96894","640519","641035","637310","22358","640519","NA","Sternberg task","83","66662","100","yes","1024"
"83.16831683168317","83.16831683168317","664.049504950495","664.049504950495","black","experiment","legacy","legacy","legacy","0","uniform","1","undefined","1","right","100","100","0","0","100","100","100","0","0","100","100","100","0","100","0","Sun Oct 24 19:39:13 2021","The main experiment item","yes","Sternbergtask.osexp","C:/Users/rayra/Documents","no","mono","no","18","no","white","no","yes","768","legacy","88","11","C:/Users/rayra/Documents/subject-3.csv","legacy","5","Lentiform Loewenfeld","3.3.9","0","n","0","right","return","return","right","NA","407","19509","10671","407","NA","2","legacy","1","1024","2","48000","-16","experiment","3","odd","8","641040","642256","2843","107566","642259","644467","623125","2847","96894","646472","646880","643263","22358","646472","NA","Sternberg task","84","67069","101","yes","1024"
"82.3529411764706","82.3529411764706","662.5196078431372","662.5196078431372","black","experiment","legacy","legacy","legacy","0","uniform","0","undefined","0","right","101","101","0","0","101","101","101","0","0","101","101","101","0","101","0","Sun Oct 24 19:39:13 2021","The main experiment item","yes","Sternbergtask.osexp","C:/Users/rayra/Documents","no","mono","no","18","no","white","no","yes","768","legacy","89","11","C:/Users/rayra/Documents/subject-3.csv","legacy","6 9 4 5 2","Lentiform Loewenfeld","3.3.9","0","n","0","left","return","return","left","NA","508","19509","10671","508","NA","2","legacy","5","1024","2","48000","-16","experiment","3","odd","1","646886","648095","2843","107566","648097","650304","623125","2847","96894","652309","652818","649101","22358","652308","NA","Sternberg task","84","67577","102","yes","1024"
"81.55339805825243","81.55339805825243","663.8349514563107","663.8349514563107","black","experiment","legacy","legacy","legacy","0","uniform","0","undefined","0","right","102","102","0","0","102","102","102","0","0","102","102","102","0","102","0","Sun Oct 24 19:39:13 2021","The main experiment item","yes","Sternbergtask.osexp","C:/Users/rayra/Documents","no","mono","no","18","no","white","no","yes","768","legacy","90","11","C:/Users/rayra/Documents/subject-3.csv","legacy","7 1 8 4 9 3","Lentiform Loewenfeld","3.3.9","0","n","0","left","return","return","left","NA","798","19509","10671","798","NA","2","legacy","6","1024","2","48000","-16","experiment","3","odd","6","646886","654005","2843","107566","654008","656217","652824","2847","96894","658221","659019","655012","22358","658221","NA","Sternberg task","84","68375","103","yes","1024"
"81.73076923076923","81.73076923076923","666.8269230769231","666.8269230769231","black","experiment","legacy","legacy","legacy","0","uniform","1","undefined","1","left","103","103","0","0","103","103","103","0","0","103","103","103","0","103","0","Sun Oct 24 19:39:13 2021","The main experiment item","yes","Sternbergtask.osexp","C:/Users/rayra/Documents","no","mono","no","18","no","white","no","yes","768","legacy","91","11","C:/Users/rayra/Documents/subject-3.csv","legacy","9 3 1 2 5","Lentiform Loewenfeld","3.3.9","4","y","0","left","return","return","left","NA","975","19509","10671","975","NA","2","legacy","5","1024","2","48000","-16","experiment","3","odd","2","646886","660218","2843","107566","660221","662429","659027","2847","96894","664433","665410","661225","22358","664432","NA","Sternberg task","85","69350","104","yes","1024"
"81.9047619047619","81.9047619047619","669.4666666666667","669.4666666666667","black","experiment","legacy","legacy","legacy","0","uniform","1","undefined","1","left","104","104","0","0","104","104","104","0","0","104","104","104","0","104","0","Sun Oct 24 19:39:13 2021","The main experiment item","yes","Sternbergtask.osexp","C:/Users/rayra/Documents","no","mono","no","18","no","white","no","yes","768","legacy","92","11","C:/Users/rayra/Documents/subject-3.csv","legacy","8 5 1 3 9","Lentiform Loewenfeld","3.3.9","4","y","0","left","return","return","left","NA","944","19509","10671","944","NA","2","legacy","5","1024","2","48000","-16","experiment","3","odd","3","665431","666603","2843","107566","666605","668813","659027","2847","96894","670818","671763","667609","22358","670818","NA","Sternberg task","86","70294","105","yes","1024"
"81.13207547169812","81.13207547169812","669.9905660377359","669.9905660377359","black","experiment","legacy","legacy","legacy","0","uniform","0","undefined","0","left","105","105","0","0","105","105","105","0","0","105","105","105","0","105","0","Sun Oct 24 19:39:13 2021","The main experiment item","yes","Sternbergtask.osexp","C:/Users/rayra/Documents","no","mono","no","18","no","white","no","yes","768","legacy","93","11","C:/Users/rayra/Documents/subject-3.csv","legacy","4 3 2 5 8","Lentiform Loewenfeld","3.3.9","2","y","0","right","return","return","right","NA","725","19509","10671","725","NA","2","legacy","5","1024","2","48000","-16","experiment","3","odd","3","671771","672970","2843","107566","672972","675180","659027","2847","96894","677184","677912","673976","22358","677184","NA","Sternberg task","86","71019","106","yes","1024"
"81.30841121495327","81.30841121495327","668.2429906542056","668.2429906542056","black","experiment","legacy","legacy","legacy","0","uniform","1","undefined","1","left","106","106","0","0","106","106","106","0","0","106","106","106","0","106","0","Sun Oct 24 19:39:13 2021","The main experiment item","yes","Sternbergtask.osexp","C:/Users/rayra/Documents","no","mono","no","18","no","white","no","yes","768","legacy","94","11","C:/Users/rayra/Documents/subject-3.csv","legacy","2 8 5 1","Lentiform Loewenfeld","3.3.9","4","y","0","left","return","return","left","NA","483","19509","10671","483","NA","2","legacy","4","1024","2","48000","-16","experiment","3","odd","1","671771","679093","2843","107566","679095","681303","677919","2847","96894","683308","683793","680099","22358","683308","NA","Sternberg task","87","71502","107","yes","1024"
"81.48148148148148","81.48148148148148","667.7962962962963","667.7962962962963","black","experiment","legacy","legacy","legacy","0","uniform","1","undefined","1","right","107","107","0","0","107","107","107","0","0","107","107","107","0","107","0","Sun Oct 24 19:39:13 2021","The main experiment item","yes","Sternbergtask.osexp","C:/Users/rayra/Documents","no","mono","no","18","no","white","no","yes","768","legacy","95","11","C:/Users/rayra/Documents/subject-3.csv","legacy","2 5 1 4","Lentiform Loewenfeld","3.3.9","0","n","0","right","return","return","right","NA","620","19509","10671","620","NA","2","legacy","4","1024","2","48000","-16","experiment","3","odd","6","683798","684981","2843","107566","684984","687192","677919","2847","96894","689196","689818","685987","22358","689196","NA","Sternberg task","88","72122","108","yes","1024"
"81.65137614678899","81.65137614678899","665.9082568807339","665.9082568807339","black","experiment","legacy","legacy","legacy","0","uniform","1","undefined","1","right","108","108","0","0","108","108","108","0","0","108","108","108","0","108","0","Sun Oct 24 19:39:13 2021","The main experiment item","yes","Sternbergtask.osexp","C:/Users/rayra/Documents","no","mono","no","18","no","white","no","yes","768","legacy","96","11","C:/Users/rayra/Documents/subject-3.csv","legacy","8 9","Lentiform Loewenfeld","3.3.9","0","n","0","right","return","return","right","NA","462","19509","10671","462","NA","2","legacy","2","1024","2","48000","-16","experiment","3","odd","5","689838","691050","2843","107566","691052","693261","677919","2847","96894","695266","695729","692056","22358","695266","NA","Sternberg task","89","72584","109","yes","1024"
"81.81818181818181","81.81818181818181","666.1454545454545","666.1454545454545","black","experiment","legacy","legacy","legacy","0","uniform","1","undefined","1","left","109","109","0","0","109","109","109","0","0","109","109","109","0","109","0","Sun Oct 24 19:39:13 2021","The main experiment item","yes","Sternbergtask.osexp","C:/Users/rayra/Documents","no","mono","no","18","no","white","no","yes","768","legacy","97","11","C:/Users/rayra/Documents/subject-3.csv","legacy","3 5 4 7","Lentiform Loewenfeld","3.3.9","1","y","0","left","return","return","left","NA","692","19509","10671","692","NA","2","legacy","4","1024","2","48000","-16","experiment","3","odd","3","695735","696931","2843","107566","696933","699139","677919","2847","96894","701143","701837","697937","22358","701143","NA","Sternberg task","90","73276","110","yes","1024"
"81.98198198198199","81.98198198198199","667.2342342342342","667.2342342342342","black","experiment","legacy","legacy","legacy","0","uniform","1","undefined","1","right","110","110","0","0","110","110","110","0","0","110","110","110","0","110","0","Sun Oct 24 19:39:13 2021","The main experiment item","yes","Sternbergtask.osexp","C:/Users/rayra/Documents","no","mono","no","18","no","white","no","yes","768","legacy","98","11","C:/Users/rayra/Documents/subject-3.csv","legacy","4 8 1 2","Lentiform Loewenfeld","3.3.9","0","n","0","right","return","return","right","NA","787","19509","10671","787","NA","2","legacy","4","1024","2","48000","-16","experiment","3","odd","7","701842","703024","2843","107566","703026","705234","677919","2847","96894","707239","708028","704030","22358","707238","NA","Sternberg task","91","74063","111","yes","1024"
"82.14285714285714","82.14285714285714","667.3839285714286","667.3839285714286","black","experiment","legacy","legacy","legacy","0","uniform","1","undefined","1","left","111","111","0","0","111","111","111","0","0","111","111","111","0","111","0","Sun Oct 24 19:39:13 2021","The main experiment item","yes","Sternbergtask.osexp","C:/Users/rayra/Documents","no","mono","no","18","no","white","no","yes","768","legacy","99","11","C:/Users/rayra/Documents/subject-3.csv","legacy","9 6 2 4 1","Lentiform Loewenfeld","3.3.9","4","y","0","left","return","return","left","NA","684","19509","10671","684","NA","2","legacy","5","1024","2","48000","-16","experiment","3","odd","4","708034","709201","2843","107566","709203","711411","677919","2847","96894","713416","714102","710207","22358","713416","NA","Sternberg task","92","74747","112","yes","1024"
"82.30088495575221","82.30088495575221","667.3274336283185","667.3274336283185","black","experiment","legacy","legacy","legacy","0","uniform","1","undefined","1","left","112","112","0","0","112","112","112","0","0","112","112","112","0","112","0","Sun Oct 24 19:39:13 2021","The main experiment item","yes","Sternbergtask.osexp","C:/Users/rayra/Documents","no","mono","no","18","no","white","no","yes","768","legacy","100","11","C:/Users/rayra/Documents/subject-3.csv","legacy","7 2 3","Lentiform Loewenfeld","3.3.9","3","y","0","left","return","return","left","NA","661","19509","10671","661","NA","2","legacy","3","1024","2","48000","-16","experiment","3","odd","3","714109","715307","2843","107566","715309","717516","677919","2847","96894","719520","720183","716312","22358","719520","NA","Sternberg task","93","75408","113","yes","1024"
"82.45614035087719","82.45614035087719","666.5","666.5","black","experiment","legacy","legacy","legacy","0","uniform","1","undefined","1","left","113","113","0","0","113","113","113","0","0","113","113","113","0","113","0","Sun Oct 24 19:39:13 2021","The main experiment item","yes","Sternbergtask.osexp","C:/Users/rayra/Documents","no","mono","no","18","no","white","no","yes","768","legacy","101","11","C:/Users/rayra/Documents/subject-3.csv","legacy","9 3 8 2 1 4","Lentiform Loewenfeld","3.3.9","3","y","0","left","return","return","left","NA","573","19509","10671","573","NA","2","legacy","6","1024","2","48000","-16","experiment","3","odd","8","720204","721413","2843","107566","721415","723623","677919","2847","96894","725627","726201","722419","22358","725626","NA","Sternberg task","94","75981","114","yes","1024"
"82.6086956521739","82.6086956521739","666.6434782608695","666.6434782608695","black","experiment","legacy","legacy","legacy","0","uniform","1","undefined","1","right","114","114","0","0","114","114","114","0","0","114","114","114","0","114","0","Sun Oct 24 19:39:13 2021","The main experiment item","yes","Sternbergtask.osexp","C:/Users/rayra/Documents","no","mono","no","18","no","white","no","yes","768","legacy","102","11","C:/Users/rayra/Documents/subject-3.csv","legacy","1 4 9 3","Lentiform Loewenfeld","3.3.9","0","n","0","right","return","return","right","NA","683","19509","10671","683","NA","2","legacy","4","1024","2","48000","-16","experiment","3","odd","5","726222","727434","2843","107566","727436","729645","677919","2847","96894","731649","732334","728440","22358","731649","NA","Sternberg task","95","76664","115","yes","1024"
"82.75862068965517","82.75862068965517","665.6724137931035","665.6724137931035","black","experiment","legacy","legacy","legacy","0","uniform","1","undefined","1","right","115","115","0","0","115","115","115","0","0","115","115","115","0","115","0","Sun Oct 24 19:39:13 2021","The main experiment item","yes","Sternbergtask.osexp","C:/Users/rayra/Documents","no","mono","no","18","no","white","no","yes","768","legacy","103","11","C:/Users/rayra/Documents/subject-3.csv","legacy","8 4 3 5","Lentiform Loewenfeld","3.3.9","0","n","0","right","return","return","right","NA","554","19509","10671","554","NA","2","legacy","4","1024","2","48000","-16","experiment","3","odd","6","732341","733547","2843","107566","733550","735759","677919","2847","96894","737763","738319","734554","22358","737763","NA","Sternberg task","96","77218","116","yes","1024"
"82.90598290598291","82.90598290598291","669.4102564102565","669.4102564102565","black","experiment","legacy","legacy","legacy","0","uniform","1","undefined","1","left","116","116","0","0","116","116","116","0","0","116","116","116","0","116","0","Sun Oct 24 19:39:13 2021","The main experiment item","yes","Sternbergtask.osexp","C:/Users/rayra/Documents","no","mono","no","18","no","white","no","yes","768","legacy","104","11","C:/Users/rayra/Documents/subject-3.csv","legacy","7 8 4 6 9 5","Lentiform Loewenfeld","3.3.9","4","y","0","left","return","return","left","NA","1103","19509","10671","1103","NA","2","legacy","6","1024","2","48000","-16","experiment","3","odd","6","738325","739507","2843","107566","739509","741717","677919","2847","96894","743722","744827","740513","22358","743722","NA","Sternberg task","97","78321","117","yes","1024"
"83.05084745762711","83.05084745762711","668.0847457627119","668.0847457627119","black","experiment","legacy","legacy","legacy","0","uniform","1","undefined","1","right","117","117","0","0","117","117","117","0","0","117","117","117","0","117","0","Sun Oct 24 19:39:13 2021","The main experiment item","yes","Sternbergtask.osexp","C:/Users/rayra/Documents","no","mono","no","18","no","white","no","yes","768","legacy","105","11","C:/Users/rayra/Documents/subject-3.csv","legacy","7 6 4 8 1 2","Lentiform Loewenfeld","3.3.9","0","n","0","right","return","return","right","NA","513","19509","10671","513","NA","2","legacy","6","1024","2","48000","-16","experiment","3","odd","9","744833","746021","2843","107566","746023","748232","677919","2847","96894","750236","750751","747026","22358","750236","NA","Sternberg task","98","78834","118","yes","1024"
"83.19327731092437","83.19327731092437","667.5798319327731","667.5798319327731","black","experiment","legacy","legacy","legacy","0","uniform","1","undefined","1","left","118","118","0","0","118","118","118","0","0","118","118","118","0","118","0","Sun Oct 24 19:39:13 2021","The main experiment item","yes","Sternbergtask.osexp","C:/Users/rayra/Documents","no","mono","no","18","no","white","no","yes","768","legacy","106","11","C:/Users/rayra/Documents/subject-3.csv","legacy","8 5 4 7 3 1","Lentiform Loewenfeld","3.3.9","2","y","0","left","return","return","left","NA","608","19509","10671","608","NA","2","legacy","6","1024","2","48000","-16","experiment","3","odd","5","750757","751930","2843","107566","751932","754141","677919","2847","96894","756144","756754","752936","22358","756144","NA","Sternberg task","99","79442","119","yes","1024"
