acc,accuracy,average_response_time,avg_rt,background,block,canvas_backend,clock_backend,color_backend,compensation,coordinates,correct,correct_instruction1,correct_keyboard_response,correct_response,count_ISI,count_correctFeedback,count_expSequence,count_experiment,count_experimentLoop,count_fixation,count_incorrectFeedback,count_instruction1,count_instructions2,count_keyboard_response,count_logger,count_memorySet,count_practiceLoop,count_probe,count_thankYou,datetime,description,disable_garbage_collection,experiment_file,experiment_path,font_bold,font_family,font_italic,font_size,font_underline,foreground,form_clicks,fullscreen,height,keyboard_backend,live_row,live_row_practiceLoop,logfile,mouse_backend,numberSet,opensesame_codename,opensesame_version,posInSet,present,repeat_cycle,response,response_instruction1,response_instructions2,response_keyboard_response,response_thankYou,response_time,response_time_instruction1,response_time_instructions2,response_time_keyboard_response,response_time_thankYou,round_decimals,sampler_backend,setSize,sound_buf_size,sound_channels,sound_freq,sound_sample_size,start,subject_nr,subject_parity,target,time_ISI,time_correctFeedback,time_expSequence,time_experiment,time_experimentLoop,time_fixation,time_incorrectFeedback,time_instruction1,time_instructions2,time_keyboard_response,time_logger,time_memorySet,time_practiceLoop,time_probe,time_thankYou,title,total_correct,total_response_time,total_responses,uniform_coordinates,width
100,100,918,918,black,practice,legacy,legacy,legacy,0,uniform,1,undefined,1,right,0,0,0,0,0,0,0,0,0,0,0,0,0,0,0,10/20/19 16:30,The main experiment item,yes,Sternbergtask.osexp,C:/Users/Edgar/Documents/Edgar School/Fall 2019/Lab 3-1,no,mono,no,18,no,white,no,yes,768,legacy,0,0,C:/Users/Edgar/Documents/Edgar School/Fall 2019/Lab 3-1/EJ-subject-1.csv,legacy,2 1,Kafkaesque Koffka,3.2.8,0,n,0,right,left,NA,right,NA,918,3153,NA,918,NA,2,legacy,2,1024,2,48000,-16,experiment,1,odd,5,14926,NA,12703,6419,NA,12712,NA,6446,NA,16933,17853,13719,9602,16932,NA,Sternberg task,1,918,1,yes,1024
100,100,817.5,817.5,black,practice,legacy,legacy,legacy,0,uniform,1,undefined,1,right,1,1,1,0,0,1,1,0,0,1,1,1,0,1,0,10/20/19 16:30,The main experiment item,yes,Sternbergtask.osexp,C:/Users/Edgar/Documents/Edgar School/Fall 2019/Lab 3-1,no,mono,no,18,no,white,no,yes,768,legacy,1,1,C:/Users/Edgar/Documents/Edgar School/Fall 2019/Lab 3-1/EJ-subject-1.csv,legacy,9 6 7 4 5,Kafkaesque Koffka,3.2.8,0,n,0,right,left,NA,right,NA,717,3153,NA,717,NA,2,legacy,5,1024,2,48000,-16,experiment,1,odd,3,21781,18180,19563,6419,NA,19570,NA,6446,NA,23788,24506,20576,9602,23788,NA,Sternberg task,2,1635,2,yes,1024
100,100,737.3333333,737.3333333,black,practice,legacy,legacy,legacy,0,uniform,1,undefined,1,right,2,2,2,0,0,2,2,0,0,2,2,2,0,2,0,10/20/19 16:30,The main experiment item,yes,Sternbergtask.osexp,C:/Users/Edgar/Documents/Edgar School/Fall 2019/Lab 3-1,no,mono,no,18,no,white,no,yes,768,legacy,2,2,C:/Users/Edgar/Documents/Edgar School/Fall 2019/Lab 3-1/EJ-subject-1.csv,legacy,5,Kafkaesque Koffka,3.2.8,0,n,0,right,left,NA,right,NA,577,3153,NA,577,NA,2,legacy,1,1024,2,48000,-16,experiment,1,odd,3,28163,24563,25941,6419,NA,25949,NA,6446,NA,30170,30749,26956,9602,30170,NA,Sternberg task,3,2212,3,yes,1024
100,100,711,711,black,practice,legacy,legacy,legacy,0,uniform,1,undefined,1,right,3,3,3,0,0,3,3,0,0,3,3,3,0,3,0,10/20/19 16:30,The main experiment item,yes,Sternbergtask.osexp,C:/Users/Edgar/Documents/Edgar School/Fall 2019/Lab 3-1,no,mono,no,18,no,white,no,yes,768,legacy,3,3,C:/Users/Edgar/Documents/Edgar School/Fall 2019/Lab 3-1/EJ-subject-1.csv,legacy,5 7 8 4 1 2,Kafkaesque Koffka,3.2.8,0,n,0,right,left,NA,right,NA,632,3153,NA,632,NA,2,legacy,6,1024,2,48000,-16,experiment,1,odd,6,34366,30805,32149,6419,NA,32156,NA,6446,NA,36375,37008,33161,9602,36374,NA,Sternberg task,4,2844,4,yes,1024
80,80,676.2,676.2,black,practice,legacy,legacy,legacy,0,uniform,0,undefined,0,left,4,4,4,0,0,4,4,0,0,4,4,4,0,4,0,10/20/19 16:30,The main experiment item,yes,Sternbergtask.osexp,C:/Users/Edgar/Documents/Edgar School/Fall 2019/Lab 3-1,no,mono,no,18,no,white,no,yes,768,legacy,4,4,C:/Users/Edgar/Documents/Edgar School/Fall 2019/Lab 3-1/EJ-subject-1.csv,legacy,4 3 1 7 9 8,Kafkaesque Koffka,3.2.8,1,y,0,right,left,NA,right,NA,537,3153,NA,537,NA,2,legacy,6,1024,2,48000,-16,experiment,1,odd,4,40700,37103,38479,6419,NA,38486,NA,6446,NA,42708,43248,39494,9602,42707,NA,Sternberg task,4,3381,5,yes,1024
83.33333333,83.33333333,655.1666667,655.1666667,black,practice,legacy,legacy,legacy,0,uniform,1,undefined,1,left,5,5,5,0,0,5,5,0,0,5,5,5,0,5,0,10/20/19 16:30,The main experiment item,yes,Sternbergtask.osexp,C:/Users/Edgar/Documents/Edgar School/Fall 2019/Lab 3-1,no,mono,no,18,no,white,no,yes,768,legacy,5,5,C:/Users/Edgar/Documents/Edgar School/Fall 2019/Lab 3-1/EJ-subject-1.csv,legacy,6,Kafkaesque Koffka,3.2.8,1,y,0,left,left,NA,left,NA,550,3153,NA,550,NA,2,legacy,1,1024,2,48000,-16,experiment,1,odd,6,46893,37103,44672,6419,NA,44680,43313,6446,NA,48902,49453,45687,9602,48902,NA,Sternberg task,5,3931,6,yes,1024
71.42857143,71.42857143,636.1428571,636.1428571,black,practice,legacy,legacy,legacy,0,uniform,0,undefined,0,left,6,6,6,0,0,6,6,0,0,6,6,6,0,6,0,10/20/19 16:30,The main experiment item,yes,Sternbergtask.osexp,C:/Users/Edgar/Documents/Edgar School/Fall 2019/Lab 3-1,no,mono,no,18,no,white,no,yes,768,legacy,6,6,C:/Users/Edgar/Documents/Edgar School/Fall 2019/Lab 3-1/EJ-subject-1.csv,legacy,1 7 9 8 5,Kafkaesque Koffka,3.2.8,4,y,0,right,left,NA,right,NA,522,3153,NA,522,NA,2,legacy,5,1024,2,48000,-16,experiment,1,odd,8,53089,49503,50868,6419,NA,50876,43313,6446,NA,55096,55619,51883,9602,55095,NA,Sternberg task,5,4453,7,yes,1024
75,75,633.25,633.25,black,practice,legacy,legacy,legacy,0,uniform,1,undefined,1,left,7,7,7,0,0,7,7,0,0,7,7,7,0,7,0,10/20/19 16:30,The main experiment item,yes,Sternbergtask.osexp,C:/Users/Edgar/Documents/Edgar School/Fall 2019/Lab 3-1,no,mono,no,18,no,white,no,yes,768,legacy,7,7,C:/Users/Edgar/Documents/Edgar School/Fall 2019/Lab 3-1/EJ-subject-1.csv,legacy,1 5 2 9,Kafkaesque Koffka,3.2.8,2,y,0,left,left,NA,left,NA,613,3153,NA,613,NA,2,legacy,4,1024,2,48000,-16,experiment,1,odd,5,59255,49503,57033,6419,NA,57040,55668,6446,NA,61262,61877,58047,9602,61261,NA,Sternberg task,6,5066,8,yes,1024
77.77777778,77.77777778,613.2222222,613.2222222,black,practice,legacy,legacy,legacy,0,uniform,1,undefined,1,left,8,8,8,0,0,8,8,0,0,8,8,8,0,8,0,10/20/19 16:30,The main experiment item,yes,Sternbergtask.osexp,C:/Users/Edgar/Documents/Edgar School/Fall 2019/Lab 3-1,no,mono,no,18,no,white,no,yes,768,legacy,8,8,C:/Users/Edgar/Documents/Edgar School/Fall 2019/Lab 3-1/EJ-subject-1.csv,legacy,4 8,Kafkaesque Koffka,3.2.8,1,y,0,left,left,NA,left,NA,453,3153,NA,453,NA,2,legacy,2,1024,2,48000,-16,experiment,1,odd,4,65515,61940,63293,6419,NA,63300,55668,6446,NA,67523,67978,64308,9602,67523,NA,Sternberg task,7,5519,9,yes,1024
80,80,607.3,607.3,black,practice,legacy,legacy,legacy,0,uniform,1,undefined,1,right,9,9,9,0,0,9,9,0,0,9,9,9,0,9,0,10/20/19 16:30,The main experiment item,yes,Sternbergtask.osexp,C:/Users/Edgar/Documents/Edgar School/Fall 2019/Lab 3-1,no,mono,no,18,no,white,no,yes,768,legacy,9,9,C:/Users/Edgar/Documents/Edgar School/Fall 2019/Lab 3-1/EJ-subject-1.csv,legacy,3 1 9 4,Kafkaesque Koffka,3.2.8,0,n,0,right,left,NA,right,NA,554,3153,NA,554,NA,2,legacy,4,1024,2,48000,-16,experiment,1,odd,6,71606,68032,69387,6419,NA,69394,55668,6446,NA,73612,74168,70400,9602,73612,NA,Sternberg task,8,6073,10,yes,1024
81.81818182,81.81818182,615.3636364,615.3636364,black,practice,legacy,legacy,legacy,0,uniform,1,undefined,1,left,10,10,10,0,0,10,10,0,0,10,10,10,0,10,0,10/20/19 16:30,The main experiment item,yes,Sternbergtask.osexp,C:/Users/Edgar/Documents/Edgar School/Fall 2019/Lab 3-1,no,mono,no,18,no,white,no,yes,768,legacy,10,10,C:/Users/Edgar/Documents/Edgar School/Fall 2019/Lab 3-1/EJ-subject-1.csv,legacy,2 9 4,Kafkaesque Koffka,3.2.8,3,y,0,left,left,NA,left,NA,696,3153,NA,696,NA,2,legacy,3,1024,2,48000,-16,experiment,1,odd,4,77800,74217,75580,6419,NA,75588,55668,6446,NA,79808,80505,76594,9602,79808,NA,Sternberg task,9,6769,11,yes,1024
83.33333333,83.33333333,607.25,607.25,black,practice,legacy,legacy,legacy,0,uniform,1,undefined,1,right,11,11,11,0,0,11,11,0,0,11,11,11,0,11,0,10/20/19 16:30,The main experiment item,yes,Sternbergtask.osexp,C:/Users/Edgar/Documents/Edgar School/Fall 2019/Lab 3-1,no,mono,no,18,no,white,no,yes,768,legacy,11,11,C:/Users/Edgar/Documents/Edgar School/Fall 2019/Lab 3-1/EJ-subject-1.csv,legacy,4 1 5,Kafkaesque Koffka,3.2.8,0,n,0,right,left,NA,right,NA,518,3153,NA,518,NA,2,legacy,3,1024,2,48000,-16,experiment,1,odd,2,84142,80568,81920,6419,NA,81928,55668,6446,NA,86149,86669,82935,9602,86149,NA,Sternberg task,10,7287,12,yes,1024
84.61538462,84.61538462,596.6923077,596.6923077,black,experiment,legacy,legacy,legacy,0,uniform,1,undefined,1,left,12,12,12,0,0,12,12,0,0,12,12,12,0,12,0,10/20/19 16:30,The main experiment item,yes,Sternbergtask.osexp,C:/Users/Edgar/Documents/Edgar School/Fall 2019/Lab 3-1,no,mono,no,18,no,white,no,yes,768,legacy,0,11,C:/Users/Edgar/Documents/Edgar School/Fall 2019/Lab 3-1/EJ-subject-1.csv,legacy,9 5 3 8 4,Kafkaesque Koffka,3.2.8,1,y,0,left,left,right,left,NA,470,3153,89962,470,NA,2,legacy,5,1024,2,48000,-16,experiment,1,odd,9,180512,86747,178294,6419,177772,178301,55668,6446,87806,182520,182992,179307,9602,182520,NA,Sternberg task,11,7757,13,yes,1024
78.57142857,78.57142857,606.0714286,606.0714286,black,experiment,legacy,legacy,legacy,0,uniform,0,undefined,0,right,13,13,13,0,0,13,13,0,0,13,13,13,0,13,0,10/20/19 16:30,The main experiment item,yes,Sternbergtask.osexp,C:/Users/Edgar/Documents/Edgar School/Fall 2019/Lab 3-1,no,mono,no,18,no,white,no,yes,768,legacy,1,11,C:/Users/Edgar/Documents/Edgar School/Fall 2019/Lab 3-1/EJ-subject-1.csv,legacy,5 7 3,Kafkaesque Koffka,3.2.8,0,n,0,left,left,right,left,NA,728,3153,89962,728,NA,2,legacy,3,1024,2,48000,-16,experiment,1,odd,9,186633,183047,184414,6419,177772,184422,55668,6446,87806,188642,189373,185428,9602,188642,NA,Sternberg task,11,8485,14,yes,1024
80,80,604.7333333,604.7333333,black,experiment,legacy,legacy,legacy,0,uniform,1,undefined,1,right,14,14,14,0,0,14,14,0,0,14,14,14,0,14,0,10/20/19 16:30,The main experiment item,yes,Sternbergtask.osexp,C:/Users/Edgar/Documents/Edgar School/Fall 2019/Lab 3-1,no,mono,no,18,no,white,no,yes,768,legacy,2,11,C:/Users/Edgar/Documents/Edgar School/Fall 2019/Lab 3-1/EJ-subject-1.csv,legacy,7 1 8 4 9 3,Kafkaesque Koffka,3.2.8,0,n,0,right,left,right,right,NA,586,3153,89962,586,NA,2,legacy,6,1024,2,48000,-16,experiment,1,odd,6,193017,183047,190795,6419,177772,190804,189422,6446,87806,195024,195612,191810,9602,195024,NA,Sternberg task,12,9071,15,yes,1024
81.25,81.25,603.25,603.25,black,experiment,legacy,legacy,legacy,0,uniform,1,undefined,1,right,15,15,15,0,0,15,15,0,0,15,15,15,0,15,0,10/20/19 16:30,The main experiment item,yes,Sternbergtask.osexp,C:/Users/Edgar/Documents/Edgar School/Fall 2019/Lab 3-1,no,mono,no,18,no,white,no,yes,768,legacy,3,11,C:/Users/Edgar/Documents/Edgar School/Fall 2019/Lab 3-1/EJ-subject-1.csv,legacy,1 3 2 6 9,Kafkaesque Koffka,3.2.8,0,n,0,right,left,right,right,NA,581,3153,89962,581,NA,2,legacy,5,1024,2,48000,-16,experiment,1,odd,5,199248,195657,197026,6419,177772,197034,189422,6446,87806,201257,201840,198039,9602,201257,NA,Sternberg task,13,9652,16,yes,1024
76.47058824,76.47058824,604.1764706,604.1764706,black,experiment,legacy,legacy,legacy,0,uniform,0,undefined,0,left,16,16,16,0,0,16,16,0,0,16,16,16,0,16,0,10/20/19 16:30,The main experiment item,yes,Sternbergtask.osexp,C:/Users/Edgar/Documents/Edgar School/Fall 2019/Lab 3-1,no,mono,no,18,no,white,no,yes,768,legacy,4,11,C:/Users/Edgar/Documents/Edgar School/Fall 2019/Lab 3-1/EJ-subject-1.csv,legacy,3 9 6 2,Kafkaesque Koffka,3.2.8,4,y,0,right,left,right,right,NA,619,3153,89962,619,NA,2,legacy,4,1024,2,48000,-16,experiment,1,odd,2,205491,201891,203270,6419,177772,203278,189422,6446,87806,207498,208119,204283,9602,207497,NA,Sternberg task,13,10271,17,yes,1024
77.77777778,77.77777778,605.8333333,605.8333333,black,experiment,legacy,legacy,legacy,0,uniform,1,undefined,1,left,17,17,17,0,0,17,17,0,0,17,17,17,0,17,0,10/20/19 16:30,The main experiment item,yes,Sternbergtask.osexp,C:/Users/Edgar/Documents/Edgar School/Fall 2019/Lab 3-1,no,mono,no,18,no,white,no,yes,768,legacy,5,11,C:/Users/Edgar/Documents/Edgar School/Fall 2019/Lab 3-1/EJ-subject-1.csv,legacy,2 8 5 1,Kafkaesque Koffka,3.2.8,4,y,0,left,left,right,left,NA,634,3153,89962,634,NA,2,legacy,4,1024,2,48000,-16,experiment,1,odd,1,211722,201891,209503,6419,177772,209510,208162,6446,87806,213730,214367,210516,9602,213730,NA,Sternberg task,14,10905,18,yes,1024
78.94736842,78.94736842,600.2105263,600.2105263,black,experiment,legacy,legacy,legacy,0,uniform,1,undefined,1,left,18,18,18,0,0,18,18,0,0,18,18,18,0,18,0,10/20/19 16:30,The main experiment item,yes,Sternbergtask.osexp,C:/Users/Edgar/Documents/Edgar School/Fall 2019/Lab 3-1,no,mono,no,18,no,white,no,yes,768,legacy,6,11,C:/Users/Edgar/Documents/Edgar School/Fall 2019/Lab 3-1/EJ-subject-1.csv,legacy,8 1 6,Kafkaesque Koffka,3.2.8,3,y,0,left,left,right,left,NA,499,3153,89962,499,NA,2,legacy,3,1024,2,48000,-16,experiment,1,odd,6,218051,214432,215831,6419,177772,215837,208162,6446,87806,220060,220563,216845,9602,220059,NA,Sternberg task,15,11404,19,yes,1024
80,80,600.3,600.3,black,experiment,legacy,legacy,legacy,0,uniform,1,undefined,1,right,19,19,19,0,0,19,19,0,0,19,19,19,0,19,0,10/20/19 16:30,The main experiment item,yes,Sternbergtask.osexp,C:/Users/Edgar/Documents/Edgar School/Fall 2019/Lab 3-1,no,mono,no,18,no,white,no,yes,768,legacy,7,11,C:/Users/Edgar/Documents/Edgar School/Fall 2019/Lab 3-1/EJ-subject-1.csv,legacy,4 2 7 6 1 3,Kafkaesque Koffka,3.2.8,0,n,0,right,left,right,right,NA,602,3153,89962,602,NA,2,legacy,6,1024,2,48000,-16,experiment,1,odd,8,224182,220603,221960,6419,177772,221968,208162,6446,87806,226190,226795,222975,9602,226190,NA,Sternberg task,16,12006,20,yes,1024
80.95238095,80.95238095,597.4285714,597.4285714,black,experiment,legacy,legacy,legacy,0,uniform,1,undefined,1,right,20,20,20,0,0,20,20,0,0,20,20,20,0,20,0,10/20/19 16:30,The main experiment item,yes,Sternbergtask.osexp,C:/Users/Edgar/Documents/Edgar School/Fall 2019/Lab 3-1,no,mono,no,18,no,white,no,yes,768,legacy,8,11,C:/Users/Edgar/Documents/Edgar School/Fall 2019/Lab 3-1/EJ-subject-1.csv,legacy,1 7 8 3 9,Kafkaesque Koffka,3.2.8,0,n,0,right,left,right,right,NA,540,3153,89962,540,NA,2,legacy,5,1024,2,48000,-16,experiment,1,odd,2,230428,226849,228207,6419,177772,228215,208162,6446,87806,232434,232976,229221,9602,232433,NA,Sternberg task,17,12546,21,yes,1024
81.81818182,81.81818182,600.5454545,600.5454545,black,experiment,legacy,legacy,legacy,0,uniform,1,undefined,1,left,21,21,21,0,0,21,21,0,0,21,21,21,0,21,0,10/20/19 16:30,The main experiment item,yes,Sternbergtask.osexp,C:/Users/Edgar/Documents/Edgar School/Fall 2019/Lab 3-1,no,mono,no,18,no,white,no,yes,768,legacy,9,11,C:/Users/Edgar/Documents/Edgar School/Fall 2019/Lab 3-1/EJ-subject-1.csv,legacy,9 6 2 4 1,Kafkaesque Koffka,3.2.8,4,y,0,left,left,right,left,NA,666,3153,89962,666,NA,2,legacy,5,1024,2,48000,-16,experiment,1,odd,4,236609,233028,234389,6419,177772,234397,208162,6446,87806,238615,239284,235403,9602,238615,NA,Sternberg task,18,13212,22,yes,1024
82.60869565,82.60869565,593.4782609,593.4782609,black,experiment,legacy,legacy,legacy,0,uniform,1,undefined,1,left,22,22,22,0,0,22,22,0,0,22,22,22,0,22,0,10/20/19 16:30,The main experiment item,yes,Sternbergtask.osexp,C:/Users/Edgar/Documents/Edgar School/Fall 2019/Lab 3-1,no,mono,no,18,no,white,no,yes,768,legacy,10,11,C:/Users/Edgar/Documents/Edgar School/Fall 2019/Lab 3-1/EJ-subject-1.csv,legacy,7 6,Kafkaesque Koffka,3.2.8,2,y,0,left,left,right,left,NA,438,3153,89962,438,NA,2,legacy,2,1024,2,48000,-16,experiment,1,odd,6,242937,239361,240715,6419,177772,240724,208162,6446,87806,244944,245385,241729,9602,244943,NA,Sternberg task,19,13650,23,yes,1024
83.33333333,83.33333333,597.7083333,597.7083333,black,experiment,legacy,legacy,legacy,0,uniform,1,undefined,1,left,23,23,23,0,0,23,23,0,0,23,23,23,0,23,0,10/20/19 16:30,The main experiment item,yes,Sternbergtask.osexp,C:/Users/Edgar/Documents/Edgar School/Fall 2019/Lab 3-1,no,mono,no,18,no,white,no,yes,768,legacy,11,11,C:/Users/Edgar/Documents/Edgar School/Fall 2019/Lab 3-1/EJ-subject-1.csv,legacy,8 9 6 1,Kafkaesque Koffka,3.2.8,2,y,0,left,left,right,left,NA,695,3153,89962,695,NA,2,legacy,4,1024,2,48000,-16,experiment,1,odd,9,249021,245443,246800,6419,177772,246808,208162,6446,87806,251028,251725,247816,9602,251028,NA,Sternberg task,20,14345,24,yes,1024
84,84,592.64,592.64,black,experiment,legacy,legacy,legacy,0,uniform,1,undefined,1,left,24,24,24,0,0,24,24,0,0,24,24,24,0,24,0,10/20/19 16:30,The main experiment item,yes,Sternbergtask.osexp,C:/Users/Edgar/Documents/Edgar School/Fall 2019/Lab 3-1,no,mono,no,18,no,white,no,yes,768,legacy,12,11,C:/Users/Edgar/Documents/Edgar School/Fall 2019/Lab 3-1/EJ-subject-1.csv,legacy,8,Kafkaesque Koffka,3.2.8,1,y,0,left,left,right,left,NA,471,3153,89962,471,NA,2,legacy,1,1024,2,48000,-16,experiment,1,odd,8,255356,251779,253134,6419,177772,253141,208162,6446,87806,257363,257836,254149,9602,257362,NA,Sternberg task,21,14816,25,yes,1024
84.61538462,84.61538462,593.1153846,593.1153846,black,experiment,legacy,legacy,legacy,0,uniform,1,undefined,1,left,25,25,25,0,0,25,25,0,0,25,25,25,0,25,0,10/20/19 16:30,The main experiment item,yes,Sternbergtask.osexp,C:/Users/Edgar/Documents/Edgar School/Fall 2019/Lab 3-1,no,mono,no,18,no,white,no,yes,768,legacy,13,11,C:/Users/Edgar/Documents/Edgar School/Fall 2019/Lab 3-1/EJ-subject-1.csv,legacy,8 3,Kafkaesque Koffka,3.2.8,2,y,0,left,left,right,left,NA,605,3153,89962,605,NA,2,legacy,2,1024,2,48000,-16,experiment,1,odd,3,261472,257890,259253,6419,177772,259261,208162,6446,87806,263480,264087,260267,9602,263480,NA,Sternberg task,22,15421,26,yes,1024
85.18518519,85.18518519,589.4814815,589.4814815,black,experiment,legacy,legacy,legacy,0,uniform,1,undefined,1,left,26,26,26,0,0,26,26,0,0,26,26,26,0,26,0,10/20/19 16:30,The main experiment item,yes,Sternbergtask.osexp,C:/Users/Edgar/Documents/Edgar School/Fall 2019/Lab 3-1,no,mono,no,18,no,white,no,yes,768,legacy,14,11,C:/Users/Edgar/Documents/Edgar School/Fall 2019/Lab 3-1/EJ-subject-1.csv,legacy,3 5 4 7,Kafkaesque Koffka,3.2.8,1,y,0,left,left,right,left,NA,495,3153,89962,495,NA,2,legacy,4,1024,2,48000,-16,experiment,1,odd,3,267719,264139,265496,6419,177772,265506,208162,6446,87806,269728,270226,266513,9602,269728,NA,Sternberg task,23,15916,27,yes,1024
85.71428571,85.71428571,591.3571429,591.3571429,black,experiment,legacy,legacy,legacy,0,uniform,1,undefined,1,right,27,27,27,0,0,27,27,0,0,27,27,27,0,27,0,10/20/19 16:30,The main experiment item,yes,Sternbergtask.osexp,C:/Users/Edgar/Documents/Edgar School/Fall 2019/Lab 3-1,no,mono,no,18,no,white,no,yes,768,legacy,15,11,C:/Users/Edgar/Documents/Edgar School/Fall 2019/Lab 3-1/EJ-subject-1.csv,legacy,3 4 9 6 7 8,Kafkaesque Koffka,3.2.8,0,n,0,right,left,right,right,NA,642,3153,89962,642,NA,2,legacy,6,1024,2,48000,-16,experiment,1,odd,2,273868,270282,271645,6419,177772,271654,208162,6446,87806,275875,276520,272661,9602,275875,NA,Sternberg task,24,16558,28,yes,1024
86.20689655,86.20689655,591.1034483,591.1034483,black,experiment,legacy,legacy,legacy,0,uniform,1,undefined,1,right,28,28,28,0,0,28,28,0,0,28,28,28,0,28,0,10/20/19 16:30,The main experiment item,yes,Sternbergtask.osexp,C:/Users/Edgar/Documents/Edgar School/Fall 2019/Lab 3-1,no,mono,no,18,no,white,no,yes,768,legacy,16,11,C:/Users/Edgar/Documents/Edgar School/Fall 2019/Lab 3-1/EJ-subject-1.csv,legacy,6 9 4 5 2,Kafkaesque Koffka,3.2.8,0,n,0,right,left,right,right,NA,584,3153,89962,584,NA,2,legacy,5,1024,2,48000,-16,experiment,1,odd,1,280150,276562,277928,6419,177772,277936,208162,6446,87806,282156,282743,278943,9602,282155,NA,Sternberg task,25,17142,29,yes,1024
86.66666667,86.66666667,609.2,609.2,black,experiment,legacy,legacy,legacy,0,uniform,1,undefined,1,right,29,29,29,0,0,29,29,0,0,29,29,29,0,29,0,10/20/19 16:30,The main experiment item,yes,Sternbergtask.osexp,C:/Users/Edgar/Documents/Edgar School/Fall 2019/Lab 3-1,no,mono,no,18,no,white,no,yes,768,legacy,17,11,C:/Users/Edgar/Documents/Edgar School/Fall 2019/Lab 3-1/EJ-subject-1.csv,legacy,6 9 4 5 3 2,Kafkaesque Koffka,3.2.8,0,n,0,right,left,right,right,NA,1134,3153,89962,1134,NA,2,legacy,6,1024,2,48000,-16,experiment,1,odd,8,286409,282831,284189,6419,177772,284197,208162,6446,87806,288416,289554,285202,9602,288416,NA,Sternberg task,26,18276,30,yes,1024
87.09677419,87.09677419,605.3870968,605.3870968,black,experiment,legacy,legacy,legacy,0,uniform,1,undefined,1,left,30,30,30,0,0,30,30,0,0,30,30,30,0,30,0,10/20/19 16:30,The main experiment item,yes,Sternbergtask.osexp,C:/Users/Edgar/Documents/Edgar School/Fall 2019/Lab 3-1,no,mono,no,18,no,white,no,yes,768,legacy,18,11,C:/Users/Edgar/Documents/Edgar School/Fall 2019/Lab 3-1/EJ-subject-1.csv,legacy,7 8 6 3 1,Kafkaesque Koffka,3.2.8,5,y,0,left,left,right,left,NA,491,3153,89962,491,NA,2,legacy,5,1024,2,48000,-16,experiment,1,odd,1,293199,289609,290978,6419,177772,290985,208162,6446,87806,295207,295701,291991,9602,295207,NA,Sternberg task,27,18767,31,yes,1024
87.5,87.5,614.125,614.125,black,experiment,legacy,legacy,legacy,0,uniform,1,undefined,1,right,31,31,31,0,0,31,31,0,0,31,31,31,0,31,0,10/20/19 16:30,The main experiment item,yes,Sternbergtask.osexp,C:/Users/Edgar/Documents/Edgar School/Fall 2019/Lab 3-1,no,mono,no,18,no,white,no,yes,768,legacy,19,11,C:/Users/Edgar/Documents/Edgar School/Fall 2019/Lab 3-1/EJ-subject-1.csv,legacy,2 6 4 3 9,Kafkaesque Koffka,3.2.8,0,n,0,right,left,right,right,NA,885,3153,89962,885,NA,2,legacy,5,1024,2,48000,-16,experiment,1,odd,1,299326,295744,297107,6419,177772,297114,208162,6446,87806,301333,302220,298120,9602,301333,NA,Sternberg task,28,19652,32,yes,1024
87.87878788,87.87878788,609.2727273,609.2727273,black,experiment,legacy,legacy,legacy,0,uniform,1,undefined,1,left,32,32,32,0,0,32,32,0,0,32,32,32,0,32,0,10/20/19 16:30,The main experiment item,yes,Sternbergtask.osexp,C:/Users/Edgar/Documents/Edgar School/Fall 2019/Lab 3-1,no,mono,no,18,no,white,no,yes,768,legacy,20,11,C:/Users/Edgar/Documents/Edgar School/Fall 2019/Lab 3-1/EJ-subject-1.csv,legacy,2 4 8 5 1 3,Kafkaesque Koffka,3.2.8,1,y,0,left,left,right,left,NA,454,3153,89962,454,NA,2,legacy,6,1024,2,48000,-16,experiment,1,odd,2,305865,302288,303644,6419,177772,303652,208162,6446,87806,307871,308329,304658,9602,307871,NA,Sternberg task,29,20106,33,yes,1024
88.23529412,88.23529412,607.6470588,607.6470588,black,experiment,legacy,legacy,legacy,0,uniform,1,undefined,1,right,33,33,33,0,0,33,33,0,0,33,33,33,0,33,0,10/20/19 16:30,The main experiment item,yes,Sternbergtask.osexp,C:/Users/Edgar/Documents/Edgar School/Fall 2019/Lab 3-1,no,mono,no,18,no,white,no,yes,768,legacy,21,11,C:/Users/Edgar/Documents/Edgar School/Fall 2019/Lab 3-1/EJ-subject-1.csv,legacy,2 8 9 4 1,Kafkaesque Koffka,3.2.8,0,n,0,right,left,right,right,NA,554,3153,89962,554,NA,2,legacy,5,1024,2,48000,-16,experiment,1,odd,5,311933,308356,309709,6419,177772,309717,208162,6446,87806,313940,314498,310724,9602,313940,NA,Sternberg task,30,20660,34,yes,1024
88.57142857,88.57142857,607.6571429,607.6571429,black,experiment,legacy,legacy,legacy,0,uniform,1,undefined,1,left,34,34,34,0,0,34,34,0,0,34,34,34,0,34,0,10/20/19 16:30,The main experiment item,yes,Sternbergtask.osexp,C:/Users/Edgar/Documents/Edgar School/Fall 2019/Lab 3-1,no,mono,no,18,no,white,no,yes,768,legacy,22,11,C:/Users/Edgar/Documents/Edgar School/Fall 2019/Lab 3-1/EJ-subject-1.csv,legacy,3 9 7 6 4,Kafkaesque Koffka,3.2.8,3,y,0,left,left,right,left,NA,608,3153,89962,608,NA,2,legacy,5,1024,2,48000,-16,experiment,1,odd,7,318149,314572,315927,6419,177772,315936,208162,6446,87806,320156,320766,316943,9602,320156,NA,Sternberg task,31,21268,35,yes,1024
88.88888889,88.88888889,605.75,605.75,black,experiment,legacy,legacy,legacy,0,uniform,1,undefined,1,right,35,35,35,0,0,35,35,0,0,35,35,35,0,35,0,10/20/19 16:30,The main experiment item,yes,Sternbergtask.osexp,C:/Users/Edgar/Documents/Edgar School/Fall 2019/Lab 3-1,no,mono,no,18,no,white,no,yes,768,legacy,23,11,C:/Users/Edgar/Documents/Edgar School/Fall 2019/Lab 3-1/EJ-subject-1.csv,legacy,5 9 2 3,Kafkaesque Koffka,3.2.8,0,n,0,right,left,right,right,NA,539,3153,89962,539,NA,2,legacy,4,1024,2,48000,-16,experiment,1,odd,8,324392,320815,322172,6419,177772,322180,208162,6446,87806,326400,326943,323187,9602,326399,NA,Sternberg task,32,21807,36,yes,1024
89.18918919,89.18918919,604.8378378,604.8378378,black,experiment,legacy,legacy,legacy,0,uniform,1,undefined,1,right,36,36,36,0,0,36,36,0,0,36,36,36,0,36,0,10/20/19 16:30,The main experiment item,yes,Sternbergtask.osexp,C:/Users/Edgar/Documents/Edgar School/Fall 2019/Lab 3-1,no,mono,no,18,no,white,no,yes,768,legacy,24,11,C:/Users/Edgar/Documents/Edgar School/Fall 2019/Lab 3-1/EJ-subject-1.csv,legacy,4 2 6 9,Kafkaesque Koffka,3.2.8,0,n,0,right,left,right,right,NA,572,3153,89962,572,NA,2,legacy,4,1024,2,48000,-16,experiment,1,odd,7,330566,327006,328347,6419,177772,328354,208162,6446,87806,332574,333149,329359,9602,332574,NA,Sternberg task,33,22379,37,yes,1024
89.47368421,89.47368421,603.9736842,603.9736842,black,experiment,legacy,legacy,legacy,0,uniform,1,undefined,1,right,37,37,37,0,0,37,37,0,0,37,37,37,0,37,0,10/20/19 16:30,The main experiment item,yes,Sternbergtask.osexp,C:/Users/Edgar/Documents/Edgar School/Fall 2019/Lab 3-1,no,mono,no,18,no,white,no,yes,768,legacy,25,11,C:/Users/Edgar/Documents/Edgar School/Fall 2019/Lab 3-1/EJ-subject-1.csv,legacy,2 7 5,Kafkaesque Koffka,3.2.8,0,n,0,right,left,right,right,NA,572,3153,89962,572,NA,2,legacy,3,1024,2,48000,-16,experiment,1,odd,8,336881,333251,334655,6419,177772,334664,208162,6446,87806,338888,339463,335674,9602,338888,NA,Sternberg task,34,22951,38,yes,1024
89.74358974,89.74358974,599.4615385,599.4615385,black,experiment,legacy,legacy,legacy,0,uniform,1,undefined,1,left,38,38,38,0,0,38,38,0,0,38,38,38,0,38,0,10/20/19 16:30,The main experiment item,yes,Sternbergtask.osexp,C:/Users/Edgar/Documents/Edgar School/Fall 2019/Lab 3-1,no,mono,no,18,no,white,no,yes,768,legacy,26,11,C:/Users/Edgar/Documents/Edgar School/Fall 2019/Lab 3-1/EJ-subject-1.csv,legacy,3 4,Kafkaesque Koffka,3.2.8,1,y,0,left,left,right,left,NA,428,3153,89962,428,NA,2,legacy,2,1024,2,48000,-16,experiment,1,odd,3,343115,339523,340892,6419,177772,340901,208162,6446,87806,345123,345555,341908,9602,345122,NA,Sternberg task,35,23379,39,yes,1024
90,90,598.325,598.325,black,experiment,legacy,legacy,legacy,0,uniform,1,undefined,1,left,39,39,39,0,0,39,39,0,0,39,39,39,0,39,0,10/20/19 16:30,The main experiment item,yes,Sternbergtask.osexp,C:/Users/Edgar/Documents/Edgar School/Fall 2019/Lab 3-1,no,mono,no,18,no,white,no,yes,768,legacy,27,11,C:/Users/Edgar/Documents/Edgar School/Fall 2019/Lab 3-1/EJ-subject-1.csv,legacy,7 8 4 6 9 5,Kafkaesque Koffka,3.2.8,4,y,0,left,left,right,left,NA,554,3153,89962,554,NA,2,legacy,6,1024,2,48000,-16,experiment,1,odd,6,349179,345603,346959,6419,177772,346967,208162,6446,87806,351185,351741,347974,9602,351184,NA,Sternberg task,36,23933,40,yes,1024
90.24390244,90.24390244,601.097561,601.097561,black,experiment,legacy,legacy,legacy,0,uniform,1,undefined,1,right,40,40,40,0,0,40,40,0,0,40,40,40,0,40,0,10/20/19 16:30,The main experiment item,yes,Sternbergtask.osexp,C:/Users/Edgar/Documents/Edgar School/Fall 2019/Lab 3-1,no,mono,no,18,no,white,no,yes,768,legacy,28,11,C:/Users/Edgar/Documents/Edgar School/Fall 2019/Lab 3-1/EJ-subject-1.csv,legacy,9 5 3 2 8 6,Kafkaesque Koffka,3.2.8,0,n,0,right,left,right,right,NA,712,3153,89962,712,NA,2,legacy,6,1024,2,48000,-16,experiment,1,odd,7,355366,351793,353144,6419,177772,353153,208162,6446,87806,357375,358091,354158,9602,357375,NA,Sternberg task,37,24645,41,yes,1024
90.47619048,90.47619048,597.5,597.5,black,experiment,legacy,legacy,legacy,0,uniform,1,undefined,1,left,41,41,41,0,0,41,41,0,0,41,41,41,0,41,0,10/20/19 16:30,The main experiment item,yes,Sternbergtask.osexp,C:/Users/Edgar/Documents/Edgar School/Fall 2019/Lab 3-1,no,mono,no,18,no,white,no,yes,768,legacy,29,11,C:/Users/Edgar/Documents/Edgar School/Fall 2019/Lab 3-1/EJ-subject-1.csv,legacy,4 6 5 8,Kafkaesque Koffka,3.2.8,1,y,0,left,left,right,left,NA,450,3153,89962,450,NA,2,legacy,4,1024,2,48000,-16,experiment,1,odd,4,361732,358152,359510,6419,177772,359518,208162,6446,87806,363740,364194,360526,9602,363740,NA,Sternberg task,38,25095,42,yes,1024
88.37209302,88.37209302,606.8372093,606.8372093,black,experiment,legacy,legacy,legacy,0,uniform,0,undefined,0,left,42,42,42,0,0,42,42,0,0,42,42,42,0,42,0,10/20/19 16:30,The main experiment item,yes,Sternbergtask.osexp,C:/Users/Edgar/Documents/Edgar School/Fall 2019/Lab 3-1,no,mono,no,18,no,white,no,yes,768,legacy,30,11,C:/Users/Edgar/Documents/Edgar School/Fall 2019/Lab 3-1/EJ-subject-1.csv,legacy,9 3 8 2 1 4,Kafkaesque Koffka,3.2.8,3,y,0,right,left,right,right,NA,999,3153,89962,999,NA,2,legacy,6,1024,2,48000,-16,experiment,1,odd,8,367868,364254,365646,6419,177772,365653,208162,6446,87806,369875,370878,366661,9602,369875,NA,Sternberg task,38,26094,43,yes,1024
88.63636364,88.63636364,605.4090909,605.4090909,black,experiment,legacy,legacy,legacy,0,uniform,1,undefined,1,right,43,43,43,0,0,43,43,0,0,43,43,43,0,43,0,10/20/19 16:30,The main experiment item,yes,Sternbergtask.osexp,C:/Users/Edgar/Documents/Edgar School/Fall 2019/Lab 3-1,no,mono,no,18,no,white,no,yes,768,legacy,31,11,C:/Users/Edgar/Documents/Edgar School/Fall 2019/Lab 3-1/EJ-subject-1.csv,legacy,7 9 1 6,Kafkaesque Koffka,3.2.8,0,n,0,right,left,right,right,NA,544,3153,89962,544,NA,2,legacy,4,1024,2,48000,-16,experiment,1,odd,4,374522,364254,372299,6419,177772,372307,370944,6446,87806,376530,377076,373314,9602,376529,NA,Sternberg task,39,26638,44,yes,1024
88.88888889,88.88888889,604.2888889,604.2888889,black,experiment,legacy,legacy,legacy,0,uniform,1,undefined,1,right,44,44,44,0,0,44,44,0,0,44,44,44,0,44,0,10/20/19 16:30,The main experiment item,yes,Sternbergtask.osexp,C:/Users/Edgar/Documents/Edgar School/Fall 2019/Lab 3-1,no,mono,no,18,no,white,no,yes,768,legacy,32,11,C:/Users/Edgar/Documents/Edgar School/Fall 2019/Lab 3-1/EJ-subject-1.csv,legacy,6 8 4,Kafkaesque Koffka,3.2.8,0,n,0,right,left,right,right,NA,555,3153,89962,555,NA,2,legacy,3,1024,2,48000,-16,experiment,1,odd,1,380705,377134,378484,6419,177772,378491,370944,6446,87806,382712,383270,379498,9602,382712,NA,Sternberg task,40,27193,45,yes,1024
89.13043478,89.13043478,603.2173913,603.2173913,black,experiment,legacy,legacy,legacy,0,uniform,1,undefined,1,left,45,45,45,0,0,45,45,0,0,45,45,45,0,45,0,10/20/19 16:30,The main experiment item,yes,Sternbergtask.osexp,C:/Users/Edgar/Documents/Edgar School/Fall 2019/Lab 3-1,no,mono,no,18,no,white,no,yes,768,legacy,33,11,C:/Users/Edgar/Documents/Edgar School/Fall 2019/Lab 3-1/EJ-subject-1.csv,legacy,9 1 6 7 8,Kafkaesque Koffka,3.2.8,1,y,0,left,left,right,left,NA,555,3153,89962,555,NA,2,legacy,5,1024,2,48000,-16,experiment,1,odd,9,386901,383336,384682,6419,177772,384689,370944,6446,87806,388907,389466,385696,9602,388906,NA,Sternberg task,41,27748,46,yes,1024
89.36170213,89.36170213,601.7446809,601.7446809,black,experiment,legacy,legacy,legacy,0,uniform,1,undefined,1,right,46,46,46,0,0,46,46,0,0,46,46,46,0,46,0,10/20/19 16:30,The main experiment item,yes,Sternbergtask.osexp,C:/Users/Edgar/Documents/Edgar School/Fall 2019/Lab 3-1,no,mono,no,18,no,white,no,yes,768,legacy,34,11,C:/Users/Edgar/Documents/Edgar School/Fall 2019/Lab 3-1/EJ-subject-1.csv,legacy,9,Kafkaesque Koffka,3.2.8,0,n,0,right,left,right,right,NA,534,3153,89962,534,NA,2,legacy,1,1024,2,48000,-16,experiment,1,odd,6,393123,389538,390902,6419,177772,390909,370944,6446,87806,395129,395667,391915,9602,395129,NA,Sternberg task,42,28282,47,yes,1024
89.58333333,89.58333333,597.9166667,597.9166667,black,experiment,legacy,legacy,legacy,0,uniform,1,undefined,1,left,47,47,47,0,0,47,47,0,0,47,47,47,0,47,0,10/20/19 16:30,The main experiment item,yes,Sternbergtask.osexp,C:/Users/Edgar/Documents/Edgar School/Fall 2019/Lab 3-1,no,mono,no,18,no,white,no,yes,768,legacy,35,11,C:/Users/Edgar/Documents/Edgar School/Fall 2019/Lab 3-1/EJ-subject-1.csv,legacy,2 3 7 4,Kafkaesque Koffka,3.2.8,1,y,0,left,left,right,left,NA,418,3153,89962,418,NA,2,legacy,4,1024,2,48000,-16,experiment,1,odd,2,399320,395729,397098,6419,177772,397105,370944,6446,87806,401329,401751,398113,9602,401328,NA,Sternberg task,43,28700,48,yes,1024
89.79591837,89.79591837,598.5306122,598.5306122,black,experiment,legacy,legacy,legacy,0,uniform,1,undefined,1,right,48,48,48,0,0,48,48,0,0,48,48,48,0,48,0,10/20/19 16:30,The main experiment item,yes,Sternbergtask.osexp,C:/Users/Edgar/Documents/Edgar School/Fall 2019/Lab 3-1,no,mono,no,18,no,white,no,yes,768,legacy,36,11,C:/Users/Edgar/Documents/Edgar School/Fall 2019/Lab 3-1/EJ-subject-1.csv,legacy,8 5 7 3 6,Kafkaesque Koffka,3.2.8,0,n,0,right,left,right,right,NA,628,3153,89962,628,NA,2,legacy,5,1024,2,48000,-16,experiment,1,odd,9,405413,401829,403194,6419,177772,403201,370944,6446,87806,407420,408054,404207,9602,407420,NA,Sternberg task,44,29328,49,yes,1024
90,90,595.94,595.94,black,experiment,legacy,legacy,legacy,0,uniform,1,undefined,1,left,49,49,49,0,0,49,49,0,0,49,49,49,0,49,0,10/20/19 16:30,The main experiment item,yes,Sternbergtask.osexp,C:/Users/Edgar/Documents/Edgar School/Fall 2019/Lab 3-1,no,mono,no,18,no,white,no,yes,768,legacy,37,11,C:/Users/Edgar/Documents/Edgar School/Fall 2019/Lab 3-1/EJ-subject-1.csv,legacy,6 2,Kafkaesque Koffka,3.2.8,1,y,0,left,left,right,left,NA,469,3153,89962,469,NA,2,legacy,2,1024,2,48000,-16,experiment,1,odd,6,411707,408132,409487,6419,177772,409495,370944,6446,87806,413715,414189,410500,9602,413715,NA,Sternberg task,45,29797,50,yes,1024
88.23529412,88.23529412,595.7058824,595.7058824,black,experiment,legacy,legacy,legacy,0,uniform,0,undefined,0,left,50,50,50,0,0,50,50,0,0,50,50,50,0,50,0,10/20/19 16:30,The main experiment item,yes,Sternbergtask.osexp,C:/Users/Edgar/Documents/Edgar School/Fall 2019/Lab 3-1,no,mono,no,18,no,white,no,yes,768,legacy,38,11,C:/Users/Edgar/Documents/Edgar School/Fall 2019/Lab 3-1/EJ-subject-1.csv,legacy,8 5 1 3 9,Kafkaesque Koffka,3.2.8,4,y,0,right,left,right,right,NA,584,3153,89962,584,NA,2,legacy,5,1024,2,48000,-16,experiment,1,odd,3,417801,414234,415581,6419,177772,415589,370944,6446,87806,419807,420395,416594,9602,419806,NA,Sternberg task,45,30381,51,yes,1024
88.46153846,88.46153846,593.8269231,593.8269231,black,experiment,legacy,legacy,legacy,0,uniform,1,undefined,1,left,51,51,51,0,0,51,51,0,0,51,51,51,0,51,0,10/20/19 16:30,The main experiment item,yes,Sternbergtask.osexp,C:/Users/Edgar/Documents/Edgar School/Fall 2019/Lab 3-1,no,mono,no,18,no,white,no,yes,768,legacy,39,11,C:/Users/Edgar/Documents/Edgar School/Fall 2019/Lab 3-1/EJ-subject-1.csv,legacy,6 1 2,Kafkaesque Koffka,3.2.8,3,y,0,left,left,right,left,NA,498,3153,89962,498,NA,2,legacy,3,1024,2,48000,-16,experiment,1,odd,2,424030,414234,421811,6419,177772,421818,420457,6446,87806,426038,426540,422824,9602,426037,NA,Sternberg task,46,30879,52,yes,1024
88.67924528,88.67924528,594.9433962,594.9433962,black,experiment,legacy,legacy,legacy,0,uniform,1,undefined,1,right,52,52,52,0,0,52,52,0,0,52,52,52,0,52,0,10/20/19 16:30,The main experiment item,yes,Sternbergtask.osexp,C:/Users/Edgar/Documents/Edgar School/Fall 2019/Lab 3-1,no,mono,no,18,no,white,no,yes,768,legacy,40,11,C:/Users/Edgar/Documents/Edgar School/Fall 2019/Lab 3-1/EJ-subject-1.csv,legacy,9 8 2 7 4,Kafkaesque Koffka,3.2.8,0,n,0,right,left,right,right,NA,653,3153,89962,653,NA,2,legacy,5,1024,2,48000,-16,experiment,1,odd,5,430180,426606,427960,6419,177772,427967,420457,6446,87806,432187,432845,428974,9602,432187,NA,Sternberg task,47,31532,53,yes,1024
88.88888889,88.88888889,593.8518519,593.8518519,black,experiment,legacy,legacy,legacy,0,uniform,1,undefined,1,right,53,53,53,0,0,53,53,0,0,53,53,53,0,53,0,10/20/19 16:30,The main experiment item,yes,Sternbergtask.osexp,C:/Users/Edgar/Documents/Edgar School/Fall 2019/Lab 3-1,no,mono,no,18,no,white,no,yes,768,legacy,41,11,C:/Users/Edgar/Documents/Edgar School/Fall 2019/Lab 3-1/EJ-subject-1.csv,legacy,4 8 1 2,Kafkaesque Koffka,3.2.8,0,n,0,right,left,right,right,NA,536,3153,89962,536,NA,2,legacy,4,1024,2,48000,-16,experiment,1,odd,7,436507,432916,434283,6419,177772,434290,420457,6446,87806,438514,439055,435297,9602,438513,NA,Sternberg task,48,32068,54,yes,1024
89.09090909,89.09090909,594,594,black,experiment,legacy,legacy,legacy,0,uniform,1,undefined,1,right,54,54,54,0,0,54,54,0,0,54,54,54,0,54,0,10/20/19 16:30,The main experiment item,yes,Sternbergtask.osexp,C:/Users/Edgar/Documents/Edgar School/Fall 2019/Lab 3-1,no,mono,no,18,no,white,no,yes,768,legacy,42,11,C:/Users/Edgar/Documents/Edgar School/Fall 2019/Lab 3-1/EJ-subject-1.csv,legacy,3 9 8 1 6 4,Kafkaesque Koffka,3.2.8,0,n,0,right,left,right,right,NA,602,3153,89962,602,NA,2,legacy,6,1024,2,48000,-16,experiment,1,odd,7,442732,439153,440510,6419,177772,440517,420457,6446,87806,444738,445344,441525,9602,444738,NA,Sternberg task,49,32670,55,yes,1024
89.28571429,89.28571429,597.6964286,597.6964286,black,experiment,legacy,legacy,legacy,0,uniform,1,undefined,1,left,55,55,55,0,0,55,55,0,0,55,55,55,0,55,0,10/20/19 16:30,The main experiment item,yes,Sternbergtask.osexp,C:/Users/Edgar/Documents/Edgar School/Fall 2019/Lab 3-1,no,mono,no,18,no,white,no,yes,768,legacy,43,11,C:/Users/Edgar/Documents/Edgar School/Fall 2019/Lab 3-1/EJ-subject-1.csv,legacy,9 1 7 2,Kafkaesque Koffka,3.2.8,2,y,0,left,left,right,left,NA,801,3153,89962,801,NA,2,legacy,4,1024,2,48000,-16,experiment,1,odd,1,449006,445420,446783,6419,177772,446791,420457,6446,87806,451013,451818,447799,9602,451013,NA,Sternberg task,50,33471,56,yes,1024
89.47368421,89.47368421,597.2982456,597.2982456,black,experiment,legacy,legacy,legacy,0,uniform,1,undefined,1,left,56,56,56,0,0,56,56,0,0,56,56,56,0,56,0,10/20/19 16:30,The main experiment item,yes,Sternbergtask.osexp,C:/Users/Edgar/Documents/Edgar School/Fall 2019/Lab 3-1,no,mono,no,18,no,white,no,yes,768,legacy,44,11,C:/Users/Edgar/Documents/Edgar School/Fall 2019/Lab 3-1/EJ-subject-1.csv,legacy,9 5 8 1,Kafkaesque Koffka,3.2.8,2,y,0,left,left,right,left,NA,575,3153,89962,575,NA,2,legacy,4,1024,2,48000,-16,experiment,1,odd,5,455465,451877,453244,6419,177772,453251,420457,6446,87806,457471,458050,454258,9602,457471,NA,Sternberg task,51,34046,57,yes,1024
89.65517241,89.65517241,597.3793103,597.3793103,black,experiment,legacy,legacy,legacy,0,uniform,1,undefined,1,right,57,57,57,0,0,57,57,0,0,57,57,57,0,57,0,10/20/19 16:30,The main experiment item,yes,Sternbergtask.osexp,C:/Users/Edgar/Documents/Edgar School/Fall 2019/Lab 3-1,no,mono,no,18,no,white,no,yes,768,legacy,45,11,C:/Users/Edgar/Documents/Edgar School/Fall 2019/Lab 3-1/EJ-subject-1.csv,legacy,6 9 7 3 8 2,Kafkaesque Koffka,3.2.8,0,n,0,right,left,right,right,NA,602,3153,89962,602,NA,2,legacy,6,1024,2,48000,-16,experiment,1,odd,5,461710,458125,459488,6419,177772,459497,420457,6446,87806,463716,464322,460504,9602,463716,NA,Sternberg task,52,34648,58,yes,1024
89.83050847,89.83050847,597.7457627,597.7457627,black,experiment,legacy,legacy,legacy,0,uniform,1,undefined,1,right,58,58,58,0,0,58,58,0,0,58,58,58,0,58,0,10/20/19 16:30,The main experiment item,yes,Sternbergtask.osexp,C:/Users/Edgar/Documents/Edgar School/Fall 2019/Lab 3-1,no,mono,no,18,no,white,no,yes,768,legacy,46,11,C:/Users/Edgar/Documents/Edgar School/Fall 2019/Lab 3-1/EJ-subject-1.csv,legacy,8 6 3 4 7,Kafkaesque Koffka,3.2.8,0,n,0,right,left,right,right,NA,619,3153,89962,619,NA,2,legacy,5,1024,2,48000,-16,experiment,1,odd,1,467953,464369,465732,6419,177772,465739,420457,6446,87806,469960,470582,466746,9602,469960,NA,Sternberg task,53,35267,59,yes,1024
90,90,600.25,600.25,black,experiment,legacy,legacy,legacy,0,uniform,1,undefined,1,left,59,59,59,0,0,59,59,0,0,59,59,59,0,59,0,10/20/19 16:30,The main experiment item,yes,Sternbergtask.osexp,C:/Users/Edgar/Documents/Edgar School/Fall 2019/Lab 3-1,no,mono,no,18,no,white,no,yes,768,legacy,47,11,C:/Users/Edgar/Documents/Edgar School/Fall 2019/Lab 3-1/EJ-subject-1.csv,legacy,4 1 5,Kafkaesque Koffka,3.2.8,2,y,0,left,left,right,left,NA,748,3153,89962,748,NA,2,legacy,3,1024,2,48000,-16,experiment,1,odd,1,474258,470650,472035,6419,177772,472043,420457,6446,87806,476265,477017,473052,9602,476264,NA,Sternberg task,54,36015,60,yes,1024
88.52459016,88.52459016,606.7213115,606.7213115,black,experiment,legacy,legacy,legacy,0,uniform,0,undefined,0,right,60,60,60,0,0,60,60,0,0,60,60,60,0,60,0,10/20/19 16:30,The main experiment item,yes,Sternbergtask.osexp,C:/Users/Edgar/Documents/Edgar School/Fall 2019/Lab 3-1,no,mono,no,18,no,white,no,yes,768,legacy,48,11,C:/Users/Edgar/Documents/Edgar School/Fall 2019/Lab 3-1/EJ-subject-1.csv,legacy,1 5 3 2 8,Kafkaesque Koffka,3.2.8,0,n,0,left,left,right,left,NA,995,3153,89962,995,NA,2,legacy,5,1024,2,48000,-16,experiment,1,odd,4,480658,477082,478441,6419,177772,478448,420457,6446,87806,482665,483664,479453,9602,482665,NA,Sternberg task,54,37010,61,yes,1024
88.70967742,88.70967742,606.6451613,606.6451613,black,experiment,legacy,legacy,legacy,0,uniform,1,undefined,1,left,61,61,61,0,0,61,61,0,0,61,61,61,0,61,0,10/20/19 16:30,The main experiment item,yes,Sternbergtask.osexp,C:/Users/Edgar/Documents/Edgar School/Fall 2019/Lab 3-1,no,mono,no,18,no,white,no,yes,768,legacy,49,11,C:/Users/Edgar/Documents/Edgar School/Fall 2019/Lab 3-1/EJ-subject-1.csv,legacy,4 3 2 5 8,Kafkaesque Koffka,3.2.8,2,y,0,left,left,right,left,NA,602,3153,89962,602,NA,2,legacy,5,1024,2,48000,-16,experiment,1,odd,3,487307,477082,485086,6419,177772,485094,483728,6446,87806,489314,489921,486101,9602,489313,NA,Sternberg task,55,37612,62,yes,1024
88.88888889,88.88888889,604.2222222,604.2222222,black,experiment,legacy,legacy,legacy,0,uniform,1,undefined,1,left,62,62,62,0,0,62,62,0,0,62,62,62,0,62,0,10/20/19 16:30,The main experiment item,yes,Sternbergtask.osexp,C:/Users/Edgar/Documents/Edgar School/Fall 2019/Lab 3-1,no,mono,no,18,no,white,no,yes,768,legacy,50,11,C:/Users/Edgar/Documents/Edgar School/Fall 2019/Lab 3-1/EJ-subject-1.csv,legacy,7 1 3,Kafkaesque Koffka,3.2.8,2,y,0,left,left,right,left,NA,454,3153,89962,454,NA,2,legacy,3,1024,2,48000,-16,experiment,1,odd,1,493544,489964,491325,6419,177772,491331,483728,6446,87806,495551,496008,492337,9602,495551,NA,Sternberg task,56,38066,63,yes,1024
89.0625,89.0625,603.828125,603.828125,black,experiment,legacy,legacy,legacy,0,uniform,1,undefined,1,right,63,63,63,0,0,63,63,0,0,63,63,63,0,63,0,10/20/19 16:30,The main experiment item,yes,Sternbergtask.osexp,C:/Users/Edgar/Documents/Edgar School/Fall 2019/Lab 3-1,no,mono,no,18,no,white,no,yes,768,legacy,51,11,C:/Users/Edgar/Documents/Edgar School/Fall 2019/Lab 3-1/EJ-subject-1.csv,legacy,5 2,Kafkaesque Koffka,3.2.8,0,n,0,right,left,right,right,NA,579,3153,89962,579,NA,2,legacy,2,1024,2,48000,-16,experiment,1,odd,7,499651,496065,497432,6419,177772,497440,483728,6446,87806,501657,502239,498446,9602,501656,NA,Sternberg task,57,38645,64,yes,1024
89.23076923,89.23076923,603.3692308,603.3692308,black,experiment,legacy,legacy,legacy,0,uniform,1,undefined,1,right,64,64,64,0,0,64,64,0,0,64,64,64,0,64,0,10/20/19 16:30,The main experiment item,yes,Sternbergtask.osexp,C:/Users/Edgar/Documents/Edgar School/Fall 2019/Lab 3-1,no,mono,no,18,no,white,no,yes,768,legacy,52,11,C:/Users/Edgar/Documents/Edgar School/Fall 2019/Lab 3-1/EJ-subject-1.csv,legacy,9 7 4 5 8,Kafkaesque Koffka,3.2.8,0,n,0,right,left,right,right,NA,574,3153,89962,574,NA,2,legacy,5,1024,2,48000,-16,experiment,1,odd,6,505897,502311,503677,6419,177772,503685,483728,6446,87806,507905,508484,504692,9602,507904,NA,Sternberg task,58,39219,65,yes,1024
89.39393939,89.39393939,602.3030303,602.3030303,black,experiment,legacy,legacy,legacy,0,uniform,1,undefined,1,right,65,65,65,0,0,65,65,0,0,65,65,65,0,65,0,10/20/19 16:30,The main experiment item,yes,Sternbergtask.osexp,C:/Users/Edgar/Documents/Edgar School/Fall 2019/Lab 3-1,no,mono,no,18,no,white,no,yes,768,legacy,53,11,C:/Users/Edgar/Documents/Edgar School/Fall 2019/Lab 3-1/EJ-subject-1.csv,legacy,6 9 5,Kafkaesque Koffka,3.2.8,0,n,0,right,left,right,right,NA,533,3153,89962,533,NA,2,legacy,3,1024,2,48000,-16,experiment,1,odd,8,512135,508558,509913,6419,177772,509922,483728,6446,87806,514141,514678,510928,9602,514141,NA,Sternberg task,59,39752,66,yes,1024
89.55223881,89.55223881,600.0746269,600.0746269,black,experiment,legacy,legacy,legacy,0,uniform,1,undefined,1,left,66,66,66,0,0,66,66,0,0,66,66,66,0,66,0,10/20/19 16:30,The main experiment item,yes,Sternbergtask.osexp,C:/Users/Edgar/Documents/Edgar School/Fall 2019/Lab 3-1,no,mono,no,18,no,white,no,yes,768,legacy,54,11,C:/Users/Edgar/Documents/Edgar School/Fall 2019/Lab 3-1/EJ-subject-1.csv,legacy,2 3,Kafkaesque Koffka,3.2.8,1,y,0,left,left,right,left,NA,453,3153,89962,453,NA,2,legacy,2,1024,2,48000,-16,experiment,1,odd,2,518328,514749,516110,6419,177772,516117,483728,6446,87806,520336,520792,517122,9602,520335,NA,Sternberg task,60,40205,67,yes,1024
89.70588235,89.70588235,598.8676471,598.8676471,black,experiment,legacy,legacy,legacy,0,uniform,1,undefined,1,left,67,67,67,0,0,67,67,0,0,67,67,67,0,67,0,10/20/19 16:30,The main experiment item,yes,Sternbergtask.osexp,C:/Users/Edgar/Documents/Edgar School/Fall 2019/Lab 3-1,no,mono,no,18,no,white,no,yes,768,legacy,55,11,C:/Users/Edgar/Documents/Edgar School/Fall 2019/Lab 3-1/EJ-subject-1.csv,legacy,7 4 2 6 3 5,Kafkaesque Koffka,3.2.8,6,y,0,left,left,right,left,NA,518,3153,89962,518,NA,2,legacy,6,1024,2,48000,-16,experiment,1,odd,5,524448,520865,522226,6419,177772,522233,483728,6446,87806,526455,526977,523240,9602,526454,NA,Sternberg task,61,40723,68,yes,1024
89.85507246,89.85507246,597.1594203,597.1594203,black,experiment,legacy,legacy,legacy,0,uniform,1,undefined,1,right,68,68,68,0,0,68,68,0,0,68,68,68,0,68,0,10/20/19 16:30,The main experiment item,yes,Sternbergtask.osexp,C:/Users/Edgar/Documents/Edgar School/Fall 2019/Lab 3-1,no,mono,no,18,no,white,no,yes,768,legacy,56,11,C:/Users/Edgar/Documents/Edgar School/Fall 2019/Lab 3-1/EJ-subject-1.csv,legacy,4 1,Kafkaesque Koffka,3.2.8,0,n,0,right,left,right,right,NA,481,3153,89962,481,NA,2,legacy,2,1024,2,48000,-16,experiment,1,odd,6,530640,527043,528418,6419,177772,528425,483728,6446,87806,532646,533131,529431,9602,532645,NA,Sternberg task,62,41204,69,yes,1024
90,90,598.2428571,598.2428571,black,experiment,legacy,legacy,legacy,0,uniform,1,undefined,1,right,69,69,69,0,0,69,69,0,0,69,69,69,0,69,0,10/20/19 16:30,The main experiment item,yes,Sternbergtask.osexp,C:/Users/Edgar/Documents/Edgar School/Fall 2019/Lab 3-1,no,mono,no,18,no,white,no,yes,768,legacy,57,11,C:/Users/Edgar/Documents/Edgar School/Fall 2019/Lab 3-1/EJ-subject-1.csv,legacy,6 7 5 9,Kafkaesque Koffka,3.2.8,0,n,0,right,left,right,right,NA,673,3153,89962,673,NA,2,legacy,4,1024,2,48000,-16,experiment,1,odd,2,536777,533199,534556,6419,177772,534563,483728,6446,87806,538786,539464,535571,9602,538786,NA,Sternberg task,63,41877,70,yes,1024
90.14084507,90.14084507,597.6901408,597.6901408,black,experiment,legacy,legacy,legacy,0,uniform,1,undefined,1,right,70,70,70,0,0,70,70,0,0,70,70,70,0,70,0,10/20/19 16:30,The main experiment item,yes,Sternbergtask.osexp,C:/Users/Edgar/Documents/Edgar School/Fall 2019/Lab 3-1,no,mono,no,18,no,white,no,yes,768,legacy,58,11,C:/Users/Edgar/Documents/Edgar School/Fall 2019/Lab 3-1/EJ-subject-1.csv,legacy,7 3 2 8,Kafkaesque Koffka,3.2.8,0,n,0,right,left,right,right,NA,559,3153,89962,559,NA,2,legacy,4,1024,2,48000,-16,experiment,1,odd,4,543103,539532,540884,6419,177772,540891,483728,6446,87806,545111,545678,541897,9602,545111,NA,Sternberg task,64,42436,71,yes,1024
90.27777778,90.27777778,597.4027778,597.4027778,black,experiment,legacy,legacy,legacy,0,uniform,1,undefined,1,right,71,71,71,0,0,71,71,0,0,71,71,71,0,71,0,10/20/19 16:30,The main experiment item,yes,Sternbergtask.osexp,C:/Users/Edgar/Documents/Edgar School/Fall 2019/Lab 3-1,no,mono,no,18,no,white,no,yes,768,legacy,59,11,C:/Users/Edgar/Documents/Edgar School/Fall 2019/Lab 3-1/EJ-subject-1.csv,legacy,2 8 6 3 1,Kafkaesque Koffka,3.2.8,0,n,0,right,left,right,right,NA,577,3153,89962,577,NA,2,legacy,5,1024,2,48000,-16,experiment,1,odd,7,549363,545746,547141,6419,177772,547148,483728,6446,87806,551373,551955,548153,9602,551372,NA,Sternberg task,65,43013,72,yes,1024
90.4109589,90.4109589,596.4246575,596.4246575,black,experiment,legacy,legacy,legacy,0,uniform,1,undefined,1,right,72,72,72,0,0,72,72,0,0,72,72,72,0,72,0,10/20/19 16:30,The main experiment item,yes,Sternbergtask.osexp,C:/Users/Edgar/Documents/Edgar School/Fall 2019/Lab 3-1,no,mono,no,18,no,white,no,yes,768,legacy,60,11,C:/Users/Edgar/Documents/Edgar School/Fall 2019/Lab 3-1/EJ-subject-1.csv,legacy,2 5 1 4,Kafkaesque Koffka,3.2.8,0,n,0,right,left,right,right,NA,526,3153,89962,526,NA,2,legacy,4,1024,2,48000,-16,experiment,1,odd,6,555611,552027,553389,6419,177772,553399,483728,6446,87806,557617,558148,554404,9602,557617,NA,Sternberg task,66,43539,73,yes,1024
90.54054054,90.54054054,596.4189189,596.4189189,black,experiment,legacy,legacy,legacy,0,uniform,1,undefined,1,right,73,73,73,0,0,73,73,0,0,73,73,73,0,73,0,10/20/19 16:30,The main experiment item,yes,Sternbergtask.osexp,C:/Users/Edgar/Documents/Edgar School/Fall 2019/Lab 3-1,no,mono,no,18,no,white,no,yes,768,legacy,61,11,C:/Users/Edgar/Documents/Edgar School/Fall 2019/Lab 3-1/EJ-subject-1.csv,legacy,8 2 1 4 5 9,Kafkaesque Koffka,3.2.8,0,n,0,right,left,right,right,NA,596,3153,89962,596,NA,2,legacy,6,1024,2,48000,-16,experiment,1,odd,7,561797,558214,559577,6419,177772,559584,483728,6446,87806,563804,564405,560591,9602,563804,NA,Sternberg task,67,44135,74,yes,1024
90.66666667,90.66666667,595.12,595.12,black,experiment,legacy,legacy,legacy,0,uniform,1,undefined,1,right,74,74,74,0,0,74,74,0,0,74,74,74,0,74,0,10/20/19 16:30,The main experiment item,yes,Sternbergtask.osexp,C:/Users/Edgar/Documents/Edgar School/Fall 2019/Lab 3-1,no,mono,no,18,no,white,no,yes,768,legacy,62,11,C:/Users/Edgar/Documents/Edgar School/Fall 2019/Lab 3-1/EJ-subject-1.csv,legacy,7 8 6 1,Kafkaesque Koffka,3.2.8,0,n,0,right,left,right,right,NA,499,3153,89962,499,NA,2,legacy,4,1024,2,48000,-16,experiment,1,odd,3,568163,564575,565942,6419,177772,565950,483728,6446,87806,570169,570675,566955,9602,570169,NA,Sternberg task,68,44634,75,yes,1024
90.78947368,90.78947368,596.7105263,596.7105263,black,experiment,legacy,legacy,legacy,0,uniform,1,undefined,1,left,75,75,75,0,0,75,75,0,0,75,75,75,0,75,0,10/20/19 16:30,The main experiment item,yes,Sternbergtask.osexp,C:/Users/Edgar/Documents/Edgar School/Fall 2019/Lab 3-1,no,mono,no,18,no,white,no,yes,768,legacy,63,11,C:/Users/Edgar/Documents/Edgar School/Fall 2019/Lab 3-1/EJ-subject-1.csv,legacy,3 5 9 6 2 4,Kafkaesque Koffka,3.2.8,1,y,0,left,left,right,left,NA,716,3153,89962,716,NA,2,legacy,6,1024,2,48000,-16,experiment,1,odd,3,574337,570754,572114,6419,177772,572121,483728,6446,87806,576346,577068,573129,9602,576346,NA,Sternberg task,69,45350,76,yes,1024
90.90909091,90.90909091,596.0519481,596.0519481,black,experiment,legacy,legacy,legacy,0,uniform,1,undefined,1,right,76,76,76,0,0,76,76,0,0,76,76,76,0,76,0,10/20/19 16:30,The main experiment item,yes,Sternbergtask.osexp,C:/Users/Edgar/Documents/Edgar School/Fall 2019/Lab 3-1,no,mono,no,18,no,white,no,yes,768,legacy,64,11,C:/Users/Edgar/Documents/Edgar School/Fall 2019/Lab 3-1/EJ-subject-1.csv,legacy,6 8,Kafkaesque Koffka,3.2.8,0,n,0,right,left,right,right,NA,546,3153,89962,546,NA,2,legacy,2,1024,2,48000,-16,experiment,1,odd,9,580703,577121,578482,6419,177772,578489,483728,6446,87806,582710,583263,579496,9602,582709,NA,Sternberg task,70,45896,77,yes,1024
91.02564103,91.02564103,594.7564103,594.7564103,black,experiment,legacy,legacy,legacy,0,uniform,1,undefined,1,right,77,77,77,0,0,77,77,0,0,77,77,77,0,77,0,10/20/19 16:30,The main experiment item,yes,Sternbergtask.osexp,C:/Users/Edgar/Documents/Edgar School/Fall 2019/Lab 3-1,no,mono,no,18,no,white,no,yes,768,legacy,65,11,C:/Users/Edgar/Documents/Edgar School/Fall 2019/Lab 3-1/EJ-subject-1.csv,legacy,5,Kafkaesque Koffka,3.2.8,0,n,0,right,left,right,right,NA,495,3153,89962,495,NA,2,legacy,1,1024,2,48000,-16,experiment,1,odd,8,586889,583323,584666,6419,177772,584674,483728,6446,87806,588895,589395,585682,9602,588894,NA,Sternberg task,71,46391,78,yes,1024
91.13924051,91.13924051,594.7341772,594.7341772,black,experiment,legacy,legacy,legacy,0,uniform,1,undefined,1,right,78,78,78,0,0,78,78,0,0,78,78,78,0,78,0,10/20/19 16:30,The main experiment item,yes,Sternbergtask.osexp,C:/Users/Edgar/Documents/Edgar School/Fall 2019/Lab 3-1,no,mono,no,18,no,white,no,yes,768,legacy,66,11,C:/Users/Edgar/Documents/Edgar School/Fall 2019/Lab 3-1/EJ-subject-1.csv,legacy,1 4 9 3,Kafkaesque Koffka,3.2.8,0,n,0,right,left,right,right,NA,593,3153,89962,593,NA,2,legacy,4,1024,2,48000,-16,experiment,1,odd,5,593016,589458,590795,6419,177772,590802,483728,6446,87806,595023,595622,591810,9602,595022,NA,Sternberg task,72,46984,79,yes,1024
91.25,91.25,593.4625,593.4625,black,experiment,legacy,legacy,legacy,0,uniform,1,undefined,1,right,79,79,79,0,0,79,79,0,0,79,79,79,0,79,0,10/20/19 16:30,The main experiment item,yes,Sternbergtask.osexp,C:/Users/Edgar/Documents/Edgar School/Fall 2019/Lab 3-1,no,mono,no,18,no,white,no,yes,768,legacy,67,11,C:/Users/Edgar/Documents/Edgar School/Fall 2019/Lab 3-1/EJ-subject-1.csv,legacy,1 8 7,Kafkaesque Koffka,3.2.8,0,n,0,right,left,right,right,NA,493,3153,89962,493,NA,2,legacy,3,1024,2,48000,-16,experiment,1,odd,4,599254,595671,597032,6419,177772,597040,483728,6446,87806,601261,601759,598047,9602,601261,NA,Sternberg task,73,47477,80,yes,1024
91.35802469,91.35802469,596.1481481,596.1481481,black,experiment,legacy,legacy,legacy,0,uniform,1,undefined,1,left,80,80,80,0,0,80,80,0,0,80,80,80,0,80,0,10/20/19 16:30,The main experiment item,yes,Sternbergtask.osexp,C:/Users/Edgar/Documents/Edgar School/Fall 2019/Lab 3-1,no,mono,no,18,no,white,no,yes,768,legacy,68,11,C:/Users/Edgar/Documents/Edgar School/Fall 2019/Lab 3-1/EJ-subject-1.csv,legacy,6 9 7 4 5 1,Kafkaesque Koffka,3.2.8,2,y,0,left,left,right,left,NA,811,3153,89962,811,NA,2,legacy,6,1024,2,48000,-16,experiment,1,odd,9,605443,601830,603222,6419,177772,603229,483728,6446,87806,607452,608267,604237,9602,607452,NA,Sternberg task,74,48288,81,yes,1024
91.46341463,91.46341463,595.2926829,595.2926829,black,experiment,legacy,legacy,legacy,0,uniform,1,undefined,1,left,81,81,81,0,0,81,81,0,0,81,81,81,0,81,0,10/20/19 16:30,The main experiment item,yes,Sternbergtask.osexp,C:/Users/Edgar/Documents/Edgar School/Fall 2019/Lab 3-1,no,mono,no,18,no,white,no,yes,768,legacy,69,11,C:/Users/Edgar/Documents/Edgar School/Fall 2019/Lab 3-1/EJ-subject-1.csv,legacy,2 6 1 7 4,Kafkaesque Koffka,3.2.8,2,y,0,left,left,right,left,NA,526,3153,89962,526,NA,2,legacy,5,1024,2,48000,-16,experiment,1,odd,6,611909,608331,609686,6419,177772,609694,483728,6446,87806,613916,614447,610701,9602,613916,NA,Sternberg task,75,48814,82,yes,1024
91.56626506,91.56626506,595.9518072,595.9518072,black,experiment,legacy,legacy,legacy,0,uniform,1,undefined,1,right,82,82,82,0,0,82,82,0,0,82,82,82,0,82,0,10/20/19 16:30,The main experiment item,yes,Sternbergtask.osexp,C:/Users/Edgar/Documents/Edgar School/Fall 2019/Lab 3-1,no,mono,no,18,no,white,no,yes,768,legacy,70,11,C:/Users/Edgar/Documents/Edgar School/Fall 2019/Lab 3-1/EJ-subject-1.csv,legacy,3 4 2,Kafkaesque Koffka,3.2.8,0,n,0,right,left,right,right,NA,650,3153,89962,650,NA,2,legacy,3,1024,2,48000,-16,experiment,1,odd,5,618075,614509,615852,6419,177772,615861,483728,6446,87806,620081,620738,616869,9602,620081,NA,Sternberg task,76,49464,83,yes,1024
91.66666667,91.66666667,595.1309524,595.1309524,black,experiment,legacy,legacy,legacy,0,uniform,1,undefined,1,left,83,83,83,0,0,83,83,0,0,83,83,83,0,83,0,10/20/19 16:30,The main experiment item,yes,Sternbergtask.osexp,C:/Users/Edgar/Documents/Edgar School/Fall 2019/Lab 3-1,no,mono,no,18,no,white,no,yes,768,legacy,71,11,C:/Users/Edgar/Documents/Edgar School/Fall 2019/Lab 3-1/EJ-subject-1.csv,legacy,4 7 6 8 2 3,Kafkaesque Koffka,3.2.8,6,y,0,left,left,right,left,NA,527,3153,89962,527,NA,2,legacy,6,1024,2,48000,-16,experiment,1,odd,3,624408,620811,622189,6419,177772,622197,483728,6446,87806,626417,626949,623202,9602,626416,NA,Sternberg task,77,49991,84,yes,1024
91.76470588,91.76470588,597.0117647,597.0117647,black,experiment,legacy,legacy,legacy,0,uniform,1,undefined,1,right,84,84,84,0,0,84,84,0,0,84,84,84,0,84,0,10/20/19 16:30,The main experiment item,yes,Sternbergtask.osexp,C:/Users/Edgar/Documents/Edgar School/Fall 2019/Lab 3-1,no,mono,no,18,no,white,no,yes,768,legacy,72,11,C:/Users/Edgar/Documents/Edgar School/Fall 2019/Lab 3-1/EJ-subject-1.csv,legacy,5 3 2 6 9 8,Kafkaesque Koffka,3.2.8,0,n,0,right,left,right,right,NA,755,3153,89962,755,NA,2,legacy,6,1024,2,48000,-16,experiment,1,odd,4,630585,626992,628366,6419,177772,628373,483728,6446,87806,632595,633355,629379,9602,632595,NA,Sternberg task,78,50746,85,yes,1024
91.86046512,91.86046512,597.3953488,597.3953488,black,experiment,legacy,legacy,legacy,0,uniform,1,undefined,1,left,85,85,85,0,0,85,85,0,0,85,85,85,0,85,0,10/20/19 16:30,The main experiment item,yes,Sternbergtask.osexp,C:/Users/Edgar/Documents/Edgar School/Fall 2019/Lab 3-1,no,mono,no,18,no,white,no,yes,768,legacy,73,11,C:/Users/Edgar/Documents/Edgar School/Fall 2019/Lab 3-1/EJ-subject-1.csv,legacy,4 1 8 7 5,Kafkaesque Koffka,3.2.8,3,y,0,left,left,right,left,NA,630,3153,89962,630,NA,2,legacy,5,1024,2,48000,-16,experiment,1,odd,8,637018,633413,634793,6419,177772,634801,483728,6446,87806,639025,639660,635810,9602,639025,NA,Sternberg task,79,51376,86,yes,1024
91.95402299,91.95402299,597.5977011,597.5977011,black,experiment,legacy,legacy,legacy,0,uniform,1,undefined,1,right,86,86,86,0,0,86,86,0,0,86,86,86,0,86,0,10/20/19 16:30,The main experiment item,yes,Sternbergtask.osexp,C:/Users/Edgar/Documents/Edgar School/Fall 2019/Lab 3-1,no,mono,no,18,no,white,no,yes,768,legacy,74,11,C:/Users/Edgar/Documents/Edgar School/Fall 2019/Lab 3-1/EJ-subject-1.csv,legacy,2 8 7 9 5 3,Kafkaesque Koffka,3.2.8,0,n,0,right,left,right,right,NA,615,3153,89962,615,NA,2,legacy,6,1024,2,48000,-16,experiment,1,odd,6,643321,639717,641101,6419,177772,641109,483728,6446,87806,645328,645950,642116,9602,645328,NA,Sternberg task,80,51991,87,yes,1024
92.04545455,92.04545455,597.4431818,597.4431818,black,experiment,legacy,legacy,legacy,0,uniform,1,undefined,1,left,87,87,87,0,0,87,87,0,0,87,87,87,0,87,0,10/20/19 16:30,The main experiment item,yes,Sternbergtask.osexp,C:/Users/Edgar/Documents/Edgar School/Fall 2019/Lab 3-1,no,mono,no,18,no,white,no,yes,768,legacy,75,11,C:/Users/Edgar/Documents/Edgar School/Fall 2019/Lab 3-1/EJ-subject-1.csv,legacy,6 7 9 3 1 2,Kafkaesque Koffka,3.2.8,1,y,0,left,left,right,left,NA,584,3153,89962,584,NA,2,legacy,6,1024,2,48000,-16,experiment,1,odd,6,649599,646016,647377,6419,177772,647383,483728,6446,87806,651606,652195,648392,9602,651606,NA,Sternberg task,81,52575,88,yes,1024
92.13483146,92.13483146,596.6741573,596.6741573,black,experiment,legacy,legacy,legacy,0,uniform,1,undefined,1,right,88,88,88,0,0,88,88,0,0,88,88,88,0,88,0,10/20/19 16:30,The main experiment item,yes,Sternbergtask.osexp,C:/Users/Edgar/Documents/Edgar School/Fall 2019/Lab 3-1,no,mono,no,18,no,white,no,yes,768,legacy,76,11,C:/Users/Edgar/Documents/Edgar School/Fall 2019/Lab 3-1/EJ-subject-1.csv,legacy,6 3 1 7 9 8,Kafkaesque Koffka,3.2.8,0,n,0,right,left,right,right,NA,529,3153,89962,529,NA,2,legacy,6,1024,2,48000,-16,experiment,1,odd,4,655864,652275,653643,6419,177772,653651,483728,6446,87806,657872,658405,654657,9602,657871,NA,Sternberg task,82,53104,89,yes,1024
92.22222222,92.22222222,599,599,black,experiment,legacy,legacy,legacy,0,uniform,1,undefined,1,right,89,89,89,0,0,89,89,0,0,89,89,89,0,89,0,10/20/19 16:30,The main experiment item,yes,Sternbergtask.osexp,C:/Users/Edgar/Documents/Edgar School/Fall 2019/Lab 3-1,no,mono,no,18,no,white,no,yes,768,legacy,77,11,C:/Users/Edgar/Documents/Edgar School/Fall 2019/Lab 3-1/EJ-subject-1.csv,legacy,8 4 3 5,Kafkaesque Koffka,3.2.8,0,n,0,right,left,right,right,NA,806,3153,89962,806,NA,2,legacy,4,1024,2,48000,-16,experiment,1,odd,6,662062,658479,659841,6419,177772,659848,483728,6446,87806,664070,664880,660856,9602,664069,NA,Sternberg task,83,53910,90,yes,1024
92.30769231,92.30769231,599.8571429,599.8571429,black,experiment,legacy,legacy,legacy,0,uniform,1,undefined,1,right,90,90,90,0,0,90,90,0,0,90,90,90,0,90,0,10/20/19 16:30,The main experiment item,yes,Sternbergtask.osexp,C:/Users/Edgar/Documents/Edgar School/Fall 2019/Lab 3-1,no,mono,no,18,no,white,no,yes,768,legacy,78,11,C:/Users/Edgar/Documents/Edgar School/Fall 2019/Lab 3-1/EJ-subject-1.csv,legacy,7 1 5 6 3,Kafkaesque Koffka,3.2.8,0,n,0,right,left,right,right,NA,677,3153,89962,677,NA,2,legacy,5,1024,2,48000,-16,experiment,1,odd,8,668508,664944,666288,6419,177772,666295,483728,6446,87806,670515,671196,667303,9602,670515,NA,Sternberg task,84,54587,91,yes,1024
91.30434783,91.30434783,600.0543478,600.0543478,black,experiment,legacy,legacy,legacy,0,uniform,0,undefined,0,left,91,91,91,0,0,91,91,0,0,91,91,91,0,91,0,10/20/19 16:30,The main experiment item,yes,Sternbergtask.osexp,C:/Users/Edgar/Documents/Edgar School/Fall 2019/Lab 3-1,no,mono,no,18,no,white,no,yes,768,legacy,79,11,C:/Users/Edgar/Documents/Edgar School/Fall 2019/Lab 3-1/EJ-subject-1.csv,legacy,8 9 5 7 1 6,Kafkaesque Koffka,3.2.8,4,y,0,right,left,right,right,NA,618,3153,89962,618,NA,2,legacy,6,1024,2,48000,-16,experiment,1,odd,7,674845,671270,672625,6419,177772,672632,483728,6446,87806,676852,677476,673638,9602,676851,NA,Sternberg task,84,55205,92,yes,1024
91.39784946,91.39784946,599.6774194,599.6774194,black,experiment,legacy,legacy,legacy,0,uniform,1,undefined,1,right,92,92,92,0,0,92,92,0,0,92,92,92,0,92,0,10/20/19 16:30,The main experiment item,yes,Sternbergtask.osexp,C:/Users/Edgar/Documents/Edgar School/Fall 2019/Lab 3-1,no,mono,no,18,no,white,no,yes,768,legacy,80,11,C:/Users/Edgar/Documents/Edgar School/Fall 2019/Lab 3-1/EJ-subject-1.csv,legacy,2 8 9,Kafkaesque Koffka,3.2.8,0,n,0,right,left,right,right,NA,565,3153,89962,565,NA,2,legacy,3,1024,2,48000,-16,experiment,1,odd,6,681131,671270,678909,6419,177772,678916,677537,6446,87806,683139,683710,679924,9602,683138,NA,Sternberg task,85,55770,93,yes,1024
91.4893617,91.4893617,598.1276596,598.1276596,black,experiment,legacy,legacy,legacy,0,uniform,1,undefined,1,left,93,93,93,0,0,93,93,0,0,93,93,93,0,93,0,10/20/19 16:30,The main experiment item,yes,Sternbergtask.osexp,C:/Users/Edgar/Documents/Edgar School/Fall 2019/Lab 3-1,no,mono,no,18,no,white,no,yes,768,legacy,81,11,C:/Users/Edgar/Documents/Edgar School/Fall 2019/Lab 3-1/EJ-subject-1.csv,legacy,9 4 2,Kafkaesque Koffka,3.2.8,1,y,0,left,left,right,left,NA,454,3153,89962,454,NA,2,legacy,3,1024,2,48000,-16,experiment,1,odd,9,687369,683784,685149,6419,177772,685157,677537,6446,87806,689376,689835,686162,9602,689376,NA,Sternberg task,86,56224,94,yes,1024
91.57894737,91.57894737,600.2526316,600.2526316,black,experiment,legacy,legacy,legacy,0,uniform,1,undefined,1,left,94,94,94,0,0,94,94,0,0,94,94,94,0,94,0,10/20/19 16:30,The main experiment item,yes,Sternbergtask.osexp,C:/Users/Edgar/Documents/Edgar School/Fall 2019/Lab 3-1,no,mono,no,18,no,white,no,yes,768,legacy,82,11,C:/Users/Edgar/Documents/Edgar School/Fall 2019/Lab 3-1/EJ-subject-1.csv,legacy,2 5 4 8 7,Kafkaesque Koffka,3.2.8,3,y,0,left,left,right,left,NA,800,3153,89962,800,NA,2,legacy,5,1024,2,48000,-16,experiment,1,odd,4,693488,689896,691267,6419,177772,691275,677537,6446,87806,695495,696300,692281,9602,695495,NA,Sternberg task,87,57024,95,yes,1024
91.66666667,91.66666667,599.6041667,599.6041667,black,experiment,legacy,legacy,legacy,0,uniform,1,undefined,1,right,95,95,95,0,0,95,95,0,0,95,95,95,0,95,0,10/20/19 16:30,The main experiment item,yes,Sternbergtask.osexp,C:/Users/Edgar/Documents/Edgar School/Fall 2019/Lab 3-1,no,mono,no,18,no,white,no,yes,768,legacy,83,11,C:/Users/Edgar/Documents/Edgar School/Fall 2019/Lab 3-1/EJ-subject-1.csv,legacy,3 9 1,Kafkaesque Koffka,3.2.8,0,n,0,right,left,right,right,NA,538,3153,89962,538,NA,2,legacy,3,1024,2,48000,-16,experiment,1,odd,7,699911,696341,697691,6419,177772,697698,677537,6446,87806,701921,702465,698704,9602,701921,NA,Sternberg task,88,57562,96,yes,1024
91.75257732,91.75257732,600.5773196,600.5773196,black,experiment,legacy,legacy,legacy,0,uniform,1,undefined,1,left,96,96,96,0,0,96,96,0,0,96,96,96,0,96,0,10/20/19 16:30,The main experiment item,yes,Sternbergtask.osexp,C:/Users/Edgar/Documents/Edgar School/Fall 2019/Lab 3-1,no,mono,no,18,no,white,no,yes,768,legacy,84,11,C:/Users/Edgar/Documents/Edgar School/Fall 2019/Lab 3-1/EJ-subject-1.csv,legacy,6 8 9 3 4 9,Kafkaesque Koffka,3.2.8,5,y,0,left,left,right,left,NA,694,3153,89962,694,NA,2,legacy,6,1024,2,48000,-16,experiment,1,odd,4,706114,702522,703895,6419,177772,703902,677537,6446,87806,708121,708820,704908,9602,708120,NA,Sternberg task,89,58256,97,yes,1024
90.81632653,90.81632653,601.5510204,601.5510204,black,experiment,legacy,legacy,legacy,0,uniform,0,undefined,0,left,97,97,97,0,0,97,97,0,0,97,97,97,0,97,0,10/20/19 16:30,The main experiment item,yes,Sternbergtask.osexp,C:/Users/Edgar/Documents/Edgar School/Fall 2019/Lab 3-1,no,mono,no,18,no,white,no,yes,768,legacy,85,11,C:/Users/Edgar/Documents/Edgar School/Fall 2019/Lab 3-1/EJ-subject-1.csv,legacy,9 3 1 2 5,Kafkaesque Koffka,3.2.8,4,y,0,right,left,right,right,NA,696,3153,89962,696,NA,2,legacy,5,1024,2,48000,-16,experiment,1,odd,2,712467,708889,710247,6419,177772,710254,677537,6446,87806,714474,715177,711260,9602,714473,NA,Sternberg task,89,58952,98,yes,1024
90.90909091,90.90909091,601.010101,601.010101,black,experiment,legacy,legacy,legacy,0,uniform,1,undefined,1,right,98,98,98,0,0,98,98,0,0,98,98,98,0,98,0,10/20/19 16:30,The main experiment item,yes,Sternbergtask.osexp,C:/Users/Edgar/Documents/Edgar School/Fall 2019/Lab 3-1,no,mono,no,18,no,white,no,yes,768,legacy,86,11,C:/Users/Edgar/Documents/Edgar School/Fall 2019/Lab 3-1/EJ-subject-1.csv,legacy,7 1,Kafkaesque Koffka,3.2.8,0,n,0,right,left,right,right,NA,548,3153,89962,548,NA,2,legacy,2,1024,2,48000,-16,experiment,1,odd,8,718831,708889,716610,6419,177772,716617,715238,6446,87806,720838,721399,717624,9602,720838,NA,Sternberg task,90,59500,99,yes,1024
91,91,602.39,602.39,black,experiment,legacy,legacy,legacy,0,uniform,1,undefined,1,left,99,99,99,0,0,99,99,0,0,99,99,99,0,99,0,10/20/19 16:30,The main experiment item,yes,Sternbergtask.osexp,C:/Users/Edgar/Documents/Edgar School/Fall 2019/Lab 3-1,no,mono,no,18,no,white,no,yes,768,legacy,87,11,C:/Users/Edgar/Documents/Edgar School/Fall 2019/Lab 3-1/EJ-subject-1.csv,legacy,6 7 8 5,Kafkaesque Koffka,3.2.8,3,y,0,left,left,right,left,NA,739,3153,89962,739,NA,2,legacy,4,1024,2,48000,-16,experiment,1,odd,8,725060,721481,722839,6419,177772,722847,715238,6446,87806,727069,727812,723853,9602,727069,NA,Sternberg task,91,60239,100,yes,1024
91.08910891,91.08910891,601.7029703,601.7029703,black,experiment,legacy,legacy,legacy,0,uniform,1,undefined,1,left,100,100,100,0,0,100,100,0,0,100,100,100,0,100,0,10/20/19 16:30,The main experiment item,yes,Sternbergtask.osexp,C:/Users/Edgar/Documents/Edgar School/Fall 2019/Lab 3-1,no,mono,no,18,no,white,no,yes,768,legacy,88,11,C:/Users/Edgar/Documents/Edgar School/Fall 2019/Lab 3-1/EJ-subject-1.csv,legacy,8 5 3 7 4 6,Kafkaesque Koffka,3.2.8,6,y,0,left,left,right,left,NA,533,3153,89962,533,NA,2,legacy,6,1024,2,48000,-16,experiment,1,odd,6,731463,727872,729244,6419,177772,729250,715238,6446,87806,733469,734008,730257,9602,733469,NA,Sternberg task,92,60772,101,yes,1024
91.17647059,91.17647059,607.5098039,607.5098039,black,experiment,legacy,legacy,legacy,0,uniform,1,undefined,1,right,101,101,101,0,0,101,101,0,0,101,101,101,0,101,0,10/20/19 16:30,The main experiment item,yes,Sternbergtask.osexp,C:/Users/Edgar/Documents/Edgar School/Fall 2019/Lab 3-1,no,mono,no,18,no,white,no,yes,768,legacy,89,11,C:/Users/Edgar/Documents/Edgar School/Fall 2019/Lab 3-1/EJ-subject-1.csv,legacy,7 4 2 8 1 9,Kafkaesque Koffka,3.2.8,0,n,0,right,left,right,right,NA,1194,3153,89962,1194,NA,2,legacy,6,1024,2,48000,-16,experiment,1,odd,5,737638,734072,735416,6419,177772,735424,715238,6446,87806,739645,740844,736432,9602,739645,NA,Sternberg task,93,61966,102,yes,1024
91.26213592,91.26213592,609.6116505,609.6116505,black,experiment,legacy,legacy,legacy,0,uniform,1,undefined,1,right,102,102,102,0,0,102,102,0,0,102,102,102,0,102,0,10/20/19 16:30,The main experiment item,yes,Sternbergtask.osexp,C:/Users/Edgar/Documents/Edgar School/Fall 2019/Lab 3-1,no,mono,no,18,no,white,no,yes,768,legacy,90,11,C:/Users/Edgar/Documents/Edgar School/Fall 2019/Lab 3-1/EJ-subject-1.csv,legacy,7 9,Kafkaesque Koffka,3.2.8,0,n,0,right,left,right,right,NA,824,3153,89962,824,NA,2,legacy,2,1024,2,48000,-16,experiment,1,odd,1,744505,740909,742285,6419,177772,742292,715238,6446,87806,746511,747342,743298,9602,746511,NA,Sternberg task,94,62790,103,yes,1024
91.34615385,91.34615385,609.1057692,609.1057692,black,experiment,legacy,legacy,legacy,0,uniform,1,undefined,1,left,103,103,103,0,0,103,103,0,0,103,103,103,0,103,0,10/20/19 16:30,The main experiment item,yes,Sternbergtask.osexp,C:/Users/Edgar/Documents/Edgar School/Fall 2019/Lab 3-1,no,mono,no,18,no,white,no,yes,768,legacy,91,11,C:/Users/Edgar/Documents/Edgar School/Fall 2019/Lab 3-1/EJ-subject-1.csv,legacy,4 6 2 5 1,Kafkaesque Koffka,3.2.8,5,y,0,left,left,right,left,NA,557,3153,89962,557,NA,2,legacy,5,1024,2,48000,-16,experiment,1,odd,1,750994,747421,748775,6419,177772,748782,715238,6446,87806,753001,753563,749787,9602,753001,NA,Sternberg task,95,63347,104,yes,1024
91.42857143,91.42857143,608.752381,608.752381,black,experiment,legacy,legacy,legacy,0,uniform,1,undefined,1,left,104,104,104,0,0,104,104,0,0,104,104,104,0,104,0,10/20/19 16:30,The main experiment item,yes,Sternbergtask.osexp,C:/Users/Edgar/Documents/Edgar School/Fall 2019/Lab 3-1,no,mono,no,18,no,white,no,yes,768,legacy,92,11,C:/Users/Edgar/Documents/Edgar School/Fall 2019/Lab 3-1/EJ-subject-1.csv,legacy,5 2 6,Kafkaesque Koffka,3.2.8,2,y,0,left,left,right,left,NA,572,3153,89962,572,NA,2,legacy,3,1024,2,48000,-16,experiment,1,odd,2,757201,753613,754980,6419,177772,754988,715238,6446,87806,759211,759790,755995,9602,759210,NA,Sternberg task,96,63919,105,yes,1024
91.50943396,91.50943396,608.0471698,608.0471698,black,experiment,legacy,legacy,legacy,0,uniform,1,undefined,1,right,105,105,105,0,0,105,105,0,0,105,105,105,0,105,0,10/20/19 16:30,The main experiment item,yes,Sternbergtask.osexp,C:/Users/Edgar/Documents/Edgar School/Fall 2019/Lab 3-1,no,mono,no,18,no,white,no,yes,768,legacy,93,11,C:/Users/Edgar/Documents/Edgar School/Fall 2019/Lab 3-1/EJ-subject-1.csv,legacy,1 7 5 2 9,Kafkaesque Koffka,3.2.8,0,n,0,right,left,right,right,NA,534,3153,89962,534,NA,2,legacy,5,1024,2,48000,-16,experiment,1,odd,3,763444,759858,761227,6419,177772,761234,715238,6446,87806,765451,765991,762239,9602,765451,NA,Sternberg task,97,64453,106,yes,1024
91.58878505,91.58878505,607.5420561,607.5420561,black,experiment,legacy,legacy,legacy,0,uniform,1,undefined,1,right,106,106,106,0,0,106,106,0,0,106,106,106,0,106,0,10/20/19 16:30,The main experiment item,yes,Sternbergtask.osexp,C:/Users/Edgar/Documents/Edgar School/Fall 2019/Lab 3-1,no,mono,no,18,no,white,no,yes,768,legacy,94,11,C:/Users/Edgar/Documents/Edgar School/Fall 2019/Lab 3-1/EJ-subject-1.csv,legacy,1 4 9 2 5,Kafkaesque Koffka,3.2.8,0,n,0,right,left,right,right,NA,554,3153,89962,554,NA,2,legacy,5,1024,2,48000,-16,experiment,1,odd,7,769642,766070,767421,6419,177772,767430,715238,6446,87806,771648,772210,768435,9602,771647,NA,Sternberg task,98,65007,107,yes,1024
91.66666667,91.66666667,606.4351852,606.4351852,black,experiment,legacy,legacy,legacy,0,uniform,1,undefined,1,left,107,107,107,0,0,107,107,0,0,107,107,107,0,107,0,10/20/19 16:30,The main experiment item,yes,Sternbergtask.osexp,C:/Users/Edgar/Documents/Edgar School/Fall 2019/Lab 3-1,no,mono,no,18,no,white,no,yes,768,legacy,95,11,C:/Users/Edgar/Documents/Edgar School/Fall 2019/Lab 3-1/EJ-subject-1.csv,legacy,6 9 3 1,Kafkaesque Koffka,3.2.8,4,y,0,left,left,right,left,NA,488,3153,89962,488,NA,2,legacy,4,1024,2,48000,-16,experiment,1,odd,1,775858,772285,773640,6419,177772,773646,715238,6446,87806,777864,778358,774652,9602,777864,NA,Sternberg task,99,65495,108,yes,1024
91.74311927,91.74311927,605.8348624,605.8348624,black,experiment,legacy,legacy,legacy,0,uniform,1,undefined,1,left,108,108,108,0,0,108,108,0,0,108,108,108,0,108,0,10/20/19 16:30,The main experiment item,yes,Sternbergtask.osexp,C:/Users/Edgar/Documents/Edgar School/Fall 2019/Lab 3-1,no,mono,no,18,no,white,no,yes,768,legacy,96,11,C:/Users/Edgar/Documents/Edgar School/Fall 2019/Lab 3-1/EJ-subject-1.csv,legacy,4,Kafkaesque Koffka,3.2.8,1,y,0,left,left,right,left,NA,541,3153,89962,541,NA,2,legacy,1,1024,2,48000,-16,experiment,1,odd,4,782023,778450,779802,6419,177772,779809,715238,6446,87806,784030,784575,780816,9602,784030,NA,Sternberg task,100,66036,109,yes,1024
91.81818182,91.81818182,610.9,610.9,black,experiment,legacy,legacy,legacy,0,uniform,1,undefined,1,right,109,109,109,0,0,109,109,0,0,109,109,109,0,109,0,10/20/19 16:30,The main experiment item,yes,Sternbergtask.osexp,C:/Users/Edgar/Documents/Edgar School/Fall 2019/Lab 3-1,no,mono,no,18,no,white,no,yes,768,legacy,97,11,C:/Users/Edgar/Documents/Edgar School/Fall 2019/Lab 3-1/EJ-subject-1.csv,legacy,7 6 4 8 1 2,Kafkaesque Koffka,3.2.8,0,n,0,right,left,right,right,NA,1163,3153,89962,1163,NA,2,legacy,6,1024,2,48000,-16,experiment,1,odd,9,788238,784642,786020,6419,177772,786027,715238,6446,87806,790245,791416,787033,9602,790245,NA,Sternberg task,101,67199,110,yes,1024
91.89189189,91.89189189,609.8198198,609.8198198,black,experiment,legacy,legacy,legacy,0,uniform,1,undefined,1,right,110,110,110,0,0,110,110,0,0,110,110,110,0,110,0,10/20/19 16:30,The main experiment item,yes,Sternbergtask.osexp,C:/Users/Edgar/Documents/Edgar School/Fall 2019/Lab 3-1,no,mono,no,18,no,white,no,yes,768,legacy,98,11,C:/Users/Edgar/Documents/Edgar School/Fall 2019/Lab 3-1/EJ-subject-1.csv,legacy,1 7 5 2,Kafkaesque Koffka,3.2.8,0,n,0,right,left,right,right,NA,491,3153,89962,491,NA,2,legacy,4,1024,2,48000,-16,experiment,1,odd,3,795052,791475,792830,6419,177772,792840,715238,6446,87806,797058,797555,793847,9602,797057,NA,Sternberg task,102,67690,111,yes,1024
91.07142857,91.07142857,610.0089286,610.0089286,black,experiment,legacy,legacy,legacy,0,uniform,0,undefined,0,left,111,111,111,0,0,111,111,0,0,111,111,111,0,111,0,10/20/19 16:30,The main experiment item,yes,Sternbergtask.osexp,C:/Users/Edgar/Documents/Edgar School/Fall 2019/Lab 3-1,no,mono,no,18,no,white,no,yes,768,legacy,99,11,C:/Users/Edgar/Documents/Edgar School/Fall 2019/Lab 3-1/EJ-subject-1.csv,legacy,3 4 9 6 2 9,Kafkaesque Koffka,3.2.8,5,y,0,right,left,right,right,NA,631,3153,89962,631,NA,2,legacy,6,1024,2,48000,-16,experiment,1,odd,2,801185,797600,798964,6419,177772,798972,715238,6446,87806,803192,803829,799979,9602,803191,NA,Sternberg task,102,68321,112,yes,1024
91.15044248,91.15044248,608.9557522,608.9557522,black,experiment,legacy,legacy,legacy,0,uniform,1,undefined,1,right,112,112,112,0,0,112,112,0,0,112,112,112,0,112,0,10/20/19 16:30,The main experiment item,yes,Sternbergtask.osexp,C:/Users/Edgar/Documents/Edgar School/Fall 2019/Lab 3-1,no,mono,no,18,no,white,no,yes,768,legacy,100,11,C:/Users/Edgar/Documents/Edgar School/Fall 2019/Lab 3-1/EJ-subject-1.csv,legacy,1,Kafkaesque Koffka,3.2.8,0,n,0,right,left,right,right,NA,491,3153,89962,491,NA,2,legacy,1,1024,2,48000,-16,experiment,1,odd,7,807493,797600,805271,6419,177772,805279,803890,6446,87806,809500,809997,806287,9602,809499,NA,Sternberg task,103,68812,113,yes,1024
91.22807018,91.22807018,608.3245614,608.3245614,black,experiment,legacy,legacy,legacy,0,uniform,1,undefined,1,left,113,113,113,0,0,113,113,0,0,113,113,113,0,113,0,10/20/19 16:30,The main experiment item,yes,Sternbergtask.osexp,C:/Users/Edgar/Documents/Edgar School/Fall 2019/Lab 3-1,no,mono,no,18,no,white,no,yes,768,legacy,101,11,C:/Users/Edgar/Documents/Edgar School/Fall 2019/Lab 3-1/EJ-subject-1.csv,legacy,3 5 7 1,Kafkaesque Koffka,3.2.8,3,y,0,left,left,right,left,NA,537,3153,89962,537,NA,2,legacy,4,1024,2,48000,-16,experiment,1,odd,7,813662,810072,811442,6419,177772,811449,803890,6446,87806,815669,816214,812455,9602,815669,NA,Sternberg task,104,69349,114,yes,1024
91.30434783,91.30434783,608.6956522,608.6956522,black,experiment,legacy,legacy,legacy,0,uniform,1,undefined,1,left,114,114,114,0,0,114,114,0,0,114,114,114,0,114,0,10/20/19 16:30,The main experiment item,yes,Sternbergtask.osexp,C:/Users/Edgar/Documents/Edgar School/Fall 2019/Lab 3-1,no,mono,no,18,no,white,no,yes,768,legacy,102,11,C:/Users/Edgar/Documents/Edgar School/Fall 2019/Lab 3-1/EJ-subject-1.csv,legacy,7 2 3,Kafkaesque Koffka,3.2.8,3,y,0,left,left,right,left,NA,651,3153,89962,651,NA,2,legacy,3,1024,2,48000,-16,experiment,1,odd,3,819858,816273,817638,6419,177772,817646,803890,6446,87806,821865,822523,818652,9602,821865,NA,Sternberg task,105,70000,115,yes,1024
91.37931034,91.37931034,607.3362069,607.3362069,black,experiment,legacy,legacy,legacy,0,uniform,1,undefined,1,left,115,115,115,0,0,115,115,0,0,115,115,115,0,115,0,10/20/19 16:30,The main experiment item,yes,Sternbergtask.osexp,C:/Users/Edgar/Documents/Edgar School/Fall 2019/Lab 3-1,no,mono,no,18,no,white,no,yes,768,legacy,103,11,C:/Users/Edgar/Documents/Edgar School/Fall 2019/Lab 3-1/EJ-subject-1.csv,legacy,8 9 5 6 7,Kafkaesque Koffka,3.2.8,1,y,0,left,left,right,left,NA,451,3153,89962,451,NA,2,legacy,5,1024,2,48000,-16,experiment,1,odd,8,826179,822606,823958,6419,177772,823966,803890,6446,87806,828187,828643,824972,9602,828186,NA,Sternberg task,106,70451,116,yes,1024
91.45299145,91.45299145,606.0940171,606.0940171,black,experiment,legacy,legacy,legacy,0,uniform,1,undefined,1,left,116,116,116,0,0,116,116,0,0,116,116,116,0,116,0,10/20/19 16:30,The main experiment item,yes,Sternbergtask.osexp,C:/Users/Edgar/Documents/Edgar School/Fall 2019/Lab 3-1,no,mono,no,18,no,white,no,yes,768,legacy,104,11,C:/Users/Edgar/Documents/Edgar School/Fall 2019/Lab 3-1/EJ-subject-1.csv,legacy,1 4 9 3 2 5,Kafkaesque Koffka,3.2.8,3,y,0,left,left,right,left,NA,462,3153,89962,462,NA,2,legacy,6,1024,2,48000,-16,experiment,1,odd,9,832279,828698,830055,6419,177772,830063,803890,6446,87806,834286,834756,831072,9602,834285,NA,Sternberg task,107,70913,117,yes,1024
91.52542373,91.52542373,605.3728814,605.3728814,black,experiment,legacy,legacy,legacy,0,uniform,1,undefined,1,left,117,117,117,0,0,117,117,0,0,117,117,117,0,117,0,10/20/19 16:30,The main experiment item,yes,Sternbergtask.osexp,C:/Users/Edgar/Documents/Edgar School/Fall 2019/Lab 3-1,no,mono,no,18,no,white,no,yes,768,legacy,105,11,C:/Users/Edgar/Documents/Edgar School/Fall 2019/Lab 3-1/EJ-subject-1.csv,legacy,9 8 4,Kafkaesque Koffka,3.2.8,1,y,0,left,left,right,left,NA,521,3153,89962,521,NA,2,legacy,3,1024,2,48000,-16,experiment,1,odd,9,838419,834822,836197,6419,177772,836205,803890,6446,87806,840427,840956,837213,9602,840427,NA,Sternberg task,108,71434,118,yes,1024
91.59663866,91.59663866,605.5798319,605.5798319,black,experiment,legacy,legacy,legacy,0,uniform,1,undefined,1,left,118,118,118,0,0,118,118,0,0,118,118,118,0,118,0,10/20/19 16:30,The main experiment item,yes,Sternbergtask.osexp,C:/Users/Edgar/Documents/Edgar School/Fall 2019/Lab 3-1,no,mono,no,18,no,white,no,yes,768,legacy,106,11,C:/Users/Edgar/Documents/Edgar School/Fall 2019/Lab 3-1/EJ-subject-1.csv,legacy,6 5,Kafkaesque Koffka,3.2.8,2,y,0,left,left,right,left,NA,630,3153,89962,630,NA,2,legacy,2,1024,2,48000,-16,experiment,1,odd,5,844604,841024,842381,6419,177772,842390,803890,6446,87806,846610,847248,843396,9602,846610,NA,Sternberg task,109,72064,119,yes,1024
91.66666667,91.66666667,605.0083333,605.0083333,black,experiment,legacy,legacy,legacy,0,uniform,1,undefined,1,left,119,119,119,0,0,119,119,0,0,119,119,119,0,119,0,10/20/19 16:30,The main experiment item,yes,Sternbergtask.osexp,C:/Users/Edgar/Documents/Edgar School/Fall 2019/Lab 3-1,no,mono,no,18,no,white,no,yes,768,legacy,107,11,C:/Users/Edgar/Documents/Edgar School/Fall 2019/Lab 3-1/EJ-subject-1.csv,legacy,4 9 7 8 5 3,Kafkaesque Koffka,3.2.8,4,y,0,left,left,right,left,NA,537,3153,89962,537,NA,2,legacy,6,1024,2,48000,-16,experiment,1,odd,8,850896,847314,848677,6419,177772,848685,803890,6446,87806,852903,853447,849691,9602,852902,NA,Sternberg task,110,72601,120,yes,1024
91.73553719,91.73553719,603.4380165,603.4380165,black,experiment,legacy,legacy,legacy,0,uniform,1,undefined,1,left,120,120,120,0,0,120,120,0,0,120,120,120,0,120,0,10/20/19 16:30,The main experiment item,yes,Sternbergtask.osexp,C:/Users/Edgar/Documents/Edgar School/Fall 2019/Lab 3-1,no,mono,no,18,no,white,no,yes,768,legacy,108,11,C:/Users/Edgar/Documents/Edgar School/Fall 2019/Lab 3-1/EJ-subject-1.csv,legacy,7,Kafkaesque Koffka,3.2.8,1,y,0,left,left,right,left,NA,415,3153,89962,415,NA,2,legacy,1,1024,2,48000,-16,experiment,1,odd,7,857058,853493,854838,6419,177772,854846,803890,6446,87806,859065,859486,855851,9602,859065,NA,Sternberg task,111,73016,121,yes,1024
91.80327869,91.80327869,606.3606557,606.3606557,black,experiment,legacy,legacy,legacy,0,uniform,1,undefined,1,right,121,121,121,0,0,121,121,0,0,121,121,121,0,121,0,10/20/19 16:30,The main experiment item,yes,Sternbergtask.osexp,C:/Users/Edgar/Documents/Edgar School/Fall 2019/Lab 3-1,no,mono,no,18,no,white,no,yes,768,legacy,109,11,C:/Users/Edgar/Documents/Edgar School/Fall 2019/Lab 3-1/EJ-subject-1.csv,legacy,5 3 8 7 2 4,Kafkaesque Koffka,3.2.8,0,n,0,right,left,right,right,NA,960,3153,89962,960,NA,2,legacy,6,1024,2,48000,-16,experiment,1,odd,9,863118,859551,860897,6419,177772,860905,803890,6446,87806,865125,866093,861912,9602,865124,NA,Sternberg task,112,73976,122,yes,1024
91.8699187,91.8699187,605.1544715,605.1544715,black,experiment,legacy,legacy,legacy,0,uniform,1,undefined,1,left,122,122,122,0,0,122,122,0,0,122,122,122,0,122,0,10/20/19 16:30,The main experiment item,yes,Sternbergtask.osexp,C:/Users/Edgar/Documents/Edgar School/Fall 2019/Lab 3-1,no,mono,no,18,no,white,no,yes,768,legacy,110,11,C:/Users/Edgar/Documents/Edgar School/Fall 2019/Lab 3-1/EJ-subject-1.csv,legacy,8 7 3,Kafkaesque Koffka,3.2.8,1,y,0,left,left,right,left,NA,458,3153,89962,458,NA,2,legacy,3,1024,2,48000,-16,experiment,1,odd,8,869745,866166,867524,6419,177772,867531,803890,6446,87806,871753,872218,868538,9602,871752,NA,Sternberg task,113,74434,123,yes,1024
91.93548387,91.93548387,605.0241935,605.0241935,black,experiment,legacy,legacy,legacy,0,uniform,1,undefined,1,left,123,123,123,0,0,123,123,0,0,123,123,123,0,123,0,10/20/19 16:30,The main experiment item,yes,Sternbergtask.osexp,C:/Users/Edgar/Documents/Edgar School/Fall 2019/Lab 3-1,no,mono,no,18,no,white,no,yes,768,legacy,111,11,C:/Users/Edgar/Documents/Edgar School/Fall 2019/Lab 3-1/EJ-subject-1.csv,legacy,7 1 8 5 6 2,Kafkaesque Koffka,3.2.8,2,y,0,left,left,right,left,NA,589,3153,89962,589,NA,2,legacy,6,1024,2,48000,-16,experiment,1,odd,1,875870,872276,873649,6419,177772,873656,803890,6446,87806,877879,878473,874665,9602,877879,NA,Sternberg task,114,75023,124,yes,1024
92,92,604.552,604.552,black,experiment,legacy,legacy,legacy,0,uniform,1,undefined,1,right,124,124,124,0,0,124,124,0,0,124,124,124,0,124,0,10/20/19 16:30,The main experiment item,yes,Sternbergtask.osexp,C:/Users/Edgar/Documents/Edgar School/Fall 2019/Lab 3-1,no,mono,no,18,no,white,no,yes,768,legacy,112,11,C:/Users/Edgar/Documents/Edgar School/Fall 2019/Lab 3-1/EJ-subject-1.csv,legacy,8 9,Kafkaesque Koffka,3.2.8,0,n,0,right,left,right,right,NA,546,3153,89962,546,NA,2,legacy,2,1024,2,48000,-16,experiment,1,odd,5,882118,878511,879899,6419,177772,879906,803890,6446,87806,884124,884678,880912,9602,884124,NA,Sternberg task,115,75569,125,yes,1024
92.06349206,92.06349206,604.3412698,604.3412698,black,experiment,legacy,legacy,legacy,0,uniform,1,undefined,1,right,125,125,125,0,0,125,125,0,0,125,125,125,0,125,0,10/20/19 16:30,The main experiment item,yes,Sternbergtask.osexp,C:/Users/Edgar/Documents/Edgar School/Fall 2019/Lab 3-1,no,mono,no,18,no,white,no,yes,768,legacy,113,11,C:/Users/Edgar/Documents/Edgar School/Fall 2019/Lab 3-1/EJ-subject-1.csv,legacy,8 5 4 2 9 6,Kafkaesque Koffka,3.2.8,0,n,0,right,left,right,right,NA,578,3153,89962,578,NA,2,legacy,6,1024,2,48000,-16,experiment,1,odd,3,888342,884746,886114,6419,177772,886122,803890,6446,87806,890349,890935,887131,9602,890348,NA,Sternberg task,116,76147,126,yes,1024
92.12598425,92.12598425,610.5905512,610.5905512,black,experiment,legacy,legacy,legacy,0,uniform,1,undefined,1,left,126,126,126,0,0,126,126,0,0,126,126,126,0,126,0,10/20/19 16:30,The main experiment item,yes,Sternbergtask.osexp,C:/Users/Edgar/Documents/Edgar School/Fall 2019/Lab 3-1,no,mono,no,18,no,white,no,yes,768,legacy,114,11,C:/Users/Edgar/Documents/Edgar School/Fall 2019/Lab 3-1/EJ-subject-1.csv,legacy,5 7 8 2 3 8,Kafkaesque Koffka,3.2.8,5,y,0,left,left,right,left,NA,1398,3153,89962,1398,NA,2,legacy,6,1024,2,48000,-16,experiment,1,odd,3,894603,891004,892383,6419,177772,892391,803890,6446,87806,896610,898016,893398,9602,896610,NA,Sternberg task,117,77545,127,yes,1024
91.40625,91.40625,611.140625,611.140625,black,experiment,legacy,legacy,legacy,0,uniform,0,undefined,0,right,127,127,127,0,0,127,127,0,0,127,127,127,0,127,0,10/20/19 16:30,The main experiment item,yes,Sternbergtask.osexp,C:/Users/Edgar/Documents/Edgar School/Fall 2019/Lab 3-1,no,mono,no,18,no,white,no,yes,768,legacy,115,11,C:/Users/Edgar/Documents/Edgar School/Fall 2019/Lab 3-1/EJ-subject-1.csv,legacy,1 6 4 3 9 7,Kafkaesque Koffka,3.2.8,0,n,0,left,left,right,left,NA,681,3153,89962,681,NA,2,legacy,6,1024,2,48000,-16,experiment,1,odd,8,901642,898070,899420,6419,177772,899427,803890,6446,87806,903649,904338,900433,9602,903649,NA,Sternberg task,117,78226,128,yes,1024
91.47286822,91.47286822,610.6744186,610.6744186,black,experiment,legacy,legacy,legacy,0,uniform,1,undefined,1,right,128,128,128,0,0,128,128,0,0,128,128,128,0,128,0,10/20/19 16:30,The main experiment item,yes,Sternbergtask.osexp,C:/Users/Edgar/Documents/Edgar School/Fall 2019/Lab 3-1,no,mono,no,18,no,white,no,yes,768,legacy,116,11,C:/Users/Edgar/Documents/Edgar School/Fall 2019/Lab 3-1/EJ-subject-1.csv,legacy,8 4 3 9,Kafkaesque Koffka,3.2.8,0,n,0,right,left,right,right,NA,551,3153,89962,551,NA,2,legacy,4,1024,2,48000,-16,experiment,1,odd,5,907997,898070,905777,6419,177772,905784,904407,6446,87806,910003,910559,906790,9602,910003,NA,Sternberg task,118,78777,129,yes,1024
90.76923077,90.76923077,610.4538462,610.4538462,black,experiment,legacy,legacy,legacy,0,uniform,0,undefined,0,left,129,129,129,0,0,129,129,0,0,129,129,129,0,129,0,10/20/19 16:30,The main experiment item,yes,Sternbergtask.osexp,C:/Users/Edgar/Documents/Edgar School/Fall 2019/Lab 3-1,no,mono,no,18,no,white,no,yes,768,legacy,117,11,C:/Users/Edgar/Documents/Edgar School/Fall 2019/Lab 3-1/EJ-subject-1.csv,legacy,5 2 9 6 1 7,Kafkaesque Koffka,3.2.8,3,y,0,right,left,right,right,NA,582,3153,89962,582,NA,2,legacy,6,1024,2,48000,-16,experiment,1,odd,9,914221,910628,911999,6419,177772,912007,904407,6446,87806,916226,916826,913014,9602,916226,NA,Sternberg task,118,79359,130,yes,1024
90.07633588,90.07633588,614.9847328,614.9847328,black,experiment,legacy,legacy,legacy,0,uniform,0,undefined,0,right,130,130,130,0,0,130,130,0,0,130,130,130,0,130,0,10/20/19 16:30,The main experiment item,yes,Sternbergtask.osexp,C:/Users/Edgar/Documents/Edgar School/Fall 2019/Lab 3-1,no,mono,no,18,no,white,no,yes,768,legacy,118,11,C:/Users/Edgar/Documents/Edgar School/Fall 2019/Lab 3-1/EJ-subject-1.csv,legacy,2 3 8 5 6 7,Kafkaesque Koffka,3.2.8,0,n,0,left,left,right,left,NA,1204,3153,89962,1204,NA,2,legacy,6,1024,2,48000,-16,experiment,1,odd,1,920470,910628,918250,6419,177772,918258,916877,6446,87806,922477,923688,919264,9602,922477,NA,Sternberg task,118,80563,131,yes,1024
90.15151515,90.15151515,616.030303,616.030303,black,experiment,legacy,legacy,legacy,0,uniform,1,undefined,1,right,131,131,131,0,0,131,131,0,0,131,131,131,0,131,0,10/20/19 16:30,The main experiment item,yes,Sternbergtask.osexp,C:/Users/Edgar/Documents/Edgar School/Fall 2019/Lab 3-1,no,mono,no,18,no,white,no,yes,768,legacy,119,11,C:/Users/Edgar/Documents/Edgar School/Fall 2019/Lab 3-1/EJ-subject-1.csv,legacy,1 4 3 6 5,Kafkaesque Koffka,3.2.8,0,n,0,right,left,right,right,NA,753,3153,89962,753,NA,2,legacy,5,1024,2,48000,-16,experiment,1,odd,8,927366,910628,925141,6419,177772,925149,923755,6446,87806,929375,930137,926156,9602,929374,NA,Sternberg task,119,81316,132,yes,1024
89.47368421,89.47368421,625.3233083,625.3233083,black,experiment,legacy,legacy,legacy,0,uniform,0,undefined,0,left,132,132,132,0,0,132,132,0,0,132,132,132,0,132,0,10/20/19 16:30,The main experiment item,yes,Sternbergtask.osexp,C:/Users/Edgar/Documents/Edgar School/Fall 2019/Lab 3-1,no,mono,no,18,no,white,no,yes,768,legacy,120,11,C:/Users/Edgar/Documents/Edgar School/Fall 2019/Lab 3-1/EJ-subject-1.csv,legacy,3 2 1 4 7,Kafkaesque Koffka,3.2.8,2,y,0,right,left,right,right,NA,1852,3153,89962,1852,NA,2,legacy,5,1024,2,48000,-16,experiment,1,odd,2,933820,930190,931595,6419,177772,931603,923755,6446,87806,935827,937687,932612,9602,935826,NA,Sternberg task,119,83168,133,yes,1024
89.55223881,89.55223881,624.5895522,624.5895522,black,experiment,legacy,legacy,legacy,0,uniform,1,undefined,1,left,133,133,133,0,0,133,133,0,0,133,133,133,0,133,0,10/20/19 16:30,The main experiment item,yes,Sternbergtask.osexp,C:/Users/Edgar/Documents/Edgar School/Fall 2019/Lab 3-1,no,mono,no,18,no,white,no,yes,768,legacy,121,11,C:/Users/Edgar/Documents/Edgar School/Fall 2019/Lab 3-1/EJ-subject-1.csv,legacy,2 4 6 9,Kafkaesque Koffka,3.2.8,3,y,0,left,left,right,left,NA,527,3153,89962,527,NA,2,legacy,4,1024,2,48000,-16,experiment,1,odd,6,941394,930190,939170,6419,177772,939178,937756,6446,87806,943401,943938,940186,9602,943401,NA,Sternberg task,120,83695,134,yes,1024
89.62962963,89.62962963,623.8222222,623.8222222,black,experiment,legacy,legacy,legacy,0,uniform,1,undefined,1,right,134,134,134,0,0,134,134,0,0,134,134,134,0,134,0,10/20/19 16:30,The main experiment item,yes,Sternbergtask.osexp,C:/Users/Edgar/Documents/Edgar School/Fall 2019/Lab 3-1,no,mono,no,18,no,white,no,yes,768,legacy,122,11,C:/Users/Edgar/Documents/Edgar School/Fall 2019/Lab 3-1/EJ-subject-1.csv,legacy,1 6 4,Kafkaesque Koffka,3.2.8,0,n,0,right,left,right,right,NA,521,3153,89962,521,NA,2,legacy,3,1024,2,48000,-16,experiment,1,odd,7,947597,944002,945368,6419,177772,945378,937756,6446,87806,949604,950130,946383,9602,949604,NA,Sternberg task,121,84216,135,yes,1024
89.70588235,89.70588235,623.6323529,623.6323529,black,experiment,legacy,legacy,legacy,0,uniform,1,undefined,1,left,135,135,135,0,0,135,135,0,0,135,135,135,0,135,0,10/20/19 16:30,The main experiment item,yes,Sternbergtask.osexp,C:/Users/Edgar/Documents/Edgar School/Fall 2019/Lab 3-1,no,mono,no,18,no,white,no,yes,768,legacy,123,11,C:/Users/Edgar/Documents/Edgar School/Fall 2019/Lab 3-1/EJ-subject-1.csv,legacy,5 7 3 6 2,Kafkaesque Koffka,3.2.8,5,y,0,left,left,right,left,NA,598,3153,89962,598,NA,2,legacy,5,1024,2,48000,-16,experiment,1,odd,2,953744,950170,951523,6419,177772,951531,937756,6446,87806,955750,956357,952537,9602,955750,NA,Sternberg task,122,84814,136,yes,1024
89.7810219,89.7810219,623.729927,623.729927,black,experiment,legacy,legacy,legacy,0,uniform,1,undefined,1,right,136,136,136,0,0,136,136,0,0,136,136,136,0,136,0,10/20/19 16:30,The main experiment item,yes,Sternbergtask.osexp,C:/Users/Edgar/Documents/Edgar School/Fall 2019/Lab 3-1,no,mono,no,18,no,white,no,yes,768,legacy,124,11,C:/Users/Edgar/Documents/Edgar School/Fall 2019/Lab 3-1/EJ-subject-1.csv,legacy,6 2 9 3 8 4,Kafkaesque Koffka,3.2.8,0,n,0,right,left,right,right,NA,637,3153,89962,637,NA,2,legacy,6,1024,2,48000,-16,experiment,1,odd,1,960004,956419,957784,6419,177772,957792,937756,6446,87806,962013,962659,958798,9602,962013,NA,Sternberg task,123,85451,137,yes,1024
89.85507246,89.85507246,624.3405797,624.3405797,black,experiment,legacy,legacy,legacy,0,uniform,1,undefined,1,left,137,137,137,0,0,137,137,0,0,137,137,137,0,137,0,10/20/19 16:30,The main experiment item,yes,Sternbergtask.osexp,C:/Users/Edgar/Documents/Edgar School/Fall 2019/Lab 3-1,no,mono,no,18,no,white,no,yes,768,legacy,125,11,C:/Users/Edgar/Documents/Edgar School/Fall 2019/Lab 3-1/EJ-subject-1.csv,legacy,8 5 4 7 3 1,Kafkaesque Koffka,3.2.8,2,y,0,left,left,right,left,NA,708,3153,89962,708,NA,2,legacy,6,1024,2,48000,-16,experiment,1,odd,5,966321,962729,964101,6419,177772,964109,937756,6446,87806,968328,969044,965116,9602,968328,NA,Sternberg task,124,86159,138,yes,1024