"acc","accuracy","average_response_time","avg_rt","background","block","canvas_backend","clock_backend","color_backend","compensation","coordinates","correct","correct_instruction1","correct_keyboard_response","correct_response","count_ISI","count_correctFeedback","count_expSequence","count_experiment","count_experimentLoop","count_fixation","count_incorrectFeedback","count_instruction1","count_instructions2","count_keyboard_response","count_memorySet","count_new_logger","count_practiceLoop","count_probe","count_thankYou","datetime","description","disable_garbage_collection","experiment_file","experiment_path","font_bold","font_family","font_italic","font_size","font_underline","foreground","form_clicks","fullscreen","height","keyboard_backend","live_row","live_row_practiceLoop","logfile","mouse_backend","numberSet","opensesame_codename","opensesame_version","posInSet","present","repeat_cycle","response","response_instruction1","response_instructions2","response_keyboard_response","response_thankYou","response_time","response_time_instruction1","response_time_instructions2","response_time_keyboard_response","response_time_thankYou","round_decimals","sampler_backend","setSize","sound_buf_size","sound_channels","sound_freq","sound_sample_size","start","subject_nr","subject_parity","target","time_ISI","time_correctFeedback","time_expSequence","time_experiment","time_experimentLoop","time_fixation","time_incorrectFeedback","time_instruction1","time_instructions2","time_keyboard_response","time_memorySet","time_new_logger","time_practiceLoop","time_probe","time_thankYou","title","total_correct","total_response_time","total_responses","uniform_coordinates","width"
"100","100","836","836","black","practice","legacy","legacy","legacy","0","uniform","1","undefined","1","left","0","0","0","0","0","0","0","0","0","0","0","0","0","0","0","Sun Oct 15 17:22:42 2023","The main experiment item","yes","SternbergTask.osexp","/Users/Thingtwo/Desktop","no","mono","no","18","no","white","no","yes","768","legacy","0","0","/Users/Thingtwo/Desktop/NC-subject-1.csv","legacy","2 9 4","Lentiform Loewenfeld","3.3.14","3","y","0","left","right","NA","left","NA","836","10903","NA","836","NA","2","legacy","3","1024","2","48000","-16","experiment","1","odd","4","14387","NA","12155","1107","NA","12159","NA","1133","NA","16398","13173","17235","12052","16398","NA","Sternberg Task","1","836","1","yes","1024"
"100","100","746","746","black","practice","legacy","legacy","legacy","0","uniform","1","undefined","1","left","1","1","1","0","0","1","1","0","0","1","1","1","0","1","0","Sun Oct 15 17:22:42 2023","The main experiment item","yes","SternbergTask.osexp","/Users/Thingtwo/Desktop","no","mono","no","18","no","white","no","yes","768","legacy","1","1","/Users/Thingtwo/Desktop/NC-subject-1.csv","legacy","6","Lentiform Loewenfeld","3.3.14","1","y","0","left","right","NA","left","NA","656","10903","NA","656","NA","2","legacy","1","1024","2","48000","-16","experiment","1","odd","6","20565","17258","18336","1107","NA","18340","NA","1133","NA","22577","19351","23239","12052","22576","NA","Sternberg Task","2","1492","2","yes","1024"
"100","100","686.6666666666666","686.6666666666666","black","practice","legacy","legacy","legacy","0","uniform","1","undefined","1","left","2","2","2","0","0","2","2","0","0","2","2","2","0","2","0","Sun Oct 15 17:22:42 2023","The main experiment item","yes","SternbergTask.osexp","/Users/Thingtwo/Desktop","no","mono","no","18","no","white","no","yes","768","legacy","2","2","/Users/Thingtwo/Desktop/NC-subject-1.csv","legacy","1 7 9 8 5","Lentiform Loewenfeld","3.3.14","4","y","0","left","right","NA","left","NA","568","10903","NA","568","NA","2","legacy","5","1024","2","48000","-16","experiment","1","odd","8","26549","23245","24317","1107","NA","24322","NA","1133","NA","28561","25334","29130","12052","28560","NA","Sternberg Task","3","2060","3","yes","1024"
"100","100","614.25","614.25","black","practice","legacy","legacy","legacy","0","uniform","1","undefined","1","right","3","3","3","0","0","3","3","0","0","3","3","3","0","3","0","Sun Oct 15 17:22:42 2023","The main experiment item","yes","SternbergTask.osexp","/Users/Thingtwo/Desktop","no","mono","no","18","no","white","no","yes","768","legacy","3","3","/Users/Thingtwo/Desktop/NC-subject-1.csv","legacy","2 1","Lentiform Loewenfeld","3.3.14","0","n","0","right","right","NA","right","NA","397","10903","NA","397","NA","2","legacy","2","1024","2","48000","-16","experiment","1","odd","5","32437","29136","30206","1107","NA","30210","NA","1133","NA","34448","31222","34846","12052","34448","NA","Sternberg Task","4","2457","4","yes","1024"
"100","100","613.2","613.2","black","practice","legacy","legacy","legacy","0","uniform","1","undefined","1","right","4","4","4","0","0","4","4","0","0","4","4","4","0","4","0","Sun Oct 15 17:22:42 2023","The main experiment item","yes","SternbergTask.osexp","/Users/Thingtwo/Desktop","no","mono","no","18","no","white","no","yes","768","legacy","4","4","/Users/Thingtwo/Desktop/NC-subject-1.csv","legacy","5 7 8 4 1 2","Lentiform Loewenfeld","3.3.14","0","n","0","right","right","NA","right","NA","609","10903","NA","609","NA","2","legacy","6","1024","2","48000","-16","experiment","1","odd","6","38150","34852","35919","1107","NA","35923","NA","1133","NA","40161","36935","40771","12052","40161","NA","Sternberg Task","5","3066","5","yes","1024"
"100","100","593.6666666666666","593.6666666666666","black","practice","legacy","legacy","legacy","0","uniform","1","undefined","1","right","5","5","5","0","0","5","5","0","0","5","5","5","0","5","0","Sun Oct 15 17:22:42 2023","The main experiment item","yes","SternbergTask.osexp","/Users/Thingtwo/Desktop","no","mono","no","18","no","white","no","yes","768","legacy","5","5","/Users/Thingtwo/Desktop/NC-subject-1.csv","legacy","4 1 5","Lentiform Loewenfeld","3.3.14","0","n","0","right","right","NA","right","NA","496","10903","NA","496","NA","2","legacy","3","1024","2","48000","-16","experiment","1","odd","2","44068","40776","41840","1107","NA","41845","NA","1133","NA","46079","42855","46576","12052","46078","NA","Sternberg Task","6","3562","6","yes","1024"
"100","100","611.2857142857143","611.2857142857143","black","practice","legacy","legacy","legacy","0","uniform","1","undefined","1","right","6","6","6","0","0","6","6","0","0","6","6","6","0","6","0","Sun Oct 15 17:22:42 2023","The main experiment item","yes","SternbergTask.osexp","/Users/Thingtwo/Desktop","no","mono","no","18","no","white","no","yes","768","legacy","6","6","/Users/Thingtwo/Desktop/NC-subject-1.csv","legacy","5","Lentiform Loewenfeld","3.3.14","0","n","0","right","right","NA","right","NA","717","10903","NA","717","NA","2","legacy","1","1024","2","48000","-16","experiment","1","odd","3","49877","46582","47645","1107","NA","47650","NA","1133","NA","51888","48662","52606","12052","51888","NA","Sternberg Task","7","4279","7","yes","1024"
"100","100","627.875","627.875","black","practice","legacy","legacy","legacy","0","uniform","1","undefined","1","left","7","7","7","0","0","7","7","0","0","7","7","7","0","7","0","Sun Oct 15 17:22:42 2023","The main experiment item","yes","SternbergTask.osexp","/Users/Thingtwo/Desktop","no","mono","no","18","no","white","no","yes","768","legacy","7","7","/Users/Thingtwo/Desktop/NC-subject-1.csv","legacy","4 3 1 7 9 8","Lentiform Loewenfeld","3.3.14","1","y","0","left","right","NA","left","NA","744","10903","NA","744","NA","2","legacy","6","1024","2","48000","-16","experiment","1","odd","4","55914","52612","53682","1107","NA","53687","NA","1133","NA","57924","54700","58669","12052","57923","NA","Sternberg Task","8","5023","8","yes","1024"
"100","100","608","608","black","practice","legacy","legacy","legacy","0","uniform","1","undefined","1","right","8","8","8","0","0","8","8","0","0","8","8","8","0","8","0","Sun Oct 15 17:22:42 2023","The main experiment item","yes","SternbergTask.osexp","/Users/Thingtwo/Desktop","no","mono","no","18","no","white","no","yes","768","legacy","8","8","/Users/Thingtwo/Desktop/NC-subject-1.csv","legacy","3 1 9 4","Lentiform Loewenfeld","3.3.14","0","n","0","right","right","NA","right","NA","449","10903","NA","449","NA","2","legacy","4","1024","2","48000","-16","experiment","1","odd","6","61967","58675","59739","1107","NA","59743","NA","1133","NA","63977","60754","64427","12052","63977","NA","Sternberg Task","9","5472","9","yes","1024"
"100","100","599.8","599.8","black","practice","legacy","legacy","legacy","0","uniform","1","undefined","1","left","9","9","9","0","0","9","9","0","0","9","9","9","0","9","0","Sun Oct 15 17:22:42 2023","The main experiment item","yes","SternbergTask.osexp","/Users/Thingtwo/Desktop","no","mono","no","18","no","white","no","yes","768","legacy","9","9","/Users/Thingtwo/Desktop/NC-subject-1.csv","legacy","4 8","Lentiform Loewenfeld","3.3.14","1","y","0","left","right","NA","left","NA","526","10903","NA","526","NA","2","legacy","2","1024","2","48000","-16","experiment","1","odd","4","67726","64433","65496","1107","NA","65501","NA","1133","NA","69737","66511","70264","12052","69737","NA","Sternberg Task","10","5998","10","yes","1024"
"100","100","583.5454545454545","583.5454545454545","black","practice","legacy","legacy","legacy","0","uniform","1","undefined","1","left","10","10","10","0","0","10","10","0","0","10","10","10","0","10","0","Sun Oct 15 17:22:42 2023","The main experiment item","yes","SternbergTask.osexp","/Users/Thingtwo/Desktop","no","mono","no","18","no","white","no","yes","768","legacy","10","10","/Users/Thingtwo/Desktop/NC-subject-1.csv","legacy","1 5 2 9","Lentiform Loewenfeld","3.3.14","2","y","0","left","right","NA","left","NA","421","10903","NA","421","NA","2","legacy","4","1024","2","48000","-16","experiment","1","odd","5","73563","70271","71335","1107","NA","71339","NA","1133","NA","75573","72351","75994","12052","75572","NA","Sternberg Task","11","6419","11","yes","1024"
"100","100","578.0833333333334","578.0833333333334","black","practice","legacy","legacy","legacy","0","uniform","1","undefined","1","right","11","11","11","0","0","11","11","0","0","11","11","11","0","11","0","Sun Oct 15 17:22:42 2023","The main experiment item","yes","SternbergTask.osexp","/Users/Thingtwo/Desktop","no","mono","no","18","no","white","no","yes","768","legacy","11","11","/Users/Thingtwo/Desktop/NC-subject-1.csv","legacy","9 6 7 4 5","Lentiform Loewenfeld","3.3.14","0","n","0","right","right","NA","right","NA","518","10903","NA","518","NA","2","legacy","5","1024","2","48000","-16","experiment","1","odd","3","79291","75999","77062","1107","NA","77067","NA","1133","NA","81301","78077","81820","12052","81301","NA","Sternberg Task","12","6937","12","yes","1024"
"100","100","574.6153846153846","574.6153846153846","black","experiment","legacy","legacy","legacy","0","uniform","1","undefined","1","right","12","12","12","0","0","12","12","0","0","12","12","12","0","12","0","Sun Oct 15 17:22:42 2023","The main experiment item","yes","SternbergTask.osexp","/Users/Thingtwo/Desktop","no","mono","no","18","no","white","no","yes","768","legacy","0","11","/Users/Thingtwo/Desktop/NC-subject-1.csv","legacy","2 6 4 3 9","Lentiform Loewenfeld","3.3.14","0","n","0","right","right","left","right","NA","533","10903","2334","533","NA","2","legacy","5","1024","2","48000","-16","experiment","1","odd","1","87471","81825","85241","1107","85209","85245","NA","1133","82874","89482","86257","90016","12052","89482","NA","Sternberg Task","13","7470","13","yes","1024"
"92.85714285714286","92.85714285714286","576.5","576.5","black","experiment","legacy","legacy","legacy","0","uniform","0","undefined","0","left","13","13","13","0","0","13","13","0","0","13","13","13","0","13","0","Sun Oct 15 17:22:42 2023","The main experiment item","yes","SternbergTask.osexp","/Users/Thingtwo/Desktop","no","mono","no","18","no","white","no","yes","768","legacy","1","11","/Users/Thingtwo/Desktop/NC-subject-1.csv","legacy","6 9 3 1","Lentiform Loewenfeld","3.3.14","4","y","0","right","right","left","right","NA","601","10903","2334","601","NA","2","legacy","4","1024","2","48000","-16","experiment","1","odd","1","93316","90022","91086","1107","85209","91091","NA","1133","82874","95327","92102","95929","12052","95326","NA","Sternberg Task","13","8071","14","yes","1024"
"93.33333333333333","93.33333333333333","576.2","576.2","black","experiment","legacy","legacy","legacy","0","uniform","1","undefined","1","right","14","14","14","0","0","14","14","0","0","14","14","14","0","14","0","Sun Oct 15 17:22:42 2023","The main experiment item","yes","SternbergTask.osexp","/Users/Thingtwo/Desktop","no","mono","no","18","no","white","no","yes","768","legacy","2","11","/Users/Thingtwo/Desktop/NC-subject-1.csv","legacy","1 4 9 2 5","Lentiform Loewenfeld","3.3.14","0","n","0","right","right","left","right","NA","572","10903","2334","572","NA","2","legacy","5","1024","2","48000","-16","experiment","1","odd","7","99228","90022","96998","1107","85209","97002","95935","1133","82874","101239","98013","101812","12052","101238","NA","Sternberg Task","14","8643","15","yes","1024"
"93.75","93.75","572.5","572.5","black","experiment","legacy","legacy","legacy","0","uniform","1","undefined","1","left","15","15","15","0","0","15","15","0","0","15","15","15","0","15","0","Sun Oct 15 17:22:42 2023","The main experiment item","yes","SternbergTask.osexp","/Users/Thingtwo/Desktop","no","mono","no","18","no","white","no","yes","768","legacy","3","11","/Users/Thingtwo/Desktop/NC-subject-1.csv","legacy","8 7 3","Lentiform Loewenfeld","3.3.14","1","y","0","left","right","left","left","NA","517","10903","2334","517","NA","2","legacy","3","1024","2","48000","-16","experiment","1","odd","8","105114","101818","102883","1107","85209","102887","95935","1133","82874","107124","103900","107642","12052","107124","NA","Sternberg Task","15","9160","16","yes","1024"
"94.11764705882354","94.11764705882354","567.5294117647059","567.5294117647059","black","experiment","legacy","legacy","legacy","0","uniform","1","undefined","1","right","16","16","16","0","0","16","16","0","0","16","16","16","0","16","0","Sun Oct 15 17:22:42 2023","The main experiment item","yes","SternbergTask.osexp","/Users/Thingtwo/Desktop","no","mono","no","18","no","white","no","yes","768","legacy","4","11","/Users/Thingtwo/Desktop/NC-subject-1.csv","legacy","7 9 1 6","Lentiform Loewenfeld","3.3.14","0","n","0","right","right","left","right","NA","488","10903","2334","488","NA","2","legacy","4","1024","2","48000","-16","experiment","1","odd","4","110943","107648","108712","1107","85209","108716","95935","1133","82874","112953","109729","113442","12052","112953","NA","Sternberg Task","16","9648","17","yes","1024"
"94.44444444444444","94.44444444444444","562.7777777777778","562.7777777777778","black","experiment","legacy","legacy","legacy","0","uniform","1","undefined","1","left","17","17","17","0","0","17","17","0","0","17","17","17","0","17","0","Sun Oct 15 17:22:42 2023","The main experiment item","yes","SternbergTask.osexp","/Users/Thingtwo/Desktop","no","mono","no","18","no","white","no","yes","768","legacy","5","11","/Users/Thingtwo/Desktop/NC-subject-1.csv","legacy","4","Lentiform Loewenfeld","3.3.14","1","y","0","left","right","left","left","NA","482","10903","2334","482","NA","2","legacy","1","1024","2","48000","-16","experiment","1","odd","4","116739","113447","114510","1107","85209","114514","95935","1133","82874","118749","115526","119231","12052","118749","NA","Sternberg Task","17","10130","18","yes","1024"
"94.73684210526316","94.73684210526316","554.7894736842105","554.7894736842105","black","experiment","legacy","legacy","legacy","0","uniform","1","undefined","1","right","18","18","18","0","0","18","18","0","0","18","18","18","0","18","0","Sun Oct 15 17:22:42 2023","The main experiment item","yes","SternbergTask.osexp","/Users/Thingtwo/Desktop","no","mono","no","18","no","white","no","yes","768","legacy","6","11","/Users/Thingtwo/Desktop/NC-subject-1.csv","legacy","7 1","Lentiform Loewenfeld","3.3.14","0","n","0","right","right","left","right","NA","411","10903","2334","411","NA","2","legacy","2","1024","2","48000","-16","experiment","1","odd","8","122531","119236","120301","1107","85209","120306","95935","1133","82874","124541","121317","124953","12052","124541","NA","Sternberg Task","18","10541","19","yes","1024"
"95","95","546","546","black","experiment","legacy","legacy","legacy","0","uniform","1","undefined","1","right","19","19","19","0","0","19","19","0","0","19","19","19","0","19","0","Sun Oct 15 17:22:42 2023","The main experiment item","yes","SternbergTask.osexp","/Users/Thingtwo/Desktop","no","mono","no","18","no","white","no","yes","768","legacy","7","11","/Users/Thingtwo/Desktop/NC-subject-1.csv","legacy","3 4 2","Lentiform Loewenfeld","3.3.14","0","n","0","right","right","left","right","NA","379","10903","2334","379","NA","2","legacy","3","1024","2","48000","-16","experiment","1","odd","5","128253","124958","126021","1107","85209","126026","95935","1133","82874","130263","127038","130643","12052","130263","NA","Sternberg Task","19","10920","20","yes","1024"
"95.23809523809524","95.23809523809524","546.7619047619048","546.7619047619048","black","experiment","legacy","legacy","legacy","0","uniform","1","undefined","1","right","20","20","20","0","0","20","20","0","0","20","20","20","0","20","0","Sun Oct 15 17:22:42 2023","The main experiment item","yes","SternbergTask.osexp","/Users/Thingtwo/Desktop","no","mono","no","18","no","white","no","yes","768","legacy","8","11","/Users/Thingtwo/Desktop/NC-subject-1.csv","legacy","6 9 4 5 3 2","Lentiform Loewenfeld","3.3.14","0","n","0","right","right","left","right","NA","562","10903","2334","562","NA","2","legacy","6","1024","2","48000","-16","experiment","1","odd","8","133944","130649","131715","1107","85209","131719","95935","1133","82874","135955","132730","136518","12052","135955","NA","Sternberg Task","20","11482","21","yes","1024"
"90.9090909090909","90.9090909090909","550.8181818181819","550.8181818181819","black","experiment","legacy","legacy","legacy","0","uniform","0","undefined","0","left","21","21","21","0","0","21","21","0","0","21","21","21","0","21","0","Sun Oct 15 17:22:42 2023","The main experiment item","yes","SternbergTask.osexp","/Users/Thingtwo/Desktop","no","mono","no","18","no","white","no","yes","768","legacy","9","11","/Users/Thingtwo/Desktop/NC-subject-1.csv","legacy","7 1 8 5 6 2","Lentiform Loewenfeld","3.3.14","2","y","0","right","right","left","right","NA","636","10903","2334","636","NA","2","legacy","6","1024","2","48000","-16","experiment","1","odd","1","139822","136524","137589","1107","85209","137594","95935","1133","82874","141832","138608","142470","12052","141832","NA","Sternberg Task","20","12118","22","yes","1024"
"91.30434782608695","91.30434782608695","564.4347826086956","564.4347826086956","black","experiment","legacy","legacy","legacy","0","uniform","1","undefined","1","right","22","22","22","0","0","22","22","0","0","22","22","22","0","22","0","Sun Oct 15 17:22:42 2023","The main experiment item","yes","SternbergTask.osexp","/Users/Thingtwo/Desktop","no","mono","no","18","no","white","no","yes","768","legacy","10","11","/Users/Thingtwo/Desktop/NC-subject-1.csv","legacy","8 5 7 3 6","Lentiform Loewenfeld","3.3.14","0","n","0","right","right","left","right","NA","864","10903","2334","864","NA","2","legacy","5","1024","2","48000","-16","experiment","1","odd","9","145764","136524","143536","1107","85209","143541","142475","1133","82874","147775","144552","148641","12052","147775","NA","Sternberg Task","21","12982","23","yes","1024"
"91.66666666666667","91.66666666666667","559.4583333333334","559.4583333333334","black","experiment","legacy","legacy","legacy","0","uniform","1","undefined","1","left","23","23","23","0","0","23","23","0","0","23","23","23","0","23","0","Sun Oct 15 17:22:42 2023","The main experiment item","yes","SternbergTask.osexp","/Users/Thingtwo/Desktop","no","mono","no","18","no","white","no","yes","768","legacy","11","11","/Users/Thingtwo/Desktop/NC-subject-1.csv","legacy","6 1 2","Lentiform Loewenfeld","3.3.14","3","y","0","left","right","left","left","NA","445","10903","2334","445","NA","2","legacy","3","1024","2","48000","-16","experiment","1","odd","2","151940","148646","149709","1107","85209","149714","142475","1133","82874","153951","150725","154398","12052","153950","NA","Sternberg Task","22","13427","24","yes","1024"
"92","92","556.4","556.4","black","experiment","legacy","legacy","legacy","0","uniform","1","undefined","1","left","24","24","24","0","0","24","24","0","0","24","24","24","0","24","0","Sun Oct 15 17:22:42 2023","The main experiment item","yes","SternbergTask.osexp","/Users/Thingtwo/Desktop","no","mono","no","18","no","white","no","yes","768","legacy","12","11","/Users/Thingtwo/Desktop/NC-subject-1.csv","legacy","3 5 4 7","Lentiform Loewenfeld","3.3.14","1","y","0","left","right","left","left","NA","483","10903","2334","483","NA","2","legacy","4","1024","2","48000","-16","experiment","1","odd","3","157696","154403","155466","1107","85209","155471","142475","1133","82874","159706","156483","160191","12052","159706","NA","Sternberg Task","23","13910","25","yes","1024"
"92.3076923076923","92.3076923076923","552.1538461538462","552.1538461538462","black","experiment","legacy","legacy","legacy","0","uniform","1","undefined","1","right","25","25","25","0","0","25","25","0","0","25","25","25","0","25","0","Sun Oct 15 17:22:42 2023","The main experiment item","yes","SternbergTask.osexp","/Users/Thingtwo/Desktop","no","mono","no","18","no","white","no","yes","768","legacy","13","11","/Users/Thingtwo/Desktop/NC-subject-1.csv","legacy","6 7 5 9","Lentiform Loewenfeld","3.3.14","0","n","0","right","right","left","right","NA","446","10903","2334","446","NA","2","legacy","4","1024","2","48000","-16","experiment","1","odd","2","163488","160195","161259","1107","85209","161263","142475","1133","82874","165499","162275","165945","12052","165498","NA","Sternberg Task","24","14356","26","yes","1024"
"92.5925925925926","92.5925925925926","545.8148148148148","545.8148148148148","black","experiment","legacy","legacy","legacy","0","uniform","1","undefined","1","right","26","26","26","0","0","26","26","0","0","26","26","26","0","26","0","Sun Oct 15 17:22:42 2023","The main experiment item","yes","SternbergTask.osexp","/Users/Thingtwo/Desktop","no","mono","no","18","no","white","no","yes","768","legacy","14","11","/Users/Thingtwo/Desktop/NC-subject-1.csv","legacy","5","Lentiform Loewenfeld","3.3.14","0","n","0","right","right","left","right","NA","381","10903","2334","381","NA","2","legacy","1","1024","2","48000","-16","experiment","1","odd","8","169242","165950","167012","1107","85209","167016","142475","1133","82874","171253","168028","171635","12052","171253","NA","Sternberg Task","25","14737","27","yes","1024"
"92.85714285714286","92.85714285714286","543.0357142857143","543.0357142857143","black","experiment","legacy","legacy","legacy","0","uniform","1","undefined","1","left","27","27","27","0","0","27","27","0","0","27","27","27","0","27","0","Sun Oct 15 17:22:42 2023","The main experiment item","yes","SternbergTask.osexp","/Users/Thingtwo/Desktop","no","mono","no","18","no","white","no","yes","768","legacy","15","11","/Users/Thingtwo/Desktop/NC-subject-1.csv","legacy","6 2","Lentiform Loewenfeld","3.3.14","1","y","0","left","right","left","left","NA","468","10903","2334","468","NA","2","legacy","2","1024","2","48000","-16","experiment","1","odd","6","174933","171641","172704","1107","85209","172709","142475","1133","82874","176945","173719","177414","12052","176945","NA","Sternberg Task","26","15205","28","yes","1024"
"93.10344827586206","93.10344827586206","542.6896551724138","542.6896551724138","black","experiment","legacy","legacy","legacy","0","uniform","1","undefined","1","left","28","28","28","0","0","28","28","0","0","28","28","28","0","28","0","Sun Oct 15 17:22:42 2023","The main experiment item","yes","SternbergTask.osexp","/Users/Thingtwo/Desktop","no","mono","no","18","no","white","no","yes","768","legacy","16","11","/Users/Thingtwo/Desktop/NC-subject-1.csv","legacy","8 9 5 7 1 6","Lentiform Loewenfeld","3.3.14","4","y","0","left","right","left","left","NA","533","10903","2334","533","NA","2","legacy","6","1024","2","48000","-16","experiment","1","odd","7","180715","177420","178483","1107","85209","178488","142475","1133","82874","182726","179500","183260","12052","182725","NA","Sternberg Task","27","15738","29","yes","1024"
"93.33333333333333","93.33333333333333","540.8666666666667","540.8666666666667","black","experiment","legacy","legacy","legacy","0","uniform","1","undefined","1","right","29","29","29","0","0","29","29","0","0","29","29","29","0","29","0","Sun Oct 15 17:22:42 2023","The main experiment item","yes","SternbergTask.osexp","/Users/Thingtwo/Desktop","no","mono","no","18","no","white","no","yes","768","legacy","17","11","/Users/Thingtwo/Desktop/NC-subject-1.csv","legacy","2 8 6 3 1","Lentiform Loewenfeld","3.3.14","0","n","0","right","right","left","right","NA","488","10903","2334","488","NA","2","legacy","5","1024","2","48000","-16","experiment","1","odd","7","186558","183265","184327","1107","85209","184332","142475","1133","82874","188569","185345","189058","12052","188569","NA","Sternberg Task","28","16226","30","yes","1024"
"93.54838709677419","93.54838709677419","542.483870967742","542.483870967742","black","experiment","legacy","legacy","legacy","0","uniform","1","undefined","1","right","30","30","30","0","0","30","30","0","0","30","30","30","0","30","0","Sun Oct 15 17:22:42 2023","The main experiment item","yes","SternbergTask.osexp","/Users/Thingtwo/Desktop","no","mono","no","18","no","white","no","yes","768","legacy","18","11","/Users/Thingtwo/Desktop/NC-subject-1.csv","legacy","8 6 3 4 7","Lentiform Loewenfeld","3.3.14","0","n","0","right","right","left","right","NA","591","10903","2334","591","NA","2","legacy","5","1024","2","48000","-16","experiment","1","odd","1","192358","189065","190128","1107","85209","190133","142475","1133","82874","194367","191144","194959","12052","194367","NA","Sternberg Task","29","16817","31","yes","1024"
"93.75","93.75","544.21875","544.21875","black","experiment","legacy","legacy","legacy","0","uniform","1","undefined","1","right","31","31","31","0","0","31","31","0","0","31","31","31","0","31","0","Sun Oct 15 17:22:42 2023","The main experiment item","yes","SternbergTask.osexp","/Users/Thingtwo/Desktop","no","mono","no","18","no","white","no","yes","768","legacy","19","11","/Users/Thingtwo/Desktop/NC-subject-1.csv","legacy","8 2 1 4 5 9","Lentiform Loewenfeld","3.3.14","0","n","0","right","right","left","right","NA","598","10903","2334","598","NA","2","legacy","6","1024","2","48000","-16","experiment","1","odd","7","198258","194965","196028","1107","85209","196033","142475","1133","82874","200265","197044","200864","12052","200265","NA","Sternberg Task","30","17415","32","yes","1024"
"93.93939393939394","93.93939393939394","541.8787878787879","541.8787878787879","black","experiment","legacy","legacy","legacy","0","uniform","1","undefined","1","left","32","32","32","0","0","32","32","0","0","32","32","32","0","32","0","Sun Oct 15 17:22:42 2023","The main experiment item","yes","SternbergTask.osexp","/Users/Thingtwo/Desktop","no","mono","no","18","no","white","no","yes","768","legacy","20","11","/Users/Thingtwo/Desktop/NC-subject-1.csv","legacy","9 8 4","Lentiform Loewenfeld","3.3.14","1","y","0","left","right","left","left","NA","467","10903","2334","467","NA","2","legacy","3","1024","2","48000","-16","experiment","1","odd","9","204167","200870","201936","1107","85209","201941","142475","1133","82874","206179","202952","206648","12052","206179","NA","Sternberg Task","31","17882","33","yes","1024"
"91.17647058823529","91.17647058823529","540.7058823529412","540.7058823529412","black","experiment","legacy","legacy","legacy","0","uniform","0","undefined","0","left","33","33","33","0","0","33","33","0","0","33","33","33","0","33","0","Sun Oct 15 17:22:42 2023","The main experiment item","yes","SternbergTask.osexp","/Users/Thingtwo/Desktop","no","mono","no","18","no","white","no","yes","768","legacy","21","11","/Users/Thingtwo/Desktop/NC-subject-1.csv","legacy","2 8 5 1","Lentiform Loewenfeld","3.3.14","4","y","0","right","right","left","right","NA","502","10903","2334","502","NA","2","legacy","4","1024","2","48000","-16","experiment","1","odd","1","209953","206656","207722","1107","85209","207727","142475","1133","82874","211963","208739","212466","12052","211963","NA","Sternberg Task","31","18384","34","yes","1024"
"91.42857142857143","91.42857142857143","538.3714285714286","538.3714285714286","black","experiment","legacy","legacy","legacy","0","uniform","1","undefined","1","left","34","34","34","0","0","34","34","0","0","34","34","34","0","34","0","Sun Oct 15 17:22:42 2023","The main experiment item","yes","SternbergTask.osexp","/Users/Thingtwo/Desktop","no","mono","no","18","no","white","no","yes","768","legacy","22","11","/Users/Thingtwo/Desktop/NC-subject-1.csv","legacy","7 2 3","Lentiform Loewenfeld","3.3.14","3","y","0","left","right","left","left","NA","459","10903","2334","459","NA","2","legacy","3","1024","2","48000","-16","experiment","1","odd","3","215766","206656","213536","1107","85209","213541","212472","1133","82874","217776","214552","218236","12052","217776","NA","Sternberg Task","32","18843","35","yes","1024"
"91.66666666666667","91.66666666666667","535.2222222222222","535.2222222222222","black","experiment","legacy","legacy","legacy","0","uniform","1","undefined","1","left","35","35","35","0","0","35","35","0","0","35","35","35","0","35","0","Sun Oct 15 17:22:42 2023","The main experiment item","yes","SternbergTask.osexp","/Users/Thingtwo/Desktop","no","mono","no","18","no","white","no","yes","768","legacy","23","11","/Users/Thingtwo/Desktop/NC-subject-1.csv","legacy","3 4","Lentiform Loewenfeld","3.3.14","1","y","0","left","right","left","left","NA","425","10903","2334","425","NA","2","legacy","2","1024","2","48000","-16","experiment","1","odd","3","221536","218241","219304","1107","85209","219309","212472","1133","82874","223547","220321","223973","12052","223547","NA","Sternberg Task","33","19268","36","yes","1024"
"91.89189189189189","91.89189189189189","531.027027027027","531.027027027027","black","experiment","legacy","legacy","legacy","0","uniform","1","undefined","1","left","36","36","36","0","0","36","36","0","0","36","36","36","0","36","0","Sun Oct 15 17:22:42 2023","The main experiment item","yes","SternbergTask.osexp","/Users/Thingtwo/Desktop","no","mono","no","18","no","white","no","yes","768","legacy","24","11","/Users/Thingtwo/Desktop/NC-subject-1.csv","legacy","2 3 7 4","Lentiform Loewenfeld","3.3.14","1","y","0","left","right","left","left","NA","380","10903","2334","380","NA","2","legacy","4","1024","2","48000","-16","experiment","1","odd","2","227268","223979","225041","1107","85209","225046","212472","1133","82874","229279","226055","229660","12052","229279","NA","Sternberg Task","34","19648","37","yes","1024"
"92.10526315789474","92.10526315789474","530.3684210526316","530.3684210526316","black","experiment","legacy","legacy","legacy","0","uniform","1","undefined","1","left","37","37","37","0","0","37","37","0","0","37","37","37","0","37","0","Sun Oct 15 17:22:42 2023","The main experiment item","yes","SternbergTask.osexp","/Users/Thingtwo/Desktop","no","mono","no","18","no","white","no","yes","768","legacy","25","11","/Users/Thingtwo/Desktop/NC-subject-1.csv","legacy","3 2 1 4 7","Lentiform Loewenfeld","3.3.14","2","y","0","left","right","left","left","NA","506","10903","2334","506","NA","2","legacy","5","1024","2","48000","-16","experiment","1","odd","2","232961","229666","230731","1107","85209","230736","212472","1133","82874","234971","231747","235478","12052","234971","NA","Sternberg Task","35","20154","38","yes","1024"
"92.3076923076923","92.3076923076923","539.0512820512821","539.0512820512821","black","experiment","legacy","legacy","legacy","0","uniform","1","undefined","1","left","38","38","38","0","0","38","38","0","0","38","38","38","0","38","0","Sun Oct 15 17:22:42 2023","The main experiment item","yes","SternbergTask.osexp","/Users/Thingtwo/Desktop","no","mono","no","18","no","white","no","yes","768","legacy","26","11","/Users/Thingtwo/Desktop/NC-subject-1.csv","legacy","9 5 8 1","Lentiform Loewenfeld","3.3.14","2","y","0","left","right","left","left","NA","869","10903","2334","869","NA","2","legacy","4","1024","2","48000","-16","experiment","1","odd","5","238779","235484","236547","1107","85209","236554","212472","1133","82874","240789","237565","241659","12052","240789","NA","Sternberg Task","36","21023","39","yes","1024"
"92.5","92.5","538.925","538.925","black","experiment","legacy","legacy","legacy","0","uniform","1","undefined","1","right","39","39","39","0","0","39","39","0","0","39","39","39","0","39","0","Sun Oct 15 17:22:42 2023","The main experiment item","yes","SternbergTask.osexp","/Users/Thingtwo/Desktop","no","mono","no","18","no","white","no","yes","768","legacy","27","11","/Users/Thingtwo/Desktop/NC-subject-1.csv","legacy","2 3 8 5 6 7","Lentiform Loewenfeld","3.3.14","0","n","0","right","right","left","right","NA","534","10903","2334","534","NA","2","legacy","6","1024","2","48000","-16","experiment","1","odd","1","244954","241665","242727","1107","85209","242731","212472","1133","82874","246964","243741","247499","12052","246964","NA","Sternberg Task","37","21557","40","yes","1024"
"92.6829268292683","92.6829268292683","544.2439024390244","544.2439024390244","black","experiment","legacy","legacy","legacy","0","uniform","1","undefined","1","right","40","40","40","0","0","40","40","0","0","40","40","40","0","40","0","Sun Oct 15 17:22:42 2023","The main experiment item","yes","SternbergTask.osexp","/Users/Thingtwo/Desktop","no","mono","no","18","no","white","no","yes","768","legacy","28","11","/Users/Thingtwo/Desktop/NC-subject-1.csv","legacy","3 9 8 1 6 4","Lentiform Loewenfeld","3.3.14","0","n","0","right","right","left","right","NA","757","10903","2334","757","NA","2","legacy","6","1024","2","48000","-16","experiment","1","odd","7","250798","247505","248569","1107","85209","248574","212472","1133","82874","252808","249585","253566","12052","252808","NA","Sternberg Task","38","22314","41","yes","1024"
"92.85714285714286","92.85714285714286","542.7142857142857","542.7142857142857","black","experiment","legacy","legacy","legacy","0","uniform","1","undefined","1","left","41","41","41","0","0","41","41","0","0","41","41","41","0","41","0","Sun Oct 15 17:22:42 2023","The main experiment item","yes","SternbergTask.osexp","/Users/Thingtwo/Desktop","no","mono","no","18","no","white","no","yes","768","legacy","29","11","/Users/Thingtwo/Desktop/NC-subject-1.csv","legacy","3 9 7 6 4","Lentiform Loewenfeld","3.3.14","3","y","0","left","right","left","left","NA","480","10903","2334","480","NA","2","legacy","5","1024","2","48000","-16","experiment","1","odd","7","256868","253572","254635","1107","85209","254639","212472","1133","82874","258879","255651","259361","12052","258879","NA","Sternberg Task","39","22794","42","yes","1024"
"93.02325581395348","93.02325581395348","545.7674418604652","545.7674418604652","black","experiment","legacy","legacy","legacy","0","uniform","1","undefined","1","right","42","42","42","0","0","42","42","0","0","42","42","42","0","42","0","Sun Oct 15 17:22:42 2023","The main experiment item","yes","SternbergTask.osexp","/Users/Thingtwo/Desktop","no","mono","no","18","no","white","no","yes","768","legacy","30","11","/Users/Thingtwo/Desktop/NC-subject-1.csv","legacy","7 1 5 6 3","Lentiform Loewenfeld","3.3.14","0","n","0","right","right","left","right","NA","674","10903","2334","674","NA","2","legacy","5","1024","2","48000","-16","experiment","1","odd","8","262662","259367","260432","1107","85209","260436","212472","1133","82874","264671","261449","265346","12052","264671","NA","Sternberg Task","40","23468","43","yes","1024"
"93.18181818181819","93.18181818181819","543.3181818181819","543.3181818181819","black","experiment","legacy","legacy","legacy","0","uniform","1","undefined","1","right","43","43","43","0","0","43","43","0","0","43","43","43","0","43","0","Sun Oct 15 17:22:42 2023","The main experiment item","yes","SternbergTask.osexp","/Users/Thingtwo/Desktop","no","mono","no","18","no","white","no","yes","768","legacy","31","11","/Users/Thingtwo/Desktop/NC-subject-1.csv","legacy","9","Lentiform Loewenfeld","3.3.14","0","n","0","right","right","left","right","NA","438","10903","2334","438","NA","2","legacy","1","1024","2","48000","-16","experiment","1","odd","6","268642","265351","266416","1107","85209","266420","212472","1133","82874","270653","267431","271092","12052","270653","NA","Sternberg Task","41","23906","44","yes","1024"
"93.33333333333333","93.33333333333333","541.4","541.4","black","experiment","legacy","legacy","legacy","0","uniform","1","undefined","1","left","44","44","44","0","0","44","44","0","0","44","44","44","0","44","0","Sun Oct 15 17:22:42 2023","The main experiment item","yes","SternbergTask.osexp","/Users/Thingtwo/Desktop","no","mono","no","18","no","white","no","yes","768","legacy","32","11","/Users/Thingtwo/Desktop/NC-subject-1.csv","legacy","7 8 4 6 9 5","Lentiform Loewenfeld","3.3.14","4","y","0","left","right","left","left","NA","457","10903","2334","457","NA","2","legacy","6","1024","2","48000","-16","experiment","1","odd","6","274391","271098","272161","1107","85209","272166","212472","1133","82874","276401","273178","276859","12052","276401","NA","Sternberg Task","42","24363","45","yes","1024"
"93.47826086956522","93.47826086956522","543.304347826087","543.304347826087","black","experiment","legacy","legacy","legacy","0","uniform","1","undefined","1","right","45","45","45","0","0","45","45","0","0","45","45","45","0","45","0","Sun Oct 15 17:22:42 2023","The main experiment item","yes","SternbergTask.osexp","/Users/Thingtwo/Desktop","no","mono","no","18","no","white","no","yes","768","legacy","33","11","/Users/Thingtwo/Desktop/NC-subject-1.csv","legacy","2 8 9 4 1","Lentiform Loewenfeld","3.3.14","0","n","0","right","right","left","right","NA","629","10903","2334","629","NA","2","legacy","5","1024","2","48000","-16","experiment","1","odd","5","280160","276864","277928","1107","85209","277933","212472","1133","82874","282170","278945","282800","12052","282170","NA","Sternberg Task","43","24992","46","yes","1024"
"93.61702127659575","93.61702127659575","542.2127659574468","542.2127659574468","black","experiment","legacy","legacy","legacy","0","uniform","1","undefined","1","left","46","46","46","0","0","46","46","0","0","46","46","46","0","46","0","Sun Oct 15 17:22:42 2023","The main experiment item","yes","SternbergTask.osexp","/Users/Thingtwo/Desktop","no","mono","no","18","no","white","no","yes","768","legacy","34","11","/Users/Thingtwo/Desktop/NC-subject-1.csv","legacy","8 5 4 7 3 1","Lentiform Loewenfeld","3.3.14","2","y","0","left","right","left","left","NA","492","10903","2334","492","NA","2","legacy","6","1024","2","48000","-16","experiment","1","odd","5","286100","282806","283871","1107","85209","283875","212472","1133","82874","288111","284886","288604","12052","288111","NA","Sternberg Task","44","25484","47","yes","1024"
"93.75","93.75","541.25","541.25","black","experiment","legacy","legacy","legacy","0","uniform","1","undefined","1","left","47","47","47","0","0","47","47","0","0","47","47","47","0","47","0","Sun Oct 15 17:22:42 2023","The main experiment item","yes","SternbergTask.osexp","/Users/Thingtwo/Desktop","no","mono","no","18","no","white","no","yes","768","legacy","35","11","/Users/Thingtwo/Desktop/NC-subject-1.csv","legacy","8 9 6 1","Lentiform Loewenfeld","3.3.14","2","y","0","left","right","left","left","NA","496","10903","2334","496","NA","2","legacy","4","1024","2","48000","-16","experiment","1","odd","9","291904","288610","289676","1107","85209","289680","212472","1133","82874","293915","290690","294412","12052","293914","NA","Sternberg Task","45","25980","48","yes","1024"
"93.87755102040816","93.87755102040816","539.0612244897959","539.0612244897959","black","experiment","legacy","legacy","legacy","0","uniform","1","undefined","1","right","48","48","48","0","0","48","48","0","0","48","48","48","0","48","0","Sun Oct 15 17:22:42 2023","The main experiment item","yes","SternbergTask.osexp","/Users/Thingtwo/Desktop","no","mono","no","18","no","white","no","yes","768","legacy","36","11","/Users/Thingtwo/Desktop/NC-subject-1.csv","legacy","1","Lentiform Loewenfeld","3.3.14","0","n","0","right","right","left","right","NA","434","10903","2334","434","NA","2","legacy","1","1024","2","48000","-16","experiment","1","odd","7","297710","294418","295482","1107","85209","295487","212472","1133","82874","299722","296497","300157","12052","299722","NA","Sternberg Task","46","26414","49","yes","1024"
"94","94","538.58","538.58","black","experiment","legacy","legacy","legacy","0","uniform","1","undefined","1","right","49","49","49","0","0","49","49","0","0","49","49","49","0","49","0","Sun Oct 15 17:22:42 2023","The main experiment item","yes","SternbergTask.osexp","/Users/Thingtwo/Desktop","no","mono","no","18","no","white","no","yes","768","legacy","37","11","/Users/Thingtwo/Desktop/NC-subject-1.csv","legacy","1 4 3 6 5","Lentiform Loewenfeld","3.3.14","0","n","0","right","right","left","right","NA","515","10903","2334","515","NA","2","legacy","5","1024","2","48000","-16","experiment","1","odd","8","303456","300163","301225","1107","85209","301230","212472","1133","82874","305466","302241","305982","12052","305466","NA","Sternberg Task","47","26929","50","yes","1024"
"92.15686274509804","92.15686274509804","545.4509803921569","545.4509803921569","black","experiment","legacy","legacy","legacy","0","uniform","0","undefined","0","right","50","50","50","0","0","50","50","0","0","50","50","50","0","50","0","Sun Oct 15 17:22:42 2023","The main experiment item","yes","SternbergTask.osexp","/Users/Thingtwo/Desktop","no","mono","no","18","no","white","no","yes","768","legacy","38","11","/Users/Thingtwo/Desktop/NC-subject-1.csv","legacy","1 7 5 2 9","Lentiform Loewenfeld","3.3.14","0","n","0","left","right","left","left","NA","889","10903","2334","889","NA","2","legacy","5","1024","2","48000","-16","experiment","1","odd","3","309283","305988","307052","1107","85209","307057","212472","1133","82874","311294","308068","312184","12052","311293","NA","Sternberg Task","47","27818","51","yes","1024"
"92.3076923076923","92.3076923076923","543.1346153846154","543.1346153846154","black","experiment","legacy","legacy","legacy","0","uniform","1","undefined","1","right","51","51","51","0","0","51","51","0","0","51","51","51","0","51","0","Sun Oct 15 17:22:42 2023","The main experiment item","yes","SternbergTask.osexp","/Users/Thingtwo/Desktop","no","mono","no","18","no","white","no","yes","768","legacy","39","11","/Users/Thingtwo/Desktop/NC-subject-1.csv","legacy","6 9 7 3 8 2","Lentiform Loewenfeld","3.3.14","0","n","0","right","right","left","right","NA","425","10903","2334","425","NA","2","legacy","6","1024","2","48000","-16","experiment","1","odd","5","315491","305988","313261","1107","85209","313265","312189","1133","82874","317504","314278","317930","12052","317503","NA","Sternberg Task","48","28243","52","yes","1024"
"92.45283018867924","92.45283018867924","542.5849056603773","542.5849056603773","black","experiment","legacy","legacy","legacy","0","uniform","1","undefined","1","right","52","52","52","0","0","52","52","0","0","52","52","52","0","52","0","Sun Oct 15 17:22:42 2023","The main experiment item","yes","SternbergTask.osexp","/Users/Thingtwo/Desktop","no","mono","no","18","no","white","no","yes","768","legacy","40","11","/Users/Thingtwo/Desktop/NC-subject-1.csv","legacy","7 6 4 8 1 2","Lentiform Loewenfeld","3.3.14","0","n","0","right","right","left","right","NA","514","10903","2334","514","NA","2","legacy","6","1024","2","48000","-16","experiment","1","odd","9","321226","317935","318998","1107","85209","319003","312189","1133","82874","323236","320013","323752","12052","323236","NA","Sternberg Task","49","28757","53","yes","1024"
"90.74074074074075","90.74074074074075","542.9814814814815","542.9814814814815","black","experiment","legacy","legacy","legacy","0","uniform","0","undefined","0","right","53","53","53","0","0","53","53","0","0","53","53","53","0","53","0","Sun Oct 15 17:22:42 2023","The main experiment item","yes","SternbergTask.osexp","/Users/Thingtwo/Desktop","no","mono","no","18","no","white","no","yes","768","legacy","41","11","/Users/Thingtwo/Desktop/NC-subject-1.csv","legacy","6 8","Lentiform Loewenfeld","3.3.14","0","n","0","left","right","left","left","NA","564","10903","2334","564","NA","2","legacy","2","1024","2","48000","-16","experiment","1","odd","9","327051","323757","324821","1107","85209","324826","312189","1133","82874","329061","325837","329626","12052","329061","NA","Sternberg Task","49","29321","54","yes","1024"
"90.9090909090909","90.9090909090909","546.7636363636364","546.7636363636364","black","experiment","legacy","legacy","legacy","0","uniform","1","undefined","1","right","54","54","54","0","0","54","54","0","0","54","54","54","0","54","0","Sun Oct 15 17:22:42 2023","The main experiment item","yes","SternbergTask.osexp","/Users/Thingtwo/Desktop","no","mono","no","18","no","white","no","yes","768","legacy","42","11","/Users/Thingtwo/Desktop/NC-subject-1.csv","legacy","7 8 6 1","Lentiform Loewenfeld","3.3.14","0","n","0","right","right","left","right","NA","751","10903","2334","751","NA","2","legacy","4","1024","2","48000","-16","experiment","1","odd","3","332927","323757","330696","1107","85209","330701","329632","1133","82874","334937","331713","335689","12052","334937","NA","Sternberg Task","50","30072","55","yes","1024"
"91.07142857142857","91.07142857142857","546.1071428571429","546.1071428571429","black","experiment","legacy","legacy","legacy","0","uniform","1","undefined","1","left","55","55","55","0","0","55","55","0","0","55","55","55","0","55","0","Sun Oct 15 17:22:42 2023","The main experiment item","yes","SternbergTask.osexp","/Users/Thingtwo/Desktop","no","mono","no","18","no","white","no","yes","768","legacy","43","11","/Users/Thingtwo/Desktop/NC-subject-1.csv","legacy","8 5 1 3 9","Lentiform Loewenfeld","3.3.14","4","y","0","left","right","left","left","NA","510","10903","2334","510","NA","2","legacy","5","1024","2","48000","-16","experiment","1","odd","3","338988","335695","336758","1107","85209","336763","329632","1133","82874","341001","337774","341513","12052","341000","NA","Sternberg Task","51","30582","56","yes","1024"
"91.2280701754386","91.2280701754386","545.2456140350877","545.2456140350877","black","experiment","legacy","legacy","legacy","0","uniform","1","undefined","1","left","56","56","56","0","0","56","56","0","0","56","56","56","0","56","0","Sun Oct 15 17:22:42 2023","The main experiment item","yes","SternbergTask.osexp","/Users/Thingtwo/Desktop","no","mono","no","18","no","white","no","yes","768","legacy","44","11","/Users/Thingtwo/Desktop/NC-subject-1.csv","legacy","9 5 3 8 4","Lentiform Loewenfeld","3.3.14","1","y","0","left","right","left","left","NA","497","10903","2334","497","NA","2","legacy","5","1024","2","48000","-16","experiment","1","odd","9","344812","341519","342582","1107","85209","342587","329632","1133","82874","346825","343598","347323","12052","346824","NA","Sternberg Task","52","31079","57","yes","1024"
"91.37931034482759","91.37931034482759","549.6896551724138","549.6896551724138","black","experiment","legacy","legacy","legacy","0","uniform","1","undefined","1","right","57","57","57","0","0","57","57","0","0","57","57","57","0","57","0","Sun Oct 15 17:22:42 2023","The main experiment item","yes","SternbergTask.osexp","/Users/Thingtwo/Desktop","no","mono","no","18","no","white","no","yes","768","legacy","45","11","/Users/Thingtwo/Desktop/NC-subject-1.csv","legacy","1 7 8 3 9","Lentiform Loewenfeld","3.3.14","0","n","0","right","right","left","right","NA","803","10903","2334","803","NA","2","legacy","5","1024","2","48000","-16","experiment","1","odd","2","350622","347329","348390","1107","85209","348396","329632","1133","82874","352633","349408","353437","12052","352633","NA","Sternberg Task","53","31882","58","yes","1024"
"91.52542372881356","91.52542372881356","549.1525423728814","549.1525423728814","black","experiment","legacy","legacy","legacy","0","uniform","1","undefined","1","right","58","58","58","0","0","58","58","0","0","58","58","58","0","58","0","Sun Oct 15 17:22:42 2023","The main experiment item","yes","SternbergTask.osexp","/Users/Thingtwo/Desktop","no","mono","no","18","no","white","no","yes","768","legacy","46","11","/Users/Thingtwo/Desktop/NC-subject-1.csv","legacy","6 2 9 3 8 4","Lentiform Loewenfeld","3.3.14","0","n","0","right","right","left","right","NA","518","10903","2334","518","NA","2","legacy","6","1024","2","48000","-16","experiment","1","odd","1","356744","353442","354508","1107","85209","354514","329632","1133","82874","358762","355527","359281","12052","358762","NA","Sternberg Task","54","32400","59","yes","1024"
"91.66666666666667","91.66666666666667","548.85","548.85","black","experiment","legacy","legacy","legacy","0","uniform","1","undefined","1","left","59","59","59","0","0","59","59","0","0","59","59","59","0","59","0","Sun Oct 15 17:22:42 2023","The main experiment item","yes","SternbergTask.osexp","/Users/Thingtwo/Desktop","no","mono","no","18","no","white","no","yes","768","legacy","47","11","/Users/Thingtwo/Desktop/NC-subject-1.csv","legacy","5 2 9 6 1 7","Lentiform Loewenfeld","3.3.14","3","y","0","left","right","left","left","NA","531","10903","2334","531","NA","2","legacy","6","1024","2","48000","-16","experiment","1","odd","9","362593","359287","360352","1107","85209","360359","329632","1133","82874","364613","361373","365145","12052","364613","NA","Sternberg Task","55","32931","60","yes","1024"
"91.80327868852459","91.80327868852459","547.344262295082","547.344262295082","black","experiment","legacy","legacy","legacy","0","uniform","1","undefined","1","right","60","60","60","0","0","60","60","0","0","60","60","60","0","60","0","Sun Oct 15 17:22:42 2023","The main experiment item","yes","SternbergTask.osexp","/Users/Thingtwo/Desktop","no","mono","no","18","no","white","no","yes","768","legacy","48","11","/Users/Thingtwo/Desktop/NC-subject-1.csv","legacy","1 6 4 3 9 7","Lentiform Loewenfeld","3.3.14","0","n","0","right","right","left","right","NA","457","10903","2334","457","NA","2","legacy","6","1024","2","48000","-16","experiment","1","odd","8","368454","365151","366217","1107","85209","366222","329632","1133","82874","370472","367236","370930","12052","370472","NA","Sternberg Task","56","33388","61","yes","1024"
"91.93548387096774","91.93548387096774","547.4193548387096","547.4193548387096","black","experiment","legacy","legacy","legacy","0","uniform","1","undefined","1","right","61","61","61","0","0","61","61","0","0","61","61","61","0","61","0","Sun Oct 15 17:22:42 2023","The main experiment item","yes","SternbergTask.osexp","/Users/Thingtwo/Desktop","no","mono","no","18","no","white","no","yes","768","legacy","49","11","/Users/Thingtwo/Desktop/NC-subject-1.csv","legacy","6 8 4","Lentiform Loewenfeld","3.3.14","0","n","0","right","right","left","right","NA","552","10903","2334","552","NA","2","legacy","3","1024","2","48000","-16","experiment","1","odd","1","374236","370935","372000","1107","85209","372005","329632","1133","82874","376255","373017","376808","12052","376255","NA","Sternberg Task","57","33940","62","yes","1024"
"92.06349206349206","92.06349206349206","546.4603174603175","546.4603174603175","black","experiment","legacy","legacy","legacy","0","uniform","1","undefined","1","right","62","62","62","0","0","62","62","0","0","62","62","62","0","62","0","Sun Oct 15 17:22:42 2023","The main experiment item","yes","SternbergTask.osexp","/Users/Thingtwo/Desktop","no","mono","no","18","no","white","no","yes","768","legacy","50","11","/Users/Thingtwo/Desktop/NC-subject-1.csv","legacy","4 8 1 2","Lentiform Loewenfeld","3.3.14","0","n","0","right","right","left","right","NA","487","10903","2334","487","NA","2","legacy","4","1024","2","48000","-16","experiment","1","odd","7","380118","376814","377878","1107","85209","377883","329632","1133","82874","382136","378898","382624","12052","382136","NA","Sternberg Task","58","34427","63","yes","1024"
"92.1875","92.1875","545.546875","545.546875","black","experiment","legacy","legacy","legacy","0","uniform","1","undefined","1","left","63","63","63","0","0","63","63","0","0","63","63","63","0","63","0","Sun Oct 15 17:22:42 2023","The main experiment item","yes","SternbergTask.osexp","/Users/Thingtwo/Desktop","no","mono","no","18","no","white","no","yes","768","legacy","51","11","/Users/Thingtwo/Desktop/NC-subject-1.csv","legacy","5 2 6","Lentiform Loewenfeld","3.3.14","2","y","0","left","right","left","left","NA","488","10903","2334","488","NA","2","legacy","3","1024","2","48000","-16","experiment","1","odd","2","385925","382629","383691","1107","85209","383696","329632","1133","82874","387942","384708","388431","12052","387942","NA","Sternberg Task","59","34915","64","yes","1024"
"92.3076923076923","92.3076923076923","543.8153846153846","543.8153846153846","black","experiment","legacy","legacy","legacy","0","uniform","1","undefined","1","right","64","64","64","0","0","64","64","0","0","64","64","64","0","64","0","Sun Oct 15 17:22:42 2023","The main experiment item","yes","SternbergTask.osexp","/Users/Thingtwo/Desktop","no","mono","no","18","no","white","no","yes","768","legacy","52","11","/Users/Thingtwo/Desktop/NC-subject-1.csv","legacy","4 2 7 6 1 3","Lentiform Loewenfeld","3.3.14","0","n","0","right","right","left","right","NA","433","10903","2334","433","NA","2","legacy","6","1024","2","48000","-16","experiment","1","odd","8","391736","388436","389500","1107","85209","389505","329632","1133","82874","393755","390519","394189","12052","393755","NA","Sternberg Task","60","35348","65","yes","1024"
"90.9090909090909","90.9090909090909","543.4848484848485","543.4848484848485","black","experiment","legacy","legacy","legacy","0","uniform","0","undefined","0","right","65","65","65","0","0","65","65","0","0","65","65","65","0","65","0","Sun Oct 15 17:22:42 2023","The main experiment item","yes","SternbergTask.osexp","/Users/Thingtwo/Desktop","no","mono","no","18","no","white","no","yes","768","legacy","53","11","/Users/Thingtwo/Desktop/NC-subject-1.csv","legacy","1 7 5 2","Lentiform Loewenfeld","3.3.14","0","n","0","left","right","left","left","NA","522","10903","2334","522","NA","2","legacy","4","1024","2","48000","-16","experiment","1","odd","3","397496","394195","395258","1107","85209","395263","329632","1133","82874","399512","396277","400035","12052","399511","NA","Sternberg Task","60","35870","66","yes","1024"
"89.55223880597015","89.55223880597015","545.0298507462686","545.0298507462686","black","experiment","legacy","legacy","legacy","0","uniform","0","undefined","0","left","66","66","66","0","0","66","66","0","0","66","66","66","0","66","0","Sun Oct 15 17:22:42 2023","The main experiment item","yes","SternbergTask.osexp","/Users/Thingtwo/Desktop","no","mono","no","18","no","white","no","yes","768","legacy","54","11","/Users/Thingtwo/Desktop/NC-subject-1.csv","legacy","6 8 9 3 4 9","Lentiform Loewenfeld","3.3.14","5","y","0","right","right","left","right","NA","647","10903","2334","647","NA","2","legacy","6","1024","2","48000","-16","experiment","1","odd","4","403347","394195","401106","1107","85209","401112","400041","1133","82874","405364","402127","406013","12052","405364","NA","Sternberg Task","60","36517","67","yes","1024"
"89.70588235294117","89.70588235294117","545","545","black","experiment","legacy","legacy","legacy","0","uniform","1","undefined","1","right","67","67","67","0","0","67","67","0","0","67","67","67","0","67","0","Sun Oct 15 17:22:42 2023","The main experiment item","yes","SternbergTask.osexp","/Users/Thingtwo/Desktop","no","mono","no","18","no","white","no","yes","768","legacy","55","11","/Users/Thingtwo/Desktop/NC-subject-1.csv","legacy","7 3 2 8","Lentiform Loewenfeld","3.3.14","0","n","0","right","right","left","right","NA","543","10903","2334","543","NA","2","legacy","4","1024","2","48000","-16","experiment","1","odd","4","409322","394195","407083","1107","85209","407089","406018","1133","82874","411338","408101","411882","12052","411338","NA","Sternberg Task","61","37060","68","yes","1024"
"89.85507246376811","89.85507246376811","543.7101449275362","543.7101449275362","black","experiment","legacy","legacy","legacy","0","uniform","1","undefined","1","right","68","68","68","0","0","68","68","0","0","68","68","68","0","68","0","Sun Oct 15 17:22:42 2023","The main experiment item","yes","SternbergTask.osexp","/Users/Thingtwo/Desktop","no","mono","no","18","no","white","no","yes","768","legacy","56","11","/Users/Thingtwo/Desktop/NC-subject-1.csv","legacy","8 4 3 9","Lentiform Loewenfeld","3.3.14","0","n","0","right","right","left","right","NA","456","10903","2334","456","NA","2","legacy","4","1024","2","48000","-16","experiment","1","odd","5","415190","411888","412953","1107","85209","412958","406018","1133","82874","417210","413972","417667","12052","417210","NA","Sternberg Task","62","37516","69","yes","1024"
"90","90","545.3714285714286","545.3714285714286","black","experiment","legacy","legacy","legacy","0","uniform","1","undefined","1","right","69","69","69","0","0","69","69","0","0","69","69","69","0","69","0","Sun Oct 15 17:22:42 2023","The main experiment item","yes","SternbergTask.osexp","/Users/Thingtwo/Desktop","no","mono","no","18","no","white","no","yes","768","legacy","57","11","/Users/Thingtwo/Desktop/NC-subject-1.csv","legacy","2 7 5","Lentiform Loewenfeld","3.3.14","0","n","0","right","right","left","right","NA","660","10903","2334","660","NA","2","legacy","3","1024","2","48000","-16","experiment","1","odd","8","420973","417673","418736","1107","85209","418741","406018","1133","82874","422993","419754","423654","12052","422993","NA","Sternberg Task","63","38176","70","yes","1024"
"90.14084507042253","90.14084507042253","546.5211267605633","546.5211267605633","black","experiment","legacy","legacy","legacy","0","uniform","1","undefined","1","right","70","70","70","0","0","70","70","0","0","70","70","70","0","70","0","Sun Oct 15 17:22:42 2023","The main experiment item","yes","SternbergTask.osexp","/Users/Thingtwo/Desktop","no","mono","no","18","no","white","no","yes","768","legacy","58","11","/Users/Thingtwo/Desktop/NC-subject-1.csv","legacy","6 3 1 7 9 8","Lentiform Loewenfeld","3.3.14","0","n","0","right","right","left","right","NA","627","10903","2334","627","NA","2","legacy","6","1024","2","48000","-16","experiment","1","odd","4","426964","423660","424724","1107","85209","424730","406018","1133","82874","428982","425745","429610","12052","428982","NA","Sternberg Task","64","38803","71","yes","1024"
"90.27777777777777","90.27777777777777","547.6805555555555","547.6805555555555","black","experiment","legacy","legacy","legacy","0","uniform","1","undefined","1","left","71","71","71","0","0","71","71","0","0","71","71","71","0","71","0","Sun Oct 15 17:22:42 2023","The main experiment item","yes","SternbergTask.osexp","/Users/Thingtwo/Desktop","no","mono","no","18","no","white","no","yes","768","legacy","59","11","/Users/Thingtwo/Desktop/NC-subject-1.csv","legacy","8 3","Lentiform Loewenfeld","3.3.14","2","y","0","left","right","left","left","NA","630","10903","2334","630","NA","2","legacy","2","1024","2","48000","-16","experiment","1","odd","3","432922","429615","430678","1107","85209","430684","406018","1133","82874","434942","431702","435573","12052","434941","NA","Sternberg Task","65","39433","72","yes","1024"
"90.41095890410959","90.41095890410959","552.2191780821918","552.2191780821918","black","experiment","legacy","legacy","legacy","0","uniform","1","undefined","1","right","72","72","72","0","0","72","72","0","0","72","72","72","0","72","0","Sun Oct 15 17:22:42 2023","The main experiment item","yes","SternbergTask.osexp","/Users/Thingtwo/Desktop","no","mono","no","18","no","white","no","yes","768","legacy","60","11","/Users/Thingtwo/Desktop/NC-subject-1.csv","legacy","5 3 2 6 9 8","Lentiform Loewenfeld","3.3.14","0","n","0","right","right","left","right","NA","879","10903","2334","879","NA","2","legacy","6","1024","2","48000","-16","experiment","1","odd","4","438884","435579","436644","1107","85209","436650","406018","1133","82874","440896","437665","441776","12052","440896","NA","Sternberg Task","66","40312","73","yes","1024"
"90.54054054054055","90.54054054054055","555.3783783783783","555.3783783783783","black","experiment","legacy","legacy","legacy","0","uniform","1","undefined","1","left","73","73","73","0","0","73","73","0","0","73","73","73","0","73","0","Sun Oct 15 17:22:42 2023","The main experiment item","yes","SternbergTask.osexp","/Users/Thingtwo/Desktop","no","mono","no","18","no","white","no","yes","768","legacy","61","11","/Users/Thingtwo/Desktop/NC-subject-1.csv","legacy","8 1 6","Lentiform Loewenfeld","3.3.14","3","y","0","left","right","left","left","NA","786","10903","2334","786","NA","2","legacy","3","1024","2","48000","-16","experiment","1","odd","6","445083","441782","442843","1107","85209","442850","406018","1133","82874","447098","443865","447885","12052","447098","NA","Sternberg Task","67","41098","74","yes","1024"
"90.66666666666667","90.66666666666667","561.2666666666667","561.2666666666667","black","experiment","legacy","legacy","legacy","0","uniform","1","undefined","1","left","74","74","74","0","0","74","74","0","0","74","74","74","0","74","0","Sun Oct 15 17:22:42 2023","The main experiment item","yes","SternbergTask.osexp","/Users/Thingtwo/Desktop","no","mono","no","18","no","white","no","yes","768","legacy","62","11","/Users/Thingtwo/Desktop/NC-subject-1.csv","legacy","3 5 7 1","Lentiform Loewenfeld","3.3.14","3","y","0","left","right","left","left","NA","997","10903","2334","997","NA","2","legacy","4","1024","2","48000","-16","experiment","1","odd","7","451195","447891","448956","1107","85209","448962","406018","1133","82874","453210","449979","454208","12052","453210","NA","Sternberg Task","68","42095","75","yes","1024"
"90.78947368421052","90.78947368421052","560.0526315789474","560.0526315789474","black","experiment","legacy","legacy","legacy","0","uniform","1","undefined","1","right","75","75","75","0","0","75","75","0","0","75","75","75","0","75","0","Sun Oct 15 17:22:42 2023","The main experiment item","yes","SternbergTask.osexp","/Users/Thingtwo/Desktop","no","mono","no","18","no","white","no","yes","768","legacy","63","11","/Users/Thingtwo/Desktop/NC-subject-1.csv","legacy","1 6 4","Lentiform Loewenfeld","3.3.14","0","n","0","right","right","left","right","NA","469","10903","2334","469","NA","2","legacy","3","1024","2","48000","-16","experiment","1","odd","7","457515","454214","455278","1107","85209","455283","406018","1133","82874","459531","456298","460001","12052","459531","NA","Sternberg Task","69","42564","76","yes","1024"
"90.9090909090909","90.9090909090909","557.7532467532468","557.7532467532468","black","experiment","legacy","legacy","legacy","0","uniform","1","undefined","1","left","76","76","76","0","0","76","76","0","0","76","76","76","0","76","0","Sun Oct 15 17:22:42 2023","The main experiment item","yes","SternbergTask.osexp","/Users/Thingtwo/Desktop","no","mono","no","18","no","white","no","yes","768","legacy","64","11","/Users/Thingtwo/Desktop/NC-subject-1.csv","legacy","4 1 8 7 5","Lentiform Loewenfeld","3.3.14","3","y","0","left","right","left","left","NA","383","10903","2334","383","NA","2","legacy","5","1024","2","48000","-16","experiment","1","odd","8","463314","460006","461071","1107","85209","461078","406018","1133","82874","465330","462096","465714","12052","465330","NA","Sternberg Task","70","42947","77","yes","1024"
"91.02564102564102","91.02564102564102","555.3974358974359","555.3974358974359","black","experiment","legacy","legacy","legacy","0","uniform","1","undefined","1","left","77","77","77","0","0","77","77","0","0","77","77","77","0","77","0","Sun Oct 15 17:22:42 2023","The main experiment item","yes","SternbergTask.osexp","/Users/Thingtwo/Desktop","no","mono","no","18","no","white","no","yes","768","legacy","65","11","/Users/Thingtwo/Desktop/NC-subject-1.csv","legacy","4 9 7 8 5 3","Lentiform Loewenfeld","3.3.14","4","y","0","left","right","left","left","NA","374","10903","2334","374","NA","2","legacy","6","1024","2","48000","-16","experiment","1","odd","8","469025","465719","466785","1107","85209","466791","406018","1133","82874","471044","467807","471419","12052","471044","NA","Sternberg Task","71","43321","78","yes","1024"
"91.13924050632912","91.13924050632912","555.7848101265823","555.7848101265823","black","experiment","legacy","legacy","legacy","0","uniform","1","undefined","1","left","78","78","78","0","0","78","78","0","0","78","78","78","0","78","0","Sun Oct 15 17:22:42 2023","The main experiment item","yes","SternbergTask.osexp","/Users/Thingtwo/Desktop","no","mono","no","18","no","white","no","yes","768","legacy","66","11","/Users/Thingtwo/Desktop/NC-subject-1.csv","legacy","2 4 6 9","Lentiform Loewenfeld","3.3.14","3","y","0","left","right","left","left","NA","586","10903","2334","586","NA","2","legacy","4","1024","2","48000","-16","experiment","1","odd","6","474729","471426","472489","1107","85209","472495","406018","1133","82874","476744","473510","477331","12052","476744","NA","Sternberg Task","72","43907","79","yes","1024"
"91.25","91.25","555.1625","555.1625","black","experiment","legacy","legacy","legacy","0","uniform","1","undefined","1","right","79","79","79","0","0","79","79","0","0","79","79","79","0","79","0","Sun Oct 15 17:22:42 2023","The main experiment item","yes","SternbergTask.osexp","/Users/Thingtwo/Desktop","no","mono","no","18","no","white","no","yes","768","legacy","67","11","/Users/Thingtwo/Desktop/NC-subject-1.csv","legacy","3 4 9 6 7 8","Lentiform Loewenfeld","3.3.14","0","n","0","right","right","left","right","NA","506","10903","2334","506","NA","2","legacy","6","1024","2","48000","-16","experiment","1","odd","2","480640","477337","478401","1107","85209","478408","406018","1133","82874","482657","479423","483164","12052","482657","NA","Sternberg Task","73","44413","80","yes","1024"
"91.35802469135803","91.35802469135803","557.8148148148148","557.8148148148148","black","experiment","legacy","legacy","legacy","0","uniform","1","undefined","1","left","80","80","80","0","0","80","80","0","0","80","80","80","0","80","0","Sun Oct 15 17:22:42 2023","The main experiment item","yes","SternbergTask.osexp","/Users/Thingtwo/Desktop","no","mono","no","18","no","white","no","yes","768","legacy","68","11","/Users/Thingtwo/Desktop/NC-subject-1.csv","legacy","9 1 7 2","Lentiform Loewenfeld","3.3.14","2","y","0","left","right","left","left","NA","770","10903","2334","770","NA","2","legacy","4","1024","2","48000","-16","experiment","1","odd","1","486471","483169","484233","1107","85209","484239","406018","1133","82874","488487","485252","489258","12052","488487","NA","Sternberg Task","74","45183","81","yes","1024"
"91.46341463414635","91.46341463414635","562.939024390244","562.939024390244","black","experiment","legacy","legacy","legacy","0","uniform","1","undefined","1","left","81","81","81","0","0","81","81","0","0","81","81","81","0","81","0","Sun Oct 15 17:22:42 2023","The main experiment item","yes","SternbergTask.osexp","/Users/Thingtwo/Desktop","no","mono","no","18","no","white","no","yes","768","legacy","69","11","/Users/Thingtwo/Desktop/NC-subject-1.csv","legacy","2 5 4 8 7","Lentiform Loewenfeld","3.3.14","3","y","0","left","right","left","left","NA","978","10903","2334","978","NA","2","legacy","5","1024","2","48000","-16","experiment","1","odd","4","492562","489264","490330","1107","85209","490335","406018","1133","82874","494576","491347","495555","12052","494575","NA","Sternberg Task","75","46161","82","yes","1024"
"91.56626506024097","91.56626506024097","562.566265060241","562.566265060241","black","experiment","legacy","legacy","legacy","0","uniform","1","undefined","1","left","82","82","82","0","0","82","82","0","0","82","82","82","0","82","0","Sun Oct 15 17:22:42 2023","The main experiment item","yes","SternbergTask.osexp","/Users/Thingtwo/Desktop","no","mono","no","18","no","white","no","yes","768","legacy","70","11","/Users/Thingtwo/Desktop/NC-subject-1.csv","legacy","9 1 6 7 8","Lentiform Loewenfeld","3.3.14","1","y","0","left","right","left","left","NA","532","10903","2334","532","NA","2","legacy","5","1024","2","48000","-16","experiment","1","odd","9","498855","495561","496625","1107","85209","496631","406018","1133","82874","500867","497641","501400","12052","500867","NA","Sternberg Task","76","46693","83","yes","1024"
"91.66666666666667","91.66666666666667","564.0119047619048","564.0119047619048","black","experiment","legacy","legacy","legacy","0","uniform","1","undefined","1","right","83","83","83","0","0","83","83","0","0","83","83","83","0","83","0","Sun Oct 15 17:22:42 2023","The main experiment item","yes","SternbergTask.osexp","/Users/Thingtwo/Desktop","no","mono","no","18","no","white","no","yes","768","legacy","71","11","/Users/Thingtwo/Desktop/NC-subject-1.csv","legacy","7 4 2 8 1 9","Lentiform Loewenfeld","3.3.14","0","n","0","right","right","left","right","NA","684","10903","2334","684","NA","2","legacy","6","1024","2","48000","-16","experiment","1","odd","5","504700","501406","502470","1107","85209","502476","406018","1133","82874","506711","503487","507396","12052","506711","NA","Sternberg Task","77","47377","84","yes","1024"
"91.76470588235294","91.76470588235294","563.8705882352941","563.8705882352941","black","experiment","legacy","legacy","legacy","0","uniform","1","undefined","1","left","84","84","84","0","0","84","84","0","0","84","84","84","0","84","0","Sun Oct 15 17:22:42 2023","The main experiment item","yes","SternbergTask.osexp","/Users/Thingtwo/Desktop","no","mono","no","18","no","white","no","yes","768","legacy","72","11","/Users/Thingtwo/Desktop/NC-subject-1.csv","legacy","6 9 7 4 5 1","Lentiform Loewenfeld","3.3.14","2","y","0","left","right","left","left","NA","552","10903","2334","552","NA","2","legacy","6","1024","2","48000","-16","experiment","1","odd","9","510699","507402","508467","1107","85209","508472","406018","1133","82874","512709","509483","513262","12052","512709","NA","Sternberg Task","78","47929","85","yes","1024"
"91.86046511627907","91.86046511627907","565.4883720930233","565.4883720930233","black","experiment","legacy","legacy","legacy","0","uniform","1","undefined","1","left","85","85","85","0","0","85","85","0","0","85","85","85","0","85","0","Sun Oct 15 17:22:42 2023","The main experiment item","yes","SternbergTask.osexp","/Users/Thingtwo/Desktop","no","mono","no","18","no","white","no","yes","768","legacy","73","11","/Users/Thingtwo/Desktop/NC-subject-1.csv","legacy","5 7 3 6 2","Lentiform Loewenfeld","3.3.14","5","y","0","left","right","left","left","NA","703","10903","2334","703","NA","2","legacy","5","1024","2","48000","-16","experiment","1","odd","2","516564","513268","514332","1107","85209","514337","406018","1133","82874","518575","515350","519279","12052","518575","NA","Sternberg Task","79","48632","86","yes","1024"
"91.95402298850574","91.95402298850574","563.6666666666666","563.6666666666666","black","experiment","legacy","legacy","legacy","0","uniform","1","undefined","1","left","86","86","86","0","0","86","86","0","0","86","86","86","0","86","0","Sun Oct 15 17:22:42 2023","The main experiment item","yes","SternbergTask.osexp","/Users/Thingtwo/Desktop","no","mono","no","18","no","white","no","yes","768","legacy","74","11","/Users/Thingtwo/Desktop/NC-subject-1.csv","legacy","4 1 5","Lentiform Loewenfeld","3.3.14","2","y","0","left","right","left","left","NA","407","10903","2334","407","NA","2","legacy","3","1024","2","48000","-16","experiment","1","odd","1","522580","519285","520347","1107","85209","520353","406018","1133","82874","524591","521366","524999","12052","524591","NA","Sternberg Task","80","49039","87","yes","1024"
"92.04545454545455","92.04545454545455","562.5795454545455","562.5795454545455","black","experiment","legacy","legacy","legacy","0","uniform","1","undefined","1","right","87","87","87","0","0","87","87","0","0","87","87","87","0","87","0","Sun Oct 15 17:22:42 2023","The main experiment item","yes","SternbergTask.osexp","/Users/Thingtwo/Desktop","no","mono","no","18","no","white","no","yes","768","legacy","75","11","/Users/Thingtwo/Desktop/NC-subject-1.csv","legacy","5 2","Lentiform Loewenfeld","3.3.14","0","n","0","right","right","left","right","NA","468","10903","2334","468","NA","2","legacy","2","1024","2","48000","-16","experiment","1","odd","7","528298","525004","526068","1107","85209","526074","406018","1133","82874","530307","527085","530776","12052","530307","NA","Sternberg Task","81","49507","88","yes","1024"
"92.13483146067416","92.13483146067416","562.056179775281","562.056179775281","black","experiment","legacy","legacy","legacy","0","uniform","1","undefined","1","left","88","88","88","0","0","88","88","0","0","88","88","88","0","88","0","Sun Oct 15 17:22:42 2023","The main experiment item","yes","SternbergTask.osexp","/Users/Thingtwo/Desktop","no","mono","no","18","no","white","no","yes","768","legacy","76","11","/Users/Thingtwo/Desktop/NC-subject-1.csv","legacy","7","Lentiform Loewenfeld","3.3.14","1","y","0","left","right","left","left","NA","516","10903","2334","516","NA","2","legacy","1","1024","2","48000","-16","experiment","1","odd","7","534076","530782","531846","1107","85209","531850","406018","1133","82874","536087","532861","536604","12052","536087","NA","Sternberg Task","82","50023","89","yes","1024"
"92.22222222222223","92.22222222222223","563.8555555555556","563.8555555555556","black","experiment","legacy","legacy","legacy","0","uniform","1","undefined","1","left","89","89","89","0","0","89","89","0","0","89","89","89","0","89","0","Sun Oct 15 17:22:42 2023","The main experiment item","yes","SternbergTask.osexp","/Users/Thingtwo/Desktop","no","mono","no","18","no","white","no","yes","768","legacy","77","11","/Users/Thingtwo/Desktop/NC-subject-1.csv","legacy","7 1 3","Lentiform Loewenfeld","3.3.14","2","y","0","left","right","left","left","NA","724","10903","2334","724","NA","2","legacy","3","1024","2","48000","-16","experiment","1","odd","1","539907","536610","537676","1107","85209","537682","406018","1133","82874","541918","538693","542643","12052","541918","NA","Sternberg Task","83","50747","90","yes","1024"
"91.20879120879121","91.20879120879121","566.1208791208791","566.1208791208791","black","experiment","legacy","legacy","legacy","0","uniform","0","undefined","0","left","90","90","90","0","0","90","90","0","0","90","90","90","0","90","0","Sun Oct 15 17:22:42 2023","The main experiment item","yes","SternbergTask.osexp","/Users/Thingtwo/Desktop","no","mono","no","18","no","white","no","yes","768","legacy","78","11","/Users/Thingtwo/Desktop/NC-subject-1.csv","legacy","1 4 9 3 2 5","Lentiform Loewenfeld","3.3.14","3","y","0","right","right","left","right","NA","770","10903","2334","770","NA","2","legacy","6","1024","2","48000","-16","experiment","1","odd","9","545947","542649","543713","1107","85209","543719","406018","1133","82874","547958","544731","548730","12052","547957","NA","Sternberg Task","83","51517","91","yes","1024"
"91.30434782608695","91.30434782608695","567.445652173913","567.445652173913","black","experiment","legacy","legacy","legacy","0","uniform","1","undefined","1","left","91","91","91","0","0","91","91","0","0","91","91","91","0","91","0","Sun Oct 15 17:22:42 2023","The main experiment item","yes","SternbergTask.osexp","/Users/Thingtwo/Desktop","no","mono","no","18","no","white","no","yes","768","legacy","79","11","/Users/Thingtwo/Desktop/NC-subject-1.csv","legacy","4 6 2 5 1","Lentiform Loewenfeld","3.3.14","5","y","0","left","right","left","left","NA","688","10903","2334","688","NA","2","legacy","5","1024","2","48000","-16","experiment","1","odd","1","552031","542649","549798","1107","85209","549803","548735","1133","82874","554042","550818","554731","12052","554041","NA","Sternberg Task","84","52205","92","yes","1024"
"91.39784946236558","91.39784946236558","567.3333333333334","567.3333333333334","black","experiment","legacy","legacy","legacy","0","uniform","1","undefined","1","right","92","92","92","0","0","92","92","0","0","92","92","92","0","92","0","Sun Oct 15 17:22:42 2023","The main experiment item","yes","SternbergTask.osexp","/Users/Thingtwo/Desktop","no","mono","no","18","no","white","no","yes","768","legacy","80","11","/Users/Thingtwo/Desktop/NC-subject-1.csv","legacy","1 3 2 6 9","Lentiform Loewenfeld","3.3.14","0","n","0","right","right","left","right","NA","557","10903","2334","557","NA","2","legacy","5","1024","2","48000","-16","experiment","1","odd","5","558028","554737","555798","1107","85209","555803","548735","1133","82874","560038","556814","560596","12052","560038","NA","Sternberg Task","85","52762","93","yes","1024"
"91.48936170212765","91.48936170212765","566.4574468085107","566.4574468085107","black","experiment","legacy","legacy","legacy","0","uniform","1","undefined","1","right","93","93","93","0","0","93","93","0","0","93","93","93","0","93","0","Sun Oct 15 17:22:42 2023","The main experiment item","yes","SternbergTask.osexp","/Users/Thingtwo/Desktop","no","mono","no","18","no","white","no","yes","768","legacy","81","11","/Users/Thingtwo/Desktop/NC-subject-1.csv","legacy","8 9","Lentiform Loewenfeld","3.3.14","0","n","0","right","right","left","right","NA","485","10903","2334","485","NA","2","legacy","2","1024","2","48000","-16","experiment","1","odd","5","563894","560602","561664","1107","85209","561669","548735","1133","82874","565905","562680","566390","12052","565905","NA","Sternberg Task","86","53247","94","yes","1024"
"91.57894736842105","91.57894736842105","566.5894736842105","566.5894736842105","black","experiment","legacy","legacy","legacy","0","uniform","1","undefined","1","left","94","94","94","0","0","94","94","0","0","94","94","94","0","94","0","Sun Oct 15 17:22:42 2023","The main experiment item","yes","SternbergTask.osexp","/Users/Thingtwo/Desktop","no","mono","no","18","no","white","no","yes","768","legacy","82","11","/Users/Thingtwo/Desktop/NC-subject-1.csv","legacy","4 7 6 8 2 3","Lentiform Loewenfeld","3.3.14","6","y","0","left","right","left","left","NA","579","10903","2334","579","NA","2","legacy","6","1024","2","48000","-16","experiment","1","odd","3","569696","566396","567464","1107","85209","567469","548735","1133","82874","571707","568481","572287","12052","571707","NA","Sternberg Task","87","53826","95","yes","1024"
"91.66666666666667","91.66666666666667","567.1770833333334","567.1770833333334","black","experiment","legacy","legacy","legacy","0","uniform","1","undefined","1","right","95","95","95","0","0","95","95","0","0","95","95","95","0","95","0","Sun Oct 15 17:22:42 2023","The main experiment item","yes","SternbergTask.osexp","/Users/Thingtwo/Desktop","no","mono","no","18","no","white","no","yes","768","legacy","83","11","/Users/Thingtwo/Desktop/NC-subject-1.csv","legacy","5 7 3","Lentiform Loewenfeld","3.3.14","0","n","0","right","right","left","right","NA","623","10903","2334","623","NA","2","legacy","3","1024","2","48000","-16","experiment","1","odd","9","575583","572293","573355","1107","85209","573360","548735","1133","82874","577595","574370","578220","12052","577594","NA","Sternberg Task","88","54449","96","yes","1024"
"91.75257731958763","91.75257731958763","566.9072164948453","566.9072164948453","black","experiment","legacy","legacy","legacy","0","uniform","1","undefined","1","left","96","96","96","0","0","96","96","0","0","96","96","96","0","96","0","Sun Oct 15 17:22:42 2023","The main experiment item","yes","SternbergTask.osexp","/Users/Thingtwo/Desktop","no","mono","no","18","no","white","no","yes","768","legacy","84","11","/Users/Thingtwo/Desktop/NC-subject-1.csv","legacy","6 7 9 3 1 2","Lentiform Loewenfeld","3.3.14","1","y","0","left","right","left","left","NA","541","10903","2334","541","NA","2","legacy","6","1024","2","48000","-16","experiment","1","odd","6","581521","578226","579292","1107","85209","579297","548735","1133","82874","583531","580307","584074","12052","583531","NA","Sternberg Task","89","54990","97","yes","1024"
"91.83673469387755","91.83673469387755","565.9081632653061","565.9081632653061","black","experiment","legacy","legacy","legacy","0","uniform","1","undefined","1","left","97","97","97","0","0","97","97","0","0","97","97","97","0","97","0","Sun Oct 15 17:22:42 2023","The main experiment item","yes","SternbergTask.osexp","/Users/Thingtwo/Desktop","no","mono","no","18","no","white","no","yes","768","legacy","85","11","/Users/Thingtwo/Desktop/NC-subject-1.csv","legacy","2 4 8 5 1 3","Lentiform Loewenfeld","3.3.14","1","y","0","left","right","left","left","NA","469","10903","2334","469","NA","2","legacy","6","1024","2","48000","-16","experiment","1","odd","2","587370","584079","585142","1107","85209","585147","548735","1133","82874","589380","586157","589850","12052","589380","NA","Sternberg Task","90","55459","98","yes","1024"
"91.91919191919192","91.91919191919192","565.7474747474747","565.7474747474747","black","experiment","legacy","legacy","legacy","0","uniform","1","undefined","1","left","98","98","98","0","0","98","98","0","0","98","98","98","0","98","0","Sun Oct 15 17:22:42 2023","The main experiment item","yes","SternbergTask.osexp","/Users/Thingtwo/Desktop","no","mono","no","18","no","white","no","yes","768","legacy","86","11","/Users/Thingtwo/Desktop/NC-subject-1.csv","legacy","2 6 1 7 4","Lentiform Loewenfeld","3.3.14","2","y","0","left","right","left","left","NA","550","10903","2334","550","NA","2","legacy","5","1024","2","48000","-16","experiment","1","odd","6","593149","589856","590919","1107","85209","590924","548735","1133","82874","595159","591934","595710","12052","595159","NA","Sternberg Task","91","56009","99","yes","1024"
"92","92","565.16","565.16","black","experiment","legacy","legacy","legacy","0","uniform","1","undefined","1","left","99","99","99","0","0","99","99","0","0","99","99","99","0","99","0","Sun Oct 15 17:22:42 2023","The main experiment item","yes","SternbergTask.osexp","/Users/Thingtwo/Desktop","no","mono","no","18","no","white","no","yes","768","legacy","87","11","/Users/Thingtwo/Desktop/NC-subject-1.csv","legacy","7 8 6 3 1","Lentiform Loewenfeld","3.3.14","5","y","0","left","right","left","left","NA","507","10903","2334","507","NA","2","legacy","5","1024","2","48000","-16","experiment","1","odd","1","599010","595716","596779","1107","85209","596783","548735","1133","82874","601020","597796","601529","12052","601020","NA","Sternberg Task","92","56516","100","yes","1024"
"92.07920792079207","92.07920792079207","567.1782178217821","567.1782178217821","black","experiment","legacy","legacy","legacy","0","uniform","1","undefined","1","left","100","100","100","0","0","100","100","0","0","100","100","100","0","100","0","Sun Oct 15 17:22:42 2023","The main experiment item","yes","SternbergTask.osexp","/Users/Thingtwo/Desktop","no","mono","no","18","no","white","no","yes","768","legacy","88","11","/Users/Thingtwo/Desktop/NC-subject-1.csv","legacy","3 4 9 6 2 9","Lentiform Loewenfeld","3.3.14","5","y","0","left","right","left","left","NA","769","10903","2334","769","NA","2","legacy","6","1024","2","48000","-16","experiment","1","odd","2","604828","601534","602598","1107","85209","602603","548735","1133","82874","606839","603613","607609","12052","606838","NA","Sternberg Task","93","57285","101","yes","1024"
"92.15686274509804","92.15686274509804","566.6764705882352","566.6764705882352","black","experiment","legacy","legacy","legacy","0","uniform","1","undefined","1","left","101","101","101","0","0","101","101","0","0","101","101","101","0","101","0","Sun Oct 15 17:22:42 2023","The main experiment item","yes","SternbergTask.osexp","/Users/Thingtwo/Desktop","no","mono","no","18","no","white","no","yes","768","legacy","89","11","/Users/Thingtwo/Desktop/NC-subject-1.csv","legacy","6 5","Lentiform Loewenfeld","3.3.14","2","y","0","left","right","left","left","NA","516","10903","2334","516","NA","2","legacy","2","1024","2","48000","-16","experiment","1","odd","5","610907","607615","608676","1107","85209","608681","548735","1133","82874","612917","609691","613434","12052","612917","NA","Sternberg Task","94","57801","102","yes","1024"
"92.23300970873787","92.23300970873787","566.495145631068","566.495145631068","black","experiment","legacy","legacy","legacy","0","uniform","1","undefined","1","right","102","102","102","0","0","102","102","0","0","102","102","102","0","102","0","Sun Oct 15 17:22:42 2023","The main experiment item","yes","SternbergTask.osexp","/Users/Thingtwo/Desktop","no","mono","no","18","no","white","no","yes","768","legacy","90","11","/Users/Thingtwo/Desktop/NC-subject-1.csv","legacy","4 1","Lentiform Loewenfeld","3.3.14","0","n","0","right","right","left","right","NA","548","10903","2334","548","NA","2","legacy","2","1024","2","48000","-16","experiment","1","odd","6","616732","613440","614503","1107","85209","614508","548735","1133","82874","618742","615519","619292","12052","618742","NA","Sternberg Task","95","58349","103","yes","1024"
"92.3076923076923","92.3076923076923","566.5673076923077","566.5673076923077","black","experiment","legacy","legacy","legacy","0","uniform","1","undefined","1","left","103","103","103","0","0","103","103","0","0","103","103","103","0","103","0","Sun Oct 15 17:22:42 2023","The main experiment item","yes","SternbergTask.osexp","/Users/Thingtwo/Desktop","no","mono","no","18","no","white","no","yes","768","legacy","91","11","/Users/Thingtwo/Desktop/NC-subject-1.csv","legacy","4 3 2 5 8","Lentiform Loewenfeld","3.3.14","2","y","0","left","right","left","left","NA","574","10903","2334","574","NA","2","legacy","5","1024","2","48000","-16","experiment","1","odd","3","622592","619298","620362","1107","85209","620367","548735","1133","82874","624603","621378","625179","12052","624602","NA","Sternberg Task","96","58923","104","yes","1024"
"92.38095238095238","92.38095238095238","565.5333333333333","565.5333333333333","black","experiment","legacy","legacy","legacy","0","uniform","1","undefined","1","left","104","104","104","0","0","104","104","0","0","104","104","104","0","104","0","Sun Oct 15 17:22:42 2023","The main experiment item","yes","SternbergTask.osexp","/Users/Thingtwo/Desktop","no","mono","no","18","no","white","no","yes","768","legacy","92","11","/Users/Thingtwo/Desktop/NC-subject-1.csv","legacy","8","Lentiform Loewenfeld","3.3.14","1","y","0","left","right","left","left","NA","458","10903","2334","458","NA","2","legacy","1","1024","2","48000","-16","experiment","1","odd","8","628481","625185","626250","1107","85209","626255","548735","1133","82874","630492","627267","630951","12052","630492","NA","Sternberg Task","97","59381","105","yes","1024"
"92.45283018867924","92.45283018867924","566.1792452830189","566.1792452830189","black","experiment","legacy","legacy","legacy","0","uniform","1","undefined","1","right","105","105","105","0","0","105","105","0","0","105","105","105","0","105","0","Sun Oct 15 17:22:42 2023","The main experiment item","yes","SternbergTask.osexp","/Users/Thingtwo/Desktop","no","mono","no","18","no","white","no","yes","768","legacy","93","11","/Users/Thingtwo/Desktop/NC-subject-1.csv","legacy","1 4 9 3","Lentiform Loewenfeld","3.3.14","0","n","0","right","right","left","right","NA","634","10903","2334","634","NA","2","legacy","4","1024","2","48000","-16","experiment","1","odd","5","634252","630957","632022","1107","85209","632026","548735","1133","82874","636262","633037","636897","12052","636262","NA","Sternberg Task","98","60015","106","yes","1024"
"92.5233644859813","92.5233644859813","564.8317757009346","564.8317757009346","black","experiment","legacy","legacy","legacy","0","uniform","1","undefined","1","left","106","106","106","0","0","106","106","0","0","106","106","106","0","106","0","Sun Oct 15 17:22:42 2023","The main experiment item","yes","SternbergTask.osexp","/Users/Thingtwo/Desktop","no","mono","no","18","no","white","no","yes","768","legacy","94","11","/Users/Thingtwo/Desktop/NC-subject-1.csv","legacy","2 3","Lentiform Loewenfeld","3.3.14","1","y","0","left","right","left","left","NA","422","10903","2334","422","NA","2","legacy","2","1024","2","48000","-16","experiment","1","odd","2","640198","636903","637968","1107","85209","637973","548735","1133","82874","642208","638984","642632","12052","642208","NA","Sternberg Task","99","60437","107","yes","1024"
"92.5925925925926","92.5925925925926","565.2314814814815","565.2314814814815","black","experiment","legacy","legacy","legacy","0","uniform","1","undefined","1","right","107","107","107","0","0","107","107","0","0","107","107","107","0","107","0","Sun Oct 15 17:22:42 2023","The main experiment item","yes","SternbergTask.osexp","/Users/Thingtwo/Desktop","no","mono","no","18","no","white","no","yes","768","legacy","95","11","/Users/Thingtwo/Desktop/NC-subject-1.csv","legacy","7 1 8 4 9 3","Lentiform Loewenfeld","3.3.14","0","n","0","right","right","left","right","NA","608","10903","2334","608","NA","2","legacy","6","1024","2","48000","-16","experiment","1","odd","6","645930","642637","643700","1107","85209","643705","548735","1133","82874","647937","644715","648547","12052","647937","NA","Sternberg Task","100","61045","108","yes","1024"
"92.66055045871559","92.66055045871559","565.0366972477065","565.0366972477065","black","experiment","legacy","legacy","legacy","0","uniform","1","undefined","1","right","108","108","108","0","0","108","108","0","0","108","108","108","0","108","0","Sun Oct 15 17:22:42 2023","The main experiment item","yes","SternbergTask.osexp","/Users/Thingtwo/Desktop","no","mono","no","18","no","white","no","yes","768","legacy","96","11","/Users/Thingtwo/Desktop/NC-subject-1.csv","legacy","2 5 1 4","Lentiform Loewenfeld","3.3.14","0","n","0","right","right","left","right","NA","544","10903","2334","544","NA","2","legacy","4","1024","2","48000","-16","experiment","1","odd","6","651846","648553","649616","1107","85209","649621","548735","1133","82874","653857","650632","654403","12052","653856","NA","Sternberg Task","101","61589","109","yes","1024"
"92.72727272727273","92.72727272727273","564.1454545454545","564.1454545454545","black","experiment","legacy","legacy","legacy","0","uniform","1","undefined","1","right","109","109","109","0","0","109","109","0","0","109","109","109","0","109","0","Sun Oct 15 17:22:42 2023","The main experiment item","yes","SternbergTask.osexp","/Users/Thingtwo/Desktop","no","mono","no","18","no","white","no","yes","768","legacy","97","11","/Users/Thingtwo/Desktop/NC-subject-1.csv","legacy","3 9 1","Lentiform Loewenfeld","3.3.14","0","n","0","right","right","left","right","NA","467","10903","2334","467","NA","2","legacy","3","1024","2","48000","-16","experiment","1","odd","7","657701","654408","655472","1107","85209","655477","548735","1133","82874","659711","656488","660180","12052","659711","NA","Sternberg Task","102","62056","110","yes","1024"
"92.7927927927928","92.7927927927928","564.1711711711712","564.1711711711712","black","experiment","legacy","legacy","legacy","0","uniform","1","undefined","1","right","110","110","110","0","0","110","110","0","0","110","110","110","0","110","0","Sun Oct 15 17:22:42 2023","The main experiment item","yes","SternbergTask.osexp","/Users/Thingtwo/Desktop","no","mono","no","18","no","white","no","yes","768","legacy","98","11","/Users/Thingtwo/Desktop/NC-subject-1.csv","legacy","4 2 6 9","Lentiform Loewenfeld","3.3.14","0","n","0","right","right","left","right","NA","567","10903","2334","567","NA","2","legacy","4","1024","2","48000","-16","experiment","1","odd","7","663481","660185","661250","1107","85209","661254","548735","1133","82874","665491","662265","666060","12052","665491","NA","Sternberg Task","103","62623","111","yes","1024"
"92.85714285714286","92.85714285714286","563.9732142857143","563.9732142857143","black","experiment","legacy","legacy","legacy","0","uniform","1","undefined","1","right","111","111","111","0","0","111","111","0","0","111","111","111","0","111","0","Sun Oct 15 17:22:42 2023","The main experiment item","yes","SternbergTask.osexp","/Users/Thingtwo/Desktop","no","mono","no","18","no","white","no","yes","768","legacy","99","11","/Users/Thingtwo/Desktop/NC-subject-1.csv","legacy","7 9","Lentiform Loewenfeld","3.3.14","0","n","0","right","right","left","right","NA","542","10903","2334","542","NA","2","legacy","2","1024","2","48000","-16","experiment","1","odd","1","669360","666066","667131","1107","85209","667136","548735","1133","82874","671370","668147","671914","12052","671370","NA","Sternberg Task","104","63165","112","yes","1024"
"92.92035398230088","92.92035398230088","564.0530973451328","564.0530973451328","black","experiment","legacy","legacy","legacy","0","uniform","1","undefined","1","right","112","112","112","0","0","112","112","0","0","112","112","112","0","112","0","Sun Oct 15 17:22:42 2023","The main experiment item","yes","SternbergTask.osexp","/Users/Thingtwo/Desktop","no","mono","no","18","no","white","no","yes","768","legacy","100","11","/Users/Thingtwo/Desktop/NC-subject-1.csv","legacy","5 9 2 3","Lentiform Loewenfeld","3.3.14","0","n","0","right","right","left","right","NA","573","10903","2334","573","NA","2","legacy","4","1024","2","48000","-16","experiment","1","odd","8","675210","671919","672982","1107","85209","672986","548735","1133","82874","677220","673997","677795","12052","677220","NA","Sternberg Task","105","63738","113","yes","1024"
"92.98245614035088","92.98245614035088","562.9912280701755","562.9912280701755","black","experiment","legacy","legacy","legacy","0","uniform","1","undefined","1","right","113","113","113","0","0","113","113","0","0","113","113","113","0","113","0","Sun Oct 15 17:22:42 2023","The main experiment item","yes","SternbergTask.osexp","/Users/Thingtwo/Desktop","no","mono","no","18","no","white","no","yes","768","legacy","101","11","/Users/Thingtwo/Desktop/NC-subject-1.csv","legacy","1 8 7","Lentiform Loewenfeld","3.3.14","0","n","0","right","right","left","right","NA","443","10903","2334","443","NA","2","legacy","3","1024","2","48000","-16","experiment","1","odd","4","681094","677800","678864","1107","85209","678869","548735","1133","82874","683106","679880","683550","12052","683106","NA","Sternberg Task","106","64181","114","yes","1024"
"93.04347826086956","93.04347826086956","562.5565217391304","562.5565217391304","black","experiment","legacy","legacy","legacy","0","uniform","1","undefined","1","left","114","114","114","0","0","114","114","0","0","114","114","114","0","114","0","Sun Oct 15 17:22:42 2023","The main experiment item","yes","SternbergTask.osexp","/Users/Thingtwo/Desktop","no","mono","no","18","no","white","no","yes","768","legacy","102","11","/Users/Thingtwo/Desktop/NC-subject-1.csv","legacy","9 4 2","Lentiform Loewenfeld","3.3.14","1","y","0","left","right","left","left","NA","513","10903","2334","513","NA","2","legacy","3","1024","2","48000","-16","experiment","1","odd","9","686848","683556","684618","1107","85209","684623","548735","1133","82874","688858","685634","689372","12052","688858","NA","Sternberg Task","107","64694","115","yes","1024"
"93.10344827586206","93.10344827586206","562.801724137931","562.801724137931","black","experiment","legacy","legacy","legacy","0","uniform","1","undefined","1","right","115","115","115","0","0","115","115","0","0","115","115","115","0","115","0","Sun Oct 15 17:22:42 2023","The main experiment item","yes","SternbergTask.osexp","/Users/Thingtwo/Desktop","no","mono","no","18","no","white","no","yes","768","legacy","103","11","/Users/Thingtwo/Desktop/NC-subject-1.csv","legacy","8 4 3 5","Lentiform Loewenfeld","3.3.14","0","n","0","right","right","left","right","NA","591","10903","2334","591","NA","2","legacy","4","1024","2","48000","-16","experiment","1","odd","6","692671","689378","690443","1107","85209","690448","548735","1133","82874","694682","691458","695274","12052","694682","NA","Sternberg Task","108","65285","116","yes","1024"
"93.16239316239316","93.16239316239316","561.6923076923077","561.6923076923077","black","experiment","legacy","legacy","legacy","0","uniform","1","undefined","1","right","116","116","116","0","0","116","116","0","0","116","116","116","0","116","0","Sun Oct 15 17:22:42 2023","The main experiment item","yes","SternbergTask.osexp","/Users/Thingtwo/Desktop","no","mono","no","18","no","white","no","yes","768","legacy","104","11","/Users/Thingtwo/Desktop/NC-subject-1.csv","legacy","6 9 4 5 2","Lentiform Loewenfeld","3.3.14","0","n","0","right","right","left","right","NA","433","10903","2334","433","NA","2","legacy","5","1024","2","48000","-16","experiment","1","odd","1","698570","695280","696342","1107","85209","696347","548735","1133","82874","700581","697357","701015","12052","700581","NA","Sternberg Task","109","65718","117","yes","1024"
"93.22033898305085","93.22033898305085","562.0593220338983","562.0593220338983","black","experiment","legacy","legacy","legacy","0","uniform","1","undefined","1","right","117","117","117","0","0","117","117","0","0","117","117","117","0","117","0","Sun Oct 15 17:22:42 2023","The main experiment item","yes","SternbergTask.osexp","/Users/Thingtwo/Desktop","no","mono","no","18","no","white","no","yes","768","legacy","105","11","/Users/Thingtwo/Desktop/NC-subject-1.csv","legacy","2 8 7 9 5 3","Lentiform Loewenfeld","3.3.14","0","n","0","right","right","left","right","NA","605","10903","2334","605","NA","2","legacy","6","1024","2","48000","-16","experiment","1","odd","6","704315","701020","702084","1107","85209","702088","548735","1133","82874","706325","703099","706931","12052","706325","NA","Sternberg Task","110","66323","118","yes","1024"
"93.27731092436974","93.27731092436974","564.2521008403361","564.2521008403361","black","experiment","legacy","legacy","legacy","0","uniform","1","undefined","1","left","118","118","118","0","0","118","118","0","0","118","118","118","0","118","0","Sun Oct 15 17:22:42 2023","The main experiment item","yes","SternbergTask.osexp","/Users/Thingtwo/Desktop","no","mono","no","18","no","white","no","yes","768","legacy","106","11","/Users/Thingtwo/Desktop/NC-subject-1.csv","legacy","6 7 8 5","Lentiform Loewenfeld","3.3.14","3","y","0","left","right","left","left","NA","823","10903","2334","823","NA","2","legacy","4","1024","2","48000","-16","experiment","1","odd","8","710219","706937","707985","1107","85209","707991","548735","1133","82874","712232","709004","713055","12052","712232","NA","Sternberg Task","111","67146","119","yes","1024"
