"acc","accuracy","average_response_time","avg_rt","background","block","canvas_backend","clock_backend","color_backend","correct","correct_Instruction1","correct_new_keyboard_response","correct_response","count_ISI","count_Instruction1","count_ThankYou","count_correctFeedback","count_expSequence","count_experiment","count_experimentLoop","count_fixation","count_incorrectFeedback","count_instructions2","count_memorySet","count_new_keyboard_response","count_new_logger","count_practiceloop","count_probe","datetime","description","disable_garbage_collection","experiment_file","experiment_path","font_bold","font_family","font_italic","font_size","font_underline","foreground","form_clicks","fullscreen","height","keyboard_backend","live_row","live_row_practiceloop","logfile","mouse_backend","numberSet","opensesame_codename","opensesame_version","posInSet","present","repeat_cycle","response","response_Instruction1","response_ThankYou","response_instructions2","response_new_keyboard_response","response_time","response_time_Instruction1","response_time_ThankYou","response_time_instructions2","response_time_new_keyboard_response","round_decimals","sampler_backend","setSize","sound_buf_size","sound_channels","sound_freq","sound_sample_size","start","subject_nr","subject_parity","target","time_ISI","time_Instruction1","time_ThankYou","time_correctFeedback","time_expSequence","time_experiment","time_experimentLoop","time_fixation","time_incorrectFeedback","time_instructions2","time_memorySet","time_new_keyboard_response","time_new_logger","time_practiceloop","time_probe","title","total_correct","total_response_time","total_responses","width"
"0","0","2000","2000","#3d3846","practice","legacy","legacy","legacy","0","undefined","0","left","0","0","0","0","0","0","0","0","0","0","0","0","0","0","0","Sun Oct 15 14:28:41 2023","The main experiment item","True","Sternberg Task Elizabeth McGibbon .osexp","/Users/izzymcgibbon/Desktop/College/Tarleton State /2023 /Fall /Stats /3.0 ","False","mono","False","18","no","white","no","yes","768","legacy","0","0","/Users/izzymcgibbon/Desktop/College/Tarleton State /2023 /Fall /Stats /3.0 /EWMsubject-2.csv","legacy","6","Melodramatic Milgram","4.0.5","1","y","0","None","right","NA","NA","None","2000.0","53035","NA","NA","2000","2","legacy","1","1024","2","48000","-16","experiment","2","even","6","59402","2992","NA","NA","57189","2880","NA","57196","NA","NA","58200","61405","63405","56084","61405","New experiment","0","2000.0","1","1024"
"0","0","1375","1375","#3d3846","practice","legacy","legacy","legacy","0","undefined","0","right","1","0","0","1","1","0","0","1","1","0","1","1","1","0","1","Sun Oct 15 14:28:41 2023","The main experiment item","True","Sternberg Task Elizabeth McGibbon .osexp","/Users/izzymcgibbon/Desktop/College/Tarleton State /2023 /Fall /Stats /3.0 ","False","mono","False","18","no","white","no","yes","768","legacy","1","1","/Users/izzymcgibbon/Desktop/College/Tarleton State /2023 /Fall /Stats /3.0 /EWMsubject-2.csv","legacy","9 6 7 4 5","Melodramatic Milgram","4.0.5","0","n","0","left","right","NA","NA","left","751.0","53035","NA","NA","751","2","legacy","5","1024","2","48000","-16","experiment","2","even","3","66686","2992","NA","NA","64478","2880","NA","64480","63431","NA","65484","68689","69441","56084","68689","New experiment","0","2751.0","2","1024"
"0","0","1499","1499","#3d3846","practice","legacy","legacy","legacy","0","undefined","0","right","2","0","0","2","2","0","0","2","2","0","2","2","2","0","2","Sun Oct 15 14:28:41 2023","The main experiment item","True","Sternberg Task Elizabeth McGibbon .osexp","/Users/izzymcgibbon/Desktop/College/Tarleton State /2023 /Fall /Stats /3.0 ","False","mono","False","18","no","white","no","yes","768","legacy","2","2","/Users/izzymcgibbon/Desktop/College/Tarleton State /2023 /Fall /Stats /3.0 /EWMsubject-2.csv","legacy","5","Melodramatic Milgram","4.0.5","0","n","0","left","right","NA","NA","left","1747.0","53035","NA","NA","1747","2","legacy","1","1024","2","48000","-16","experiment","2","even","3","72695","2992","NA","NA","70487","2880","NA","70488","69443","NA","71491","74698","76456","56084","74698","New experiment","0","4498.0","3","1024"
"0","0","1624","1624","#3d3846","practice","legacy","legacy","legacy","0","undefined","0","right","3","0","0","3","3","0","0","3","3","0","3","3","3","0","3","Sun Oct 15 14:28:41 2023","The main experiment item","True","Sternberg Task Elizabeth McGibbon .osexp","/Users/izzymcgibbon/Desktop/College/Tarleton State /2023 /Fall /Stats /3.0 ","False","mono","False","18","no","white","no","yes","768","legacy","3","3","/Users/izzymcgibbon/Desktop/College/Tarleton State /2023 /Fall /Stats /3.0 /EWMsubject-2.csv","legacy","3 1 9 4","Melodramatic Milgram","4.0.5","0","n","0","None","right","NA","NA","None","2000.0","53035","NA","NA","2000","2","legacy","4","1024","2","48000","-16","experiment","2","even","6","79711","2992","NA","NA","77504","2880","NA","77506","76459","NA","78508","81713","83713","56084","81713","New experiment","0","6498.0","4","1024"
"20","20","1492","1492","#3d3846","practice","legacy","legacy","legacy","1","undefined","1","left","4","0","0","4","4","0","0","4","4","0","4","4","4","0","4","Sun Oct 15 14:28:41 2023","The main experiment item","True","Sternberg Task Elizabeth McGibbon .osexp","/Users/izzymcgibbon/Desktop/College/Tarleton State /2023 /Fall /Stats /3.0 ","False","mono","False","18","no","white","no","yes","768","legacy","4","4","/Users/izzymcgibbon/Desktop/College/Tarleton State /2023 /Fall /Stats /3.0 /EWMsubject-2.csv","legacy","1 7 9 8 5","Melodramatic Milgram","4.0.5","4","y","0","left","right","NA","NA","left","964.0","53035","NA","NA","964","2","legacy","5","1024","2","48000","-16","experiment","2","even","8","86969","2992","NA","NA","84763","2880","NA","84764","83717","NA","85767","88972","89936","56084","88972","New experiment","1","7462.0","5","1024"
"33","33","1407","1407","#3d3846","practice","legacy","legacy","legacy","1","undefined","1","left","5","0","0","5","5","0","0","5","5","0","5","5","5","0","5","Sun Oct 15 14:28:41 2023","The main experiment item","True","Sternberg Task Elizabeth McGibbon .osexp","/Users/izzymcgibbon/Desktop/College/Tarleton State /2023 /Fall /Stats /3.0 ","False","mono","False","18","no","white","no","yes","768","legacy","5","5","/Users/izzymcgibbon/Desktop/College/Tarleton State /2023 /Fall /Stats /3.0 /EWMsubject-2.csv","legacy","4 8","Melodramatic Milgram","4.0.5","1","y","0","left","right","NA","NA","left","983.0","53035","NA","NA","983","2","legacy","2","1024","2","48000","-16","experiment","2","even","4","93201","2992","NA","89940","90993","2880","NA","90995","83717","NA","91998","95204","96188","56084","95204","New experiment","2","8445.0","6","1024"
"28","28","1336","1336","#3d3846","practice","legacy","legacy","legacy","0","undefined","0","left","6","0","0","6","6","0","0","6","6","0","6","6","6","0","6","Sun Oct 15 14:28:41 2023","The main experiment item","True","Sternberg Task Elizabeth McGibbon .osexp","/Users/izzymcgibbon/Desktop/College/Tarleton State /2023 /Fall /Stats /3.0 ","False","mono","False","18","no","white","no","yes","768","legacy","6","6","/Users/izzymcgibbon/Desktop/College/Tarleton State /2023 /Fall /Stats /3.0 /EWMsubject-2.csv","legacy","1 5 2 9","Melodramatic Milgram","4.0.5","2","y","0","right","right","NA","NA","right","907.0","53035","NA","NA","907","2","legacy","4","1024","2","48000","-16","experiment","2","even","5","99449","2992","NA","96191","97242","2880","NA","97244","83717","NA","98247","101452","102359","56084","101452","New experiment","2","9352.0","7","1024"
"25","25","1353","1353","#3d3846","practice","legacy","legacy","legacy","0","undefined","0","right","7","0","0","7","7","0","0","7","7","0","7","7","7","0","7","Sun Oct 15 14:28:41 2023","The main experiment item","True","Sternberg Task Elizabeth McGibbon .osexp","/Users/izzymcgibbon/Desktop/College/Tarleton State /2023 /Fall /Stats /3.0 ","False","mono","False","18","no","white","no","yes","768","legacy","7","7","/Users/izzymcgibbon/Desktop/College/Tarleton State /2023 /Fall /Stats /3.0 /EWMsubject-2.csv","legacy","4 1 5","Melodramatic Milgram","4.0.5","0","n","0","left","right","NA","NA","left","1478.0","53035","NA","NA","1478","2","legacy","3","1024","2","48000","-16","experiment","2","even","2","105607","2992","NA","96191","103401","2880","NA","103403","102364","NA","104405","107609","109088","56084","107608","New experiment","2","10830.0","8","1024"
"33","33","1375","1375","#3d3846","practice","legacy","legacy","legacy","1","undefined","1","left","8","0","0","8","8","0","0","8","8","0","8","8","8","0","8","Sun Oct 15 14:28:41 2023","The main experiment item","True","Sternberg Task Elizabeth McGibbon .osexp","/Users/izzymcgibbon/Desktop/College/Tarleton State /2023 /Fall /Stats /3.0 ","False","mono","False","18","no","white","no","yes","768","legacy","8","8","/Users/izzymcgibbon/Desktop/College/Tarleton State /2023 /Fall /Stats /3.0 /EWMsubject-2.csv","legacy","4 3 1 7 9 8","Melodramatic Milgram","4.0.5","1","y","0","left","right","NA","NA","left","1547.0","53035","NA","NA","1547","2","legacy","6","1024","2","48000","-16","experiment","2","even","4","112337","2992","NA","96191","110133","2880","NA","110134","109090","NA","111136","114340","115887","56084","114339","New experiment","3","12377.0","9","1024"
"40","40","1345","1345","#3d3846","practice","legacy","legacy","legacy","1","undefined","1","right","9","0","0","9","9","0","0","9","9","0","9","9","9","0","9","Sun Oct 15 14:28:41 2023","The main experiment item","True","Sternberg Task Elizabeth McGibbon .osexp","/Users/izzymcgibbon/Desktop/College/Tarleton State /2023 /Fall /Stats /3.0 ","False","mono","False","18","no","white","no","yes","768","legacy","9","9","/Users/izzymcgibbon/Desktop/College/Tarleton State /2023 /Fall /Stats /3.0 /EWMsubject-2.csv","legacy","5 7 8 4 1 2","Melodramatic Milgram","4.0.5","0","n","0","right","right","NA","NA","right","1080.0","53035","NA","NA","1080","2","legacy","6","1024","2","48000","-16","experiment","2","even","6","119144","2992","NA","115890","116937","2880","NA","116939","109090","NA","117941","121146","122227","56084","121146","New experiment","4","13457.0","10","1024"
"45","45","1285","1285","#3d3846","practice","legacy","legacy","legacy","1","undefined","1","right","10","0","0","10","10","0","0","10","10","0","10","10","10","0","10","Sun Oct 15 14:28:41 2023","The main experiment item","True","Sternberg Task Elizabeth McGibbon .osexp","/Users/izzymcgibbon/Desktop/College/Tarleton State /2023 /Fall /Stats /3.0 ","False","mono","False","18","no","white","no","yes","768","legacy","10","10","/Users/izzymcgibbon/Desktop/College/Tarleton State /2023 /Fall /Stats /3.0 /EWMsubject-2.csv","legacy","2 1","Melodramatic Milgram","4.0.5","0","n","0","right","right","NA","NA","right","687.0","53035","NA","NA","687","2","legacy","2","1024","2","48000","-16","experiment","2","even","5","125476","2992","NA","122229","123268","2880","NA","123270","109090","NA","124273","127478","128165","56084","127478","New experiment","5","14144.0","11","1024"
"50","50","1247","1247","#3d3846","practice","legacy","legacy","legacy","1","undefined","1","left","11","0","0","11","11","0","0","11","11","0","11","11","11","0","11","Sun Oct 15 14:28:41 2023","The main experiment item","True","Sternberg Task Elizabeth McGibbon .osexp","/Users/izzymcgibbon/Desktop/College/Tarleton State /2023 /Fall /Stats /3.0 ","False","mono","False","18","no","white","no","yes","768","legacy","11","11","/Users/izzymcgibbon/Desktop/College/Tarleton State /2023 /Fall /Stats /3.0 /EWMsubject-2.csv","legacy","2 9 4","Melodramatic Milgram","4.0.5","3","y","0","left","right","NA","NA","left","823.0","53035","NA","NA","823","2","legacy","3","1024","2","48000","-16","experiment","2","even","4","131418","2992","NA","128167","129211","2880","NA","129213","109090","NA","130214","133420","134244","56084","133420","New experiment","6","14967.0","12","1024"
"53","53","1205","1205","#3d3846","experiment","legacy","legacy","legacy","1","undefined","1","left","12","0","0","12","12","0","0","12","12","0","12","12","12","0","12","Sun Oct 15 14:28:41 2023","The main experiment item","True","Sternberg Task Elizabeth McGibbon .osexp","/Users/izzymcgibbon/Desktop/College/Tarleton State /2023 /Fall /Stats /3.0 ","False","mono","False","18","no","white","no","yes","768","legacy","0","11","/Users/izzymcgibbon/Desktop/College/Tarleton State /2023 /Fall /Stats /3.0 /EWMsubject-2.csv","legacy","8","Melodramatic Milgram","4.0.5","1","y","0","left","right","NA","left","left","703.0","53035","NA","8345","703","2","legacy","1","1024","2","48000","-16","experiment","2","even","8","145862","2992","NA","134247","143652","2880","143599","143656","109090","135253","144660","147865","148569","56084","147865","New experiment","7","15670.0","13","1024"
"57","57","1160","1160","#3d3846","experiment","legacy","legacy","legacy","1","undefined","1","left","13","0","0","13","13","0","0","13","13","0","13","13","13","0","13","Sun Oct 15 14:28:41 2023","The main experiment item","True","Sternberg Task Elizabeth McGibbon .osexp","/Users/izzymcgibbon/Desktop/College/Tarleton State /2023 /Fall /Stats /3.0 ","False","mono","False","18","no","white","no","yes","768","legacy","1","11","/Users/izzymcgibbon/Desktop/College/Tarleton State /2023 /Fall /Stats /3.0 /EWMsubject-2.csv","legacy","3 5 4 7","Melodramatic Milgram","4.0.5","1","y","0","left","right","NA","left","left","580.0","53035","NA","8345","580","2","legacy","4","1024","2","48000","-16","experiment","2","even","3","151816","2992","NA","148572","149610","2880","143599","149611","109090","135253","150613","153819","154399","56084","153818","New experiment","8","16250.0","14","1024"
"53","53","1216","1216","#3d3846","experiment","legacy","legacy","legacy","0","undefined","0","left","14","0","0","14","14","0","0","14","14","0","14","14","14","0","14","Sun Oct 15 14:28:41 2023","The main experiment item","True","Sternberg Task Elizabeth McGibbon .osexp","/Users/izzymcgibbon/Desktop/College/Tarleton State /2023 /Fall /Stats /3.0 ","False","mono","False","18","no","white","no","yes","768","legacy","2","11","/Users/izzymcgibbon/Desktop/College/Tarleton State /2023 /Fall /Stats /3.0 /EWMsubject-2.csv","legacy","5 2 9 6 1 7","Melodramatic Milgram","4.0.5","3","y","0","None","right","NA","left","None","2001.0","53035","NA","8345","2001","2","legacy","6","1024","2","48000","-16","experiment","2","even","9","157655","2992","NA","154401","155448","2880","143599","155450","109090","135253","156453","159657","161658","56084","159657","New experiment","8","18251.0","15","1024"
"56","56","1185","1185","#3d3846","experiment","legacy","legacy","legacy","1","undefined","1","right","15","0","0","15","15","0","0","15","15","0","15","15","15","0","15","Sun Oct 15 14:28:41 2023","The main experiment item","True","Sternberg Task Elizabeth McGibbon .osexp","/Users/izzymcgibbon/Desktop/College/Tarleton State /2023 /Fall /Stats /3.0 ","False","mono","False","18","no","white","no","yes","768","legacy","3","11","/Users/izzymcgibbon/Desktop/College/Tarleton State /2023 /Fall /Stats /3.0 /EWMsubject-2.csv","legacy","1 6 4","Melodramatic Milgram","4.0.5","0","n","0","right","right","NA","left","right","721.0","53035","NA","8345","721","2","legacy","3","1024","2","48000","-16","experiment","2","even","7","164915","2992","NA","154401","162707","2880","143599","162709","161661","135253","163712","166917","167639","56084","166917","New experiment","9","18972.0","16","1024"
"58","58","1182","1182","#3d3846","experiment","legacy","legacy","legacy","1","undefined","1","left","16","0","0","16","16","0","0","16","16","0","16","16","16","0","16","Sun Oct 15 14:28:41 2023","The main experiment item","True","Sternberg Task Elizabeth McGibbon .osexp","/Users/izzymcgibbon/Desktop/College/Tarleton State /2023 /Fall /Stats /3.0 ","False","mono","False","18","no","white","no","yes","768","legacy","4","11","/Users/izzymcgibbon/Desktop/College/Tarleton State /2023 /Fall /Stats /3.0 /EWMsubject-2.csv","legacy","4 1 5","Melodramatic Milgram","4.0.5","2","y","0","left","right","NA","left","left","1129.0","53035","NA","8345","1129","2","legacy","3","1024","2","48000","-16","experiment","2","even","1","170887","2992","NA","167642","168679","2880","143599","168681","161661","135253","169683","172889","174019","56084","172889","New experiment","10","20101.0","17","1024"
"61","61","1170","1170","#3d3846","experiment","legacy","legacy","legacy","1","undefined","1","left","17","0","0","17","17","0","0","17","17","0","17","17","17","0","17","Sun Oct 15 14:28:41 2023","The main experiment item","True","Sternberg Task Elizabeth McGibbon .osexp","/Users/izzymcgibbon/Desktop/College/Tarleton State /2023 /Fall /Stats /3.0 ","False","mono","False","18","no","white","no","yes","768","legacy","5","11","/Users/izzymcgibbon/Desktop/College/Tarleton State /2023 /Fall /Stats /3.0 /EWMsubject-2.csv","legacy","4 9 7 8 5 3","Melodramatic Milgram","4.0.5","4","y","0","left","right","NA","left","left","971.0","53035","NA","8345","971","2","legacy","6","1024","2","48000","-16","experiment","2","even","8","177271","2992","NA","174022","175065","2880","143599","175066","161661","135253","176069","179274","180245","56084","179273","New experiment","11","21072.0","18","1024"
"63","63","1181","1181","#3d3846","experiment","legacy","legacy","legacy","1","undefined","1","right","18","0","0","18","18","0","0","18","18","0","18","18","18","0","18","Sun Oct 15 14:28:41 2023","The main experiment item","True","Sternberg Task Elizabeth McGibbon .osexp","/Users/izzymcgibbon/Desktop/College/Tarleton State /2023 /Fall /Stats /3.0 ","False","mono","False","18","no","white","no","yes","768","legacy","6","11","/Users/izzymcgibbon/Desktop/College/Tarleton State /2023 /Fall /Stats /3.0 /EWMsubject-2.csv","legacy","4 8 1 2","Melodramatic Milgram","4.0.5","0","n","0","right","right","NA","left","right","1385.0","53035","NA","8345","1385","2","legacy","4","1024","2","48000","-16","experiment","2","even","7","183501","2992","NA","180248","181293","2880","143599","181295","161661","135253","182298","185503","186888","56084","185503","New experiment","12","22457.0","19","1024"
"65","65","1164","1164","#3d3846","experiment","legacy","legacy","legacy","1","undefined","1","left","19","0","0","19","19","0","0","19","19","0","19","19","19","0","19","Sun Oct 15 14:28:41 2023","The main experiment item","True","Sternberg Task Elizabeth McGibbon .osexp","/Users/izzymcgibbon/Desktop/College/Tarleton State /2023 /Fall /Stats /3.0 ","False","mono","False","18","no","white","no","yes","768","legacy","7","11","/Users/izzymcgibbon/Desktop/College/Tarleton State /2023 /Fall /Stats /3.0 /EWMsubject-2.csv","legacy","8 5 3 7 4 6","Melodramatic Milgram","4.0.5","6","y","0","left","right","NA","left","left","833.0","53035","NA","8345","833","2","legacy","6","1024","2","48000","-16","experiment","2","even","6","190135","2992","NA","186891","187930","2880","143599","187932","161661","135253","188933","192136","192969","56084","192136","New experiment","13","23290.0","20","1024"
"66","66","1149","1149","#3d3846","experiment","legacy","legacy","legacy","1","undefined","1","left","20","0","0","20","20","0","0","20","20","0","20","20","20","0","20","Sun Oct 15 14:28:41 2023","The main experiment item","True","Sternberg Task Elizabeth McGibbon .osexp","/Users/izzymcgibbon/Desktop/College/Tarleton State /2023 /Fall /Stats /3.0 ","False","mono","False","18","no","white","no","yes","768","legacy","8","11","/Users/izzymcgibbon/Desktop/College/Tarleton State /2023 /Fall /Stats /3.0 /EWMsubject-2.csv","legacy","4 6 2 5 1","Melodramatic Milgram","4.0.5","5","y","0","left","right","NA","left","left","842.0","53035","NA","8345","842","2","legacy","5","1024","2","48000","-16","experiment","2","even","1","196224","2992","NA","192972","194016","2880","143599","194019","161661","135253","195022","198226","199069","56084","198226","New experiment","14","24132.0","21","1024"
"63","63","1152","1152","#3d3846","experiment","legacy","legacy","legacy","0","undefined","0","left","21","0","0","21","21","0","0","21","21","0","21","21","21","0","21","Sun Oct 15 14:28:41 2023","The main experiment item","True","Sternberg Task Elizabeth McGibbon .osexp","/Users/izzymcgibbon/Desktop/College/Tarleton State /2023 /Fall /Stats /3.0 ","False","mono","False","18","no","white","no","yes","768","legacy","9","11","/Users/izzymcgibbon/Desktop/College/Tarleton State /2023 /Fall /Stats /3.0 /EWMsubject-2.csv","legacy","2 4 8 5 1 3","Melodramatic Milgram","4.0.5","1","y","0","right","right","NA","left","right","1215.0","53035","NA","8345","1215","2","legacy","6","1024","2","48000","-16","experiment","2","even","2","202331","2992","NA","199072","200124","2880","143599","200126","161661","135253","201128","204334","205550","56084","204333","New experiment","14","25347.0","22","1024"
"65","65","1134","1134","#3d3846","experiment","legacy","legacy","legacy","1","undefined","1","left","22","0","0","22","22","0","0","22","22","0","22","22","22","0","22","Sun Oct 15 14:28:41 2023","The main experiment item","True","Sternberg Task Elizabeth McGibbon .osexp","/Users/izzymcgibbon/Desktop/College/Tarleton State /2023 /Fall /Stats /3.0 ","False","mono","False","18","no","white","no","yes","768","legacy","10","11","/Users/izzymcgibbon/Desktop/College/Tarleton State /2023 /Fall /Stats /3.0 /EWMsubject-2.csv","legacy","6 9 7 4 5 1","Melodramatic Milgram","4.0.5","2","y","0","left","right","NA","left","left","751.0","53035","NA","8345","751","2","legacy","6","1024","2","48000","-16","experiment","2","even","9","208797","2992","NA","199072","206591","2880","143599","206592","205553","135253","207594","210800","211552","56084","210800","New experiment","15","26098.0","23","1024"
"66","66","1108","1108","#3d3846","experiment","legacy","legacy","legacy","1","undefined","1","left","23","0","0","23","23","0","0","23","23","0","23","23","23","0","23","Sun Oct 15 14:28:41 2023","The main experiment item","True","Sternberg Task Elizabeth McGibbon .osexp","/Users/izzymcgibbon/Desktop/College/Tarleton State /2023 /Fall /Stats /3.0 ","False","mono","False","18","no","white","no","yes","768","legacy","11","11","/Users/izzymcgibbon/Desktop/College/Tarleton State /2023 /Fall /Stats /3.0 /EWMsubject-2.csv","legacy","6 2","Melodramatic Milgram","4.0.5","1","y","0","left","right","NA","left","left","505.0","53035","NA","8345","505","2","legacy","2","1024","2","48000","-16","experiment","2","even","6","214801","2992","NA","211555","212594","2880","143599","212595","205553","135253","213598","216803","217309","56084","216803","New experiment","16","26603.0","24","1024"
"68","68","1087","1087","#3d3846","experiment","legacy","legacy","legacy","1","undefined","1","right","24","0","0","24","24","0","0","24","24","0","24","24","24","0","24","Sun Oct 15 14:28:41 2023","The main experiment item","True","Sternberg Task Elizabeth McGibbon .osexp","/Users/izzymcgibbon/Desktop/College/Tarleton State /2023 /Fall /Stats /3.0 ","False","mono","False","18","no","white","no","yes","768","legacy","12","11","/Users/izzymcgibbon/Desktop/College/Tarleton State /2023 /Fall /Stats /3.0 /EWMsubject-2.csv","legacy","4 1","Melodramatic Milgram","4.0.5","0","n","0","right","right","NA","left","right","582.0","53035","NA","8345","582","2","legacy","2","1024","2","48000","-16","experiment","2","even","6","220564","2992","NA","217311","218356","2880","143599","218358","205553","135253","219361","222566","223148","56084","222566","New experiment","17","27185.0","25","1024"
"69","69","1072","1072","#3d3846","experiment","legacy","legacy","legacy","1","undefined","1","right","25","0","0","25","25","0","0","25","25","0","25","25","25","0","25","Sun Oct 15 14:28:41 2023","The main experiment item","True","Sternberg Task Elizabeth McGibbon .osexp","/Users/izzymcgibbon/Desktop/College/Tarleton State /2023 /Fall /Stats /3.0 ","False","mono","False","18","no","white","no","yes","768","legacy","13","11","/Users/izzymcgibbon/Desktop/College/Tarleton State /2023 /Fall /Stats /3.0 /EWMsubject-2.csv","legacy","3 9 1","Melodramatic Milgram","4.0.5","0","n","0","right","right","NA","left","right","706.0","53035","NA","8345","706","2","legacy","3","1024","2","48000","-16","experiment","2","even","7","226404","2992","NA","223152","224196","2880","143599","224198","205553","135253","225201","228406","229113","56084","228406","New experiment","18","27891.0","26","1024"
"70","70","1047","1047","#3d3846","experiment","legacy","legacy","legacy","1","undefined","1","left","26","0","0","26","26","0","0","26","26","0","26","26","26","0","26","Sun Oct 15 14:28:41 2023","The main experiment item","True","Sternberg Task Elizabeth McGibbon .osexp","/Users/izzymcgibbon/Desktop/College/Tarleton State /2023 /Fall /Stats /3.0 ","False","mono","False","18","no","white","no","yes","768","legacy","14","11","/Users/izzymcgibbon/Desktop/College/Tarleton State /2023 /Fall /Stats /3.0 /EWMsubject-2.csv","legacy","7 1 3","Melodramatic Milgram","4.0.5","2","y","0","left","right","NA","left","left","397.0","53035","NA","8345","397","2","legacy","3","1024","2","48000","-16","experiment","2","even","1","232369","2992","NA","229117","230162","2880","143599","230164","205553","135253","231167","234372","234770","56084","234372","New experiment","19","28288.0","27","1024"
"71","71","1029","1029","#3d3846","experiment","legacy","legacy","legacy","1","undefined","1","left","27","0","0","27","27","0","0","27","27","0","27","27","27","0","27","Sun Oct 15 14:28:41 2023","The main experiment item","True","Sternberg Task Elizabeth McGibbon .osexp","/Users/izzymcgibbon/Desktop/College/Tarleton State /2023 /Fall /Stats /3.0 ","False","mono","False","18","no","white","no","yes","768","legacy","15","11","/Users/izzymcgibbon/Desktop/College/Tarleton State /2023 /Fall /Stats /3.0 /EWMsubject-2.csv","legacy","5 2 6","Melodramatic Milgram","4.0.5","2","y","0","left","right","NA","left","left","547.0","53035","NA","8345","547","2","legacy","3","1024","2","48000","-16","experiment","2","even","2","238034","2992","NA","234773","235828","2880","143599","235830","205553","135253","236832","240036","240584","56084","240036","New experiment","20","28835.0","28","1024"
"72","72","1025","1025","#3d3846","experiment","legacy","legacy","legacy","1","undefined","1","right","28","0","0","28","28","0","0","28","28","0","28","28","28","0","28","Sun Oct 15 14:28:41 2023","The main experiment item","True","Sternberg Task Elizabeth McGibbon .osexp","/Users/izzymcgibbon/Desktop/College/Tarleton State /2023 /Fall /Stats /3.0 ","False","mono","False","18","no","white","no","yes","768","legacy","16","11","/Users/izzymcgibbon/Desktop/College/Tarleton State /2023 /Fall /Stats /3.0 /EWMsubject-2.csv","legacy","2 8 7 9 5 3","Melodramatic Milgram","4.0.5","0","n","0","right","right","NA","left","right","911.0","53035","NA","8345","911","2","legacy","6","1024","2","48000","-16","experiment","2","even","6","243822","2992","NA","240587","241615","2880","143599","241617","205553","135253","242619","245825","246736","56084","245825","New experiment","21","29746.0","29","1024"
"73","73","1019","1019","#3d3846","experiment","legacy","legacy","legacy","1","undefined","1","right","29","0","0","29","29","0","0","29","29","0","29","29","29","0","29","Sun Oct 15 14:28:41 2023","The main experiment item","True","Sternberg Task Elizabeth McGibbon .osexp","/Users/izzymcgibbon/Desktop/College/Tarleton State /2023 /Fall /Stats /3.0 ","False","mono","False","18","no","white","no","yes","768","legacy","17","11","/Users/izzymcgibbon/Desktop/College/Tarleton State /2023 /Fall /Stats /3.0 /EWMsubject-2.csv","legacy","9 5 3 2 8 6","Melodramatic Milgram","4.0.5","0","n","0","right","right","NA","left","right","827.0","53035","NA","8345","827","2","legacy","6","1024","2","48000","-16","experiment","2","even","7","249987","2992","NA","246740","247781","2880","143599","247783","205553","135253","248785","251988","252815","56084","251988","New experiment","22","30573.0","30","1024"
"74","74","1007","1007","#3d3846","experiment","legacy","legacy","legacy","1","undefined","1","left","30","0","0","30","30","0","0","30","30","0","30","30","30","0","30","Sun Oct 15 14:28:41 2023","The main experiment item","True","Sternberg Task Elizabeth McGibbon .osexp","/Users/izzymcgibbon/Desktop/College/Tarleton State /2023 /Fall /Stats /3.0 ","False","mono","False","18","no","white","no","yes","768","legacy","18","11","/Users/izzymcgibbon/Desktop/College/Tarleton State /2023 /Fall /Stats /3.0 /EWMsubject-2.csv","legacy","8 9 6 1","Melodramatic Milgram","4.0.5","2","y","0","left","right","NA","left","left","666.0","53035","NA","8345","666","2","legacy","4","1024","2","48000","-16","experiment","2","even","9","256067","2992","NA","252818","253860","2880","143599","253862","205553","135253","254865","258069","258736","56084","258069","New experiment","23","31239.0","31","1024"
"75","75","995","995","#3d3846","experiment","legacy","legacy","legacy","1","undefined","1","left","31","0","0","31","31","0","0","31","31","0","31","31","31","0","31","Sun Oct 15 14:28:41 2023","The main experiment item","True","Sternberg Task Elizabeth McGibbon .osexp","/Users/izzymcgibbon/Desktop/College/Tarleton State /2023 /Fall /Stats /3.0 ","False","mono","False","18","no","white","no","yes","768","legacy","19","11","/Users/izzymcgibbon/Desktop/College/Tarleton State /2023 /Fall /Stats /3.0 /EWMsubject-2.csv","legacy","3 4 9 6 2 9","Melodramatic Milgram","4.0.5","5","y","0","left","right","NA","left","left","625.0","53035","NA","8345","625","2","legacy","6","1024","2","48000","-16","experiment","2","even","2","261980","2992","NA","258738","259774","2880","143599","259776","205553","135253","260778","263981","264606","56084","263981","New experiment","24","31864.0","32","1024"
"75","75","987","987","#3d3846","experiment","legacy","legacy","legacy","1","undefined","1","left","32","0","0","32","32","0","0","32","32","0","32","32","32","0","32","Sun Oct 15 14:28:41 2023","The main experiment item","True","Sternberg Task Elizabeth McGibbon .osexp","/Users/izzymcgibbon/Desktop/College/Tarleton State /2023 /Fall /Stats /3.0 ","False","mono","False","18","no","white","no","yes","768","legacy","20","11","/Users/izzymcgibbon/Desktop/College/Tarleton State /2023 /Fall /Stats /3.0 /EWMsubject-2.csv","legacy","1 4 9 3 2 5","Melodramatic Milgram","4.0.5","3","y","0","left","right","NA","left","left","720.0","53035","NA","8345","720","2","legacy","6","1024","2","48000","-16","experiment","2","even","9","267853","2992","NA","264609","265648","2880","143599","265650","205553","135253","266651","269854","270575","56084","269854","New experiment","25","32584.0","33","1024"
"76","76","975","975","#3d3846","experiment","legacy","legacy","legacy","1","undefined","1","left","33","0","0","33","33","0","0","33","33","0","33","33","33","0","33","Sun Oct 15 14:28:41 2023","The main experiment item","True","Sternberg Task Elizabeth McGibbon .osexp","/Users/izzymcgibbon/Desktop/College/Tarleton State /2023 /Fall /Stats /3.0 ","False","mono","False","18","no","white","no","yes","768","legacy","21","11","/Users/izzymcgibbon/Desktop/College/Tarleton State /2023 /Fall /Stats /3.0 /EWMsubject-2.csv","legacy","3 2 1 4 7","Melodramatic Milgram","4.0.5","2","y","0","left","right","NA","left","left","581.0","53035","NA","8345","581","2","legacy","5","1024","2","48000","-16","experiment","2","even","2","273828","2992","NA","270578","271624","2880","143599","271626","205553","135253","272627","275829","276410","56084","275829","New experiment","26","33165.0","34","1024"
"77","77","968","968","#3d3846","experiment","legacy","legacy","legacy","1","undefined","1","right","34","0","0","34","34","0","0","34","34","0","34","34","34","0","34","Sun Oct 15 14:28:41 2023","The main experiment item","True","Sternberg Task Elizabeth McGibbon .osexp","/Users/izzymcgibbon/Desktop/College/Tarleton State /2023 /Fall /Stats /3.0 ","False","mono","False","18","no","white","no","yes","768","legacy","22","11","/Users/izzymcgibbon/Desktop/College/Tarleton State /2023 /Fall /Stats /3.0 /EWMsubject-2.csv","legacy","6 3 1 7 9 8","Melodramatic Milgram","4.0.5","0","n","0","right","right","NA","left","right","749.0","53035","NA","8345","749","2","legacy","6","1024","2","48000","-16","experiment","2","even","4","279646","2992","NA","276413","277442","2880","143599","277444","205553","135253","278445","281648","282397","56084","281648","New experiment","27","33914.0","35","1024"
"77","77","962","962","#3d3846","experiment","legacy","legacy","legacy","1","undefined","1","right","35","0","0","35","35","0","0","35","35","0","35","35","35","0","35","Sun Oct 15 14:28:41 2023","The main experiment item","True","Sternberg Task Elizabeth McGibbon .osexp","/Users/izzymcgibbon/Desktop/College/Tarleton State /2023 /Fall /Stats /3.0 ","False","mono","False","18","no","white","no","yes","768","legacy","23","11","/Users/izzymcgibbon/Desktop/College/Tarleton State /2023 /Fall /Stats /3.0 /EWMsubject-2.csv","legacy","6 8 4","Melodramatic Milgram","4.0.5","0","n","0","right","right","NA","left","right","724.0","53035","NA","8345","724","2","legacy","3","1024","2","48000","-16","experiment","2","even","1","285640","2992","NA","282400","283434","2880","143599","283435","205553","135253","284436","287641","288366","56084","287641","New experiment","28","34638.0","36","1024"
"78","78","953","953","#3d3846","experiment","legacy","legacy","legacy","1","undefined","1","right","36","0","0","36","36","0","0","36","36","0","36","36","36","0","36","Sun Oct 15 14:28:41 2023","The main experiment item","True","Sternberg Task Elizabeth McGibbon .osexp","/Users/izzymcgibbon/Desktop/College/Tarleton State /2023 /Fall /Stats /3.0 ","False","mono","False","18","no","white","no","yes","768","legacy","24","11","/Users/izzymcgibbon/Desktop/College/Tarleton State /2023 /Fall /Stats /3.0 /EWMsubject-2.csv","legacy","8 9","Melodramatic Milgram","4.0.5","0","n","0","right","right","NA","left","right","637.0","53035","NA","8345","637","2","legacy","2","1024","2","48000","-16","experiment","2","even","5","291610","2992","NA","288368","289405","2880","143599","289407","205553","135253","290409","293612","294250","56084","293611","New experiment","29","35275.0","37","1024"
"78","78","943","943","#3d3846","experiment","legacy","legacy","legacy","1","undefined","1","right","37","0","0","37","37","0","0","37","37","0","37","37","37","0","37","Sun Oct 15 14:28:41 2023","The main experiment item","True","Sternberg Task Elizabeth McGibbon .osexp","/Users/izzymcgibbon/Desktop/College/Tarleton State /2023 /Fall /Stats /3.0 ","False","mono","False","18","no","white","no","yes","768","legacy","25","11","/Users/izzymcgibbon/Desktop/College/Tarleton State /2023 /Fall /Stats /3.0 /EWMsubject-2.csv","legacy","5 2","Melodramatic Milgram","4.0.5","0","n","0","right","right","NA","left","right","580.0","53035","NA","8345","580","2","legacy","2","1024","2","48000","-16","experiment","2","even","7","297494","2992","NA","294252","295288","2880","143599","295290","205553","135253","296292","299496","300077","56084","299496","New experiment","30","35855.0","38","1024"
"79","79","935","935","#3d3846","experiment","legacy","legacy","legacy","1","undefined","1","right","38","0","0","38","38","0","0","38","38","0","38","38","38","0","38","Sun Oct 15 14:28:41 2023","The main experiment item","True","Sternberg Task Elizabeth McGibbon .osexp","/Users/izzymcgibbon/Desktop/College/Tarleton State /2023 /Fall /Stats /3.0 ","False","mono","False","18","no","white","no","yes","768","legacy","26","11","/Users/izzymcgibbon/Desktop/College/Tarleton State /2023 /Fall /Stats /3.0 /EWMsubject-2.csv","legacy","1 7 5 2","Melodramatic Milgram","4.0.5","0","n","0","right","right","NA","left","right","615.0","53035","NA","8345","615","2","legacy","4","1024","2","48000","-16","experiment","2","even","3","303322","2992","NA","300080","301116","2880","143599","301118","205553","135253","302120","305324","305939","56084","305324","New experiment","31","36470.0","39","1024"
"80","80","930","930","#3d3846","experiment","legacy","legacy","legacy","1","undefined","1","right","39","0","0","39","39","0","0","39","39","0","39","39","39","0","39","Sun Oct 15 14:28:41 2023","The main experiment item","True","Sternberg Task Elizabeth McGibbon .osexp","/Users/izzymcgibbon/Desktop/College/Tarleton State /2023 /Fall /Stats /3.0 ","False","mono","False","18","no","white","no","yes","768","legacy","27","11","/Users/izzymcgibbon/Desktop/College/Tarleton State /2023 /Fall /Stats /3.0 /EWMsubject-2.csv","legacy","2 6 4 3 9","Melodramatic Milgram","4.0.5","0","n","0","right","right","NA","left","right","753.0","53035","NA","8345","753","2","legacy","5","1024","2","48000","-16","experiment","2","even","1","309195","2992","NA","305942","306989","2880","143599","306991","205553","135253","307993","311198","311952","56084","311198","New experiment","32","37223.0","40","1024"
"80","80","936","936","#3d3846","experiment","legacy","legacy","legacy","1","undefined","1","left","40","0","0","40","40","0","0","40","40","0","40","40","40","0","40","Sun Oct 15 14:28:41 2023","The main experiment item","True","Sternberg Task Elizabeth McGibbon .osexp","/Users/izzymcgibbon/Desktop/College/Tarleton State /2023 /Fall /Stats /3.0 ","False","mono","False","18","no","white","no","yes","768","legacy","28","11","/Users/izzymcgibbon/Desktop/College/Tarleton State /2023 /Fall /Stats /3.0 /EWMsubject-2.csv","legacy","6 7 8 5","Melodramatic Milgram","4.0.5","3","y","0","left","right","NA","left","left","1161.0","53035","NA","8345","1161","2","legacy","4","1024","2","48000","-16","experiment","2","even","8","315190","2992","NA","311955","312984","2880","143599","312986","205553","135253","313988","317192","318353","56084","317192","New experiment","33","38384.0","41","1024"
"80","80","935","935","#3d3846","experiment","legacy","legacy","legacy","1","undefined","1","right","41","0","0","41","41","0","0","41","41","0","41","41","41","0","41","Sun Oct 15 14:28:41 2023","The main experiment item","True","Sternberg Task Elizabeth McGibbon .osexp","/Users/izzymcgibbon/Desktop/College/Tarleton State /2023 /Fall /Stats /3.0 ","False","mono","False","18","no","white","no","yes","768","legacy","29","11","/Users/izzymcgibbon/Desktop/College/Tarleton State /2023 /Fall /Stats /3.0 /EWMsubject-2.csv","legacy","8 5 7 3 6","Melodramatic Milgram","4.0.5","0","n","0","right","right","NA","left","right","910.0","53035","NA","8345","910","2","legacy","5","1024","2","48000","-16","experiment","2","even","9","321601","2992","NA","318356","319394","2880","143599","319395","205553","135253","320398","323603","324514","56084","323603","New experiment","34","39294.0","42","1024"
"81","81","941","941","#3d3846","experiment","legacy","legacy","legacy","1","undefined","1","right","42","0","0","42","42","0","0","42","42","0","42","42","42","0","42","Sun Oct 15 14:28:41 2023","The main experiment item","True","Sternberg Task Elizabeth McGibbon .osexp","/Users/izzymcgibbon/Desktop/College/Tarleton State /2023 /Fall /Stats /3.0 ","False","mono","False","18","no","white","no","yes","768","legacy","30","11","/Users/izzymcgibbon/Desktop/College/Tarleton State /2023 /Fall /Stats /3.0 /EWMsubject-2.csv","legacy","3 4 2","Melodramatic Milgram","4.0.5","0","n","0","right","right","NA","left","right","1171.0","53035","NA","8345","1171","2","legacy","3","1024","2","48000","-16","experiment","2","even","5","327759","2992","NA","324516","325553","2880","143599","325555","205553","135253","326557","329760","330932","56084","329760","New experiment","35","40465.0","43","1024"
"81","81","937","937","#3d3846","experiment","legacy","legacy","legacy","1","undefined","1","right","43","0","0","43","43","0","0","43","43","0","43","43","43","0","43","Sun Oct 15 14:28:41 2023","The main experiment item","True","Sternberg Task Elizabeth McGibbon .osexp","/Users/izzymcgibbon/Desktop/College/Tarleton State /2023 /Fall /Stats /3.0 ","False","mono","False","18","no","white","no","yes","768","legacy","31","11","/Users/izzymcgibbon/Desktop/College/Tarleton State /2023 /Fall /Stats /3.0 /EWMsubject-2.csv","legacy","5 7 3","Melodramatic Milgram","4.0.5","0","n","0","right","right","NA","left","right","806.0","53035","NA","8345","806","2","legacy","3","1024","2","48000","-16","experiment","2","even","9","334187","2992","NA","330934","331979","2880","143599","331980","205553","135253","332984","336190","336997","56084","336190","New experiment","36","41271.0","44","1024"
"82","82","934","934","#3d3846","experiment","legacy","legacy","legacy","1","undefined","1","right","44","0","0","44","44","0","0","44","44","0","44","44","44","0","44","Sun Oct 15 14:28:41 2023","The main experiment item","True","Sternberg Task Elizabeth McGibbon .osexp","/Users/izzymcgibbon/Desktop/College/Tarleton State /2023 /Fall /Stats /3.0 ","False","mono","False","18","no","white","no","yes","768","legacy","32","11","/Users/izzymcgibbon/Desktop/College/Tarleton State /2023 /Fall /Stats /3.0 /EWMsubject-2.csv","legacy","7 9","Melodramatic Milgram","4.0.5","0","n","0","right","right","NA","left","right","767.0","53035","NA","8345","767","2","legacy","2","1024","2","48000","-16","experiment","2","even","1","340250","2992","NA","336999","338043","2880","143599","338045","205553","135253","339048","342253","343021","56084","342253","New experiment","37","42038.0","45","1024"
"82","82","933","933","#3d3846","experiment","legacy","legacy","legacy","1","undefined","1","left","45","0","0","45","45","0","0","45","45","0","45","45","45","0","45","Sun Oct 15 14:28:41 2023","The main experiment item","True","Sternberg Task Elizabeth McGibbon .osexp","/Users/izzymcgibbon/Desktop/College/Tarleton State /2023 /Fall /Stats /3.0 ","False","mono","False","18","no","white","no","yes","768","legacy","33","11","/Users/izzymcgibbon/Desktop/College/Tarleton State /2023 /Fall /Stats /3.0 /EWMsubject-2.csv","legacy","7 8 4 6 9 5","Melodramatic Milgram","4.0.5","4","y","0","left","right","NA","left","left","898.0","53035","NA","8345","898","2","legacy","6","1024","2","48000","-16","experiment","2","even","6","346285","2992","NA","343024","344077","2880","143599","344079","205553","135253","345081","348288","349187","56084","348287","New experiment","38","42936.0","46","1024"
"80","80","939","939","#3d3846","experiment","legacy","legacy","legacy","0","undefined","0","right","46","0","0","46","46","0","0","46","46","0","46","46","46","0","46","Sun Oct 15 14:28:41 2023","The main experiment item","True","Sternberg Task Elizabeth McGibbon .osexp","/Users/izzymcgibbon/Desktop/College/Tarleton State /2023 /Fall /Stats /3.0 ","False","mono","False","18","no","white","no","yes","768","legacy","34","11","/Users/izzymcgibbon/Desktop/College/Tarleton State /2023 /Fall /Stats /3.0 /EWMsubject-2.csv","legacy","1 6 4 3 9 7","Melodramatic Milgram","4.0.5","0","n","0","left","right","NA","left","left","1236.0","53035","NA","8345","1236","2","legacy","6","1024","2","48000","-16","experiment","2","even","8","352433","2992","NA","349190","350226","2880","143599","350228","205553","135253","351230","354435","355672","56084","354435","New experiment","38","44172.0","47","1024"
"81","81","943","943","#3d3846","experiment","legacy","legacy","legacy","1","undefined","1","right","47","0","0","47","47","0","0","47","47","0","47","47","47","0","47","Sun Oct 15 14:28:41 2023","The main experiment item","True","Sternberg Task Elizabeth McGibbon .osexp","/Users/izzymcgibbon/Desktop/College/Tarleton State /2023 /Fall /Stats /3.0 ","False","mono","False","18","no","white","no","yes","768","legacy","35","11","/Users/izzymcgibbon/Desktop/College/Tarleton State /2023 /Fall /Stats /3.0 /EWMsubject-2.csv","legacy","8 6 3 4 7","Melodramatic Milgram","4.0.5","0","n","0","right","right","NA","left","right","1094.0","53035","NA","8345","1094","2","legacy","5","1024","2","48000","-16","experiment","2","even","1","358922","2992","NA","349190","356714","2880","143599","356716","355675","135253","357719","360924","362018","56084","360924","New experiment","39","45266.0","48","1024"
"81","81","942","942","#3d3846","experiment","legacy","legacy","legacy","1","undefined","1","left","48","0","0","48","48","0","0","48","48","0","48","48","48","0","48","Sun Oct 15 14:28:41 2023","The main experiment item","True","Sternberg Task Elizabeth McGibbon .osexp","/Users/izzymcgibbon/Desktop/College/Tarleton State /2023 /Fall /Stats /3.0 ","False","mono","False","18","no","white","no","yes","768","legacy","36","11","/Users/izzymcgibbon/Desktop/College/Tarleton State /2023 /Fall /Stats /3.0 /EWMsubject-2.csv","legacy","9 4 2","Melodramatic Milgram","4.0.5","1","y","0","left","right","NA","left","left","920.0","53035","NA","8345","920","2","legacy","3","1024","2","48000","-16","experiment","2","even","9","365272","2992","NA","362021","363065","2880","143599","363067","355675","135253","364070","367276","368196","56084","367276","New experiment","40","46186.0","49","1024"
"82","82","940","940","#3d3846","experiment","legacy","legacy","legacy","1","undefined","1","right","49","0","0","49","49","0","0","49","49","0","49","49","49","0","49","Sun Oct 15 14:28:41 2023","The main experiment item","True","Sternberg Task Elizabeth McGibbon .osexp","/Users/izzymcgibbon/Desktop/College/Tarleton State /2023 /Fall /Stats /3.0 ","False","mono","False","18","no","white","no","yes","768","legacy","37","11","/Users/izzymcgibbon/Desktop/College/Tarleton State /2023 /Fall /Stats /3.0 /EWMsubject-2.csv","legacy","6 9 4 5 3 2","Melodramatic Milgram","4.0.5","0","n","0","right","right","NA","left","right","818.0","53035","NA","8345","818","2","legacy","6","1024","2","48000","-16","experiment","2","even","8","371448","2992","NA","368199","369241","2880","143599","369243","355675","135253","370245","373452","374270","56084","373451","New experiment","41","47004.0","50","1024"
"82","82","938","938","#3d3846","experiment","legacy","legacy","legacy","1","undefined","1","right","50","0","0","50","50","0","0","50","50","0","50","50","50","0","50","Sun Oct 15 14:28:41 2023","The main experiment item","True","Sternberg Task Elizabeth McGibbon .osexp","/Users/izzymcgibbon/Desktop/College/Tarleton State /2023 /Fall /Stats /3.0 ","False","mono","False","18","no","white","no","yes","768","legacy","38","11","/Users/izzymcgibbon/Desktop/College/Tarleton State /2023 /Fall /Stats /3.0 /EWMsubject-2.csv","legacy","8 2 1 4 5 9","Melodramatic Milgram","4.0.5","0","n","0","right","right","NA","left","right","871.0","53035","NA","8345","871","2","legacy","6","1024","2","48000","-16","experiment","2","even","7","377516","2992","NA","374273","375309","2880","143599","375311","355675","135253","376313","379518","380389","56084","379518","New experiment","42","47875.0","51","1024"
"82","82","932","932","#3d3846","experiment","legacy","legacy","legacy","1","undefined","1","left","51","0","0","51","51","0","0","51","51","0","51","51","51","0","51","Sun Oct 15 14:28:41 2023","The main experiment item","True","Sternberg Task Elizabeth McGibbon .osexp","/Users/izzymcgibbon/Desktop/College/Tarleton State /2023 /Fall /Stats /3.0 ","False","mono","False","18","no","white","no","yes","768","legacy","39","11","/Users/izzymcgibbon/Desktop/College/Tarleton State /2023 /Fall /Stats /3.0 /EWMsubject-2.csv","legacy","9 1 7 2","Melodramatic Milgram","4.0.5","2","y","0","left","right","NA","left","left","589.0","53035","NA","8345","589","2","legacy","4","1024","2","48000","-16","experiment","2","even","1","383641","2992","NA","380392","381434","2880","143599","381436","355675","135253","382438","385644","386234","56084","385643","New experiment","43","48464.0","52","1024"
"83","83","924","924","#3d3846","experiment","legacy","legacy","legacy","1","undefined","1","left","52","0","0","52","52","0","0","52","52","0","52","52","52","0","52","Sun Oct 15 14:28:41 2023","The main experiment item","True","Sternberg Task Elizabeth McGibbon .osexp","/Users/izzymcgibbon/Desktop/College/Tarleton State /2023 /Fall /Stats /3.0 ","False","mono","False","18","no","white","no","yes","768","legacy","40","11","/Users/izzymcgibbon/Desktop/College/Tarleton State /2023 /Fall /Stats /3.0 /EWMsubject-2.csv","legacy","9 5 3 8 4","Melodramatic Milgram","4.0.5","1","y","0","left","right","NA","left","left","545.0","53035","NA","8345","545","2","legacy","5","1024","2","48000","-16","experiment","2","even","9","389480","2992","NA","386237","387274","2880","143599","387276","355675","135253","388278","391483","392029","56084","391483","New experiment","44","49009.0","53","1024"
"83","83","930","930","#3d3846","experiment","legacy","legacy","legacy","1","undefined","1","right","53","0","0","53","53","0","0","53","53","0","53","53","53","0","53","Sun Oct 15 14:28:41 2023","The main experiment item","True","Sternberg Task Elizabeth McGibbon .osexp","/Users/izzymcgibbon/Desktop/College/Tarleton State /2023 /Fall /Stats /3.0 ","False","mono","False","18","no","white","no","yes","768","legacy","41","11","/Users/izzymcgibbon/Desktop/College/Tarleton State /2023 /Fall /Stats /3.0 /EWMsubject-2.csv","legacy","7 1 5 6 3","Melodramatic Milgram","4.0.5","0","n","0","right","right","NA","left","right","1262.0","53035","NA","8345","1262","2","legacy","5","1024","2","48000","-16","experiment","2","even","8","395276","2992","NA","392031","393068","2880","143599","393070","355675","135253","394072","397278","398541","56084","397278","New experiment","45","50271.0","54","1024"
"83","83","922","922","#3d3846","experiment","legacy","legacy","legacy","1","undefined","1","left","54","0","0","54","54","0","0","54","54","0","54","54","54","0","54","Sun Oct 15 14:28:41 2023","The main experiment item","True","Sternberg Task Elizabeth McGibbon .osexp","/Users/izzymcgibbon/Desktop/College/Tarleton State /2023 /Fall /Stats /3.0 ","False","mono","False","18","no","white","no","yes","768","legacy","42","11","/Users/izzymcgibbon/Desktop/College/Tarleton State /2023 /Fall /Stats /3.0 /EWMsubject-2.csv","legacy","4","Melodramatic Milgram","4.0.5","1","y","0","left","right","NA","left","left","476.0","53035","NA","8345","476","2","legacy","1","1024","2","48000","-16","experiment","2","even","4","401798","2992","NA","398544","399591","2880","143599","399593","355675","135253","400596","403801","404277","56084","403801","New experiment","46","50747.0","55","1024"
"83","83","917","917","#3d3846","experiment","legacy","legacy","legacy","1","undefined","1","right","55","0","0","55","55","0","0","55","55","0","55","55","55","0","55","Sun Oct 15 14:28:41 2023","The main experiment item","True","Sternberg Task Elizabeth McGibbon .osexp","/Users/izzymcgibbon/Desktop/College/Tarleton State /2023 /Fall /Stats /3.0 ","False","mono","False","18","no","white","no","yes","768","legacy","43","11","/Users/izzymcgibbon/Desktop/College/Tarleton State /2023 /Fall /Stats /3.0 /EWMsubject-2.csv","legacy","9","Melodramatic Milgram","4.0.5","0","n","0","right","right","NA","left","right","609.0","53035","NA","8345","609","2","legacy","1","1024","2","48000","-16","experiment","2","even","6","407531","2992","NA","404280","405324","2880","143599","405326","355675","135253","406329","409535","410145","56084","409534","New experiment","47","51356.0","56","1024"
"84","84","910","910","#3d3846","experiment","legacy","legacy","legacy","1","undefined","1","left","56","0","0","56","56","0","0","56","56","0","56","56","56","0","56","Sun Oct 15 14:28:41 2023","The main experiment item","True","Sternberg Task Elizabeth McGibbon .osexp","/Users/izzymcgibbon/Desktop/College/Tarleton State /2023 /Fall /Stats /3.0 ","False","mono","False","18","no","white","no","yes","768","legacy","44","11","/Users/izzymcgibbon/Desktop/College/Tarleton State /2023 /Fall /Stats /3.0 /EWMsubject-2.csv","legacy","6 7 9 3 1 2","Melodramatic Milgram","4.0.5","1","y","0","left","right","NA","left","left","555.0","53035","NA","8345","555","2","legacy","6","1024","2","48000","-16","experiment","2","even","6","413407","2992","NA","410148","411199","2880","143599","411201","355675","135253","412204","415409","415965","56084","415409","New experiment","48","51911.0","57","1024"
"84","84","903","903","#3d3846","experiment","legacy","legacy","legacy","1","undefined","1","right","57","0","0","57","57","0","0","57","57","0","57","57","57","0","57","Sun Oct 15 14:28:41 2023","The main experiment item","True","Sternberg Task Elizabeth McGibbon .osexp","/Users/izzymcgibbon/Desktop/College/Tarleton State /2023 /Fall /Stats /3.0 ","False","mono","False","18","no","white","no","yes","768","legacy","45","11","/Users/izzymcgibbon/Desktop/College/Tarleton State /2023 /Fall /Stats /3.0 /EWMsubject-2.csv","legacy","1","Melodramatic Milgram","4.0.5","0","n","0","right","right","NA","left","right","513.0","53035","NA","8345","513","2","legacy","1","1024","2","48000","-16","experiment","2","even","7","419228","2992","NA","415968","417020","2880","143599","417022","355675","135253","418025","421230","421744","56084","421230","New experiment","49","52424.0","58","1024"
"84","84","899","899","#3d3846","experiment","legacy","legacy","legacy","1","undefined","1","left","58","0","0","58","58","0","0","58","58","0","58","58","58","0","58","Sun Oct 15 14:28:41 2023","The main experiment item","True","Sternberg Task Elizabeth McGibbon .osexp","/Users/izzymcgibbon/Desktop/College/Tarleton State /2023 /Fall /Stats /3.0 ","False","mono","False","18","no","white","no","yes","768","legacy","46","11","/Users/izzymcgibbon/Desktop/College/Tarleton State /2023 /Fall /Stats /3.0 /EWMsubject-2.csv","legacy","9 8 4","Melodramatic Milgram","4.0.5","1","y","0","left","right","NA","left","left","619.0","53035","NA","8345","619","2","legacy","3","1024","2","48000","-16","experiment","2","even","9","424992","2992","NA","421747","422784","2880","143599","422786","355675","135253","423788","426995","427614","56084","426995","New experiment","50","53043.0","59","1024"
"85","85","895","895","#3d3846","experiment","legacy","legacy","legacy","1","undefined","1","right","59","0","0","59","59","0","0","59","59","0","59","59","59","0","59","Sun Oct 15 14:28:41 2023","The main experiment item","True","Sternberg Task Elizabeth McGibbon .osexp","/Users/izzymcgibbon/Desktop/College/Tarleton State /2023 /Fall /Stats /3.0 ","False","mono","False","18","no","white","no","yes","768","legacy","47","11","/Users/izzymcgibbon/Desktop/College/Tarleton State /2023 /Fall /Stats /3.0 /EWMsubject-2.csv","legacy","1 3 2 6 9","Melodramatic Milgram","4.0.5","0","n","0","right","right","NA","left","right","672.0","53035","NA","8345","672","2","legacy","5","1024","2","48000","-16","experiment","2","even","5","430861","2992","NA","427617","428654","2880","143599","428656","355675","135253","429659","432864","433536","56084","432864","New experiment","51","53715.0","60","1024"
"85","85","891","891","#3d3846","experiment","legacy","legacy","legacy","1","undefined","1","left","60","0","0","60","60","0","0","60","60","0","60","60","60","0","60","Sun Oct 15 14:28:41 2023","The main experiment item","True","Sternberg Task Elizabeth McGibbon .osexp","/Users/izzymcgibbon/Desktop/College/Tarleton State /2023 /Fall /Stats /3.0 ","False","mono","False","18","no","white","no","yes","768","legacy","48","11","/Users/izzymcgibbon/Desktop/College/Tarleton State /2023 /Fall /Stats /3.0 /EWMsubject-2.csv","legacy","9 3 8 2 1 4","Melodramatic Milgram","4.0.5","3","y","0","left","right","NA","left","left","679.0","53035","NA","8345","679","2","legacy","6","1024","2","48000","-16","experiment","2","even","8","436791","2992","NA","433540","434585","2880","143599","434586","355675","135253","435588","438794","439473","56084","438793","New experiment","52","54394.0","61","1024"
"85","85","886","886","#3d3846","experiment","legacy","legacy","legacy","1","undefined","1","right","61","0","0","61","61","0","0","61","61","0","61","61","61","0","61","Sun Oct 15 14:28:41 2023","The main experiment item","True","Sternberg Task Elizabeth McGibbon .osexp","/Users/izzymcgibbon/Desktop/College/Tarleton State /2023 /Fall /Stats /3.0 ","False","mono","False","18","no","white","no","yes","768","legacy","49","11","/Users/izzymcgibbon/Desktop/College/Tarleton State /2023 /Fall /Stats /3.0 /EWMsubject-2.csv","legacy","6 9 7 3 8 2","Melodramatic Milgram","4.0.5","0","n","0","right","right","NA","left","right","567.0","53035","NA","8345","567","2","legacy","6","1024","2","48000","-16","experiment","2","even","5","442723","2992","NA","439477","440516","2880","143599","440517","355675","135253","441520","444725","445293","56084","444725","New experiment","53","54961.0","62","1024"
"84","84","900","900","#3d3846","experiment","legacy","legacy","legacy","0","undefined","0","left","62","0","0","62","62","0","0","62","62","0","62","62","62","0","62","Sun Oct 15 14:28:41 2023","The main experiment item","True","Sternberg Task Elizabeth McGibbon .osexp","/Users/izzymcgibbon/Desktop/College/Tarleton State /2023 /Fall /Stats /3.0 ","False","mono","False","18","no","white","no","yes","768","legacy","50","11","/Users/izzymcgibbon/Desktop/College/Tarleton State /2023 /Fall /Stats /3.0 /EWMsubject-2.csv","legacy","7 4 2 6 3 5","Melodramatic Milgram","4.0.5","6","y","0","right","right","NA","left","right","1741.0","53035","NA","8345","1741","2","legacy","6","1024","2","48000","-16","experiment","2","even","5","448548","2992","NA","445295","446341","2880","143599","446342","355675","135253","447345","450551","452292","56084","450550","New experiment","53","56702.0","63","1024"
"84","84","905","905","#3d3846","experiment","legacy","legacy","legacy","1","undefined","1","right","63","0","0","63","63","0","0","63","63","0","63","63","63","0","63","Sun Oct 15 14:28:41 2023","The main experiment item","True","Sternberg Task Elizabeth McGibbon .osexp","/Users/izzymcgibbon/Desktop/College/Tarleton State /2023 /Fall /Stats /3.0 ","False","mono","False","18","no","white","no","yes","768","legacy","51","11","/Users/izzymcgibbon/Desktop/College/Tarleton State /2023 /Fall /Stats /3.0 /EWMsubject-2.csv","legacy","7 4 2 8 1 9","Melodramatic Milgram","4.0.5","0","n","0","right","right","NA","left","right","1280.0","53035","NA","8345","1280","2","legacy","6","1024","2","48000","-16","experiment","2","even","5","455556","2992","NA","445295","453348","2880","143599","453349","452295","135253","454352","457559","458840","56084","457558","New experiment","54","57982.0","64","1024"
"83","83","902","902","#3d3846","experiment","legacy","legacy","legacy","0","undefined","0","left","64","0","0","64","64","0","0","64","64","0","64","64","64","0","64","Sun Oct 15 14:28:41 2023","The main experiment item","True","Sternberg Task Elizabeth McGibbon .osexp","/Users/izzymcgibbon/Desktop/College/Tarleton State /2023 /Fall /Stats /3.0 ","False","mono","False","18","no","white","no","yes","768","legacy","52","11","/Users/izzymcgibbon/Desktop/College/Tarleton State /2023 /Fall /Stats /3.0 /EWMsubject-2.csv","legacy","3 5 7 1","Melodramatic Milgram","4.0.5","3","y","0","right","right","NA","left","right","693.0","53035","NA","8345","693","2","legacy","4","1024","2","48000","-16","experiment","2","even","7","462086","2992","NA","458843","459879","2880","143599","459881","452295","135253","460884","464090","464784","56084","464089","New experiment","54","58675.0","65","1024"
"83","83","901","901","#3d3846","experiment","legacy","legacy","legacy","1","undefined","1","right","65","0","0","65","65","0","0","65","65","0","65","65","65","0","65","Sun Oct 15 14:28:41 2023","The main experiment item","True","Sternberg Task Elizabeth McGibbon .osexp","/Users/izzymcgibbon/Desktop/College/Tarleton State /2023 /Fall /Stats /3.0 ","False","mono","False","18","no","white","no","yes","768","legacy","53","11","/Users/izzymcgibbon/Desktop/College/Tarleton State /2023 /Fall /Stats /3.0 /EWMsubject-2.csv","legacy","7 6 4 8 1 2","Melodramatic Milgram","4.0.5","0","n","0","right","right","NA","left","right","831.0","53035","NA","8345","831","2","legacy","6","1024","2","48000","-16","experiment","2","even","9","468034","2992","NA","458843","465827","2880","143599","465829","464787","135253","466831","470037","470868","56084","470036","New experiment","55","59506.0","66","1024"
"83","83","897","897","#3d3846","experiment","legacy","legacy","legacy","1","undefined","1","right","66","0","0","66","66","0","0","66","66","0","66","66","66","0","66","Sun Oct 15 14:28:41 2023","The main experiment item","True","Sternberg Task Elizabeth McGibbon .osexp","/Users/izzymcgibbon/Desktop/College/Tarleton State /2023 /Fall /Stats /3.0 ","False","mono","False","18","no","white","no","yes","768","legacy","54","11","/Users/izzymcgibbon/Desktop/College/Tarleton State /2023 /Fall /Stats /3.0 /EWMsubject-2.csv","legacy","2 5 1 4","Melodramatic Milgram","4.0.5","0","n","0","right","right","NA","left","right","640.0","53035","NA","8345","640","2","legacy","4","1024","2","48000","-16","experiment","2","even","6","474126","2992","NA","470872","471917","2880","143599","471919","464787","135253","472922","476129","476770","56084","476128","New experiment","56","60146.0","67","1024"
"83","83","892","892","#3d3846","experiment","legacy","legacy","legacy","1","undefined","1","left","67","0","0","67","67","0","0","67","67","0","67","67","67","0","67","Sun Oct 15 14:28:41 2023","The main experiment item","True","Sternberg Task Elizabeth McGibbon .osexp","/Users/izzymcgibbon/Desktop/College/Tarleton State /2023 /Fall /Stats /3.0 ","False","mono","False","18","no","white","no","yes","768","legacy","55","11","/Users/izzymcgibbon/Desktop/College/Tarleton State /2023 /Fall /Stats /3.0 /EWMsubject-2.csv","legacy","4 6 5 8","Melodramatic Milgram","4.0.5","1","y","0","left","right","NA","left","left","577.0","53035","NA","8345","577","2","legacy","4","1024","2","48000","-16","experiment","2","even","4","480029","2992","NA","476773","477821","2880","143599","477823","464787","135253","478826","482031","482609","56084","482031","New experiment","57","60723.0","68","1024"
"84","84","900","900","#3d3846","experiment","legacy","legacy","legacy","1","undefined","1","left","68","0","0","68","68","0","0","68","68","0","68","68","68","0","68","Sun Oct 15 14:28:41 2023","The main experiment item","True","Sternberg Task Elizabeth McGibbon .osexp","/Users/izzymcgibbon/Desktop/College/Tarleton State /2023 /Fall /Stats /3.0 ","False","mono","False","18","no","white","no","yes","768","legacy","56","11","/Users/izzymcgibbon/Desktop/College/Tarleton State /2023 /Fall /Stats /3.0 /EWMsubject-2.csv","legacy","5 7 8 2 3 8","Melodramatic Milgram","4.0.5","5","y","0","left","right","NA","left","left","1377.0","53035","NA","8345","1377","2","legacy","6","1024","2","48000","-16","experiment","2","even","3","485865","2992","NA","482612","483659","2880","143599","483661","464787","135253","484663","487867","489245","56084","487867","New experiment","58","62100.0","69","1024"
"84","84","897","897","#3d3846","experiment","legacy","legacy","legacy","1","undefined","1","left","69","0","0","69","69","0","0","69","69","0","69","69","69","0","69","Sun Oct 15 14:28:41 2023","The main experiment item","True","Sternberg Task Elizabeth McGibbon .osexp","/Users/izzymcgibbon/Desktop/College/Tarleton State /2023 /Fall /Stats /3.0 ","False","mono","False","18","no","white","no","yes","768","legacy","57","11","/Users/izzymcgibbon/Desktop/College/Tarleton State /2023 /Fall /Stats /3.0 /EWMsubject-2.csv","legacy","3 9 7 6 4","Melodramatic Milgram","4.0.5","3","y","0","left","right","NA","left","left","705.0","53035","NA","8345","705","2","legacy","5","1024","2","48000","-16","experiment","2","even","7","492499","2992","NA","489248","490293","2880","143599","490294","464787","135253","491296","494500","495206","56084","494500","New experiment","59","62805.0","70","1024"
"84","84","894","894","#3d3846","experiment","legacy","legacy","legacy","1","undefined","1","right","70","0","0","70","70","0","0","70","70","0","70","70","70","0","70","Sun Oct 15 14:28:41 2023","The main experiment item","True","Sternberg Task Elizabeth McGibbon .osexp","/Users/izzymcgibbon/Desktop/College/Tarleton State /2023 /Fall /Stats /3.0 ","False","mono","False","18","no","white","no","yes","768","legacy","58","11","/Users/izzymcgibbon/Desktop/College/Tarleton State /2023 /Fall /Stats /3.0 /EWMsubject-2.csv","legacy","6 9 4 5 2","Melodramatic Milgram","4.0.5","0","n","0","right","right","NA","left","right","672.0","53035","NA","8345","672","2","legacy","5","1024","2","48000","-16","experiment","2","even","1","498444","2992","NA","495209","496238","2880","143599","496239","464787","135253","497241","500446","501119","56084","500446","New experiment","60","63477.0","71","1024"
"83","83","898","898","#3d3846","experiment","legacy","legacy","legacy","0","undefined","0","left","71","0","0","71","71","0","0","71","71","0","71","71","71","0","71","Sun Oct 15 14:28:41 2023","The main experiment item","True","Sternberg Task Elizabeth McGibbon .osexp","/Users/izzymcgibbon/Desktop/College/Tarleton State /2023 /Fall /Stats /3.0 ","False","mono","False","18","no","white","no","yes","768","legacy","59","11","/Users/izzymcgibbon/Desktop/College/Tarleton State /2023 /Fall /Stats /3.0 /EWMsubject-2.csv","legacy","9 3 1 2 5","Melodramatic Milgram","4.0.5","4","y","0","right","right","NA","left","right","1194.0","53035","NA","8345","1194","2","legacy","5","1024","2","48000","-16","experiment","2","even","2","504363","2992","NA","501121","502156","2880","143599","502158","464787","135253","503160","506365","507560","56084","506365","New experiment","60","64671.0","72","1024"
"83","83","898","898","#3d3846","experiment","legacy","legacy","legacy","1","undefined","1","left","72","0","0","72","72","0","0","72","72","0","72","72","72","0","72","Sun Oct 15 14:28:41 2023","The main experiment item","True","Sternberg Task Elizabeth McGibbon .osexp","/Users/izzymcgibbon/Desktop/College/Tarleton State /2023 /Fall /Stats /3.0 ","False","mono","False","18","no","white","no","yes","768","legacy","60","11","/Users/izzymcgibbon/Desktop/College/Tarleton State /2023 /Fall /Stats /3.0 /EWMsubject-2.csv","legacy","7 8 6 3 1","Melodramatic Milgram","4.0.5","5","y","0","left","right","NA","left","left","919.0","53035","NA","8345","919","2","legacy","5","1024","2","48000","-16","experiment","2","even","1","510815","2992","NA","501121","508608","2880","143599","508609","507564","135253","509611","512818","513738","56084","512817","New experiment","61","65590.0","73","1024"
"83","83","901","901","#3d3846","experiment","legacy","legacy","legacy","1","undefined","1","right","73","0","0","73","73","0","0","73","73","0","73","73","73","0","73","Sun Oct 15 14:28:41 2023","The main experiment item","True","Sternberg Task Elizabeth McGibbon .osexp","/Users/izzymcgibbon/Desktop/College/Tarleton State /2023 /Fall /Stats /3.0 ","False","mono","False","18","no","white","no","yes","768","legacy","61","11","/Users/izzymcgibbon/Desktop/College/Tarleton State /2023 /Fall /Stats /3.0 /EWMsubject-2.csv","legacy","6 2 9 3 8 4","Melodramatic Milgram","4.0.5","0","n","0","right","right","NA","left","right","1118.0","53035","NA","8345","1118","2","legacy","6","1024","2","48000","-16","experiment","2","even","1","516992","2992","NA","513741","514784","2880","143599","514786","507564","135253","515788","518995","520114","56084","518994","New experiment","62","66708.0","74","1024"
"84","84","894","894","#3d3846","experiment","legacy","legacy","legacy","1","undefined","1","left","74","0","0","74","74","0","0","74","74","0","74","74","74","0","74","Sun Oct 15 14:28:41 2023","The main experiment item","True","Sternberg Task Elizabeth McGibbon .osexp","/Users/izzymcgibbon/Desktop/College/Tarleton State /2023 /Fall /Stats /3.0 ","False","mono","False","18","no","white","no","yes","768","legacy","62","11","/Users/izzymcgibbon/Desktop/College/Tarleton State /2023 /Fall /Stats /3.0 /EWMsubject-2.csv","legacy","7","Melodramatic Milgram","4.0.5","1","y","0","left","right","NA","left","left","377.0","53035","NA","8345","377","2","legacy","1","1024","2","48000","-16","experiment","2","even","7","523375","2992","NA","520117","521167","2880","143599","521168","507564","135253","522172","525377","525755","56084","525376","New experiment","63","67085.0","75","1024"
"84","84","891","891","#3d3846","experiment","legacy","legacy","legacy","1","undefined","1","right","75","0","0","75","75","0","0","75","75","0","75","75","75","0","75","Sun Oct 15 14:28:41 2023","The main experiment item","True","Sternberg Task Elizabeth McGibbon .osexp","/Users/izzymcgibbon/Desktop/College/Tarleton State /2023 /Fall /Stats /3.0 ","False","mono","False","18","no","white","no","yes","768","legacy","63","11","/Users/izzymcgibbon/Desktop/College/Tarleton State /2023 /Fall /Stats /3.0 /EWMsubject-2.csv","legacy","8 4 3 5","Melodramatic Milgram","4.0.5","0","n","0","right","right","NA","left","right","698.0","53035","NA","8345","698","2","legacy","4","1024","2","48000","-16","experiment","2","even","6","529031","2992","NA","525757","526823","2880","143599","526825","507564","135253","527828","531033","531732","56084","531033","New experiment","64","67783.0","76","1024"
"83","83","900","900","#3d3846","experiment","legacy","legacy","legacy","0","undefined","0","right","76","0","0","76","76","0","0","76","76","0","76","76","76","0","76","Sun Oct 15 14:28:41 2023","The main experiment item","True","Sternberg Task Elizabeth McGibbon .osexp","/Users/izzymcgibbon/Desktop/College/Tarleton State /2023 /Fall /Stats /3.0 ","False","mono","False","18","no","white","no","yes","768","legacy","64","11","/Users/izzymcgibbon/Desktop/College/Tarleton State /2023 /Fall /Stats /3.0 /EWMsubject-2.csv","legacy","5 3 2 6 9 8","Melodramatic Milgram","4.0.5","0","n","0","left","right","NA","left","left","1547.0","53035","NA","8345","1547","2","legacy","6","1024","2","48000","-16","experiment","2","even","4","534978","2992","NA","531736","532772","2880","143599","532774","507564","135253","533776","536981","538529","56084","536981","New experiment","64","69330.0","77","1024"
"83","83","899","899","#3d3846","experiment","legacy","legacy","legacy","1","undefined","1","left","77","0","0","77","77","0","0","77","77","0","77","77","77","0","77","Sun Oct 15 14:28:41 2023","The main experiment item","True","Sternberg Task Elizabeth McGibbon .osexp","/Users/izzymcgibbon/Desktop/College/Tarleton State /2023 /Fall /Stats /3.0 ","False","mono","False","18","no","white","no","yes","768","legacy","65","11","/Users/izzymcgibbon/Desktop/College/Tarleton State /2023 /Fall /Stats /3.0 /EWMsubject-2.csv","legacy","8 9 5 7 1 6","Melodramatic Milgram","4.0.5","4","y","0","left","right","NA","left","left","853.0","53035","NA","8345","853","2","legacy","6","1024","2","48000","-16","experiment","2","even","7","541779","2992","NA","531736","539571","2880","143599","539573","538531","135253","540575","543781","544635","56084","543781","New experiment","65","70183.0","78","1024"
"83","83","896","896","#3d3846","experiment","legacy","legacy","legacy","1","undefined","1","left","78","0","0","78","78","0","0","78","78","0","78","78","78","0","78","Sun Oct 15 14:28:41 2023","The main experiment item","True","Sternberg Task Elizabeth McGibbon .osexp","/Users/izzymcgibbon/Desktop/College/Tarleton State /2023 /Fall /Stats /3.0 ","False","mono","False","18","no","white","no","yes","768","legacy","66","11","/Users/izzymcgibbon/Desktop/College/Tarleton State /2023 /Fall /Stats /3.0 /EWMsubject-2.csv","legacy","9 6 2 4 1","Melodramatic Milgram","4.0.5","4","y","0","left","right","NA","left","left","654.0","53035","NA","8345","654","2","legacy","5","1024","2","48000","-16","experiment","2","even","4","547891","2992","NA","544638","545685","2880","143599","545687","538531","135253","546689","549893","550548","56084","549893","New experiment","66","70837.0","79","1024"
"83","83","895","895","#3d3846","experiment","legacy","legacy","legacy","1","undefined","1","right","79","0","0","79","79","0","0","79","79","0","79","79","79","0","79","Sun Oct 15 14:28:41 2023","The main experiment item","True","Sternberg Task Elizabeth McGibbon .osexp","/Users/izzymcgibbon/Desktop/College/Tarleton State /2023 /Fall /Stats /3.0 ","False","mono","False","18","no","white","no","yes","768","legacy","67","11","/Users/izzymcgibbon/Desktop/College/Tarleton State /2023 /Fall /Stats /3.0 /EWMsubject-2.csv","legacy","8 5 4 2 9 6","Melodramatic Milgram","4.0.5","0","n","0","right","right","NA","left","right","842.0","53035","NA","8345","842","2","legacy","6","1024","2","48000","-16","experiment","2","even","3","553802","2992","NA","550551","551595","2880","143599","551597","538531","135253","552599","555804","556647","56084","555804","New experiment","67","71679.0","80","1024"
"83","83","894","894","#3d3846","experiment","legacy","legacy","legacy","1","undefined","1","left","80","0","0","80","80","0","0","80","80","0","80","80","80","0","80","Sun Oct 15 14:28:41 2023","The main experiment item","True","Sternberg Task Elizabeth McGibbon .osexp","/Users/izzymcgibbon/Desktop/College/Tarleton State /2023 /Fall /Stats /3.0 ","False","mono","False","18","no","white","no","yes","768","legacy","68","11","/Users/izzymcgibbon/Desktop/College/Tarleton State /2023 /Fall /Stats /3.0 /EWMsubject-2.csv","legacy","8 1 6","Melodramatic Milgram","4.0.5","3","y","0","left","right","NA","left","left","815.0","53035","NA","8345","815","2","legacy","3","1024","2","48000","-16","experiment","2","even","6","559901","2992","NA","556649","557693","2880","143599","557695","538531","135253","558697","561904","562720","56084","561903","New experiment","68","72494.0","81","1024"
"84","84","892","892","#3d3846","experiment","legacy","legacy","legacy","1","undefined","1","left","81","0","0","81","81","0","0","81","81","0","81","81","81","0","81","Sun Oct 15 14:28:41 2023","The main experiment item","True","Sternberg Task Elizabeth McGibbon .osexp","/Users/izzymcgibbon/Desktop/College/Tarleton State /2023 /Fall /Stats /3.0 ","False","mono","False","18","no","white","no","yes","768","legacy","69","11","/Users/izzymcgibbon/Desktop/College/Tarleton State /2023 /Fall /Stats /3.0 /EWMsubject-2.csv","legacy","7 1 8 5 6 2","Melodramatic Milgram","4.0.5","2","y","0","left","right","NA","left","left","707.0","53035","NA","8345","707","2","legacy","6","1024","2","48000","-16","experiment","2","even","1","565985","2992","NA","562723","563777","2880","143599","563779","538531","135253","564782","567987","568695","56084","567987","New experiment","69","73201.0","82","1024"
"84","84","895","895","#3d3846","experiment","legacy","legacy","legacy","1","undefined","1","left","82","0","0","82","82","0","0","82","82","0","82","82","82","0","82","Sun Oct 15 14:28:41 2023","The main experiment item","True","Sternberg Task Elizabeth McGibbon .osexp","/Users/izzymcgibbon/Desktop/College/Tarleton State /2023 /Fall /Stats /3.0 ","False","mono","False","18","no","white","no","yes","768","legacy","70","11","/Users/izzymcgibbon/Desktop/College/Tarleton State /2023 /Fall /Stats /3.0 /EWMsubject-2.csv","legacy","2 3 7 4","Melodramatic Milgram","4.0.5","1","y","0","left","right","NA","left","left","1104.0","53035","NA","8345","1104","2","legacy","4","1024","2","48000","-16","experiment","2","even","2","571942","2992","NA","568698","569735","2880","143599","569737","538531","135253","570739","573945","575050","56084","573945","New experiment","70","74305.0","83","1024"
"84","84","893","893","#3d3846","experiment","legacy","legacy","legacy","1","undefined","1","right","83","0","0","83","83","0","0","83","83","0","83","83","83","0","83","Sun Oct 15 14:28:41 2023","The main experiment item","True","Sternberg Task Elizabeth McGibbon .osexp","/Users/izzymcgibbon/Desktop/College/Tarleton State /2023 /Fall /Stats /3.0 ","False","mono","False","18","no","white","no","yes","768","legacy","71","11","/Users/izzymcgibbon/Desktop/College/Tarleton State /2023 /Fall /Stats /3.0 /EWMsubject-2.csv","legacy","7 3 2 8","Melodramatic Milgram","4.0.5","0","n","0","right","right","NA","left","right","751.0","53035","NA","8345","751","2","legacy","4","1024","2","48000","-16","experiment","2","even","4","578298","2992","NA","575052","576092","2880","143599","576093","538531","135253","577095","580300","581051","56084","580300","New experiment","71","75056.0","84","1024"
"84","84","890","890","#3d3846","experiment","legacy","legacy","legacy","1","undefined","1","right","84","0","0","84","84","0","0","84","84","0","84","84","84","0","84","Sun Oct 15 14:28:41 2023","The main experiment item","True","Sternberg Task Elizabeth McGibbon .osexp","/Users/izzymcgibbon/Desktop/College/Tarleton State /2023 /Fall /Stats /3.0 ","False","mono","False","18","no","white","no","yes","768","legacy","72","11","/Users/izzymcgibbon/Desktop/College/Tarleton State /2023 /Fall /Stats /3.0 /EWMsubject-2.csv","legacy","2 7 5","Melodramatic Milgram","4.0.5","0","n","0","right","right","NA","left","right","648.0","53035","NA","8345","648","2","legacy","3","1024","2","48000","-16","experiment","2","even","8","584304","2992","NA","581054","582097","2880","143599","582099","538531","135253","583101","586306","586955","56084","586306","New experiment","72","75704.0","85","1024"
"84","84","890","890","#3d3846","experiment","legacy","legacy","legacy","1","undefined","1","right","85","0","0","85","85","0","0","85","85","0","85","85","85","0","85","Sun Oct 15 14:28:41 2023","The main experiment item","True","Sternberg Task Elizabeth McGibbon .osexp","/Users/izzymcgibbon/Desktop/College/Tarleton State /2023 /Fall /Stats /3.0 ","False","mono","False","18","no","white","no","yes","768","legacy","73","11","/Users/izzymcgibbon/Desktop/College/Tarleton State /2023 /Fall /Stats /3.0 /EWMsubject-2.csv","legacy","3 4 9 6 7 8","Melodramatic Milgram","4.0.5","0","n","0","right","right","NA","left","right","859.0","53035","NA","8345","859","2","legacy","6","1024","2","48000","-16","experiment","2","even","2","590210","2992","NA","586958","588003","2880","143599","588005","538531","135253","589008","592213","593073","56084","592213","New experiment","73","76563.0","86","1024"
"85","85","886","886","#3d3846","experiment","legacy","legacy","legacy","1","undefined","1","left","86","0","0","86","86","0","0","86","86","0","86","86","86","0","86","Sun Oct 15 14:28:41 2023","The main experiment item","True","Sternberg Task Elizabeth McGibbon .osexp","/Users/izzymcgibbon/Desktop/College/Tarleton State /2023 /Fall /Stats /3.0 ","False","mono","False","18","no","white","no","yes","768","legacy","74","11","/Users/izzymcgibbon/Desktop/College/Tarleton State /2023 /Fall /Stats /3.0 /EWMsubject-2.csv","legacy","8 9 5 6 7","Melodramatic Milgram","4.0.5","1","y","0","left","right","NA","left","left","581.0","53035","NA","8345","581","2","legacy","5","1024","2","48000","-16","experiment","2","even","8","596329","2992","NA","593076","594121","2880","143599","594123","538531","135253","595126","598331","598913","56084","598331","New experiment","74","77144.0","87","1024"
"85","85","884","884","#3d3846","experiment","legacy","legacy","legacy","1","undefined","1","left","87","0","0","87","87","0","0","87","87","0","87","87","87","0","87","Sun Oct 15 14:28:41 2023","The main experiment item","True","Sternberg Task Elizabeth McGibbon .osexp","/Users/izzymcgibbon/Desktop/College/Tarleton State /2023 /Fall /Stats /3.0 ","False","mono","False","18","no","white","no","yes","768","legacy","75","11","/Users/izzymcgibbon/Desktop/College/Tarleton State /2023 /Fall /Stats /3.0 /EWMsubject-2.csv","legacy","8 5 1 3 9","Melodramatic Milgram","4.0.5","4","y","0","left","right","NA","left","left","671.0","53035","NA","8345","671","2","legacy","5","1024","2","48000","-16","experiment","2","even","3","602176","2992","NA","598917","599969","2880","143599","599971","538531","135253","600973","604179","604851","56084","604178","New experiment","75","77815.0","88","1024"
"85","85","881","881","#3d3846","experiment","legacy","legacy","legacy","1","undefined","1","left","88","0","0","88","88","0","0","88","88","0","88","88","88","0","88","Sun Oct 15 14:28:41 2023","The main experiment item","True","Sternberg Task Elizabeth McGibbon .osexp","/Users/izzymcgibbon/Desktop/College/Tarleton State /2023 /Fall /Stats /3.0 ","False","mono","False","18","no","white","no","yes","768","legacy","76","11","/Users/izzymcgibbon/Desktop/College/Tarleton State /2023 /Fall /Stats /3.0 /EWMsubject-2.csv","legacy","7 6","Melodramatic Milgram","4.0.5","2","y","0","left","right","NA","left","left","619.0","53035","NA","8345","619","2","legacy","2","1024","2","48000","-16","experiment","2","even","6","608097","2992","NA","604854","605890","2880","143599","605892","538531","135253","606894","610100","610720","56084","610099","New experiment","76","78434.0","89","1024"
"85","85","879","879","#3d3846","experiment","legacy","legacy","legacy","1","undefined","1","right","89","0","0","89","89","0","0","89","89","0","89","89","89","0","89","Sun Oct 15 14:28:41 2023","The main experiment item","True","Sternberg Task Elizabeth McGibbon .osexp","/Users/izzymcgibbon/Desktop/College/Tarleton State /2023 /Fall /Stats /3.0 ","False","mono","False","18","no","white","no","yes","768","legacy","77","11","/Users/izzymcgibbon/Desktop/College/Tarleton State /2023 /Fall /Stats /3.0 /EWMsubject-2.csv","legacy","7 9 1 6","Melodramatic Milgram","4.0.5","0","n","0","right","right","NA","left","right","738.0","53035","NA","8345","738","2","legacy","4","1024","2","48000","-16","experiment","2","even","4","613970","2992","NA","610723","611763","2880","143599","611765","538531","135253","612767","615973","616712","56084","615972","New experiment","77","79172.0","90","1024"
"84","84","880","880","#3d3846","experiment","legacy","legacy","legacy","0","undefined","0","left","90","0","0","90","90","0","0","90","90","0","90","90","90","0","90","Sun Oct 15 14:28:41 2023","The main experiment item","True","Sternberg Task Elizabeth McGibbon .osexp","/Users/izzymcgibbon/Desktop/College/Tarleton State /2023 /Fall /Stats /3.0 ","False","mono","False","18","no","white","no","yes","768","legacy","78","11","/Users/izzymcgibbon/Desktop/College/Tarleton State /2023 /Fall /Stats /3.0 /EWMsubject-2.csv","legacy","6 8 9 3 4 9","Melodramatic Milgram","4.0.5","5","y","0","right","right","NA","left","right","976.0","53035","NA","8345","976","2","legacy","6","1024","2","48000","-16","experiment","2","even","4","619965","2992","NA","616715","617758","2880","143599","617760","538531","135253","618762","621967","622943","56084","621967","New experiment","77","80148.0","91","1024"
"84","84","877","877","#3d3846","experiment","legacy","legacy","legacy","1","undefined","1","left","91","0","0","91","91","0","0","91","91","0","91","91","91","0","91","Sun Oct 15 14:28:41 2023","The main experiment item","True","Sternberg Task Elizabeth McGibbon .osexp","/Users/izzymcgibbon/Desktop/College/Tarleton State /2023 /Fall /Stats /3.0 ","False","mono","False","18","no","white","no","yes","768","legacy","79","11","/Users/izzymcgibbon/Desktop/College/Tarleton State /2023 /Fall /Stats /3.0 /EWMsubject-2.csv","legacy","2 3","Melodramatic Milgram","4.0.5","1","y","0","left","right","NA","left","left","583.0","53035","NA","8345","583","2","legacy","2","1024","2","48000","-16","experiment","2","even","2","626198","2992","NA","616715","623990","2880","143599","623992","622947","135253","624994","628201","628785","56084","628200","New experiment","78","80731.0","92","1024"
"83","83","877","877","#3d3846","experiment","legacy","legacy","legacy","0","undefined","0","left","92","0","0","92","92","0","0","92","92","0","92","92","92","0","92","Sun Oct 15 14:28:41 2023","The main experiment item","True","Sternberg Task Elizabeth McGibbon .osexp","/Users/izzymcgibbon/Desktop/College/Tarleton State /2023 /Fall /Stats /3.0 ","False","mono","False","18","no","white","no","yes","768","legacy","80","11","/Users/izzymcgibbon/Desktop/College/Tarleton State /2023 /Fall /Stats /3.0 /EWMsubject-2.csv","legacy","6 9 3 1","Melodramatic Milgram","4.0.5","4","y","0","right","right","NA","left","right","890.0","53035","NA","8345","890","2","legacy","4","1024","2","48000","-16","experiment","2","even","1","632039","2992","NA","628788","629832","2880","143599","629834","622947","135253","630836","634042","634933","56084","634042","New experiment","78","81621.0","93","1024"
"84","84","875","875","#3d3846","experiment","legacy","legacy","legacy","1","undefined","1","left","93","0","0","93","93","0","0","93","93","0","93","93","93","0","93","Sun Oct 15 14:28:41 2023","The main experiment item","True","Sternberg Task Elizabeth McGibbon .osexp","/Users/izzymcgibbon/Desktop/College/Tarleton State /2023 /Fall /Stats /3.0 ","False","mono","False","18","no","white","no","yes","768","legacy","81","11","/Users/izzymcgibbon/Desktop/College/Tarleton State /2023 /Fall /Stats /3.0 /EWMsubject-2.csv","legacy","3 5 9 6 2 4","Melodramatic Milgram","4.0.5","1","y","0","left","right","NA","left","left","703.0","53035","NA","8345","703","2","legacy","6","1024","2","48000","-16","experiment","2","even","3","638198","2992","NA","628788","635990","2880","143599","635992","634936","135253","636995","640201","640905","56084","640200","New experiment","79","82324.0","94","1024"
"84","84","878","878","#3d3846","experiment","legacy","legacy","legacy","1","undefined","1","right","94","0","0","94","94","0","0","94","94","0","94","94","94","0","94","Sun Oct 15 14:28:41 2023","The main experiment item","True","Sternberg Task Elizabeth McGibbon .osexp","/Users/izzymcgibbon/Desktop/College/Tarleton State /2023 /Fall /Stats /3.0 ","False","mono","False","18","no","white","no","yes","768","legacy","82","11","/Users/izzymcgibbon/Desktop/College/Tarleton State /2023 /Fall /Stats /3.0 /EWMsubject-2.csv","legacy","1 7 8 3 9","Melodramatic Milgram","4.0.5","0","n","0","right","right","NA","left","right","1180.0","53035","NA","8345","1180","2","legacy","5","1024","2","48000","-16","experiment","2","even","2","644147","2992","NA","640909","641941","2880","143599","641943","634936","135253","642945","646150","647331","56084","646150","New experiment","80","83504.0","95","1024"
"84","84","876","876","#3d3846","experiment","legacy","legacy","legacy","1","undefined","1","left","95","0","0","95","95","0","0","95","95","0","95","95","95","0","95","Sun Oct 15 14:28:41 2023","The main experiment item","True","Sternberg Task Elizabeth McGibbon .osexp","/Users/izzymcgibbon/Desktop/College/Tarleton State /2023 /Fall /Stats /3.0 ","False","mono","False","18","no","white","no","yes","768","legacy","83","11","/Users/izzymcgibbon/Desktop/College/Tarleton State /2023 /Fall /Stats /3.0 /EWMsubject-2.csv","legacy","8 3","Melodramatic Milgram","4.0.5","2","y","0","left","right","NA","left","left","665.0","53035","NA","8345","665","2","legacy","2","1024","2","48000","-16","experiment","2","even","3","650580","2992","NA","647333","648373","2880","143599","648375","634936","135253","649377","652583","653248","56084","652582","New experiment","81","84169.0","96","1024"
"84","84","873","873","#3d3846","experiment","legacy","legacy","legacy","1","undefined","1","right","96","0","0","96","96","0","0","96","96","0","96","96","96","0","96","Sun Oct 15 14:28:41 2023","The main experiment item","True","Sternberg Task Elizabeth McGibbon .osexp","/Users/izzymcgibbon/Desktop/College/Tarleton State /2023 /Fall /Stats /3.0 ","False","mono","False","18","no","white","no","yes","768","legacy","84","11","/Users/izzymcgibbon/Desktop/College/Tarleton State /2023 /Fall /Stats /3.0 /EWMsubject-2.csv","legacy","5","Melodramatic Milgram","4.0.5","0","n","0","right","right","NA","left","right","561.0","53035","NA","8345","561","2","legacy","1","1024","2","48000","-16","experiment","2","even","8","656499","2992","NA","653252","654292","2880","143599","654294","634936","135253","655296","658501","659063","56084","658501","New experiment","82","84730.0","97","1024"
"84","84","872","872","#3d3846","experiment","legacy","legacy","legacy","1","undefined","1","left","97","0","0","97","97","0","0","97","97","0","97","97","97","0","97","Sun Oct 15 14:28:41 2023","The main experiment item","True","Sternberg Task Elizabeth McGibbon .osexp","/Users/izzymcgibbon/Desktop/College/Tarleton State /2023 /Fall /Stats /3.0 ","False","mono","False","18","no","white","no","yes","768","legacy","85","11","/Users/izzymcgibbon/Desktop/College/Tarleton State /2023 /Fall /Stats /3.0 /EWMsubject-2.csv","legacy","2 8 5 1","Melodramatic Milgram","4.0.5","4","y","0","left","right","NA","left","left","760.0","53035","NA","8345","760","2","legacy","4","1024","2","48000","-16","experiment","2","even","1","662327","2992","NA","659072","660121","2880","143599","660123","634936","135253","661125","664329","665090","56084","664329","New experiment","83","85490.0","98","1024"
"84","84","877","877","#3d3846","experiment","legacy","legacy","legacy","1","undefined","1","right","98","0","0","98","98","0","0","98","98","0","98","98","98","0","98","Sun Oct 15 14:28:41 2023","The main experiment item","True","Sternberg Task Elizabeth McGibbon .osexp","/Users/izzymcgibbon/Desktop/College/Tarleton State /2023 /Fall /Stats /3.0 ","False","mono","False","18","no","white","no","yes","768","legacy","86","11","/Users/izzymcgibbon/Desktop/College/Tarleton State /2023 /Fall /Stats /3.0 /EWMsubject-2.csv","legacy","2 8 6 3 1","Melodramatic Milgram","4.0.5","0","n","0","right","right","NA","left","right","1352.0","53035","NA","8345","1352","2","legacy","5","1024","2","48000","-16","experiment","2","even","7","668350","2992","NA","665093","666142","2880","143599","666144","634936","135253","667146","670353","671706","56084","670353","New experiment","84","86842.0","99","1024"
"85","85","876","876","#3d3846","experiment","legacy","legacy","legacy","1","undefined","1","right","99","0","0","99","99","0","0","99","99","0","99","99","99","0","99","Sun Oct 15 14:28:41 2023","The main experiment item","True","Sternberg Task Elizabeth McGibbon .osexp","/Users/izzymcgibbon/Desktop/College/Tarleton State /2023 /Fall /Stats /3.0 ","False","mono","False","18","no","white","no","yes","768","legacy","87","11","/Users/izzymcgibbon/Desktop/College/Tarleton State /2023 /Fall /Stats /3.0 /EWMsubject-2.csv","legacy","2 8 9","Melodramatic Milgram","4.0.5","0","n","0","right","right","NA","left","right","778.0","53035","NA","8345","778","2","legacy","3","1024","2","48000","-16","experiment","2","even","6","674993","2992","NA","671709","672786","2880","143599","672788","634936","135253","673790","676995","677774","56084","676995","New experiment","85","87620.0","100","1024"
"85","85","875","875","#3d3846","experiment","legacy","legacy","legacy","1","undefined","1","right","100","0","0","100","100","0","0","100","100","0","100","100","100","0","100","Sun Oct 15 14:28:41 2023","The main experiment item","True","Sternberg Task Elizabeth McGibbon .osexp","/Users/izzymcgibbon/Desktop/College/Tarleton State /2023 /Fall /Stats /3.0 ","False","mono","False","18","no","white","no","yes","768","legacy","88","11","/Users/izzymcgibbon/Desktop/College/Tarleton State /2023 /Fall /Stats /3.0 /EWMsubject-2.csv","legacy","2 8 9 4 1","Melodramatic Milgram","4.0.5","0","n","0","right","right","NA","left","right","839.0","53035","NA","8345","839","2","legacy","5","1024","2","48000","-16","experiment","2","even","5","681021","2992","NA","677777","678815","2880","143599","678817","634936","135253","679819","683023","683863","56084","683023","New experiment","86","88459.0","101","1024"
"85","85","877","877","#3d3846","experiment","legacy","legacy","legacy","1","undefined","1","right","101","0","0","101","101","0","0","101","101","0","101","101","101","0","101","Sun Oct 15 14:28:41 2023","The main experiment item","True","Sternberg Task Elizabeth McGibbon .osexp","/Users/izzymcgibbon/Desktop/College/Tarleton State /2023 /Fall /Stats /3.0 ","False","mono","False","18","no","white","no","yes","768","legacy","89","11","/Users/izzymcgibbon/Desktop/College/Tarleton State /2023 /Fall /Stats /3.0 /EWMsubject-2.csv","legacy","6 7 5 9","Melodramatic Milgram","4.0.5","0","n","0","right","right","NA","left","right","1046.0","53035","NA","8345","1046","2","legacy","4","1024","2","48000","-16","experiment","2","even","2","687114","2992","NA","683866","684907","2880","143599","684909","634936","135253","685911","689116","690162","56084","689116","New experiment","87","89505.0","102","1024"
"85","85","875","875","#3d3846","experiment","legacy","legacy","legacy","1","undefined","1","left","102","0","0","102","102","0","0","102","102","0","102","102","102","0","102","Sun Oct 15 14:28:41 2023","The main experiment item","True","Sternberg Task Elizabeth McGibbon .osexp","/Users/izzymcgibbon/Desktop/College/Tarleton State /2023 /Fall /Stats /3.0 ","False","mono","False","18","no","white","no","yes","768","legacy","90","11","/Users/izzymcgibbon/Desktop/College/Tarleton State /2023 /Fall /Stats /3.0 /EWMsubject-2.csv","legacy","9 1 6 7 8","Melodramatic Milgram","4.0.5","1","y","0","left","right","NA","left","left","650.0","53035","NA","8345","650","2","legacy","5","1024","2","48000","-16","experiment","2","even","9","693414","2992","NA","690165","691207","2880","143599","691208","634936","135253","692210","695416","696067","56084","695416","New experiment","88","90155.0","103","1024"
"85","85","872","872","#3d3846","experiment","legacy","legacy","legacy","1","undefined","1","left","103","0","0","103","103","0","0","103","103","0","103","103","103","0","103","Sun Oct 15 14:28:41 2023","The main experiment item","True","Sternberg Task Elizabeth McGibbon .osexp","/Users/izzymcgibbon/Desktop/College/Tarleton State /2023 /Fall /Stats /3.0 ","False","mono","False","18","no","white","no","yes","768","legacy","91","11","/Users/izzymcgibbon/Desktop/College/Tarleton State /2023 /Fall /Stats /3.0 /EWMsubject-2.csv","legacy","6 5","Melodramatic Milgram","4.0.5","2","y","0","left","right","NA","left","left","538.0","53035","NA","8345","538","2","legacy","2","1024","2","48000","-16","experiment","2","even","5","699320","2992","NA","696070","697114","2880","143599","697116","634936","135253","698118","701323","701861","56084","701323","New experiment","89","90693.0","104","1024"
"85","85","872","872","#3d3846","experiment","legacy","legacy","legacy","1","undefined","1","left","104","0","0","104","104","0","0","104","104","0","104","104","104","0","104","Sun Oct 15 14:28:41 2023","The main experiment item","True","Sternberg Task Elizabeth McGibbon .osexp","/Users/izzymcgibbon/Desktop/College/Tarleton State /2023 /Fall /Stats /3.0 ","False","mono","False","18","no","white","no","yes","768","legacy","92","11","/Users/izzymcgibbon/Desktop/College/Tarleton State /2023 /Fall /Stats /3.0 /EWMsubject-2.csv","legacy","3 9 6 2","Melodramatic Milgram","4.0.5","4","y","0","left","right","NA","left","left","888.0","53035","NA","8345","888","2","legacy","4","1024","2","48000","-16","experiment","2","even","2","705119","2992","NA","701865","702911","2880","143599","702913","634936","135253","703916","707121","708009","56084","707121","New experiment","90","91581.0","105","1024"
"85","85","870","870","#3d3846","experiment","legacy","legacy","legacy","1","undefined","1","left","105","0","0","105","105","0","0","105","105","0","105","105","105","0","105","Sun Oct 15 14:28:41 2023","The main experiment item","True","Sternberg Task Elizabeth McGibbon .osexp","/Users/izzymcgibbon/Desktop/College/Tarleton State /2023 /Fall /Stats /3.0 ","False","mono","False","18","no","white","no","yes","768","legacy","93","11","/Users/izzymcgibbon/Desktop/College/Tarleton State /2023 /Fall /Stats /3.0 /EWMsubject-2.csv","legacy","2 4 6 9","Melodramatic Milgram","4.0.5","3","y","0","left","right","NA","left","left","652.0","53035","NA","8345","652","2","legacy","4","1024","2","48000","-16","experiment","2","even","6","711274","2992","NA","708013","709066","2880","143599","709068","634936","135253","710071","713276","713929","56084","713276","New experiment","91","92233.0","106","1024"
"85","85","869","869","#3d3846","experiment","legacy","legacy","legacy","1","undefined","1","right","106","0","0","106","106","0","0","106","106","0","106","106","106","0","106","Sun Oct 15 14:28:41 2023","The main experiment item","True","Sternberg Task Elizabeth McGibbon .osexp","/Users/izzymcgibbon/Desktop/College/Tarleton State /2023 /Fall /Stats /3.0 ","False","mono","False","18","no","white","no","yes","768","legacy","94","11","/Users/izzymcgibbon/Desktop/College/Tarleton State /2023 /Fall /Stats /3.0 /EWMsubject-2.csv","legacy","1 7 5 2 9","Melodramatic Milgram","4.0.5","0","n","0","right","right","NA","left","right","838.0","53035","NA","8345","838","2","legacy","5","1024","2","48000","-16","experiment","2","even","3","717176","2992","NA","713933","714969","2880","143599","714971","634936","135253","715973","719178","720017","56084","719178","New experiment","92","93071.0","107","1024"
"86","86","868","868","#3d3846","experiment","legacy","legacy","legacy","1","undefined","1","right","107","0","0","107","107","0","0","107","107","0","107","107","107","0","107","Sun Oct 15 14:28:41 2023","The main experiment item","True","Sternberg Task Elizabeth McGibbon .osexp","/Users/izzymcgibbon/Desktop/College/Tarleton State /2023 /Fall /Stats /3.0 ","False","mono","False","18","no","white","no","yes","768","legacy","95","11","/Users/izzymcgibbon/Desktop/College/Tarleton State /2023 /Fall /Stats /3.0 /EWMsubject-2.csv","legacy","1 8 7","Melodramatic Milgram","4.0.5","0","n","0","right","right","NA","left","right","736.0","53035","NA","8345","736","2","legacy","3","1024","2","48000","-16","experiment","2","even","4","723266","2992","NA","720020","721061","2880","143599","721062","634936","135253","722064","725269","726006","56084","725269","New experiment","93","93807.0","108","1024"
"86","86","870","870","#3d3846","experiment","legacy","legacy","legacy","1","undefined","1","right","108","0","0","108","108","0","0","108","108","0","108","108","108","0","108","Sun Oct 15 14:28:41 2023","The main experiment item","True","Sternberg Task Elizabeth McGibbon .osexp","/Users/izzymcgibbon/Desktop/College/Tarleton State /2023 /Fall /Stats /3.0 ","False","mono","False","18","no","white","no","yes","768","legacy","96","11","/Users/izzymcgibbon/Desktop/College/Tarleton State /2023 /Fall /Stats /3.0 /EWMsubject-2.csv","legacy","7 8 6 1","Melodramatic Milgram","4.0.5","0","n","0","right","right","NA","left","right","1117.0","53035","NA","8345","1117","2","legacy","4","1024","2","48000","-16","experiment","2","even","3","729262","2992","NA","726009","727054","2880","143599","727056","634936","135253","728059","731264","732382","56084","731264","New experiment","94","94924.0","109","1024"
"86","86","874","874","#3d3846","experiment","legacy","legacy","legacy","1","undefined","1","right","109","0","0","109","109","0","0","109","109","0","109","109","109","0","109","Sun Oct 15 14:28:41 2023","The main experiment item","True","Sternberg Task Elizabeth McGibbon .osexp","/Users/izzymcgibbon/Desktop/College/Tarleton State /2023 /Fall /Stats /3.0 ","False","mono","False","18","no","white","no","yes","768","legacy","97","11","/Users/izzymcgibbon/Desktop/College/Tarleton State /2023 /Fall /Stats /3.0 /EWMsubject-2.csv","legacy","1 4 3 6 5","Melodramatic Milgram","4.0.5","0","n","0","right","right","NA","left","right","1225.0","53035","NA","8345","1225","2","legacy","5","1024","2","48000","-16","experiment","2","even","8","735639","2992","NA","732385","733432","2880","143599","733433","634936","135253","734435","737641","738867","56084","737641","New experiment","95","96149.0","110","1024"
