"acc","accuracy","average_response_time","avg_rt","background","block","canvas_backend","clock_backend","color_backend","compensation","coordinates","correct","correct_instruction1","correct_new_keyboard_response","correct_response","count_ISI","count_correctFeedback","count_expSequence","count_experiment","count_experimentLoop","count_fixation","count_incorrectFeedback","count_instruction1","count_instructions2","count_logger","count_memorySet","count_new_keyboard_response","count_practiceLoop","count_probe","count_thankYou","datetime","description","disable_garbage_collection","experiment_file","experiment_path","font_bold","font_family","font_italic","font_size","font_underline","foreground","form_clicks","fullscreen","height","keyboard_backend","live_row","live_row_practiceLoop","logfile","mouse_backend","numberSet","opensesame_codename","opensesame_version","posInSet","present","repeat_cycle","response","response_instruction1","response_instructions2","response_new_keyboard_response","response_thankYou","response_time","response_time_instruction1","response_time_instructions2","response_time_new_keyboard_response","response_time_thankYou","round_decimals","sampler_backend","setSize","sound_buf_size","sound_channels","sound_freq","sound_sample_size","start","subject_nr","subject_parity","target","time_ISI","time_correctFeedback","time_expSequence","time_experiment","time_experimentLoop","time_fixation","time_incorrectFeedback","time_instruction1","time_instructions2","time_logger","time_memorySet","time_new_keyboard_response","time_practiceLoop","time_probe","time_thankYou","title","total_correct","total_response_time","total_responses","uniform_coordinates","width"
"0","0","872","872","black","practice","legacy","legacy","legacy","0","uniform","0","undefined","0","left","0","0","0","0","0","0","0","0","0","0","0","0","0","0","0","Sun Oct 25 19:22:56 2020","The main experiment item","yes","Sternbergtask oct 19.osexp","/Users/shelia/Desktop","no","mono","no","18","no","white","no","yes","768","legacy","0","0","/Users/shelia/Desktop/ST subject-4 Oct 25.csv","legacy","2 9 4","Lentiform Loewenfeld","3.3.3","3","y","0","right","right","NA","right","NA","872","25894","NA","872","NA","2","legacy","3","1024","2","48000","-16","experiment","4","even","4","31079","NA","28822","2621","NA","28835","NA","2636","NA","33971","29856","33099","28545","33099","NA","Sternberg task","0","872","1","yes","1024"
"50","50","699.5","699.5","black","practice","legacy","legacy","legacy","0","uniform","1","undefined","1","right","1","1","1","0","0","1","1","0","0","1","1","1","0","1","0","Sun Oct 25 19:22:56 2020","The main experiment item","yes","Sternbergtask oct 19.osexp","/Users/shelia/Desktop","no","mono","no","18","no","white","no","yes","768","legacy","1","1","/Users/shelia/Desktop/ST subject-4 Oct 25.csv","legacy","4 1 5","Lentiform Loewenfeld","3.3.3","0","n","0","right","right","NA","right","NA","527","25894","NA","527","NA","2","legacy","3","1024","2","48000","-16","experiment","4","even","2","37354","NA","35090","2621","NA","35103","34012","2636","NA","39900","36126","39373","28545","39373","NA","Sternberg task","1","1399","2","yes","1024"
"66.66666666666667","66.66666666666667","718.3333333333334","718.3333333333334","black","practice","legacy","legacy","legacy","0","uniform","1","undefined","1","left","2","2","2","0","0","2","2","0","0","2","2","2","0","2","0","Sun Oct 25 19:22:56 2020","The main experiment item","yes","Sternbergtask oct 19.osexp","/Users/shelia/Desktop","no","mono","no","18","no","white","no","yes","768","legacy","2","2","/Users/shelia/Desktop/ST subject-4 Oct 25.csv","legacy","1 7 9 8 5","Lentiform Loewenfeld","3.3.3","4","y","0","left","right","NA","left","NA","756","25894","NA","756","NA","2","legacy","5","1024","2","48000","-16","experiment","4","even","8","43234","39916","40978","2621","NA","40991","34012","2636","NA","46014","42011","45258","28545","45258","NA","Sternberg task","2","2155","3","yes","1024"
"75","75","668.25","668.25","black","practice","legacy","legacy","legacy","0","uniform","1","undefined","1","right","3","3","3","0","0","3","3","0","0","3","3","3","0","3","0","Sun Oct 25 19:22:56 2020","The main experiment item","yes","Sternbergtask oct 19.osexp","/Users/shelia/Desktop","no","mono","no","18","no","white","no","yes","768","legacy","3","3","/Users/shelia/Desktop/ST subject-4 Oct 25.csv","legacy","3 1 9 4","Lentiform Loewenfeld","3.3.3","0","n","0","right","right","NA","right","NA","518","25894","NA","518","NA","2","legacy","4","1024","2","48000","-16","experiment","4","even","6","49350","46029","47093","2621","NA","47106","34012","2636","NA","51888","48126","51369","28545","51369","NA","Sternberg task","3","2673","4","yes","1024"
"80","80","657.6","657.6","black","practice","legacy","legacy","legacy","0","uniform","1","undefined","1","right","4","4","4","0","0","4","4","0","0","4","4","4","0","4","0","Sun Oct 25 19:22:56 2020","The main experiment item","yes","Sternbergtask oct 19.osexp","/Users/shelia/Desktop","no","mono","no","18","no","white","no","yes","768","legacy","4","4","/Users/shelia/Desktop/ST subject-4 Oct 25.csv","legacy","5 7 8 4 1 2","Lentiform Loewenfeld","3.3.3","0","n","0","right","right","NA","right","NA","615","25894","NA","615","NA","2","legacy","6","1024","2","48000","-16","experiment","4","even","6","55224","51903","52966","2621","NA","52979","34012","2636","NA","57859","53999","57243","28545","57243","NA","Sternberg task","4","3288","5","yes","1024"
"83.33333333333333","83.33333333333333","737.3333333333334","737.3333333333334","black","practice","legacy","legacy","legacy","0","uniform","1","undefined","1","right","5","5","5","0","0","5","5","0","0","5","5","5","0","5","0","Sun Oct 25 19:22:56 2020","The main experiment item","yes","Sternbergtask oct 19.osexp","/Users/shelia/Desktop","no","mono","no","18","no","white","no","yes","768","legacy","5","5","/Users/shelia/Desktop/ST subject-4 Oct 25.csv","legacy","5","Lentiform Loewenfeld","3.3.3","0","n","0","right","right","NA","right","NA","1136","25894","NA","1136","NA","2","legacy","1","1024","2","48000","-16","experiment","4","even","3","61196","57876","58937","2621","NA","58952","34012","2636","NA","64352","59974","63216","28545","63216","NA","Sternberg task","5","4424","6","yes","1024"
"85.71428571428571","85.71428571428571","702.2857142857143","702.2857142857143","black","practice","legacy","legacy","legacy","0","uniform","1","undefined","1","left","6","6","6","0","0","6","6","0","0","6","6","6","0","6","0","Sun Oct 25 19:22:56 2020","The main experiment item","yes","Sternbergtask oct 19.osexp","/Users/shelia/Desktop","no","mono","no","18","no","white","no","yes","768","legacy","6","6","/Users/shelia/Desktop/ST subject-4 Oct 25.csv","legacy","4 3 1 7 9 8","Lentiform Loewenfeld","3.3.3","1","y","0","left","right","NA","left","NA","492","25894","NA","492","NA","2","legacy","6","1024","2","48000","-16","experiment","4","even","4","67686","64367","65429","2621","NA","65442","34012","2636","NA","70199","66462","69706","28545","69706","NA","Sternberg task","6","4916","7","yes","1024"
"87.5","87.5","681.625","681.625","black","practice","legacy","legacy","legacy","0","uniform","1","undefined","1","left","7","7","7","0","0","7","7","0","0","7","7","7","0","7","0","Sun Oct 25 19:22:56 2020","The main experiment item","yes","Sternbergtask oct 19.osexp","/Users/shelia/Desktop","no","mono","no","18","no","white","no","yes","768","legacy","7","7","/Users/shelia/Desktop/ST subject-4 Oct 25.csv","legacy","6","Lentiform Loewenfeld","3.3.3","1","y","0","left","right","NA","left","NA","537","25894","NA","537","NA","2","legacy","1","1024","2","48000","-16","experiment","4","even","6","73534","70214","71277","2621","NA","71290","34012","2636","NA","76091","72311","75553","28545","75553","NA","Sternberg task","7","5453","8","yes","1024"
"77.77777777777777","77.77777777777777","692.5555555555555","692.5555555555555","black","practice","legacy","legacy","legacy","0","uniform","0","undefined","0","right","8","8","8","0","0","8","8","0","0","8","8","8","0","8","0","Sun Oct 25 19:22:56 2020","The main experiment item","yes","Sternbergtask oct 19.osexp","/Users/shelia/Desktop","no","mono","no","18","no","white","no","yes","768","legacy","8","8","/Users/shelia/Desktop/ST subject-4 Oct 25.csv","legacy","9 6 7 4 5","Lentiform Loewenfeld","3.3.3","0","n","0","left","right","NA","left","NA","780","25894","NA","780","NA","2","legacy","5","1024","2","48000","-16","experiment","4","even","3","79428","76106","77169","2621","NA","77184","34012","2636","NA","82229","78205","81448","28545","81448","NA","Sternberg task","7","6233","9","yes","1024"
"80","80","685.2","685.2","black","practice","legacy","legacy","legacy","0","uniform","1","undefined","1","left","9","9","9","0","0","9","9","0","0","9","9","9","0","9","0","Sun Oct 25 19:22:56 2020","The main experiment item","yes","Sternbergtask oct 19.osexp","/Users/shelia/Desktop","no","mono","no","18","no","white","no","yes","768","legacy","9","9","/Users/shelia/Desktop/ST subject-4 Oct 25.csv","legacy","1 5 2 9","Lentiform Loewenfeld","3.3.3","2","y","0","left","right","NA","left","NA","619","25894","NA","619","NA","2","legacy","4","1024","2","48000","-16","experiment","4","even","5","85564","76106","83307","2621","NA","83320","82244","2636","NA","88202","84341","87583","28545","87583","NA","Sternberg task","8","6852","10","yes","1024"
"81.81818181818181","81.81818181818181","682.1818181818181","682.1818181818181","black","practice","legacy","legacy","legacy","0","uniform","1","undefined","1","left","10","10","10","0","0","10","10","0","0","10","10","10","0","10","0","Sun Oct 25 19:22:56 2020","The main experiment item","yes","Sternbergtask oct 19.osexp","/Users/shelia/Desktop","no","mono","no","18","no","white","no","yes","768","legacy","10","10","/Users/shelia/Desktop/ST subject-4 Oct 25.csv","legacy","4 8","Lentiform Loewenfeld","3.3.3","1","y","0","left","right","NA","left","NA","652","25894","NA","652","NA","2","legacy","2","1024","2","48000","-16","experiment","4","even","4","91539","88218","89281","2621","NA","89295","82244","2636","NA","94212","90316","93559","28545","93558","NA","Sternberg task","9","7504","11","yes","1024"
"83.33333333333333","83.33333333333333","664.25","664.25","black","practice","legacy","legacy","legacy","0","uniform","1","undefined","1","right","11","11","11","0","0","11","11","0","0","11","11","11","0","11","0","Sun Oct 25 19:22:56 2020","The main experiment item","yes","Sternbergtask oct 19.osexp","/Users/shelia/Desktop","no","mono","no","18","no","white","no","yes","768","legacy","11","11","/Users/shelia/Desktop/ST subject-4 Oct 25.csv","legacy","2 1","Lentiform Loewenfeld","3.3.3","0","n","0","right","right","NA","right","NA","467","25894","NA","467","NA","2","legacy","2","1024","2","48000","-16","experiment","4","even","5","97547","94227","95289","2621","NA","95302","82244","2636","NA","100034","96324","99566","28545","99566","NA","Sternberg task","10","7971","12","yes","1024"
"84.61538461538461","84.61538461538461","660.1538461538462","660.1538461538462","black","experiment","legacy","legacy","legacy","0","uniform","1","undefined","1","right","12","12","12","0","0","12","12","0","0","12","12","12","0","12","0","Sun Oct 25 19:22:56 2020","The main experiment item","yes","Sternbergtask oct 19.osexp","/Users/shelia/Desktop","no","mono","no","18","no","white","no","yes","768","legacy","0","11","/Users/shelia/Desktop/ST subject-4 Oct 25.csv","legacy","8 6 3 4 7","Lentiform Loewenfeld","3.3.3","0","n","0","right","right","right","right","NA","611","25894","6271","611","NA","2","legacy","5","1024","2","48000","-16","experiment","4","even","1","109671","100049","107415","2621","107369","107428","82244","2636","101097","112302","108449","111690","28545","111690","NA","Sternberg task","11","8582","13","yes","1024"
"78.57142857142857","78.57142857142857","665.7857142857143","665.7857142857143","black","experiment","legacy","legacy","legacy","0","uniform","0","undefined","0","right","13","13","13","0","0","13","13","0","0","13","13","13","0","13","0","Sun Oct 25 19:22:56 2020","The main experiment item","yes","Sternbergtask oct 19.osexp","/Users/shelia/Desktop","no","mono","no","18","no","white","no","yes","768","legacy","1","11","/Users/shelia/Desktop/ST subject-4 Oct 25.csv","legacy","5 3 2 6 9 8","Lentiform Loewenfeld","3.3.3","0","n","0","left","right","right","left","NA","739","25894","6271","739","NA","2","legacy","6","1024","2","48000","-16","experiment","4","even","4","115638","112316","113381","2621","107369","113394","82244","2636","101097","118397","114415","117657","28545","117657","NA","Sternberg task","11","9321","14","yes","1024"
"80","80","663.3333333333334","663.3333333333334","black","experiment","legacy","legacy","legacy","0","uniform","1","undefined","1","left","14","14","14","0","0","14","14","0","0","14","14","14","0","14","0","Sun Oct 25 19:22:56 2020","The main experiment item","yes","Sternbergtask oct 19.osexp","/Users/shelia/Desktop","no","mono","no","18","no","white","no","yes","768","legacy","2","11","/Users/shelia/Desktop/ST subject-4 Oct 25.csv","legacy","7 1 8 5 6 2","Lentiform Loewenfeld","3.3.3","2","y","0","left","right","right","left","NA","629","25894","6271","629","NA","2","legacy","6","1024","2","48000","-16","experiment","4","even","1","121731","112316","119475","2621","107369","119488","118411","2636","101097","124381","120509","123751","28545","123751","NA","Sternberg task","12","9950","15","yes","1024"
"81.25","81.25","664.375","664.375","black","experiment","legacy","legacy","legacy","0","uniform","1","undefined","1","left","15","15","15","0","0","15","15","0","0","15","15","15","0","15","0","Sun Oct 25 19:22:56 2020","The main experiment item","yes","Sternbergtask oct 19.osexp","/Users/shelia/Desktop","no","mono","no","18","no","white","no","yes","768","legacy","3","11","/Users/shelia/Desktop/ST subject-4 Oct 25.csv","legacy","2 3 7 4","Lentiform Loewenfeld","3.3.3","1","y","0","left","right","right","left","NA","680","25894","6271","680","NA","2","legacy","4","1024","2","48000","-16","experiment","4","even","2","127714","124395","125457","2621","107369","125470","118411","2636","101097","130415","126491","129734","28545","129733","NA","Sternberg task","13","10630","16","yes","1024"
"82.3529411764706","82.3529411764706","660.4117647058823","660.4117647058823","black","experiment","legacy","legacy","legacy","0","uniform","1","undefined","1","right","16","16","16","0","0","16","16","0","0","16","16","16","0","16","0","Sun Oct 25 19:22:56 2020","The main experiment item","yes","Sternbergtask oct 19.osexp","/Users/shelia/Desktop","no","mono","no","18","no","white","no","yes","768","legacy","4","11","/Users/shelia/Desktop/ST subject-4 Oct 25.csv","legacy","1 6 4 3 9 7","Lentiform Loewenfeld","3.3.3","0","n","0","right","right","right","right","NA","597","25894","6271","597","NA","2","legacy","6","1024","2","48000","-16","experiment","4","even","8","133753","130431","131495","2621","107369","131508","118411","2636","101097","136370","132530","135772","28545","135772","NA","Sternberg task","14","11227","17","yes","1024"
"83.33333333333333","83.33333333333333","653.9444444444445","653.9444444444445","black","experiment","legacy","legacy","legacy","0","uniform","1","undefined","1","right","17","17","17","0","0","17","17","0","0","17","17","17","0","17","0","Sun Oct 25 19:22:56 2020","The main experiment item","yes","Sternbergtask oct 19.osexp","/Users/shelia/Desktop","no","mono","no","18","no","white","no","yes","768","legacy","5","11","/Users/shelia/Desktop/ST subject-4 Oct 25.csv","legacy","2 8 6 3 1","Lentiform Loewenfeld","3.3.3","0","n","0","right","right","right","right","NA","544","25894","6271","544","NA","2","legacy","5","1024","2","48000","-16","experiment","4","even","7","139704","136384","137447","2621","107369","137460","118411","2636","101097","142268","138481","141723","28545","141723","NA","Sternberg task","15","11771","18","yes","1024"
"84.21052631578948","84.21052631578948","648.3157894736842","648.3157894736842","black","experiment","legacy","legacy","legacy","0","uniform","1","undefined","1","right","18","18","18","0","0","18","18","0","0","18","18","18","0","18","0","Sun Oct 25 19:22:56 2020","The main experiment item","yes","Sternbergtask oct 19.osexp","/Users/shelia/Desktop","no","mono","no","18","no","white","no","yes","768","legacy","6","11","/Users/shelia/Desktop/ST subject-4 Oct 25.csv","legacy","6 2 9 3 8 4","Lentiform Loewenfeld","3.3.3","0","n","0","right","right","right","right","NA","547","25894","6271","547","NA","2","legacy","6","1024","2","48000","-16","experiment","4","even","1","145604","142283","143347","2621","107369","143360","118411","2636","101097","148171","144381","147623","28545","147623","NA","Sternberg task","16","12318","19","yes","1024"
"85","85","658.3","658.3","black","experiment","legacy","legacy","legacy","0","uniform","1","undefined","1","left","19","19","19","0","0","19","19","0","0","19","19","19","0","19","0","Sun Oct 25 19:22:56 2020","The main experiment item","yes","Sternbergtask oct 19.osexp","/Users/shelia/Desktop","no","mono","no","18","no","white","no","yes","768","legacy","7","11","/Users/shelia/Desktop/ST subject-4 Oct 25.csv","legacy","1 4 9 3 2 5","Lentiform Loewenfeld","3.3.3","3","y","0","left","right","right","left","NA","848","25894","6271","848","NA","2","legacy","6","1024","2","48000","-16","experiment","4","even","9","151507","148188","149249","2621","107369","149263","118411","2636","101097","154374","150284","153526","28545","153526","NA","Sternberg task","17","13166","20","yes","1024"
"85.71428571428571","85.71428571428571","657.3809523809524","657.3809523809524","black","experiment","legacy","legacy","legacy","0","uniform","1","undefined","1","left","20","20","20","0","0","20","20","0","0","20","20","20","0","20","0","Sun Oct 25 19:22:56 2020","The main experiment item","yes","Sternbergtask oct 19.osexp","/Users/shelia/Desktop","no","mono","no","18","no","white","no","yes","768","legacy","8","11","/Users/shelia/Desktop/ST subject-4 Oct 25.csv","legacy","7 8 4 6 9 5","Lentiform Loewenfeld","3.3.3","4","y","0","left","right","right","left","NA","639","25894","6271","639","NA","2","legacy","6","1024","2","48000","-16","experiment","4","even","6","157710","154389","155452","2621","107369","155465","118411","2636","101097","160369","156486","159729","28545","159729","NA","Sternberg task","18","13805","21","yes","1024"
"86.36363636363636","86.36363636363636","651.2727272727273","651.2727272727273","black","experiment","legacy","legacy","legacy","0","uniform","1","undefined","1","left","21","21","21","0","0","21","21","0","0","21","21","21","0","21","0","Sun Oct 25 19:22:56 2020","The main experiment item","yes","Sternbergtask oct 19.osexp","/Users/shelia/Desktop","no","mono","no","18","no","white","no","yes","768","legacy","9","11","/Users/shelia/Desktop/ST subject-4 Oct 25.csv","legacy","3 4","Lentiform Loewenfeld","3.3.3","1","y","0","left","right","right","left","NA","523","25894","6271","523","NA","2","legacy","2","1024","2","48000","-16","experiment","4","even","3","163705","160384","161447","2621","107369","161460","118411","2636","101097","166248","162481","165724","28545","165724","NA","Sternberg task","19","14328","22","yes","1024"
"86.95652173913044","86.95652173913044","647.3478260869565","647.3478260869565","black","experiment","legacy","legacy","legacy","0","uniform","1","undefined","1","right","22","22","22","0","0","22","22","0","0","22","22","22","0","22","0","Sun Oct 25 19:22:56 2020","The main experiment item","yes","Sternbergtask oct 19.osexp","/Users/shelia/Desktop","no","mono","no","18","no","white","no","yes","768","legacy","10","11","/Users/shelia/Desktop/ST subject-4 Oct 25.csv","legacy","1 6 4","Lentiform Loewenfeld","3.3.3","0","n","0","right","right","right","right","NA","561","25894","6271","561","NA","2","legacy","3","1024","2","48000","-16","experiment","4","even","7","169580","166262","167323","2621","107369","167336","118411","2636","101097","172162","168357","171600","28545","171599","NA","Sternberg task","20","14889","23","yes","1024"
"87.5","87.5","642.75","642.75","black","experiment","legacy","legacy","legacy","0","uniform","1","undefined","1","right","23","23","23","0","0","23","23","0","0","23","23","23","0","23","0","Sun Oct 25 19:22:56 2020","The main experiment item","yes","Sternbergtask oct 19.osexp","/Users/shelia/Desktop","no","mono","no","18","no","white","no","yes","768","legacy","11","11","/Users/shelia/Desktop/ST subject-4 Oct 25.csv","legacy","6 9 7 3 8 2","Lentiform Loewenfeld","3.3.3","0","n","0","right","right","right","right","NA","537","25894","6271","537","NA","2","legacy","6","1024","2","48000","-16","experiment","4","even","5","175499","172177","173243","2621","107369","173256","118411","2636","101097","178055","174276","177518","28545","177518","NA","Sternberg task","21","15426","24","yes","1024"
"88","88","650.24","650.24","black","experiment","legacy","legacy","legacy","0","uniform","1","undefined","1","left","24","24","24","0","0","24","24","0","0","24","24","24","0","24","0","Sun Oct 25 19:22:56 2020","The main experiment item","yes","Sternbergtask oct 19.osexp","/Users/shelia/Desktop","no","mono","no","18","no","white","no","yes","768","legacy","12","11","/Users/shelia/Desktop/ST subject-4 Oct 25.csv","legacy","5 2 9 6 1 7","Lentiform Loewenfeld","3.3.3","3","y","0","left","right","right","left","NA","830","25894","6271","830","NA","2","legacy","6","1024","2","48000","-16","experiment","4","even","9","181389","178070","179132","2621","107369","179146","118411","2636","101097","184238","180165","183408","28545","183408","NA","Sternberg task","22","16256","25","yes","1024"
"88.46153846153847","88.46153846153847","644.4230769230769","644.4230769230769","black","experiment","legacy","legacy","legacy","0","uniform","1","undefined","1","left","25","25","25","0","0","25","25","0","0","25","25","25","0","25","0","Sun Oct 25 19:22:56 2020","The main experiment item","yes","Sternbergtask oct 19.osexp","/Users/shelia/Desktop","no","mono","no","18","no","white","no","yes","768","legacy","13","11","/Users/shelia/Desktop/ST subject-4 Oct 25.csv","legacy","3 5 4 7","Lentiform Loewenfeld","3.3.3","1","y","0","left","right","right","left","NA","499","25894","6271","499","NA","2","legacy","4","1024","2","48000","-16","experiment","4","even","3","187574","184253","185317","2621","107369","185330","118411","2636","101097","190092","186351","189592","28545","189592","NA","Sternberg task","23","16755","26","yes","1024"
"88.88888888888889","88.88888888888889","643.1481481481482","643.1481481481482","black","experiment","legacy","legacy","legacy","0","uniform","1","undefined","1","right","26","26","26","0","0","26","26","0","0","26","26","26","0","26","0","Sun Oct 25 19:22:56 2020","The main experiment item","yes","Sternbergtask oct 19.osexp","/Users/shelia/Desktop","no","mono","no","18","no","white","no","yes","768","legacy","14","11","/Users/shelia/Desktop/ST subject-4 Oct 25.csv","legacy","1 7 5 2 9","Lentiform Loewenfeld","3.3.3","0","n","0","right","right","right","right","NA","610","25894","6271","610","NA","2","legacy","5","1024","2","48000","-16","experiment","4","even","3","193425","190107","191169","2621","107369","191182","118411","2636","101097","196055","192202","195444","28545","195444","NA","Sternberg task","24","17365","27","yes","1024"
"89.28571428571429","89.28571428571429","639.25","639.25","black","experiment","legacy","legacy","legacy","0","uniform","1","undefined","1","left","27","27","27","0","0","27","27","0","0","27","27","27","0","27","0","Sun Oct 25 19:22:56 2020","The main experiment item","yes","Sternbergtask oct 19.osexp","/Users/shelia/Desktop","no","mono","no","18","no","white","no","yes","768","legacy","15","11","/Users/shelia/Desktop/ST subject-4 Oct 25.csv","legacy","9 3 1 2 5","Lentiform Loewenfeld","3.3.3","4","y","0","left","right","right","left","NA","534","25894","6271","534","NA","2","legacy","5","1024","2","48000","-16","experiment","4","even","2","199391","196070","197134","2621","107369","197147","118411","2636","101097","201945","198168","201410","28545","201410","NA","Sternberg task","25","17899","28","yes","1024"
"89.65517241379311","89.65517241379311","634.1379310344828","634.1379310344828","black","experiment","legacy","legacy","legacy","0","uniform","1","undefined","1","right","28","28","28","0","0","28","28","0","0","28","28","28","0","28","0","Sun Oct 25 19:22:56 2020","The main experiment item","yes","Sternbergtask oct 19.osexp","/Users/shelia/Desktop","no","mono","no","18","no","white","no","yes","768","legacy","16","11","/Users/shelia/Desktop/ST subject-4 Oct 25.csv","legacy","8 4 3 9","Lentiform Loewenfeld","3.3.3","0","n","0","right","right","right","right","NA","491","25894","6271","491","NA","2","legacy","4","1024","2","48000","-16","experiment","4","even","5","205278","201960","203021","2621","107369","203034","118411","2636","101097","207788","204055","207297","28545","207297","NA","Sternberg task","26","18390","29","yes","1024"
"90","90","626.6666666666666","626.6666666666666","black","experiment","legacy","legacy","legacy","0","uniform","1","undefined","1","left","29","29","29","0","0","29","29","0","0","29","29","29","0","29","0","Sun Oct 25 19:22:56 2020","The main experiment item","yes","Sternbergtask oct 19.osexp","/Users/shelia/Desktop","no","mono","no","18","no","white","no","yes","768","legacy","17","11","/Users/shelia/Desktop/ST subject-4 Oct 25.csv","legacy","2 4 8 5 1 3","Lentiform Loewenfeld","3.3.3","1","y","0","left","right","right","left","NA","410","25894","6271","410","NA","2","legacy","6","1024","2","48000","-16","experiment","4","even","2","211121","207804","208865","2621","107369","208878","118411","2636","101097","213551","209899","213140","28545","213140","NA","Sternberg task","27","18800","30","yes","1024"
"90.3225806451613","90.3225806451613","623.3225806451613","623.3225806451613","black","experiment","legacy","legacy","legacy","0","uniform","1","undefined","1","left","30","30","30","0","0","30","30","0","0","30","30","30","0","30","0","Sun Oct 25 19:22:56 2020","The main experiment item","yes","Sternbergtask oct 19.osexp","/Users/shelia/Desktop","no","mono","no","18","no","white","no","yes","768","legacy","18","11","/Users/shelia/Desktop/ST subject-4 Oct 25.csv","legacy","9 6 2 4 1","Lentiform Loewenfeld","3.3.3","4","y","0","left","right","right","left","NA","523","25894","6271","523","NA","2","legacy","5","1024","2","48000","-16","experiment","4","even","4","216889","213567","214631","2621","107369","214644","118411","2636","101097","219431","215666","218908","28545","218908","NA","Sternberg task","28","19323","31","yes","1024"
"90.625","90.625","618.3125","618.3125","black","experiment","legacy","legacy","legacy","0","uniform","1","undefined","1","right","31","31","31","0","0","31","31","0","0","31","31","31","0","31","0","Sun Oct 25 19:22:56 2020","The main experiment item","yes","Sternbergtask oct 19.osexp","/Users/shelia/Desktop","no","mono","no","18","no","white","no","yes","768","legacy","19","11","/Users/shelia/Desktop/ST subject-4 Oct 25.csv","legacy","1 4 9 3","Lentiform Loewenfeld","3.3.3","0","n","0","right","right","right","right","NA","463","25894","6271","463","NA","2","legacy","4","1024","2","48000","-16","experiment","4","even","5","222763","219447","220506","2621","107369","220519","118411","2636","101097","225246","221540","224782","28545","224782","NA","Sternberg task","29","19786","32","yes","1024"
"87.87878787878788","87.87878787878788","620.4545454545455","620.4545454545455","black","experiment","legacy","legacy","legacy","0","uniform","0","undefined","0","left","32","32","32","0","0","32","32","0","0","32","32","32","0","32","0","Sun Oct 25 19:22:56 2020","The main experiment item","yes","Sternbergtask oct 19.osexp","/Users/shelia/Desktop","no","mono","no","18","no","white","no","yes","768","legacy","20","11","/Users/shelia/Desktop/ST subject-4 Oct 25.csv","legacy","3 9 7 6 4","Lentiform Loewenfeld","3.3.3","3","y","0","right","right","right","right","NA","689","25894","6271","689","NA","2","legacy","5","1024","2","48000","-16","experiment","4","even","7","228582","225261","226325","2621","107369","226338","118411","2636","101097","231291","227359","230601","28545","230601","NA","Sternberg task","29","20475","33","yes","1024"
"88.23529411764706","88.23529411764706","618.3529411764706","618.3529411764706","black","experiment","legacy","legacy","legacy","0","uniform","1","undefined","1","right","33","33","33","0","0","33","33","0","0","33","33","33","0","33","0","Sun Oct 25 19:22:56 2020","The main experiment item","yes","Sternbergtask oct 19.osexp","/Users/shelia/Desktop","no","mono","no","18","no","white","no","yes","768","legacy","21","11","/Users/shelia/Desktop/ST subject-4 Oct 25.csv","legacy","7 8 6 1","Lentiform Loewenfeld","3.3.3","0","n","0","right","right","right","right","NA","549","25894","6271","549","NA","2","legacy","4","1024","2","48000","-16","experiment","4","even","3","234627","225261","232370","2621","107369","232384","231307","2636","101097","237196","233404","236646","28545","236646","NA","Sternberg task","30","21024","34","yes","1024"
"85.71428571428571","85.71428571428571","622.2857142857143","622.2857142857143","black","experiment","legacy","legacy","legacy","0","uniform","0","undefined","0","left","34","34","34","0","0","34","34","0","0","34","34","34","0","34","0","Sun Oct 25 19:22:56 2020","The main experiment item","yes","Sternbergtask oct 19.osexp","/Users/shelia/Desktop","no","mono","no","18","no","white","no","yes","768","legacy","22","11","/Users/shelia/Desktop/ST subject-4 Oct 25.csv","legacy","2 8 5 1","Lentiform Loewenfeld","3.3.3","4","y","0","right","right","right","right","NA","756","25894","6271","756","NA","2","legacy","4","1024","2","48000","-16","experiment","4","even","1","240533","237212","238275","2621","107369","238289","231307","2636","101097","243309","239310","242552","28545","242551","NA","Sternberg task","30","21780","35","yes","1024"
"86.11111111111111","86.11111111111111","624.9722222222222","624.9722222222222","black","experiment","legacy","legacy","legacy","0","uniform","1","undefined","1","left","35","35","35","0","0","35","35","0","0","35","35","35","0","35","0","Sun Oct 25 19:22:56 2020","The main experiment item","yes","Sternbergtask oct 19.osexp","/Users/shelia/Desktop","no","mono","no","18","no","white","no","yes","768","legacy","23","11","/Users/shelia/Desktop/ST subject-4 Oct 25.csv","legacy","6 7 8 5","Lentiform Loewenfeld","3.3.3","3","y","0","left","right","right","left","NA","719","25894","6271","719","NA","2","legacy","4","1024","2","48000","-16","experiment","4","even","8","246643","237212","244385","2621","107369","244399","243324","2636","101097","249382","245420","248662","28545","248662","NA","Sternberg task","31","22499","36","yes","1024"
"86.48648648648648","86.48648648648648","635.6486486486486","635.6486486486486","black","experiment","legacy","legacy","legacy","0","uniform","1","undefined","1","right","36","36","36","0","0","36","36","0","0","36","36","36","0","36","0","Sun Oct 25 19:22:56 2020","The main experiment item","yes","Sternbergtask oct 19.osexp","/Users/shelia/Desktop","no","mono","no","18","no","white","no","yes","768","legacy","24","11","/Users/shelia/Desktop/ST subject-4 Oct 25.csv","legacy","8 5 7 3 6","Lentiform Loewenfeld","3.3.3","0","n","0","right","right","right","right","NA","1020","25894","6271","1020","NA","2","legacy","5","1024","2","48000","-16","experiment","4","even","9","252717","249397","250459","2621","107369","250473","243324","2636","101097","255757","251494","254736","28545","254736","NA","Sternberg task","32","23519","37","yes","1024"
"86.84210526315789","86.84210526315789","634.3421052631579","634.3421052631579","black","experiment","legacy","legacy","legacy","0","uniform","1","undefined","1","right","37","37","37","0","0","37","37","0","0","37","37","37","0","37","0","Sun Oct 25 19:22:56 2020","The main experiment item","yes","Sternbergtask oct 19.osexp","/Users/shelia/Desktop","no","mono","no","18","no","white","no","yes","768","legacy","25","11","/Users/shelia/Desktop/ST subject-4 Oct 25.csv","legacy","2 8 9","Lentiform Loewenfeld","3.3.3","0","n","0","right","right","right","right","NA","586","25894","6271","586","NA","2","legacy","3","1024","2","48000","-16","experiment","4","even","6","259092","255772","256836","2621","107369","256849","243324","2636","101097","261698","257869","261111","28545","261111","NA","Sternberg task","33","24105","38","yes","1024"
"87.17948717948718","87.17948717948718","640.6923076923077","640.6923076923077","black","experiment","legacy","legacy","legacy","0","uniform","1","undefined","1","left","38","38","38","0","0","38","38","0","0","38","38","38","0","38","0","Sun Oct 25 19:22:56 2020","The main experiment item","yes","Sternbergtask oct 19.osexp","/Users/shelia/Desktop","no","mono","no","18","no","white","no","yes","768","legacy","26","11","/Users/shelia/Desktop/ST subject-4 Oct 25.csv","legacy","3 5 7 1","Lentiform Loewenfeld","3.3.3","3","y","0","left","right","right","left","NA","882","25894","6271","882","NA","2","legacy","4","1024","2","48000","-16","experiment","4","even","7","265032","261714","262775","2621","107369","262789","243324","2636","101097","267934","263810","267051","28545","267051","NA","Sternberg task","34","24987","39","yes","1024"
"87.5","87.5","641.2","641.2","black","experiment","legacy","legacy","legacy","0","uniform","1","undefined","1","right","39","39","39","0","0","39","39","0","0","39","39","39","0","39","0","Sun Oct 25 19:22:56 2020","The main experiment item","yes","Sternbergtask oct 19.osexp","/Users/shelia/Desktop","no","mono","no","18","no","white","no","yes","768","legacy","27","11","/Users/shelia/Desktop/ST subject-4 Oct 25.csv","legacy","8 5 4 2 9 6","Lentiform Loewenfeld","3.3.3","0","n","0","right","right","right","right","NA","661","25894","6271","661","NA","2","legacy","6","1024","2","48000","-16","experiment","4","even","3","271267","267949","269010","2621","107369","269023","243324","2636","101097","273949","270044","273287","28545","273286","NA","Sternberg task","35","25648","40","yes","1024"
"87.8048780487805","87.8048780487805","639.0243902439024","639.0243902439024","black","experiment","legacy","legacy","legacy","0","uniform","1","undefined","1","right","40","40","40","0","0","40","40","0","0","40","40","40","0","40","0","Sun Oct 25 19:22:56 2020","The main experiment item","yes","Sternbergtask oct 19.osexp","/Users/shelia/Desktop","no","mono","no","18","no","white","no","yes","768","legacy","28","11","/Users/shelia/Desktop/ST subject-4 Oct 25.csv","legacy","7 1 5 6 3","Lentiform Loewenfeld","3.3.3","0","n","0","right","right","right","right","NA","552","25894","6271","552","NA","2","legacy","5","1024","2","48000","-16","experiment","4","even","8","277273","273964","275016","2621","107369","275030","243324","2636","101097","279845","276050","279292","28545","279292","NA","Sternberg task","36","26200","41","yes","1024"
"88.0952380952381","88.0952380952381","639.047619047619","639.047619047619","black","experiment","legacy","legacy","legacy","0","uniform","1","undefined","1","right","41","41","41","0","0","41","41","0","0","41","41","41","0","41","0","Sun Oct 25 19:22:56 2020","The main experiment item","yes","Sternbergtask oct 19.osexp","/Users/shelia/Desktop","no","mono","no","18","no","white","no","yes","768","legacy","29","11","/Users/shelia/Desktop/ST subject-4 Oct 25.csv","legacy","4 2 6 9","Lentiform Loewenfeld","3.3.3","0","n","0","right","right","right","right","NA","640","25894","6271","640","NA","2","legacy","4","1024","2","48000","-16","experiment","4","even","7","283178","279861","280922","2621","107369","280935","243324","2636","101097","285840","281956","285199","28545","285199","NA","Sternberg task","37","26840","42","yes","1024"
"88.37209302325581","88.37209302325581","637.8604651162791","637.8604651162791","black","experiment","legacy","legacy","legacy","0","uniform","1","undefined","1","right","42","42","42","0","0","42","42","0","0","42","42","42","0","42","0","Sun Oct 25 19:22:56 2020","The main experiment item","yes","Sternbergtask oct 19.osexp","/Users/shelia/Desktop","no","mono","no","18","no","white","no","yes","768","legacy","30","11","/Users/shelia/Desktop/ST subject-4 Oct 25.csv","legacy","1 4 9 2 5","Lentiform Loewenfeld","3.3.3","0","n","0","right","right","right","right","NA","588","25894","6271","588","NA","2","legacy","5","1024","2","48000","-16","experiment","4","even","7","289175","285855","286919","2621","107369","286932","243324","2636","101097","291784","287953","291195","28545","291195","NA","Sternberg task","38","27428","43","yes","1024"
"88.63636363636364","88.63636363636364","640.3863636363636","640.3863636363636","black","experiment","legacy","legacy","legacy","0","uniform","1","undefined","1","left","43","43","43","0","0","43","43","0","0","43","43","43","0","43","0","Sun Oct 25 19:22:56 2020","The main experiment item","yes","Sternbergtask oct 19.osexp","/Users/shelia/Desktop","no","mono","no","18","no","white","no","yes","768","legacy","31","11","/Users/shelia/Desktop/ST subject-4 Oct 25.csv","legacy","9 5 8 1","Lentiform Loewenfeld","3.3.3","2","y","0","left","right","right","left","NA","749","25894","6271","749","NA","2","legacy","4","1024","2","48000","-16","experiment","4","even","5","295114","291799","292860","2621","107369","292873","243324","2636","101097","297882","293894","297132","28545","297132","NA","Sternberg task","39","28177","44","yes","1024"
"88.88888888888889","88.88888888888889","636.4222222222222","636.4222222222222","black","experiment","legacy","legacy","legacy","0","uniform","1","undefined","1","right","44","44","44","0","0","44","44","0","0","44","44","44","0","44","0","Sun Oct 25 19:22:56 2020","The main experiment item","yes","Sternbergtask oct 19.osexp","/Users/shelia/Desktop","no","mono","no","18","no","white","no","yes","768","legacy","32","11","/Users/shelia/Desktop/ST subject-4 Oct 25.csv","legacy","1 8 7","Lentiform Loewenfeld","3.3.3","0","n","0","right","right","right","right","NA","462","25894","6271","462","NA","2","legacy","3","1024","2","48000","-16","experiment","4","even","4","301213","297896","298959","2621","107369","298972","243324","2636","101097","303695","299993","303232","28545","303232","NA","Sternberg task","40","28639","45","yes","1024"
"89.1304347826087","89.1304347826087","633.9130434782609","633.9130434782609","black","experiment","legacy","legacy","legacy","0","uniform","1","undefined","1","right","45","45","45","0","0","45","45","0","0","45","45","45","0","45","0","Sun Oct 25 19:22:56 2020","The main experiment item","yes","Sternbergtask oct 19.osexp","/Users/shelia/Desktop","no","mono","no","18","no","white","no","yes","768","legacy","33","11","/Users/shelia/Desktop/ST subject-4 Oct 25.csv","legacy","7 4 2 8 1 9","Lentiform Loewenfeld","3.3.3","0","n","0","right","right","right","right","NA","521","25894","6271","521","NA","2","legacy","6","1024","2","48000","-16","experiment","4","even","5","307028","303711","304772","2621","107369","304785","243324","2636","101097","309568","305806","309047","28545","309047","NA","Sternberg task","41","29160","46","yes","1024"
"87.23404255319149","87.23404255319149","635.3191489361702","635.3191489361702","black","experiment","legacy","legacy","legacy","0","uniform","0","undefined","0","right","46","46","46","0","0","46","46","0","0","46","46","46","0","46","0","Sun Oct 25 19:22:56 2020","The main experiment item","yes","Sternbergtask oct 19.osexp","/Users/shelia/Desktop","no","mono","no","18","no","white","no","yes","768","legacy","34","11","/Users/shelia/Desktop/ST subject-4 Oct 25.csv","legacy","3 4 9 6 7 8","Lentiform Loewenfeld","3.3.3","0","n","0","left","right","right","left","NA","700","25894","6271","700","NA","2","legacy","6","1024","2","48000","-16","experiment","4","even","2","312901","309583","310645","2621","107369","310658","243324","2636","101097","315622","311678","314921","28545","314921","NA","Sternberg task","41","29860","47","yes","1024"
"87.5","87.5","636.6458333333334","636.6458333333334","black","experiment","legacy","legacy","legacy","0","uniform","1","undefined","1","right","47","47","47","0","0","47","47","0","0","47","47","47","0","47","0","Sun Oct 25 19:22:56 2020","The main experiment item","yes","Sternbergtask oct 19.osexp","/Users/shelia/Desktop","no","mono","no","18","no","white","no","yes","768","legacy","35","11","/Users/shelia/Desktop/ST subject-4 Oct 25.csv","legacy","6 9 4 5 3 2","Lentiform Loewenfeld","3.3.3","0","n","0","right","right","right","right","NA","699","25894","6271","699","NA","2","legacy","6","1024","2","48000","-16","experiment","4","even","8","318957","309583","316700","2621","107369","316713","315637","2636","101097","321676","317734","320976","28545","320976","NA","Sternberg task","42","30559","48","yes","1024"
"87.75510204081633","87.75510204081633","635.7142857142857","635.7142857142857","black","experiment","legacy","legacy","legacy","0","uniform","1","undefined","1","right","48","48","48","0","0","48","48","0","0","48","48","48","0","48","0","Sun Oct 25 19:22:56 2020","The main experiment item","yes","Sternbergtask oct 19.osexp","/Users/shelia/Desktop","no","mono","no","18","no","white","no","yes","768","legacy","36","11","/Users/shelia/Desktop/ST subject-4 Oct 25.csv","legacy","9 7 4 5 8","Lentiform Loewenfeld","3.3.3","0","n","0","right","right","right","right","NA","591","25894","6271","591","NA","2","legacy","5","1024","2","48000","-16","experiment","4","even","6","325009","321691","322754","2621","107369","322767","315637","2636","101097","327621","323788","327029","28545","327029","NA","Sternberg task","43","31150","49","yes","1024"
"88","88","633.6","633.6","black","experiment","legacy","legacy","legacy","0","uniform","1","undefined","1","left","49","49","49","0","0","49","49","0","0","49","49","49","0","49","0","Sun Oct 25 19:22:56 2020","The main experiment item","yes","Sternbergtask oct 19.osexp","/Users/shelia/Desktop","no","mono","no","18","no","white","no","yes","768","legacy","37","11","/Users/shelia/Desktop/ST subject-4 Oct 25.csv","legacy","8 7 3","Lentiform Loewenfeld","3.3.3","1","y","0","left","right","right","left","NA","530","25894","6271","530","NA","2","legacy","3","1024","2","48000","-16","experiment","4","even","8","330956","327636","328699","2621","107369","328711","315637","2636","101097","333506","329733","332975","28545","332975","NA","Sternberg task","44","31680","50","yes","1024"
"88.23529411764706","88.23529411764706","630.1176470588235","630.1176470588235","black","experiment","legacy","legacy","legacy","0","uniform","1","undefined","1","left","50","50","50","0","0","50","50","0","0","50","50","50","0","50","0","Sun Oct 25 19:22:56 2020","The main experiment item","yes","Sternbergtask oct 19.osexp","/Users/shelia/Desktop","no","mono","no","18","no","white","no","yes","768","legacy","38","11","/Users/shelia/Desktop/ST subject-4 Oct 25.csv","legacy","4 1 8 7 5","Lentiform Loewenfeld","3.3.3","3","y","0","left","right","right","left","NA","456","25894","6271","456","NA","2","legacy","5","1024","2","48000","-16","experiment","4","even","8","336840","333521","334583","2621","107369","334596","315637","2636","101097","339315","335617","338858","28545","338858","NA","Sternberg task","45","32136","51","yes","1024"
"88.46153846153847","88.46153846153847","626.2692307692307","626.2692307692307","black","experiment","legacy","legacy","legacy","0","uniform","1","undefined","1","right","51","51","51","0","0","51","51","0","0","51","51","51","0","51","0","Sun Oct 25 19:22:56 2020","The main experiment item","yes","Sternbergtask oct 19.osexp","/Users/shelia/Desktop","no","mono","no","18","no","white","no","yes","768","legacy","39","11","/Users/shelia/Desktop/ST subject-4 Oct 25.csv","legacy","9 8 2 7 4","Lentiform Loewenfeld","3.3.3","0","n","0","right","right","right","right","NA","430","25894","6271","430","NA","2","legacy","5","1024","2","48000","-16","experiment","4","even","5","342646","339330","340389","2621","107369","340402","315637","2636","101097","345097","341423","344666","28545","344665","NA","Sternberg task","46","32566","52","yes","1024"
"88.67924528301887","88.67924528301887","624.3018867924528","624.3018867924528","black","experiment","legacy","legacy","legacy","0","uniform","1","undefined","1","right","52","52","52","0","0","52","52","0","0","52","52","52","0","52","0","Sun Oct 25 19:22:56 2020","The main experiment item","yes","Sternbergtask oct 19.osexp","/Users/shelia/Desktop","no","mono","no","18","no","white","no","yes","768","legacy","40","11","/Users/shelia/Desktop/ST subject-4 Oct 25.csv","legacy","3 4 2","Lentiform Loewenfeld","3.3.3","0","n","0","right","right","right","right","NA","522","25894","6271","522","NA","2","legacy","3","1024","2","48000","-16","experiment","4","even","5","348430","345113","346173","2621","107369","346187","315637","2636","101097","350973","347207","350450","28545","350449","NA","Sternberg task","47","33088","53","yes","1024"
"88.88888888888889","88.88888888888889","627.4074074074074","627.4074074074074","black","experiment","legacy","legacy","legacy","0","uniform","1","undefined","1","left","53","53","53","0","0","53","53","0","0","53","53","53","0","53","0","Sun Oct 25 19:22:56 2020","The main experiment item","yes","Sternbergtask oct 19.osexp","/Users/shelia/Desktop","no","mono","no","18","no","white","no","yes","768","legacy","41","11","/Users/shelia/Desktop/ST subject-4 Oct 25.csv","legacy","8 1 6","Lentiform Loewenfeld","3.3.3","3","y","0","left","right","right","left","NA","792","25894","6271","792","NA","2","legacy","3","1024","2","48000","-16","experiment","4","even","6","354307","350988","352049","2621","107369","352063","315637","2636","101097","357119","353083","356326","28545","356326","NA","Sternberg task","48","33880","54","yes","1024"
"89.0909090909091","89.0909090909091","623.6363636363636","623.6363636363636","black","experiment","legacy","legacy","legacy","0","uniform","1","undefined","1","right","54","54","54","0","0","54","54","0","0","54","54","54","0","54","0","Sun Oct 25 19:22:56 2020","The main experiment item","yes","Sternbergtask oct 19.osexp","/Users/shelia/Desktop","no","mono","no","18","no","white","no","yes","768","legacy","42","11","/Users/shelia/Desktop/ST subject-4 Oct 25.csv","legacy","7 9","Lentiform Loewenfeld","3.3.3","0","n","0","right","right","right","right","NA","420","25894","6271","420","NA","2","legacy","2","1024","2","48000","-16","experiment","4","even","1","360455","357134","358197","2621","107369","358210","315637","2636","101097","362896","359232","362475","28545","362474","NA","Sternberg task","49","34300","55","yes","1024"
"89.28571428571429","89.28571428571429","626.2321428571429","626.2321428571429","black","experiment","legacy","legacy","legacy","0","uniform","1","undefined","1","right","55","55","55","0","0","55","55","0","0","55","55","55","0","55","0","Sun Oct 25 19:22:56 2020","The main experiment item","yes","Sternbergtask oct 19.osexp","/Users/shelia/Desktop","no","mono","no","18","no","white","no","yes","768","legacy","43","11","/Users/shelia/Desktop/ST subject-4 Oct 25.csv","legacy","1 7 5 2","Lentiform Loewenfeld","3.3.3","0","n","0","right","right","right","right","NA","769","25894","6271","769","NA","2","legacy","4","1024","2","48000","-16","experiment","4","even","3","366228","362910","363972","2621","107369","363985","315637","2636","101097","369017","365005","368247","28545","368247","NA","Sternberg task","50","35069","56","yes","1024"
"87.71929824561404","87.71929824561404","634.719298245614","634.719298245614","black","experiment","legacy","legacy","legacy","0","uniform","0","undefined","0","left","56","56","56","0","0","56","56","0","0","56","56","56","0","56","0","Sun Oct 25 19:22:56 2020","The main experiment item","yes","Sternbergtask oct 19.osexp","/Users/shelia/Desktop","no","mono","no","18","no","white","no","yes","768","legacy","44","11","/Users/shelia/Desktop/ST subject-4 Oct 25.csv","legacy","3 4 9 6 2 9","Lentiform Loewenfeld","3.3.3","5","y","0","right","right","right","right","NA","1110","25894","6271","1110","NA","2","legacy","6","1024","2","48000","-16","experiment","4","even","2","372351","369032","370094","2621","107369","370107","315637","2636","101097","375481","371128","374370","28545","374370","NA","Sternberg task","50","36179","57","yes","1024"
"87.93103448275862","87.93103448275862","634.8793103448276","634.8793103448276","black","experiment","legacy","legacy","legacy","0","uniform","1","undefined","1","right","57","57","57","0","0","57","57","0","0","57","57","57","0","57","0","Sun Oct 25 19:22:56 2020","The main experiment item","yes","Sternbergtask oct 19.osexp","/Users/shelia/Desktop","no","mono","no","18","no","white","no","yes","768","legacy","45","11","/Users/shelia/Desktop/ST subject-4 Oct 25.csv","legacy","1 7 8 3 9","Lentiform Loewenfeld","3.3.3","0","n","0","right","right","right","right","NA","644","25894","6271","644","NA","2","legacy","5","1024","2","48000","-16","experiment","4","even","2","378817","369032","376559","2621","107369","376573","375498","2636","101097","381482","377594","380837","28545","380837","NA","Sternberg task","51","36823","58","yes","1024"
"86.44067796610169","86.44067796610169","632.9152542372881","632.9152542372881","black","experiment","legacy","legacy","legacy","0","uniform","0","undefined","0","left","58","58","58","0","0","58","58","0","0","58","58","58","0","58","0","Sun Oct 25 19:22:56 2020","The main experiment item","yes","Sternbergtask oct 19.osexp","/Users/shelia/Desktop","no","mono","no","18","no","white","no","yes","768","legacy","46","11","/Users/shelia/Desktop/ST subject-4 Oct 25.csv","legacy","3 9 6 2","Lentiform Loewenfeld","3.3.3","4","y","0","right","right","right","right","NA","519","25894","6271","519","NA","2","legacy","4","1024","2","48000","-16","experiment","4","even","2","384816","381497","382559","2621","107369","382572","375498","2636","101097","387356","383593","386836","28545","386836","NA","Sternberg task","51","37342","59","yes","1024"
"86.66666666666667","86.66666666666667","629.2833333333333","629.2833333333333","black","experiment","legacy","legacy","legacy","0","uniform","1","undefined","1","left","59","59","59","0","0","59","59","0","0","59","59","59","0","59","0","Sun Oct 25 19:22:56 2020","The main experiment item","yes","Sternbergtask oct 19.osexp","/Users/shelia/Desktop","no","mono","no","18","no","white","no","yes","768","legacy","47","11","/Users/shelia/Desktop/ST subject-4 Oct 25.csv","legacy","5 7 3 6 2","Lentiform Loewenfeld","3.3.3","5","y","0","left","right","right","left","NA","415","25894","6271","415","NA","2","legacy","5","1024","2","48000","-16","experiment","4","even","2","390690","381497","388433","2621","107369","388446","387371","2636","101097","393125","389467","392709","28545","392709","NA","Sternberg task","52","37757","60","yes","1024"
"86.88524590163935","86.88524590163935","629.2459016393443","629.2459016393443","black","experiment","legacy","legacy","legacy","0","uniform","1","undefined","1","left","60","60","60","0","0","60","60","0","0","60","60","60","0","60","0","Sun Oct 25 19:22:56 2020","The main experiment item","yes","Sternbergtask oct 19.osexp","/Users/shelia/Desktop","no","mono","no","18","no","white","no","yes","768","legacy","48","11","/Users/shelia/Desktop/ST subject-4 Oct 25.csv","legacy","8 5 1 3 9","Lentiform Loewenfeld","3.3.3","4","y","0","left","right","right","left","NA","627","25894","6271","627","NA","2","legacy","5","1024","2","48000","-16","experiment","4","even","3","396458","393139","394201","2621","107369","394214","387371","2636","101097","399105","395235","398477","28545","398477","NA","Sternberg task","53","38384","61","yes","1024"
"87.09677419354838","87.09677419354838","630.2258064516129","630.2258064516129","black","experiment","legacy","legacy","legacy","0","uniform","1","undefined","1","right","61","61","61","0","0","61","61","0","0","61","61","61","0","61","0","Sun Oct 25 19:22:56 2020","The main experiment item","yes","Sternbergtask oct 19.osexp","/Users/shelia/Desktop","no","mono","no","18","no","white","no","yes","768","legacy","49","11","/Users/shelia/Desktop/ST subject-4 Oct 25.csv","legacy","8 9","Lentiform Loewenfeld","3.3.3","0","n","0","right","right","right","right","NA","690","25894","6271","690","NA","2","legacy","2","1024","2","48000","-16","experiment","4","even","5","402441","399120","400185","2621","107369","400198","387371","2636","101097","405152","401218","404461","28545","404461","NA","Sternberg task","54","39074","62","yes","1024"
"87.3015873015873","87.3015873015873","632.3174603174604","632.3174603174604","black","experiment","legacy","legacy","legacy","0","uniform","1","undefined","1","left","62","62","62","0","0","62","62","0","0","62","62","62","0","62","0","Sun Oct 25 19:22:56 2020","The main experiment item","yes","Sternbergtask oct 19.osexp","/Users/shelia/Desktop","no","mono","no","18","no","white","no","yes","768","legacy","50","11","/Users/shelia/Desktop/ST subject-4 Oct 25.csv","legacy","8 5 3 7 4 6","Lentiform Loewenfeld","3.3.3","6","y","0","left","right","right","left","NA","762","25894","6271","762","NA","2","legacy","6","1024","2","48000","-16","experiment","4","even","6","408490","405168","406232","2621","107369","406246","387371","2636","101097","411272","407267","410509","28545","410509","NA","Sternberg task","55","39836","63","yes","1024"
"87.5","87.5","634.171875","634.171875","black","experiment","legacy","legacy","legacy","0","uniform","1","undefined","1","left","63","63","63","0","0","63","63","0","0","63","63","63","0","63","0","Sun Oct 25 19:22:56 2020","The main experiment item","yes","Sternbergtask oct 19.osexp","/Users/shelia/Desktop","no","mono","no","18","no","white","no","yes","768","legacy","51","11","/Users/shelia/Desktop/ST subject-4 Oct 25.csv","legacy","3 5 9 6 2 4","Lentiform Loewenfeld","3.3.3","1","y","0","left","right","right","left","NA","751","25894","6271","751","NA","2","legacy","6","1024","2","48000","-16","experiment","4","even","3","414606","411286","412349","2621","107369","412362","387371","2636","101097","417377","413383","416625","28545","416625","NA","Sternberg task","56","40587","64","yes","1024"
"87.6923076923077","87.6923076923077","634.5692307692308","634.5692307692308","black","experiment","legacy","legacy","legacy","0","uniform","1","undefined","1","left","64","64","64","0","0","64","64","0","0","64","64","64","0","64","0","Sun Oct 25 19:22:56 2020","The main experiment item","yes","Sternbergtask oct 19.osexp","/Users/shelia/Desktop","no","mono","no","18","no","white","no","yes","768","legacy","52","11","/Users/shelia/Desktop/ST subject-4 Oct 25.csv","legacy","9 5 3 8 4","Lentiform Loewenfeld","3.3.3","1","y","0","left","right","right","left","NA","660","25894","6271","660","NA","2","legacy","5","1024","2","48000","-16","experiment","4","even","9","420713","417392","418455","2621","107369","418469","387371","2636","101097","423387","419490","422726","28545","422726","NA","Sternberg task","57","41247","65","yes","1024"
"87.87878787878788","87.87878787878788","634.5757575757576","634.5757575757576","black","experiment","legacy","legacy","legacy","0","uniform","1","undefined","1","left","65","65","65","0","0","65","65","0","0","65","65","65","0","65","0","Sun Oct 25 19:22:56 2020","The main experiment item","yes","Sternbergtask oct 19.osexp","/Users/shelia/Desktop","no","mono","no","18","no","white","no","yes","768","legacy","53","11","/Users/shelia/Desktop/ST subject-4 Oct 25.csv","legacy","8 9 5 6 7","Lentiform Loewenfeld","3.3.3","1","y","0","left","right","right","left","NA","635","25894","6271","635","NA","2","legacy","5","1024","2","48000","-16","experiment","4","even","8","426722","423402","424465","2621","107369","424478","387371","2636","101097","429378","425499","428742","28545","428741","NA","Sternberg task","58","41882","66","yes","1024"
"88.05970149253731","88.05970149253731","638.2089552238806","638.2089552238806","black","experiment","legacy","legacy","legacy","0","uniform","1","undefined","1","left","66","66","66","0","0","66","66","0","0","66","66","66","0","66","0","Sun Oct 25 19:22:56 2020","The main experiment item","yes","Sternbergtask oct 19.osexp","/Users/shelia/Desktop","no","mono","no","18","no","white","no","yes","768","legacy","54","11","/Users/shelia/Desktop/ST subject-4 Oct 25.csv","legacy","6 8 9 3 4 9","Lentiform Loewenfeld","3.3.3","5","y","0","left","right","right","left","NA","878","25894","6271","878","NA","2","legacy","6","1024","2","48000","-16","experiment","4","even","4","432712","429394","430455","2621","107369","430468","387371","2636","101097","435610","431489","434731","28545","434731","NA","Sternberg task","59","42760","67","yes","1024"
"88.23529411764706","88.23529411764706","640.1911764705883","640.1911764705883","black","experiment","legacy","legacy","legacy","0","uniform","1","undefined","1","right","67","67","67","0","0","67","67","0","0","67","67","67","0","67","0","Sun Oct 25 19:22:56 2020","The main experiment item","yes","Sternbergtask oct 19.osexp","/Users/shelia/Desktop","no","mono","no","18","no","white","no","yes","768","legacy","55","11","/Users/shelia/Desktop/ST subject-4 Oct 25.csv","legacy","5 3 8 7 2 4","Lentiform Loewenfeld","3.3.3","0","n","0","right","right","right","right","NA","773","25894","6271","773","NA","2","legacy","6","1024","2","48000","-16","experiment","4","even","9","438943","435624","436686","2621","107369","436699","387371","2636","101097","441735","437720","440962","28545","440962","NA","Sternberg task","60","43533","68","yes","1024"
"88.40579710144928","88.40579710144928","640.7391304347826","640.7391304347826","black","experiment","legacy","legacy","legacy","0","uniform","1","undefined","1","right","68","68","68","0","0","68","68","0","0","68","68","68","0","68","0","Sun Oct 25 19:22:56 2020","The main experiment item","yes","Sternbergtask oct 19.osexp","/Users/shelia/Desktop","no","mono","no","18","no","white","no","yes","768","legacy","56","11","/Users/shelia/Desktop/ST subject-4 Oct 25.csv","legacy","2 7 5","Lentiform Loewenfeld","3.3.3","0","n","0","right","right","right","right","NA","678","25894","6271","678","NA","2","legacy","3","1024","2","48000","-16","experiment","4","even","8","445070","441751","442814","2621","107369","442827","387371","2636","101097","447769","443848","447090","28545","447090","NA","Sternberg task","61","44211","69","yes","1024"
"88.57142857142857","88.57142857142857","642.1142857142858","642.1142857142858","black","experiment","legacy","legacy","legacy","0","uniform","1","undefined","1","right","69","69","69","0","0","69","69","0","0","69","69","69","0","69","0","Sun Oct 25 19:22:56 2020","The main experiment item","yes","Sternbergtask oct 19.osexp","/Users/shelia/Desktop","no","mono","no","18","no","white","no","yes","768","legacy","57","11","/Users/shelia/Desktop/ST subject-4 Oct 25.csv","legacy","4 2 7 6 1 3","Lentiform Loewenfeld","3.3.3","0","n","0","right","right","right","right","NA","737","25894","6271","737","NA","2","legacy","6","1024","2","48000","-16","experiment","4","even","8","451103","447785","448847","2621","107369","448860","387371","2636","101097","453861","449881","453123","28545","453123","NA","Sternberg task","62","44948","70","yes","1024"
"88.73239436619718","88.73239436619718","640.4084507042254","640.4084507042254","black","experiment","legacy","legacy","legacy","0","uniform","1","undefined","1","right","70","70","70","0","0","70","70","0","0","70","70","70","0","70","0","Sun Oct 25 19:22:56 2020","The main experiment item","yes","Sternbergtask oct 19.osexp","/Users/shelia/Desktop","no","mono","no","18","no","white","no","yes","768","legacy","58","11","/Users/shelia/Desktop/ST subject-4 Oct 25.csv","legacy","5 7 3","Lentiform Loewenfeld","3.3.3","0","n","0","right","right","right","right","NA","521","25894","6271","521","NA","2","legacy","3","1024","2","48000","-16","experiment","4","even","9","457181","453877","454940","2621","107369","454953","387371","2636","101097","459723","455966","459201","28545","459201","NA","Sternberg task","63","45469","71","yes","1024"
"88.88888888888889","88.88888888888889","639.7083333333334","639.7083333333334","black","experiment","legacy","legacy","legacy","0","uniform","1","undefined","1","left","71","71","71","0","0","71","71","0","0","71","71","71","0","71","0","Sun Oct 25 19:22:56 2020","The main experiment item","yes","Sternbergtask oct 19.osexp","/Users/shelia/Desktop","no","mono","no","18","no","white","no","yes","768","legacy","59","11","/Users/shelia/Desktop/ST subject-4 Oct 25.csv","legacy","8","Lentiform Loewenfeld","3.3.3","1","y","0","left","right","right","left","NA","590","25894","6271","590","NA","2","legacy","1","1024","2","48000","-16","experiment","4","even","8","463055","459737","460799","2621","107369","460812","387371","2636","101097","465665","461833","465074","28545","465074","NA","Sternberg task","64","46059","72","yes","1024"
"89.04109589041096","89.04109589041096","642.6986301369863","642.6986301369863","black","experiment","legacy","legacy","legacy","0","uniform","1","undefined","1","left","72","72","72","0","0","72","72","0","0","72","72","72","0","72","0","Sun Oct 25 19:22:56 2020","The main experiment item","yes","Sternbergtask oct 19.osexp","/Users/shelia/Desktop","no","mono","no","18","no","white","no","yes","768","legacy","60","11","/Users/shelia/Desktop/ST subject-4 Oct 25.csv","legacy","2 5 4 8 7","Lentiform Loewenfeld","3.3.3","3","y","0","left","right","right","left","NA","858","25894","6271","858","NA","2","legacy","5","1024","2","48000","-16","experiment","4","even","4","468993","465680","466738","2621","107369","466752","387371","2636","101097","471870","467771","471011","28545","471011","NA","Sternberg task","65","46917","73","yes","1024"
"89.1891891891892","89.1891891891892","643.6486486486486","643.6486486486486","black","experiment","legacy","legacy","legacy","0","uniform","1","undefined","1","left","73","73","73","0","0","73","73","0","0","73","73","73","0","73","0","Sun Oct 25 19:22:56 2020","The main experiment item","yes","Sternbergtask oct 19.osexp","/Users/shelia/Desktop","no","mono","no","18","no","white","no","yes","768","legacy","61","11","/Users/shelia/Desktop/ST subject-4 Oct 25.csv","legacy","6 1 2","Lentiform Loewenfeld","3.3.3","3","y","0","left","right","right","left","NA","713","25894","6271","713","NA","2","legacy","3","1024","2","48000","-16","experiment","4","even","2","475203","471884","472947","2621","107369","472960","387371","2636","101097","477936","473981","477222","28545","477222","NA","Sternberg task","66","47630","74","yes","1024"
"89.33333333333333","89.33333333333333","642.8","642.8","black","experiment","legacy","legacy","legacy","0","uniform","1","undefined","1","left","74","74","74","0","0","74","74","0","0","74","74","74","0","74","0","Sun Oct 25 19:22:56 2020","The main experiment item","yes","Sternbergtask oct 19.osexp","/Users/shelia/Desktop","no","mono","no","18","no","white","no","yes","768","legacy","62","11","/Users/shelia/Desktop/ST subject-4 Oct 25.csv","legacy","7","Lentiform Loewenfeld","3.3.3","1","y","0","left","right","right","left","NA","580","25894","6271","580","NA","2","legacy","1","1024","2","48000","-16","experiment","4","even","7","481270","477950","479011","2621","107369","479025","387371","2636","101097","483869","480046","483289","28545","483289","NA","Sternberg task","67","48210","75","yes","1024"
"89.47368421052632","89.47368421052632","644.6052631578947","644.6052631578947","black","experiment","legacy","legacy","legacy","0","uniform","1","undefined","1","left","75","75","75","0","0","75","75","0","0","75","75","75","0","75","0","Sun Oct 25 19:22:56 2020","The main experiment item","yes","Sternbergtask oct 19.osexp","/Users/shelia/Desktop","no","mono","no","18","no","white","no","yes","768","legacy","63","11","/Users/shelia/Desktop/ST subject-4 Oct 25.csv","legacy","8 5 4 7 3 1","Lentiform Loewenfeld","3.3.3","2","y","0","left","right","right","left","NA","780","25894","6271","780","NA","2","legacy","6","1024","2","48000","-16","experiment","4","even","5","487206","483884","484949","2621","107369","484962","387371","2636","101097","490006","485983","489225","28545","489225","NA","Sternberg task","68","48990","76","yes","1024"
"89.6103896103896","89.6103896103896","643.7012987012987","643.7012987012987","black","experiment","legacy","legacy","legacy","0","uniform","1","undefined","1","right","76","76","76","0","0","76","76","0","0","76","76","76","0","76","0","Sun Oct 25 19:22:56 2020","The main experiment item","yes","Sternbergtask oct 19.osexp","/Users/shelia/Desktop","no","mono","no","18","no","white","no","yes","768","legacy","64","11","/Users/shelia/Desktop/ST subject-4 Oct 25.csv","legacy","2 6 4 3 9","Lentiform Loewenfeld","3.3.3","0","n","0","right","right","right","right","NA","575","25894","6271","575","NA","2","legacy","5","1024","2","48000","-16","experiment","4","even","1","493345","490021","491085","2621","107369","491099","387371","2636","101097","495942","492120","495366","28545","495366","NA","Sternberg task","69","49565","77","yes","1024"
"89.74358974358974","89.74358974358974","644.3076923076923","644.3076923076923","black","experiment","legacy","legacy","legacy","0","uniform","1","undefined","1","left","77","77","77","0","0","77","77","0","0","77","77","77","0","77","0","Sun Oct 25 19:22:56 2020","The main experiment item","yes","Sternbergtask oct 19.osexp","/Users/shelia/Desktop","no","mono","no","18","no","white","no","yes","768","legacy","65","11","/Users/shelia/Desktop/ST subject-4 Oct 25.csv","legacy","5 7 8 2 3 8","Lentiform Loewenfeld","3.3.3","5","y","0","left","right","right","left","NA","691","25894","6271","691","NA","2","legacy","6","1024","2","48000","-16","experiment","4","even","3","499278","495957","497020","2621","107369","497033","387371","2636","101097","501989","498054","501297","28545","501297","NA","Sternberg task","70","50256","78","yes","1024"
"89.87341772151899","89.87341772151899","644.1772151898734","644.1772151898734","black","experiment","legacy","legacy","legacy","0","uniform","1","undefined","1","left","78","78","78","0","0","78","78","0","0","78","78","78","0","78","0","Sun Oct 25 19:22:56 2020","The main experiment item","yes","Sternbergtask oct 19.osexp","/Users/shelia/Desktop","no","mono","no","18","no","white","no","yes","768","legacy","66","11","/Users/shelia/Desktop/ST subject-4 Oct 25.csv","legacy","6 9 3 1","Lentiform Loewenfeld","3.3.3","4","y","0","left","right","right","left","NA","634","25894","6271","634","NA","2","legacy","4","1024","2","48000","-16","experiment","4","even","1","505322","502003","503065","2621","107369","503078","387371","2636","101097","507977","504099","507342","28545","507342","NA","Sternberg task","71","50890","79","yes","1024"
"90","90","647.2375","647.2375","black","experiment","legacy","legacy","legacy","0","uniform","1","undefined","1","right","79","79","79","0","0","79","79","0","0","79","79","79","0","79","0","Sun Oct 25 19:22:56 2020","The main experiment item","yes","Sternbergtask oct 19.osexp","/Users/shelia/Desktop","no","mono","no","18","no","white","no","yes","768","legacy","67","11","/Users/shelia/Desktop/ST subject-4 Oct 25.csv","legacy","5","Lentiform Loewenfeld","3.3.3","0","n","0","right","right","right","right","NA","889","25894","6271","889","NA","2","legacy","1","1024","2","48000","-16","experiment","4","even","8","511307","507992","509054","2621","107369","509067","387371","2636","101097","514217","510084","513327","28545","513327","NA","Sternberg task","72","51779","80","yes","1024"
"90.12345679012346","90.12345679012346","646.9629629629629","646.9629629629629","black","experiment","legacy","legacy","legacy","0","uniform","1","undefined","1","right","80","80","80","0","0","80","80","0","0","80","80","80","0","80","0","Sun Oct 25 19:22:56 2020","The main experiment item","yes","Sternbergtask oct 19.osexp","/Users/shelia/Desktop","no","mono","no","18","no","white","no","yes","768","legacy","68","11","/Users/shelia/Desktop/ST subject-4 Oct 25.csv","legacy","7 3 2 8","Lentiform Loewenfeld","3.3.3","0","n","0","right","right","right","right","NA","625","25894","6271","625","NA","2","legacy","4","1024","2","48000","-16","experiment","4","even","4","517551","514233","515294","2621","107369","515307","387371","2636","101097","520197","516328","519571","28545","519571","NA","Sternberg task","73","52404","81","yes","1024"
"90.2439024390244","90.2439024390244","647.6951219512196","647.6951219512196","black","experiment","legacy","legacy","legacy","0","uniform","1","undefined","1","right","81","81","81","0","0","81","81","0","0","81","81","81","0","81","0","Sun Oct 25 19:22:56 2020","The main experiment item","yes","Sternbergtask oct 19.osexp","/Users/shelia/Desktop","no","mono","no","18","no","white","no","yes","768","legacy","69","11","/Users/shelia/Desktop/ST subject-4 Oct 25.csv","legacy","3 9 8 1 6 4","Lentiform Loewenfeld","3.3.3","0","n","0","right","right","right","right","NA","707","25894","6271","707","NA","2","legacy","6","1024","2","48000","-16","experiment","4","even","7","523533","520212","521276","2621","107369","521289","387371","2636","101097","526262","522310","525554","28545","525552","NA","Sternberg task","74","53111","82","yes","1024"
"90.36144578313252","90.36144578313252","649.6265060240963","649.6265060240963","black","experiment","legacy","legacy","legacy","0","uniform","1","undefined","1","left","82","82","82","0","0","82","82","0","0","82","82","82","0","82","0","Sun Oct 25 19:22:56 2020","The main experiment item","yes","Sternbergtask oct 19.osexp","/Users/shelia/Desktop","no","mono","no","18","no","white","no","yes","768","legacy","70","11","/Users/shelia/Desktop/ST subject-4 Oct 25.csv","legacy","4 7 6 8 2 3","Lentiform Loewenfeld","3.3.3","6","y","0","left","right","right","left","NA","808","25894","6271","808","NA","2","legacy","6","1024","2","48000","-16","experiment","4","even","3","529598","526277","527341","2621","107369","527354","387371","2636","101097","532429","528375","531620","28545","531620","NA","Sternberg task","75","53919","83","yes","1024"
"90.47619047619048","90.47619047619048","649.6428571428571","649.6428571428571","black","experiment","legacy","legacy","legacy","0","uniform","1","undefined","1","left","83","83","83","0","0","83","83","0","0","83","83","83","0","83","0","Sun Oct 25 19:22:56 2020","The main experiment item","yes","Sternbergtask oct 19.osexp","/Users/shelia/Desktop","no","mono","no","18","no","white","no","yes","768","legacy","71","11","/Users/shelia/Desktop/ST subject-4 Oct 25.csv","legacy","6 7 9 3 1 2","Lentiform Loewenfeld","3.3.3","1","y","0","left","right","right","left","NA","651","25894","6271","651","NA","2","legacy","6","1024","2","48000","-16","experiment","4","even","6","535768","532444","533509","2621","107369","533524","387371","2636","101097","538441","534545","537789","28545","537789","NA","Sternberg task","76","54570","84","yes","1024"
"90.58823529411765","90.58823529411765","649.9529411764706","649.9529411764706","black","experiment","legacy","legacy","legacy","0","uniform","1","undefined","1","right","84","84","84","0","0","84","84","0","0","84","84","84","0","84","0","Sun Oct 25 19:22:56 2020","The main experiment item","yes","Sternbergtask oct 19.osexp","/Users/shelia/Desktop","no","mono","no","18","no","white","no","yes","768","legacy","72","11","/Users/shelia/Desktop/ST subject-4 Oct 25.csv","legacy","9","Lentiform Loewenfeld","3.3.3","0","n","0","right","right","right","right","NA","676","25894","6271","676","NA","2","legacy","1","1024","2","48000","-16","experiment","4","even","6","541776","538457","539518","2621","107369","539532","387371","2636","101097","544473","540553","543796","28545","543796","NA","Sternberg task","77","55246","85","yes","1024"
"90.69767441860465","90.69767441860465","653.7790697674419","653.7790697674419","black","experiment","legacy","legacy","legacy","0","uniform","1","undefined","1","left","85","85","85","0","0","85","85","0","0","85","85","85","0","85","0","Sun Oct 25 19:22:56 2020","The main experiment item","yes","Sternbergtask oct 19.osexp","/Users/shelia/Desktop","no","mono","no","18","no","white","no","yes","768","legacy","73","11","/Users/shelia/Desktop/ST subject-4 Oct 25.csv","legacy","4 1 5","Lentiform Loewenfeld","3.3.3","2","y","0","left","right","right","left","NA","979","25894","6271","979","NA","2","legacy","3","1024","2","48000","-16","experiment","4","even","1","547809","544488","545552","2621","107369","545565","387371","2636","101097","550808","546586","549828","28545","549828","NA","Sternberg task","78","56225","86","yes","1024"
"90.80459770114942","90.80459770114942","654.1954022988506","654.1954022988506","black","experiment","legacy","legacy","legacy","0","uniform","1","undefined","1","right","86","86","86","0","0","86","86","0","0","86","86","86","0","86","0","Sun Oct 25 19:22:56 2020","The main experiment item","yes","Sternbergtask oct 19.osexp","/Users/shelia/Desktop","no","mono","no","18","no","white","no","yes","768","legacy","74","11","/Users/shelia/Desktop/ST subject-4 Oct 25.csv","legacy","6 9 4 5 2","Lentiform Loewenfeld","3.3.3","0","n","0","right","right","right","right","NA","690","25894","6271","690","NA","2","legacy","5","1024","2","48000","-16","experiment","4","even","1","554139","550822","551884","2621","107369","551896","387371","2636","101097","556850","552917","556159","28545","556159","NA","Sternberg task","79","56915","87","yes","1024"
"89.77272727272727","89.77272727272727","653.1818181818181","653.1818181818181","black","experiment","legacy","legacy","legacy","0","uniform","0","undefined","0","left","87","87","87","0","0","87","87","0","0","87","87","87","0","87","0","Sun Oct 25 19:22:56 2020","The main experiment item","yes","Sternbergtask oct 19.osexp","/Users/shelia/Desktop","no","mono","no","18","no","white","no","yes","768","legacy","75","11","/Users/shelia/Desktop/ST subject-4 Oct 25.csv","legacy","7 4 2 6 3 5","Lentiform Loewenfeld","3.3.3","6","y","0","right","right","right","right","NA","565","25894","6271","565","NA","2","legacy","6","1024","2","48000","-16","experiment","4","even","5","560184","556865","557926","2621","107369","557940","387371","2636","101097","562770","558961","562203","28545","562203","NA","Sternberg task","79","57480","88","yes","1024"
"89.88764044943821","89.88764044943821","652.561797752809","652.561797752809","black","experiment","legacy","legacy","legacy","0","uniform","1","undefined","1","right","88","88","88","0","0","88","88","0","0","88","88","88","0","88","0","Sun Oct 25 19:22:56 2020","The main experiment item","yes","Sternbergtask oct 19.osexp","/Users/shelia/Desktop","no","mono","no","18","no","white","no","yes","768","legacy","76","11","/Users/shelia/Desktop/ST subject-4 Oct 25.csv","legacy","7 6 4 8 1 2","Lentiform Loewenfeld","3.3.3","0","n","0","right","right","right","right","NA","598","25894","6271","598","NA","2","legacy","6","1024","2","48000","-16","experiment","4","even","9","566102","556865","563846","2621","107369","563859","562785","2636","101097","568721","564880","568122","28545","568122","NA","Sternberg task","80","58078","89","yes","1024"
"90","90","654.6777777777778","654.6777777777778","black","experiment","legacy","legacy","legacy","0","uniform","1","undefined","1","right","89","89","89","0","0","89","89","0","0","89","89","89","0","89","0","Sun Oct 25 19:22:56 2020","The main experiment item","yes","Sternbergtask oct 19.osexp","/Users/shelia/Desktop","no","mono","no","18","no","white","no","yes","768","legacy","77","11","/Users/shelia/Desktop/ST subject-4 Oct 25.csv","legacy","6 7 5 9","Lentiform Loewenfeld","3.3.3","0","n","0","right","right","right","right","NA","843","25894","6271","843","NA","2","legacy","4","1024","2","48000","-16","experiment","4","even","2","572055","568736","569798","2621","107369","569811","562785","2636","101097","574919","570833","574075","28545","574074","NA","Sternberg task","81","58921","90","yes","1024"
"90.10989010989012","90.10989010989012","655.7362637362637","655.7362637362637","black","experiment","legacy","legacy","legacy","0","uniform","1","undefined","1","left","90","90","90","0","0","90","90","0","0","90","90","90","0","90","0","Sun Oct 25 19:22:56 2020","The main experiment item","yes","Sternbergtask oct 19.osexp","/Users/shelia/Desktop","no","mono","no","18","no","white","no","yes","768","legacy","78","11","/Users/shelia/Desktop/ST subject-4 Oct 25.csv","legacy","2 6 1 7 4","Lentiform Loewenfeld","3.3.3","2","y","0","left","right","right","left","NA","751","25894","6271","751","NA","2","legacy","5","1024","2","48000","-16","experiment","4","even","6","578253","574933","575995","2621","107369","576009","562785","2636","101097","581025","577030","580273","28545","580272","NA","Sternberg task","82","59672","91","yes","1024"
"90.21739130434783","90.21739130434783","655.8804347826087","655.8804347826087","black","experiment","legacy","legacy","legacy","0","uniform","1","undefined","1","left","91","91","91","0","0","91","91","0","0","91","91","91","0","91","0","Sun Oct 25 19:22:56 2020","The main experiment item","yes","Sternbergtask oct 19.osexp","/Users/shelia/Desktop","no","mono","no","18","no","white","no","yes","768","legacy","79","11","/Users/shelia/Desktop/ST subject-4 Oct 25.csv","legacy","8 9 5 7 1 6","Lentiform Loewenfeld","3.3.3","4","y","0","left","right","right","left","NA","669","25894","6271","669","NA","2","legacy","6","1024","2","48000","-16","experiment","4","even","7","584362","581040","582104","2621","107369","582117","562785","2636","101097","587054","583138","586384","28545","586381","NA","Sternberg task","83","60341","92","yes","1024"
"89.24731182795699","89.24731182795699","656.8279569892474","656.8279569892474","black","experiment","legacy","legacy","legacy","0","uniform","0","undefined","0","left","92","92","92","0","0","92","92","0","0","92","92","92","0","92","0","Sun Oct 25 19:22:56 2020","The main experiment item","yes","Sternbergtask oct 19.osexp","/Users/shelia/Desktop","no","mono","no","18","no","white","no","yes","768","legacy","80","11","/Users/shelia/Desktop/ST subject-4 Oct 25.csv","legacy","8 9 6 1","Lentiform Loewenfeld","3.3.3","2","y","0","right","right","right","right","NA","744","25894","6271","744","NA","2","legacy","4","1024","2","48000","-16","experiment","4","even","9","590389","587068","588131","2621","107369","588145","562785","2636","101097","593154","589166","592409","28545","592408","NA","Sternberg task","83","61085","93","yes","1024"
"89.36170212765957","89.36170212765957","659.4255319148937","659.4255319148937","black","experiment","legacy","legacy","legacy","0","uniform","1","undefined","1","right","93","93","93","0","0","93","93","0","0","93","93","93","0","93","0","Sun Oct 25 19:22:56 2020","The main experiment item","yes","Sternbergtask oct 19.osexp","/Users/shelia/Desktop","no","mono","no","18","no","white","no","yes","768","legacy","81","11","/Users/shelia/Desktop/ST subject-4 Oct 25.csv","legacy","8 2 1 4 5 9","Lentiform Loewenfeld","3.3.3","0","n","0","right","right","right","right","NA","901","25894","6271","901","NA","2","legacy","6","1024","2","48000","-16","experiment","4","even","7","596496","587068","594236","2621","107369","594251","593169","2636","101097","599418","595273","598516","28545","598516","NA","Sternberg task","84","61986","94","yes","1024"
"89.47368421052632","89.47368421052632","660.7473684210527","660.7473684210527","black","experiment","legacy","legacy","legacy","0","uniform","1","undefined","1","left","94","94","94","0","0","94","94","0","0","94","94","94","0","94","0","Sun Oct 25 19:22:56 2020","The main experiment item","yes","Sternbergtask oct 19.osexp","/Users/shelia/Desktop","no","mono","no","18","no","white","no","yes","768","legacy","82","11","/Users/shelia/Desktop/ST subject-4 Oct 25.csv","legacy","9 1 6 7 8","Lentiform Loewenfeld","3.3.3","1","y","0","left","right","right","left","NA","785","25894","6271","785","NA","2","legacy","5","1024","2","48000","-16","experiment","4","even","9","602754","599435","600498","2621","107369","600510","593169","2636","101097","605560","601532","604774","28545","604774","NA","Sternberg task","85","62771","95","yes","1024"
"89.58333333333333","89.58333333333333","662.9479166666666","662.9479166666666","black","experiment","legacy","legacy","legacy","0","uniform","1","undefined","1","left","95","95","95","0","0","95","95","0","0","95","95","95","0","95","0","Sun Oct 25 19:22:56 2020","The main experiment item","yes","Sternbergtask oct 19.osexp","/Users/shelia/Desktop","no","mono","no","18","no","white","no","yes","768","legacy","83","11","/Users/shelia/Desktop/ST subject-4 Oct 25.csv","legacy","7 2 3","Lentiform Loewenfeld","3.3.3","3","y","0","left","right","right","left","NA","872","25894","6271","872","NA","2","legacy","3","1024","2","48000","-16","experiment","4","even","3","608893","605575","606636","2621","107369","606649","593169","2636","101097","611786","607670","610913","28545","610913","NA","Sternberg task","86","63643","96","yes","1024"
"89.69072164948453","89.69072164948453","662.4020618556701","662.4020618556701","black","experiment","legacy","legacy","legacy","0","uniform","1","undefined","1","left","96","96","96","0","0","96","96","0","0","96","96","96","0","96","0","Sun Oct 25 19:22:56 2020","The main experiment item","yes","Sternbergtask oct 19.osexp","/Users/shelia/Desktop","no","mono","no","18","no","white","no","yes","768","legacy","84","11","/Users/shelia/Desktop/ST subject-4 Oct 25.csv","legacy","7 1 3","Lentiform Loewenfeld","3.3.3","2","y","0","left","right","right","left","NA","610","25894","6271","610","NA","2","legacy","3","1024","2","48000","-16","experiment","4","even","1","615122","611801","612865","2621","107369","612879","593169","2636","101097","617753","613899","617142","28545","617142","NA","Sternberg task","87","64253","97","yes","1024"
"89.79591836734694","89.79591836734694","660.8673469387755","660.8673469387755","black","experiment","legacy","legacy","legacy","0","uniform","1","undefined","1","left","97","97","97","0","0","97","97","0","0","97","97","97","0","97","0","Sun Oct 25 19:22:56 2020","The main experiment item","yes","Sternbergtask oct 19.osexp","/Users/shelia/Desktop","no","mono","no","18","no","white","no","yes","768","legacy","85","11","/Users/shelia/Desktop/ST subject-4 Oct 25.csv","legacy","4","Lentiform Loewenfeld","3.3.3","1","y","0","left","right","right","left","NA","512","25894","6271","512","NA","2","legacy","1","1024","2","48000","-16","experiment","4","even","4","621089","617768","618832","2621","107369","618845","593169","2636","101097","623623","619867","623109","28545","623108","NA","Sternberg task","88","64765","98","yes","1024"
"89.8989898989899","89.8989898989899","662.959595959596","662.959595959596","black","experiment","legacy","legacy","legacy","0","uniform","1","undefined","1","left","98","98","98","0","0","98","98","0","0","98","98","98","0","98","0","Sun Oct 25 19:22:56 2020","The main experiment item","yes","Sternbergtask oct 19.osexp","/Users/shelia/Desktop","no","mono","no","18","no","white","no","yes","768","legacy","86","11","/Users/shelia/Desktop/ST subject-4 Oct 25.csv","legacy","6 5","Lentiform Loewenfeld","3.3.3","2","y","0","left","right","right","left","NA","868","25894","6271","868","NA","2","legacy","2","1024","2","48000","-16","experiment","4","even","5","626955","623638","624699","2621","107369","624712","593169","2636","101097","629844","625732","628975","28545","628975","NA","Sternberg task","89","65633","99","yes","1024"
"90","90","662.9","662.9","black","experiment","legacy","legacy","legacy","0","uniform","1","undefined","1","right","99","99","99","0","0","99","99","0","0","99","99","99","0","99","0","Sun Oct 25 19:22:56 2020","The main experiment item","yes","Sternbergtask oct 19.osexp","/Users/shelia/Desktop","no","mono","no","18","no","white","no","yes","768","legacy","87","11","/Users/shelia/Desktop/ST subject-4 Oct 25.csv","legacy","6 8","Lentiform Loewenfeld","3.3.3","0","n","0","right","right","right","right","NA","657","25894","6271","657","NA","2","legacy","2","1024","2","48000","-16","experiment","4","even","9","633177","629860","630920","2621","107369","630934","593169","2636","101097","635855","631955","635197","28545","635197","NA","Sternberg task","90","66290","100","yes","1024"
"90.0990099009901","90.0990099009901","660.940594059406","660.940594059406","black","experiment","legacy","legacy","legacy","0","uniform","1","undefined","1","right","100","100","100","0","0","100","100","0","0","100","100","100","0","100","0","Sun Oct 25 19:22:56 2020","The main experiment item","yes","Sternbergtask oct 19.osexp","/Users/shelia/Desktop","no","mono","no","18","no","white","no","yes","768","legacy","88","11","/Users/shelia/Desktop/ST subject-4 Oct 25.csv","legacy","4 1","Lentiform Loewenfeld","3.3.3","0","n","0","right","right","right","right","NA","465","25894","6271","465","NA","2","legacy","2","1024","2","48000","-16","experiment","4","even","6","639188","635870","636931","2621","107369","636944","593169","2636","101097","641673","637965","641207","28545","641207","NA","Sternberg task","91","66755","101","yes","1024"
"90.19607843137256","90.19607843137256","661.5980392156863","661.5980392156863","black","experiment","legacy","legacy","legacy","0","uniform","1","undefined","1","right","101","101","101","0","0","101","101","0","0","101","101","101","0","101","0","Sun Oct 25 19:22:56 2020","The main experiment item","yes","Sternbergtask oct 19.osexp","/Users/shelia/Desktop","no","mono","no","18","no","white","no","yes","768","legacy","89","11","/Users/shelia/Desktop/ST subject-4 Oct 25.csv","legacy","2 5 1 4","Lentiform Loewenfeld","3.3.3","0","n","0","right","right","right","right","NA","728","25894","6271","728","NA","2","legacy","4","1024","2","48000","-16","experiment","4","even","6","645005","641688","642749","2621","107369","642762","593169","2636","101097","647753","643783","647024","28545","647024","NA","Sternberg task","92","67483","102","yes","1024"
"89.32038834951456","89.32038834951456","674.5922330097087","674.5922330097087","black","experiment","legacy","legacy","legacy","0","uniform","0","undefined","0","right","102","102","102","0","0","102","102","0","0","102","102","102","0","102","0","Sun Oct 25 19:22:56 2020","The main experiment item","yes","Sternbergtask oct 19.osexp","/Users/shelia/Desktop","no","mono","no","18","no","white","no","yes","768","legacy","90","11","/Users/shelia/Desktop/ST subject-4 Oct 25.csv","legacy","4 8 1 2","Lentiform Loewenfeld","3.3.3","0","n","0","None","right","right","None","NA","2000","25894","6271","2000","NA","2","legacy","4","1024","2","48000","-16","experiment","4","even","7","651089","647768","648832","2621","107369","648846","593169","2636","101097","655109","649867","653109","28545","653109","NA","Sternberg task","92","69483","103","yes","1024"
"89.42307692307692","89.42307692307692","675.0384615384615","675.0384615384615","black","experiment","legacy","legacy","legacy","0","uniform","1","undefined","1","left","103","103","103","0","0","103","103","0","0","103","103","103","0","103","0","Sun Oct 25 19:22:56 2020","The main experiment item","yes","Sternbergtask oct 19.osexp","/Users/shelia/Desktop","no","mono","no","18","no","white","no","yes","768","legacy","91","11","/Users/shelia/Desktop/ST subject-4 Oct 25.csv","legacy","4 6 5 8","Lentiform Loewenfeld","3.3.3","1","y","0","left","right","right","left","NA","721","25894","6271","721","NA","2","legacy","4","1024","2","48000","-16","experiment","4","even","4","658446","647768","656189","2621","107369","656202","655125","2636","101097","661187","657223","660465","28545","660465","NA","Sternberg task","93","70204","104","yes","1024"
"89.52380952380952","89.52380952380952","675.3619047619047","675.3619047619047","black","experiment","legacy","legacy","legacy","0","uniform","1","undefined","1","right","104","104","104","0","0","104","104","0","0","104","104","104","0","104","0","Sun Oct 25 19:22:56 2020","The main experiment item","yes","Sternbergtask oct 19.osexp","/Users/shelia/Desktop","no","mono","no","18","no","white","no","yes","768","legacy","92","11","/Users/shelia/Desktop/ST subject-4 Oct 25.csv","legacy","7 1 8 4 9 3","Lentiform Loewenfeld","3.3.3","0","n","0","right","right","right","right","NA","709","25894","6271","709","NA","2","legacy","6","1024","2","48000","-16","experiment","4","even","6","664521","661202","662264","2621","107369","662278","655125","2636","101097","667250","663299","666540","28545","666540","NA","Sternberg task","94","70913","105","yes","1024"
"89.62264150943396","89.62264150943396","676.8396226415094","676.8396226415094","black","experiment","legacy","legacy","legacy","0","uniform","1","undefined","1","left","105","105","105","0","0","105","105","0","0","105","105","105","0","105","0","Sun Oct 25 19:22:56 2020","The main experiment item","yes","Sternbergtask oct 19.osexp","/Users/shelia/Desktop","no","mono","no","18","no","white","no","yes","768","legacy","93","11","/Users/shelia/Desktop/ST subject-4 Oct 25.csv","legacy","9 1 7 2","Lentiform Loewenfeld","3.3.3","2","y","0","left","right","right","left","NA","832","25894","6271","832","NA","2","legacy","4","1024","2","48000","-16","experiment","4","even","1","670589","667267","668331","2621","107369","668345","655125","2636","101097","673441","669366","672608","28545","672608","NA","Sternberg task","95","71745","106","yes","1024"
"89.7196261682243","89.7196261682243","675.3084112149533","675.3084112149533","black","experiment","legacy","legacy","legacy","0","uniform","1","undefined","1","left","106","106","106","0","0","106","106","0","0","106","106","106","0","106","0","Sun Oct 25 19:22:56 2020","The main experiment item","yes","Sternbergtask oct 19.osexp","/Users/shelia/Desktop","no","mono","no","18","no","white","no","yes","768","legacy","94","11","/Users/shelia/Desktop/ST subject-4 Oct 25.csv","legacy","2 3","Lentiform Loewenfeld","3.3.3","1","y","0","left","right","right","left","NA","513","25894","6271","513","NA","2","legacy","2","1024","2","48000","-16","experiment","4","even","2","676774","673456","674517","2621","107369","674530","655125","2636","101097","679308","675551","678794","28545","678794","NA","Sternberg task","96","72258","107","yes","1024"
"89.81481481481481","89.81481481481481","678.7129629629629","678.7129629629629","black","experiment","legacy","legacy","legacy","0","uniform","1","undefined","1","left","107","107","107","0","0","107","107","0","0","107","107","107","0","107","0","Sun Oct 25 19:22:56 2020","The main experiment item","yes","Sternbergtask oct 19.osexp","/Users/shelia/Desktop","no","mono","no","18","no","white","no","yes","768","legacy","95","11","/Users/shelia/Desktop/ST subject-4 Oct 25.csv","legacy","7 8 6 3 1","Lentiform Loewenfeld","3.3.3","5","y","0","left","right","right","left","NA","1043","25894","6271","1043","NA","2","legacy","5","1024","2","48000","-16","experiment","4","even","1","682633","679323","680379","2621","107369","680393","655125","2636","101097","685696","681414","684652","28545","684652","NA","Sternberg task","97","73301","108","yes","1024"
"89.90825688073394","89.90825688073394","679.7339449541284","679.7339449541284","black","experiment","legacy","legacy","legacy","0","uniform","1","undefined","1","right","108","108","108","0","0","108","108","0","0","108","108","108","0","108","0","Sun Oct 25 19:22:56 2020","The main experiment item","yes","Sternbergtask oct 19.osexp","/Users/shelia/Desktop","no","mono","no","18","no","white","no","yes","768","legacy","96","11","/Users/shelia/Desktop/ST subject-4 Oct 25.csv","legacy","6 8 4","Lentiform Loewenfeld","3.3.3","0","n","0","right","right","right","right","NA","790","25894","6271","790","NA","2","legacy","3","1024","2","48000","-16","experiment","4","even","1","689028","685712","686774","2621","107369","686787","655125","2636","101097","691838","687806","691047","28545","691047","NA","Sternberg task","98","74091","109","yes","1024"
"89.0909090909091","89.0909090909091","678.9090909090909","678.9090909090909","black","experiment","legacy","legacy","legacy","0","uniform","0","undefined","0","left","109","109","109","0","0","109","109","0","0","109","109","109","0","109","0","Sun Oct 25 19:22:56 2020","The main experiment item","yes","Sternbergtask oct 19.osexp","/Users/shelia/Desktop","no","mono","no","18","no","white","no","yes","768","legacy","97","11","/Users/shelia/Desktop/ST subject-4 Oct 25.csv","legacy","7 6","Lentiform Loewenfeld","3.3.3","2","y","0","right","right","right","right","NA","589","25894","6271","589","NA","2","legacy","2","1024","2","48000","-16","experiment","4","even","6","695170","691853","692913","2621","107369","692926","655125","2636","101097","697780","693947","697190","28545","697190","NA","Sternberg task","98","74680","110","yes","1024"
"89.1891891891892","89.1891891891892","680.0540540540541","680.0540540540541","black","experiment","legacy","legacy","legacy","0","uniform","1","undefined","1","left","110","110","110","0","0","110","110","0","0","110","110","110","0","110","0","Sun Oct 25 19:22:56 2020","The main experiment item","yes","Sternbergtask oct 19.osexp","/Users/shelia/Desktop","no","mono","no","18","no","white","no","yes","768","legacy","98","11","/Users/shelia/Desktop/ST subject-4 Oct 25.csv","legacy","3 2 1 4 7","Lentiform Loewenfeld","3.3.3","2","y","0","left","right","right","left","NA","806","25894","6271","806","NA","2","legacy","5","1024","2","48000","-16","experiment","4","even","2","701117","691853","698861","2621","107369","698874","697797","2636","101097","703944","699895","703137","28545","703136","NA","Sternberg task","99","75486","111","yes","1024"
"89.28571428571429","89.28571428571429","679","679","black","experiment","legacy","legacy","legacy","0","uniform","1","undefined","1","right","111","111","111","0","0","111","111","0","0","111","111","111","0","111","0","Sun Oct 25 19:22:56 2020","The main experiment item","yes","Sternbergtask oct 19.osexp","/Users/shelia/Desktop","no","mono","no","18","no","white","no","yes","768","legacy","99","11","/Users/shelia/Desktop/ST subject-4 Oct 25.csv","legacy","1 4 3 6 5","Lentiform Loewenfeld","3.3.3","0","n","0","right","right","right","right","NA","562","25894","6271","562","NA","2","legacy","5","1024","2","48000","-16","experiment","4","even","8","707277","703959","705019","2621","107369","705032","697797","2636","101097","709859","706053","709296","28545","709296","NA","Sternberg task","100","76048","112","yes","1024"
"89.38053097345133","89.38053097345133","678.6637168141593","678.6637168141593","black","experiment","legacy","legacy","legacy","0","uniform","1","undefined","1","left","112","112","112","0","0","112","112","0","0","112","112","112","0","112","0","Sun Oct 25 19:22:56 2020","The main experiment item","yes","Sternbergtask oct 19.osexp","/Users/shelia/Desktop","no","mono","no","18","no","white","no","yes","768","legacy","100","11","/Users/shelia/Desktop/ST subject-4 Oct 25.csv","legacy","9 4 2","Lentiform Loewenfeld","3.3.3","1","y","0","left","right","right","left","NA","641","25894","6271","641","NA","2","legacy","3","1024","2","48000","-16","experiment","4","even","9","713192","709874","710935","2621","107369","710948","697797","2636","101097","715853","711969","715211","28545","715211","NA","Sternberg task","101","76689","113","yes","1024"
"89.47368421052632","89.47368421052632","678.0438596491229","678.0438596491229","black","experiment","legacy","legacy","legacy","0","uniform","1","undefined","1","left","113","113","113","0","0","113","113","0","0","113","113","113","0","113","0","Sun Oct 25 19:22:56 2020","The main experiment item","yes","Sternbergtask oct 19.osexp","/Users/shelia/Desktop","no","mono","no","18","no","white","no","yes","768","legacy","101","11","/Users/shelia/Desktop/ST subject-4 Oct 25.csv","legacy","9 8 4","Lentiform Loewenfeld","3.3.3","1","y","0","left","right","right","left","NA","608","25894","6271","608","NA","2","legacy","3","1024","2","48000","-16","experiment","4","even","9","719190","715868","716932","2621","107369","716945","697797","2636","101097","721819","717966","721210","28545","721209","NA","Sternberg task","102","77297","114","yes","1024"
"89.56521739130434","89.56521739130434","677.991304347826","677.991304347826","black","experiment","legacy","legacy","legacy","0","uniform","1","undefined","1","right","114","114","114","0","0","114","114","0","0","114","114","114","0","114","0","Sun Oct 25 19:22:56 2020","The main experiment item","yes","Sternbergtask oct 19.osexp","/Users/shelia/Desktop","no","mono","no","18","no","white","no","yes","768","legacy","102","11","/Users/shelia/Desktop/ST subject-4 Oct 25.csv","legacy","6 9 5","Lentiform Loewenfeld","3.3.3","0","n","0","right","right","right","right","NA","672","25894","6271","672","NA","2","legacy","3","1024","2","48000","-16","experiment","4","even","8","725154","721834","722898","2621","107369","722911","697797","2636","101097","727846","723931","727173","28545","727173","NA","Sternberg task","103","77969","115","yes","1024"
"89.65517241379311","89.65517241379311","678.4137931034483","678.4137931034483","black","experiment","legacy","legacy","legacy","0","uniform","1","undefined","1","left","115","115","115","0","0","115","115","0","0","115","115","115","0","115","0","Sun Oct 25 19:22:56 2020","The main experiment item","yes","Sternbergtask oct 19.osexp","/Users/shelia/Desktop","no","mono","no","18","no","white","no","yes","768","legacy","103","11","/Users/shelia/Desktop/ST subject-4 Oct 25.csv","legacy","6 9 7 4 5 1","Lentiform Loewenfeld","3.3.3","2","y","0","left","right","right","left","NA","727","25894","6271","727","NA","2","legacy","6","1024","2","48000","-16","experiment","4","even","9","731183","727862","728925","2621","107369","728938","697797","2636","101097","733931","729959","733202","28545","733202","NA","Sternberg task","104","78696","116","yes","1024"
"89.74358974358974","89.74358974358974","679.025641025641","679.025641025641","black","experiment","legacy","legacy","legacy","0","uniform","1","undefined","1","right","116","116","116","0","0","116","116","0","0","116","116","116","0","116","0","Sun Oct 25 19:22:56 2020","The main experiment item","yes","Sternbergtask oct 19.osexp","/Users/shelia/Desktop","no","mono","no","18","no","white","no","yes","768","legacy","104","11","/Users/shelia/Desktop/ST subject-4 Oct 25.csv","legacy","6 3 1 7 9 8","Lentiform Loewenfeld","3.3.3","0","n","0","right","right","right","right","NA","750","25894","6271","750","NA","2","legacy","6","1024","2","48000","-16","experiment","4","even","4","737268","733946","735010","2621","107369","735023","697797","2636","101097","740039","736044","739287","28545","739287","NA","Sternberg task","105","79446","117","yes","1024"
