"acc","accuracy","average_response_time","avg_rt","background","block","canvas_backend","clock_backend","color_backend","compensation","coordinates","correct","correct_instruction1","correct_keyboard_response","correct_response","count_Instructions2","count_correctFeedback","count_experiment","count_experiment_loop","count_fixation","count_incorrectFeedback","count_instruction1","count_isi","count_keyboard_response","count_logger","count_memory_set","count_practiceloop","count_probe","count_thankYou","count_x_sequence","datetime","description","disable_garbage_collection","experiment_file","experiment_path","font_bold","font_family","font_italic","font_size","font_underline","foreground","form_clicks","fullscreen","height","keyboard_backend","live_row","live_row_practiceloop","logfile","mouse_backend","numberSet","opensesame_codename","opensesame_version","posInSet","present","repeat_cycle","response","response_Instructions2","response_instruction1","response_keyboard_response","response_thankYou","response_time","response_time_Instructions2","response_time_instruction1","response_time_keyboard_response","response_time_thankYou","round_decimals","sampler_backend","setSize","sound_buf_size","sound_channels","sound_freq","sound_sample_size","start","subject_nr","subject_parity","target","time_Instructions2","time_correctFeedback","time_experiment","time_experiment_loop","time_fixation","time_incorrectFeedback","time_instruction1","time_isi","time_keyboard_response","time_logger","time_memory_set","time_practiceloop","time_probe","time_thankYou","time_x_sequence","title","total_correct","total_response_time","total_responses","uniform_coordinates","width"
"100","100","814","814","black","practice","legacy","legacy","legacy","0","uniform","1","undefined","1","right","0","0","0","0","0","0","0","0","0","0","0","0","0","0","0","10/16/21 19:37:09","The main experiment item","yes","SternburgTask.osexp","C:/Users/borna.000/Documents/PSYC/PSYC5316/Sternburg","no","mono","no","18","no","white","no","yes","768","legacy","0","0","C:/Users/borna.000/Documents/PSYC/PSYC5316/Sternburg/DH-subject-2.csv","legacy","2 1","Lentiform Loewenfeld","3.3.9","0","n","0","right","NA","right","right","NA","814","NA","38123","814","NA","2","legacy","2","1024","2","48000","-16","experiment","2","even","5","NA","NA","2597","NA","41611","NA","2600","43818","45819","46633","42614","40724","45819","NA","41609","Sternburg Task","1","814","1","yes","1024"
"100","100","953.5","953.5","black","practice","legacy","legacy","legacy","0","uniform","1","undefined","1","left","0","1","0","0","1","1","0","1","1","1","1","0","1","0","1","10/16/21 19:37:09","The main experiment item","yes","SternburgTask.osexp","C:/Users/borna.000/Documents/PSYC/PSYC5316/Sternburg","no","mono","no","18","no","white","no","yes","768","legacy","1","1","C:/Users/borna.000/Documents/PSYC/PSYC5316/Sternburg/DH-subject-2.csv","legacy","4 8","Lentiform Loewenfeld","3.3.9","1","y","0","left","NA","right","left","NA","1093","NA","38123","1093","NA","2","legacy","2","1024","2","48000","-16","experiment","2","even","4","NA","46681","2597","NA","47761","NA","2600","49963","51967","53061","48762","40724","51966","NA","47759","Sternburg Task","2","1907","2","yes","1024"
"100","100","1050.66666667","1050.66666667","black","practice","legacy","legacy","legacy","0","uniform","1","undefined","1","right","0","2","0","0","2","2","0","2","2","2","2","0","2","0","2","10/16/21 19:37:09","The main experiment item","yes","SternburgTask.osexp","C:/Users/borna.000/Documents/PSYC/PSYC5316/Sternburg","no","mono","no","18","no","white","no","yes","768","legacy","2","2","C:/Users/borna.000/Documents/PSYC/PSYC5316/Sternburg/DH-subject-2.csv","legacy","5 7 8 4 1 2","Lentiform Loewenfeld","3.3.9","0","n","0","right","NA","right","right","NA","1245","NA","38123","1245","NA","2","legacy","6","1024","2","48000","-16","experiment","2","even","6","NA","53069","2597","NA","54140","NA","2600","56346","58347","59592","55142","40724","58347","NA","54138","Sternburg Task","3","3152","3","yes","1024"
"75","75","980.25","980.25","black","practice","legacy","legacy","legacy","0","uniform","0","undefined","0","left","0","3","0","0","3","3","0","3","3","3","3","0","3","0","3","10/16/21 19:37:09","The main experiment item","yes","SternburgTask.osexp","C:/Users/borna.000/Documents/PSYC/PSYC5316/Sternburg","no","mono","no","18","no","white","no","yes","768","legacy","3","3","C:/Users/borna.000/Documents/PSYC/PSYC5316/Sternburg/DH-subject-2.csv","legacy","1 7 9 8 5","Lentiform Loewenfeld","3.3.9","4","y","0","right","NA","right","right","NA","769","NA","38123","769","NA","2","legacy","5","1024","2","48000","-16","experiment","2","even","8","NA","59596","2597","NA","60665","NA","2600","62867","64869","65638","61666","40724","64869","NA","60663","Sternburg Task","3","3921","4","yes","1024"
"80","80","1002.4","1002.4","black","practice","legacy","legacy","legacy","0","uniform","1","undefined","1","right","0","4","0","0","4","4","0","4","4","4","4","0","4","0","4","10/16/21 19:37:09","The main experiment item","yes","SternburgTask.osexp","C:/Users/borna.000/Documents/PSYC/PSYC5316/Sternburg","no","mono","no","18","no","white","no","yes","768","legacy","4","4","C:/Users/borna.000/Documents/PSYC/PSYC5316/Sternburg/DH-subject-2.csv","legacy","9 6 7 4 5","Lentiform Loewenfeld","3.3.9","0","n","0","right","NA","right","right","NA","1091","NA","38123","1091","NA","2","legacy","5","1024","2","48000","-16","experiment","2","even","3","NA","59596","2597","NA","66722","65647","2600","68928","70929","72020","67726","40724","70929","NA","66720","Sternburg Task","4","5012","5","yes","1024"
"66.6666666667","66.6666666667","947.833333333","947.833333333","black","practice","legacy","legacy","legacy","0","uniform","0","undefined","0","right","0","5","0","0","5","5","0","5","5","5","5","0","5","0","5","10/16/21 19:37:09","The main experiment item","yes","SternburgTask.osexp","C:/Users/borna.000/Documents/PSYC/PSYC5316/Sternburg","no","mono","no","18","no","white","no","yes","768","legacy","5","5","C:/Users/borna.000/Documents/PSYC/PSYC5316/Sternburg/DH-subject-2.csv","legacy","3 1 9 4","Lentiform Loewenfeld","3.3.9","0","n","0","left","NA","right","left","NA","675","NA","38123","675","NA","2","legacy","4","1024","2","48000","-16","experiment","2","even","6","NA","72030","2597","NA","73103","65647","2600","75308","77309","77985","74105","40724","77309","NA","73101","Sternburg Task","4","5687","6","yes","1024"
"71.4285714286","71.4285714286","984.142857143","984.142857143","black","practice","legacy","legacy","legacy","0","uniform","1","undefined","1","right","0","6","0","0","6","6","0","6","6","6","6","0","6","0","6","10/16/21 19:37:09","The main experiment item","yes","SternburgTask.osexp","C:/Users/borna.000/Documents/PSYC/PSYC5316/Sternburg","no","mono","no","18","no","white","no","yes","768","legacy","6","6","C:/Users/borna.000/Documents/PSYC/PSYC5316/Sternburg/DH-subject-2.csv","legacy","4 1 5","Lentiform Loewenfeld","3.3.9","0","n","0","right","NA","right","right","NA","1202","NA","38123","1202","NA","2","legacy","3","1024","2","48000","-16","experiment","2","even","2","NA","72030","2597","NA","79065","77994","2600","81268","83271","84474","80067","40724","83270","NA","79063","Sternburg Task","5","6889","7","yes","1024"
"75","75","1090.75","1090.75","black","practice","legacy","legacy","legacy","0","uniform","1","undefined","1","left","0","7","0","0","7","7","0","7","7","7","7","0","7","0","7","10/16/21 19:37:09","The main experiment item","yes","SternburgTask.osexp","C:/Users/borna.000/Documents/PSYC/PSYC5316/Sternburg","no","mono","no","18","no","white","no","yes","768","legacy","7","7","C:/Users/borna.000/Documents/PSYC/PSYC5316/Sternburg/DH-subject-2.csv","legacy","4 3 1 7 9 8","Lentiform Loewenfeld","3.3.9","1","y","0","left","NA","right","left","NA","1837","NA","38123","1837","NA","2","legacy","6","1024","2","48000","-16","experiment","2","even","4","NA","84481","2597","NA","85564","77994","2600","87769","89770","91608","86566","40724","89770","NA","85562","Sternburg Task","6","8726","8","yes","1024"
"77.7777777778","77.7777777778","1018.77777778","1018.77777778","black","practice","legacy","legacy","legacy","0","uniform","1","undefined","1","left","0","8","0","0","8","8","0","8","8","8","8","0","8","0","8","10/16/21 19:37:09","The main experiment item","yes","SternburgTask.osexp","C:/Users/borna.000/Documents/PSYC/PSYC5316/Sternburg","no","mono","no","18","no","white","no","yes","768","legacy","8","8","C:/Users/borna.000/Documents/PSYC/PSYC5316/Sternburg/DH-subject-2.csv","legacy","6","Lentiform Loewenfeld","3.3.9","1","y","0","left","NA","right","left","NA","443","NA","38123","443","NA","2","legacy","1","1024","2","48000","-16","experiment","2","even","6","NA","91616","2597","NA","92686","77994","2600","94892","96893","97337","93688","40724","96893","NA","92684","Sternburg Task","7","9169","9","yes","1024"
"80","80","963.2","963.2","black","practice","legacy","legacy","legacy","0","uniform","1","undefined","1","left","0","9","0","0","9","9","0","9","9","9","9","0","9","0","9","10/16/21 19:37:09","The main experiment item","yes","SternburgTask.osexp","C:/Users/borna.000/Documents/PSYC/PSYC5316/Sternburg","no","mono","no","18","no","white","no","yes","768","legacy","9","9","C:/Users/borna.000/Documents/PSYC/PSYC5316/Sternburg/DH-subject-2.csv","legacy","1 5 2 9","Lentiform Loewenfeld","3.3.9","2","y","0","left","NA","right","left","NA","463","NA","38123","463","NA","2","legacy","4","1024","2","48000","-16","experiment","2","even","5","NA","97345","2597","NA","98415","77994","2600","100620","102622","103086","99418","40724","102622","NA","98413","Sternburg Task","8","9632","10","yes","1024"
"81.8181818182","81.8181818182","931.181818182","931.181818182","black","practice","legacy","legacy","legacy","0","uniform","1","undefined","1","right","0","10","0","0","10","10","0","10","10","10","10","0","10","0","10","10/16/21 19:37:09","The main experiment item","yes","SternburgTask.osexp","C:/Users/borna.000/Documents/PSYC/PSYC5316/Sternburg","no","mono","no","18","no","white","no","yes","768","legacy","10","10","C:/Users/borna.000/Documents/PSYC/PSYC5316/Sternburg/DH-subject-2.csv","legacy","5","Lentiform Loewenfeld","3.3.9","0","n","0","right","NA","right","right","NA","611","NA","38123","611","NA","2","legacy","1","1024","2","48000","-16","experiment","2","even","3","NA","103094","2597","NA","104163","77994","2600","106367","108368","108979","105165","40724","108368","NA","104161","Sternburg Task","9","10243","11","yes","1024"
"83.3333333333","83.3333333333","930.583333333","930.583333333","black","practice","legacy","legacy","legacy","0","uniform","1","undefined","1","left","0","11","0","0","11","11","0","11","11","11","11","0","11","0","11","10/16/21 19:37:09","The main experiment item","yes","SternburgTask.osexp","C:/Users/borna.000/Documents/PSYC/PSYC5316/Sternburg","no","mono","no","18","no","white","no","yes","768","legacy","11","11","C:/Users/borna.000/Documents/PSYC/PSYC5316/Sternburg/DH-subject-2.csv","legacy","2 9 4","Lentiform Loewenfeld","3.3.9","3","y","0","left","NA","right","left","NA","924","NA","38123","924","NA","2","legacy","3","1024","2","48000","-16","experiment","2","even","4","NA","108988","2597","NA","110057","77994","2600","112262","114264","115189","111061","40724","114264","NA","110055","Sternburg Task","10","11167","12","yes","1024"
"84.6153846154","84.6153846154","918","918","black","experiment","legacy","legacy","legacy","0","uniform","1","undefined","1","right","0","12","0","0","12","12","0","12","12","12","12","0","12","0","12","10/16/21 19:37:09","The main experiment item","yes","SternburgTask.osexp","C:/Users/borna.000/Documents/PSYC/PSYC5316/Sternburg","no","mono","no","18","no","white","no","yes","768","legacy","0","11","C:/Users/borna.000/Documents/PSYC/PSYC5316/Sternburg/DH-subject-2.csv","legacy","7 1 8 4 9 3","Lentiform Loewenfeld","3.3.9","0","n","0","right","right","right","right","NA","767","6595","38123","767","NA","2","legacy","6","1024","2","48000","-16","experiment","2","even","6","116212","115197","2597","122808","122893","77994","2600","125101","127104","127871","123897","40724","127103","NA","122891","Sternburg Task","11","11934","13","yes","1024"
"85.7142857143","85.7142857143","899.5","899.5","black","experiment","legacy","legacy","legacy","0","uniform","1","undefined","1","left","0","13","0","0","13","13","0","13","13","13","13","0","13","0","13","10/16/21 19:37:09","The main experiment item","yes","SternburgTask.osexp","C:/Users/borna.000/Documents/PSYC/PSYC5316/Sternburg","no","mono","no","18","no","white","no","yes","768","legacy","1","11","C:/Users/borna.000/Documents/PSYC/PSYC5316/Sternburg/DH-subject-2.csv","legacy","8 1 6","Lentiform Loewenfeld","3.3.9","3","y","0","left","right","right","left","NA","659","6595","38123","659","NA","2","legacy","3","1024","2","48000","-16","experiment","2","even","6","116212","127879","2597","122808","128953","77994","2600","131156","133158","133818","129954","40724","133158","NA","128951","Sternburg Task","12","12593","14","yes","1024"
"86.6666666667","86.6666666667","892.066666667","892.066666667","black","experiment","legacy","legacy","legacy","0","uniform","1","undefined","1","right","0","14","0","0","14","14","0","14","14","14","14","0","14","0","14","10/16/21 19:37:09","The main experiment item","yes","SternburgTask.osexp","C:/Users/borna.000/Documents/PSYC/PSYC5316/Sternburg","no","mono","no","18","no","white","no","yes","768","legacy","2","11","C:/Users/borna.000/Documents/PSYC/PSYC5316/Sternburg/DH-subject-2.csv","legacy","1 8 7","Lentiform Loewenfeld","3.3.9","0","n","0","right","right","right","right","NA","788","6595","38123","788","NA","2","legacy","3","1024","2","48000","-16","experiment","2","even","4","116212","133826","2597","122808","134896","77994","2600","137099","139103","139892","135897","40724","139102","NA","134894","Sternburg Task","13","13381","15","yes","1024"
"87.5","87.5","867.125","867.125","black","experiment","legacy","legacy","legacy","0","uniform","1","undefined","1","right","0","15","0","0","15","15","0","15","15","15","15","0","15","0","15","10/16/21 19:37:09","The main experiment item","yes","SternburgTask.osexp","C:/Users/borna.000/Documents/PSYC/PSYC5316/Sternburg","no","mono","no","18","no","white","no","yes","768","legacy","3","11","C:/Users/borna.000/Documents/PSYC/PSYC5316/Sternburg/DH-subject-2.csv","legacy","3 4 2","Lentiform Loewenfeld","3.3.9","0","n","0","right","right","right","right","NA","493","6595","38123","493","NA","2","legacy","3","1024","2","48000","-16","experiment","2","even","5","116212","139900","2597","122808","140971","77994","2600","143175","145178","145671","141972","40724","145178","NA","140969","Sternburg Task","14","13874","16","yes","1024"
"88.2352941176","88.2352941176","848.235294118","848.235294118","black","experiment","legacy","legacy","legacy","0","uniform","1","undefined","1","right","0","16","0","0","16","16","0","16","16","16","16","0","16","0","16","10/16/21 19:37:09","The main experiment item","yes","SternburgTask.osexp","C:/Users/borna.000/Documents/PSYC/PSYC5316/Sternburg","no","mono","no","18","no","white","no","yes","768","legacy","4","11","C:/Users/borna.000/Documents/PSYC/PSYC5316/Sternburg/DH-subject-2.csv","legacy","6 9 5","Lentiform Loewenfeld","3.3.9","0","n","0","right","right","right","right","NA","546","6595","38123","546","NA","2","legacy","3","1024","2","48000","-16","experiment","2","even","8","116212","145680","2597","122808","146752","77994","2600","148960","150965","151512","147755","40724","150964","NA","146750","Sternburg Task","15","14420","17","yes","1024"
"83.3333333333","83.3333333333","834.333333333","834.333333333","black","experiment","legacy","legacy","legacy","0","uniform","0","undefined","0","left","0","17","0","0","17","17","0","17","17","17","17","0","17","0","17","10/16/21 19:37:09","The main experiment item","yes","SternburgTask.osexp","C:/Users/borna.000/Documents/PSYC/PSYC5316/Sternburg","no","mono","no","18","no","white","no","yes","768","legacy","5","11","C:/Users/borna.000/Documents/PSYC/PSYC5316/Sternburg/DH-subject-2.csv","legacy","1 4 9 3 2 5","Lentiform Loewenfeld","3.3.9","3","y","0","right","right","right","right","NA","598","6595","38123","598","NA","2","legacy","6","1024","2","48000","-16","experiment","2","even","9","116212","151525","2597","122808","152919","77994","2600","155125","157129","157728","153922","40724","157128","NA","152917","Sternburg Task","15","15018","18","yes","1024"
"84.2105263158","84.2105263158","823.578947368","823.578947368","black","experiment","legacy","legacy","legacy","0","uniform","1","undefined","1","right","0","18","0","0","18","18","0","18","18","18","18","0","18","0","18","10/16/21 19:37:09","The main experiment item","yes","SternburgTask.osexp","C:/Users/borna.000/Documents/PSYC/PSYC5316/Sternburg","no","mono","no","18","no","white","no","yes","768","legacy","6","11","C:/Users/borna.000/Documents/PSYC/PSYC5316/Sternburg/DH-subject-2.csv","legacy","7 1 5 6 3","Lentiform Loewenfeld","3.3.9","0","n","0","right","right","right","right","NA","630","6595","38123","630","NA","2","legacy","5","1024","2","48000","-16","experiment","2","even","8","116212","151525","2597","122808","158808","157736","2600","161013","163015","163646","159810","40724","163015","NA","158806","Sternburg Task","16","15648","19","yes","1024"
"85","85","808.05","808.05","black","experiment","legacy","legacy","legacy","0","uniform","1","undefined","1","right","0","19","0","0","19","19","0","19","19","19","19","0","19","0","19","10/16/21 19:37:09","The main experiment item","yes","SternburgTask.osexp","C:/Users/borna.000/Documents/PSYC/PSYC5316/Sternburg","no","mono","no","18","no","white","no","yes","768","legacy","7","11","C:/Users/borna.000/Documents/PSYC/PSYC5316/Sternburg/DH-subject-2.csv","legacy","1","Lentiform Loewenfeld","3.3.9","0","n","0","right","right","right","right","NA","513","6595","38123","513","NA","2","legacy","1","1024","2","48000","-16","experiment","2","even","7","116212","163655","2597","122808","164726","157736","2600","166931","168934","169448","165728","40724","168934","NA","164725","Sternburg Task","17","16161","20","yes","1024"
"85.7142857143","85.7142857143","823.333333333","823.333333333","black","experiment","legacy","legacy","legacy","0","uniform","1","undefined","1","left","0","20","0","0","20","20","0","20","20","20","20","0","20","0","20","10/16/21 19:37:09","The main experiment item","yes","SternburgTask.osexp","C:/Users/borna.000/Documents/PSYC/PSYC5316/Sternburg","no","mono","no","18","no","white","no","yes","768","legacy","8","11","C:/Users/borna.000/Documents/PSYC/PSYC5316/Sternburg/DH-subject-2.csv","legacy","9 3 8 2 1 4","Lentiform Loewenfeld","3.3.9","3","y","0","left","right","right","left","NA","1129","6595","38123","1129","NA","2","legacy","6","1024","2","48000","-16","experiment","2","even","8","116212","169457","2597","122808","170532","157736","2600","172735","174739","175869","171534","40724","174738","NA","170530","Sternburg Task","18","17290","21","yes","1024"
"86.3636363636","86.3636363636","813.227272727","813.227272727","black","experiment","legacy","legacy","legacy","0","uniform","1","undefined","1","right","0","21","0","0","21","21","0","21","21","21","21","0","21","0","21","10/16/21 19:37:09","The main experiment item","yes","SternburgTask.osexp","C:/Users/borna.000/Documents/PSYC/PSYC5316/Sternburg","no","mono","no","18","no","white","no","yes","768","legacy","9","11","C:/Users/borna.000/Documents/PSYC/PSYC5316/Sternburg/DH-subject-2.csv","legacy","2 8 9 4 1","Lentiform Loewenfeld","3.3.9","0","n","0","right","right","right","right","NA","601","6595","38123","601","NA","2","legacy","5","1024","2","48000","-16","experiment","2","even","5","116212","175877","2597","122808","176950","157736","2600","179155","181158","181760","177953","40724","181158","NA","176948","Sternburg Task","19","17891","22","yes","1024"
"86.9565217391","86.9565217391","814.304347826","814.304347826","black","experiment","legacy","legacy","legacy","0","uniform","1","undefined","1","left","0","22","0","0","22","22","0","22","22","22","22","0","22","0","22","10/16/21 19:37:09","The main experiment item","yes","SternburgTask.osexp","C:/Users/borna.000/Documents/PSYC/PSYC5316/Sternburg","no","mono","no","18","no","white","no","yes","768","legacy","10","11","C:/Users/borna.000/Documents/PSYC/PSYC5316/Sternburg/DH-subject-2.csv","legacy","4 7 6 8 2 3","Lentiform Loewenfeld","3.3.9","6","y","0","left","right","right","left","NA","838","6595","38123","838","NA","2","legacy","6","1024","2","48000","-16","experiment","2","even","3","116212","181768","2597","122808","182838","157736","2600","185040","187041","187880","183840","40724","187041","NA","182836","Sternburg Task","20","18729","23","yes","1024"
"87.5","87.5","808.666666667","808.666666667","black","experiment","legacy","legacy","legacy","0","uniform","1","undefined","1","right","0","23","0","0","23","23","0","23","23","23","23","0","23","0","23","10/16/21 19:37:09","The main experiment item","yes","SternburgTask.osexp","C:/Users/borna.000/Documents/PSYC/PSYC5316/Sternburg","no","mono","no","18","no","white","no","yes","768","legacy","11","11","C:/Users/borna.000/Documents/PSYC/PSYC5316/Sternburg/DH-subject-2.csv","legacy","8 5 7 3 6","Lentiform Loewenfeld","3.3.9","0","n","0","right","right","right","right","NA","679","6595","38123","679","NA","2","legacy","5","1024","2","48000","-16","experiment","2","even","9","116212","187884","2597","122808","188954","157736","2600","191159","193160","193839","189955","40724","193160","NA","188952","Sternburg Task","21","19408","24","yes","1024"
"88","88","800.2","800.2","black","experiment","legacy","legacy","legacy","0","uniform","1","undefined","1","right","0","24","0","0","24","24","0","24","24","24","24","0","24","0","24","10/16/21 19:37:09","The main experiment item","yes","SternburgTask.osexp","C:/Users/borna.000/Documents/PSYC/PSYC5316/Sternburg","no","mono","no","18","no","white","no","yes","768","legacy","12","11","C:/Users/borna.000/Documents/PSYC/PSYC5316/Sternburg/DH-subject-2.csv","legacy","3 4 9 6 7 8","Lentiform Loewenfeld","3.3.9","0","n","0","right","right","right","right","NA","597","6595","38123","597","NA","2","legacy","6","1024","2","48000","-16","experiment","2","even","2","116212","193847","2597","122808","194920","157736","2600","197124","199128","199726","195922","40724","199127","NA","194918","Sternburg Task","22","20005","25","yes","1024"
"84.6153846154","84.6153846154","794.5","794.5","black","experiment","legacy","legacy","legacy","0","uniform","0","undefined","0","left","0","25","0","0","25","25","0","25","25","25","25","0","25","0","25","10/16/21 19:37:09","The main experiment item","yes","SternburgTask.osexp","C:/Users/borna.000/Documents/PSYC/PSYC5316/Sternburg","no","mono","no","18","no","white","no","yes","768","legacy","13","11","C:/Users/borna.000/Documents/PSYC/PSYC5316/Sternburg/DH-subject-2.csv","legacy","7 4 2 6 3 5","Lentiform Loewenfeld","3.3.9","6","y","0","right","right","right","right","NA","652","6595","38123","652","NA","2","legacy","6","1024","2","48000","-16","experiment","2","even","5","116212","199735","2597","122808","200808","157736","2600","203011","205013","205666","201810","40724","205013","NA","200806","Sternburg Task","22","20657","26","yes","1024"
"85.1851851852","85.1851851852","791.740740741","791.740740741","black","experiment","legacy","legacy","legacy","0","uniform","1","undefined","1","right","0","26","0","0","26","26","0","26","26","26","26","0","26","0","26","10/16/21 19:37:09","The main experiment item","yes","SternburgTask.osexp","C:/Users/borna.000/Documents/PSYC/PSYC5316/Sternburg","no","mono","no","18","no","white","no","yes","768","legacy","14","11","C:/Users/borna.000/Documents/PSYC/PSYC5316/Sternburg/DH-subject-2.csv","legacy","1 6 4 3 9 7","Lentiform Loewenfeld","3.3.9","0","n","0","right","right","right","right","NA","720","6595","38123","720","NA","2","legacy","6","1024","2","48000","-16","experiment","2","even","8","116212","199735","2597","122808","206744","205674","2600","208948","210950","211671","207746","40724","210950","NA","206743","Sternburg Task","23","21377","27","yes","1024"
"82.1428571429","82.1428571429","781.964285714","781.964285714","black","experiment","legacy","legacy","legacy","0","uniform","0","undefined","0","left","0","27","0","0","27","27","0","27","27","27","27","0","27","0","27","10/16/21 19:37:09","The main experiment item","yes","SternburgTask.osexp","C:/Users/borna.000/Documents/PSYC/PSYC5316/Sternburg","no","mono","no","18","no","white","no","yes","768","legacy","15","11","C:/Users/borna.000/Documents/PSYC/PSYC5316/Sternburg/DH-subject-2.csv","legacy","4 6 2 5 1","Lentiform Loewenfeld","3.3.9","5","y","0","right","right","right","right","NA","518","6595","38123","518","NA","2","legacy","5","1024","2","48000","-16","experiment","2","even","1","116212","211680","2597","122808","212754","205674","2600","214958","216959","217477","213756","40724","216959","NA","212752","Sternburg Task","23","21895","28","yes","1024"
"82.7586206897","82.7586206897","777.75862069","777.75862069","black","experiment","legacy","legacy","legacy","0","uniform","1","undefined","1","right","0","28","0","0","28","28","0","28","28","28","28","0","28","0","28","10/16/21 19:37:09","The main experiment item","yes","SternburgTask.osexp","C:/Users/borna.000/Documents/PSYC/PSYC5316/Sternburg","no","mono","no","18","no","white","no","yes","768","legacy","16","11","C:/Users/borna.000/Documents/PSYC/PSYC5316/Sternburg/DH-subject-2.csv","legacy","2 7 5","Lentiform Loewenfeld","3.3.9","0","n","0","right","right","right","right","NA","660","6595","38123","660","NA","2","legacy","3","1024","2","48000","-16","experiment","2","even","8","116212","211680","2597","122808","218562","217486","2600","220766","222767","223428","219563","40724","222767","NA","218561","Sternburg Task","24","22555","29","yes","1024"
"83.3333333333","83.3333333333","771.566666667","771.566666667","black","experiment","legacy","legacy","legacy","0","uniform","1","undefined","1","left","0","29","0","0","29","29","0","29","29","29","29","0","29","0","29","10/16/21 19:37:09","The main experiment item","yes","SternburgTask.osexp","C:/Users/borna.000/Documents/PSYC/PSYC5316/Sternburg","no","mono","no","18","no","white","no","yes","768","legacy","17","11","C:/Users/borna.000/Documents/PSYC/PSYC5316/Sternburg/DH-subject-2.csv","legacy","6 9 3 1","Lentiform Loewenfeld","3.3.9","4","y","0","left","right","right","left","NA","592","6595","38123","592","NA","2","legacy","4","1024","2","48000","-16","experiment","2","even","1","116212","223431","2597","122808","224505","217486","2600","226709","228711","229304","225506","40724","228711","NA","224503","Sternburg Task","25","23147","30","yes","1024"
"83.8709677419","83.8709677419","765.419354839","765.419354839","black","experiment","legacy","legacy","legacy","0","uniform","1","undefined","1","left","0","30","0","0","30","30","0","30","30","30","30","0","30","0","30","10/16/21 19:37:09","The main experiment item","yes","SternburgTask.osexp","C:/Users/borna.000/Documents/PSYC/PSYC5316/Sternburg","no","mono","no","18","no","white","no","yes","768","legacy","18","11","C:/Users/borna.000/Documents/PSYC/PSYC5316/Sternburg/DH-subject-2.csv","legacy","8 3","Lentiform Loewenfeld","3.3.9","2","y","0","left","right","right","left","NA","581","6595","38123","581","NA","2","legacy","2","1024","2","48000","-16","experiment","2","even","3","116212","229313","2597","122808","230386","217486","2600","232588","234590","235172","231387","40724","234590","NA","230384","Sternburg Task","26","23728","31","yes","1024"
"84.375","84.375","758.84375","758.84375","black","experiment","legacy","legacy","legacy","0","uniform","1","undefined","1","right","0","31","0","0","31","31","0","31","31","31","31","0","31","0","31","10/16/21 19:37:09","The main experiment item","yes","SternburgTask.osexp","C:/Users/borna.000/Documents/PSYC/PSYC5316/Sternburg","no","mono","no","18","no","white","no","yes","768","legacy","19","11","C:/Users/borna.000/Documents/PSYC/PSYC5316/Sternburg/DH-subject-2.csv","legacy","3 9 1","Lentiform Loewenfeld","3.3.9","0","n","0","right","right","right","right","NA","555","6595","38123","555","NA","2","legacy","3","1024","2","48000","-16","experiment","2","even","7","116212","235180","2597","122808","236250","217486","2600","238455","240458","241014","237252","40724","240458","NA","236248","Sternburg Task","27","24283","32","yes","1024"
"81.8181818182","81.8181818182","777.272727273","777.272727273","black","experiment","legacy","legacy","legacy","0","uniform","0","undefined","0","left","0","32","0","0","32","32","0","32","32","32","32","0","32","0","32","10/16/21 19:37:09","The main experiment item","yes","SternburgTask.osexp","C:/Users/borna.000/Documents/PSYC/PSYC5316/Sternburg","no","mono","no","18","no","white","no","yes","768","legacy","20","11","C:/Users/borna.000/Documents/PSYC/PSYC5316/Sternburg/DH-subject-2.csv","legacy","2 4 8 5 1 3","Lentiform Loewenfeld","3.3.9","1","y","0","right","right","right","right","NA","1367","6595","38123","1367","NA","2","legacy","6","1024","2","48000","-16","experiment","2","even","2","116212","241022","2597","122808","242098","217486","2600","244302","246304","247671","243099","40724","246304","NA","242096","Sternburg Task","27","25650","33","yes","1024"
"82.3529411765","82.3529411765","773.823529412","773.823529412","black","experiment","legacy","legacy","legacy","0","uniform","1","undefined","1","left","0","33","0","0","33","33","0","33","33","33","33","0","33","0","33","10/16/21 19:37:09","The main experiment item","yes","SternburgTask.osexp","C:/Users/borna.000/Documents/PSYC/PSYC5316/Sternburg","no","mono","no","18","no","white","no","yes","768","legacy","21","11","C:/Users/borna.000/Documents/PSYC/PSYC5316/Sternburg/DH-subject-2.csv","legacy","8 5 3 7 4 6","Lentiform Loewenfeld","3.3.9","6","y","0","left","right","right","left","NA","660","6595","38123","660","NA","2","legacy","6","1024","2","48000","-16","experiment","2","even","6","116212","241022","2597","122808","248761","247679","2600","250966","252968","253628","249763","40724","252968","NA","248759","Sternburg Task","28","26310","34","yes","1024"
"82.8571428571","82.8571428571","767.285714286","767.285714286","black","experiment","legacy","legacy","legacy","0","uniform","1","undefined","1","left","0","34","0","0","34","34","0","34","34","34","34","0","34","0","34","10/16/21 19:37:09","The main experiment item","yes","SternburgTask.osexp","C:/Users/borna.000/Documents/PSYC/PSYC5316/Sternburg","no","mono","no","18","no","white","no","yes","768","legacy","22","11","C:/Users/borna.000/Documents/PSYC/PSYC5316/Sternburg/DH-subject-2.csv","legacy","8 9 5 7 1 6","Lentiform Loewenfeld","3.3.9","4","y","0","left","right","right","left","NA","545","6595","38123","545","NA","2","legacy","6","1024","2","48000","-16","experiment","2","even","7","116212","253637","2597","122808","254711","247679","2600","256918","258921","259467","255714","40724","258921","NA","254709","Sternburg Task","29","26855","35","yes","1024"
"83.3333333333","83.3333333333","764.583333333","764.583333333","black","experiment","legacy","legacy","legacy","0","uniform","1","undefined","1","right","0","35","0","0","35","35","0","35","35","35","35","0","35","0","35","10/16/21 19:37:09","The main experiment item","yes","SternburgTask.osexp","C:/Users/borna.000/Documents/PSYC/PSYC5316/Sternburg","no","mono","no","18","no","white","no","yes","768","legacy","23","11","C:/Users/borna.000/Documents/PSYC/PSYC5316/Sternburg/DH-subject-2.csv","legacy","7 9 1 6","Lentiform Loewenfeld","3.3.9","0","n","0","right","right","right","right","NA","670","6595","38123","670","NA","2","legacy","4","1024","2","48000","-16","experiment","2","even","4","116212","259475","2597","122808","260546","247679","2600","262750","264753","265424","261547","40724","264753","NA","260545","Sternburg Task","30","27525","36","yes","1024"
"83.7837837838","83.7837837838","757.810810811","757.810810811","black","experiment","legacy","legacy","legacy","0","uniform","1","undefined","1","left","0","36","0","0","36","36","0","36","36","36","36","0","36","0","36","10/16/21 19:37:09","The main experiment item","yes","SternburgTask.osexp","C:/Users/borna.000/Documents/PSYC/PSYC5316/Sternburg","no","mono","no","18","no","white","no","yes","768","legacy","24","11","C:/Users/borna.000/Documents/PSYC/PSYC5316/Sternburg/DH-subject-2.csv","legacy","2 5 4 8 7","Lentiform Loewenfeld","3.3.9","3","y","0","left","right","right","left","NA","514","6595","38123","514","NA","2","legacy","5","1024","2","48000","-16","experiment","2","even","4","116212","265433","2597","122808","266505","247679","2600","268711","270713","271228","267507","40724","270713","NA","266503","Sternburg Task","31","28039","37","yes","1024"
"84.2105263158","84.2105263158","749.578947368","749.578947368","black","experiment","legacy","legacy","legacy","0","uniform","1","undefined","1","left","0","37","0","0","37","37","0","37","37","37","37","0","37","0","37","10/16/21 19:37:09","The main experiment item","yes","SternburgTask.osexp","C:/Users/borna.000/Documents/PSYC/PSYC5316/Sternburg","no","mono","no","18","no","white","no","yes","768","legacy","25","11","C:/Users/borna.000/Documents/PSYC/PSYC5316/Sternburg/DH-subject-2.csv","legacy","2 4 6 9","Lentiform Loewenfeld","3.3.9","3","y","0","left","right","right","left","NA","445","6595","38123","445","NA","2","legacy","4","1024","2","48000","-16","experiment","2","even","6","116212","271237","2597","122808","272309","247679","2600","274516","276518","276964","273313","40724","276518","NA","272307","Sternburg Task","32","28484","38","yes","1024"
"84.6153846154","84.6153846154","747.282051282","747.282051282","black","experiment","legacy","legacy","legacy","0","uniform","1","undefined","1","right","0","38","0","0","38","38","0","38","38","38","38","0","38","0","38","10/16/21 19:37:09","The main experiment item","yes","SternburgTask.osexp","C:/Users/borna.000/Documents/PSYC/PSYC5316/Sternburg","no","mono","no","18","no","white","no","yes","768","legacy","26","11","C:/Users/borna.000/Documents/PSYC/PSYC5316/Sternburg/DH-subject-2.csv","legacy","6 2 9 3 8 4","Lentiform Loewenfeld","3.3.9","0","n","0","right","right","right","right","NA","660","6595","38123","660","NA","2","legacy","6","1024","2","48000","-16","experiment","2","even","1","116212","276972","2597","122808","278041","247679","2600","280249","282250","282911","279044","40724","282250","NA","278040","Sternburg Task","33","29144","39","yes","1024"
"82.5","82.5","750.2","750.2","black","experiment","legacy","legacy","legacy","0","uniform","0","undefined","0","right","0","39","0","0","39","39","0","39","39","39","39","0","39","0","39","10/16/21 19:37:09","The main experiment item","yes","SternburgTask.osexp","C:/Users/borna.000/Documents/PSYC/PSYC5316/Sternburg","no","mono","no","18","no","white","no","yes","768","legacy","27","11","C:/Users/borna.000/Documents/PSYC/PSYC5316/Sternburg/DH-subject-2.csv","legacy","5 3 2 6 9 8","Lentiform Loewenfeld","3.3.9","0","n","0","left","right","right","left","NA","864","6595","38123","864","NA","2","legacy","6","1024","2","48000","-16","experiment","2","even","4","116212","282919","2597","122808","283992","247679","2600","286197","288201","289065","284994","40724","288200","NA","283990","Sternburg Task","33","30008","40","yes","1024"
"82.9268292683","82.9268292683","746.12195122","746.12195122","black","experiment","legacy","legacy","legacy","0","uniform","1","undefined","1","left","0","40","0","0","40","40","0","40","40","40","40","0","40","0","40","10/16/21 19:37:09","The main experiment item","yes","SternburgTask.osexp","C:/Users/borna.000/Documents/PSYC/PSYC5316/Sternburg","no","mono","no","18","no","white","no","yes","768","legacy","28","11","C:/Users/borna.000/Documents/PSYC/PSYC5316/Sternburg/DH-subject-2.csv","legacy","5 2 6","Lentiform Loewenfeld","3.3.9","2","y","0","left","right","right","left","NA","583","6595","38123","583","NA","2","legacy","3","1024","2","48000","-16","experiment","2","even","2","116212","282919","2597","122808","290142","289073","2600","292347","294350","294934","291143","40724","294350","NA","290140","Sternburg Task","34","30591","41","yes","1024"
"83.3333333333","83.3333333333","740.357142857","740.357142857","black","experiment","legacy","legacy","legacy","0","uniform","1","undefined","1","left","0","41","0","0","41","41","0","41","41","41","41","0","41","0","41","10/16/21 19:37:09","The main experiment item","yes","SternburgTask.osexp","C:/Users/borna.000/Documents/PSYC/PSYC5316/Sternburg","no","mono","no","18","no","white","no","yes","768","legacy","29","11","C:/Users/borna.000/Documents/PSYC/PSYC5316/Sternburg/DH-subject-2.csv","legacy","9 5 3 8 4","Lentiform Loewenfeld","3.3.9","1","y","0","left","right","right","left","NA","504","6595","38123","504","NA","2","legacy","5","1024","2","48000","-16","experiment","2","even","9","116212","294941","2597","122808","296012","289073","2600","298219","300220","300724","297017","40724","300220","NA","296010","Sternburg Task","35","31095","42","yes","1024"
"83.7209302326","83.7209302326","734.511627907","734.511627907","black","experiment","legacy","legacy","legacy","0","uniform","1","undefined","1","left","0","42","0","0","42","42","0","42","42","42","42","0","42","0","42","10/16/21 19:37:09","The main experiment item","yes","SternburgTask.osexp","C:/Users/borna.000/Documents/PSYC/PSYC5316/Sternburg","no","mono","no","18","no","white","no","yes","768","legacy","30","11","C:/Users/borna.000/Documents/PSYC/PSYC5316/Sternburg/DH-subject-2.csv","legacy","6 7 9 3 1 2","Lentiform Loewenfeld","3.3.9","1","y","0","left","right","right","left","NA","489","6595","38123","489","NA","2","legacy","6","1024","2","48000","-16","experiment","2","even","6","116212","300733","2597","122808","301807","289073","2600","304011","306012","306502","302809","40724","306012","NA","301805","Sternburg Task","36","31584","43","yes","1024"
"84.0909090909","84.0909090909","730.795454545","730.795454545","black","experiment","legacy","legacy","legacy","0","uniform","1","undefined","1","right","0","43","0","0","43","43","0","43","43","43","43","0","43","0","43","10/16/21 19:37:09","The main experiment item","yes","SternburgTask.osexp","C:/Users/borna.000/Documents/PSYC/PSYC5316/Sternburg","no","mono","no","18","no","white","no","yes","768","legacy","31","11","C:/Users/borna.000/Documents/PSYC/PSYC5316/Sternburg/DH-subject-2.csv","legacy","6 8 4","Lentiform Loewenfeld","3.3.9","0","n","0","right","right","right","right","NA","571","6595","38123","571","NA","2","legacy","3","1024","2","48000","-16","experiment","2","even","1","116212","306510","2597","122808","307583","289073","2600","309790","311794","312365","308587","40724","311794","NA","307581","Sternburg Task","37","32155","44","yes","1024"
"84.4444444444","84.4444444444","729.8","729.8","black","experiment","legacy","legacy","legacy","0","uniform","1","undefined","1","left","0","44","0","0","44","44","0","44","44","44","44","0","44","0","44","10/16/21 19:37:09","The main experiment item","yes","SternburgTask.osexp","C:/Users/borna.000/Documents/PSYC/PSYC5316/Sternburg","no","mono","no","18","no","white","no","yes","768","legacy","32","11","C:/Users/borna.000/Documents/PSYC/PSYC5316/Sternburg/DH-subject-2.csv","legacy","7 2 3","Lentiform Loewenfeld","3.3.9","3","y","0","left","right","right","left","NA","686","6595","38123","686","NA","2","legacy","3","1024","2","48000","-16","experiment","2","even","3","116212","312373","2597","122808","313444","289073","2600","315652","317653","318340","314447","40724","317653","NA","313442","Sternburg Task","38","32841","45","yes","1024"
"82.6086956522","82.6086956522","726.369565217","726.369565217","black","experiment","legacy","legacy","legacy","0","uniform","0","undefined","0","left","0","45","0","0","45","45","0","45","45","45","45","0","45","0","45","10/16/21 19:37:09","The main experiment item","yes","SternburgTask.osexp","C:/Users/borna.000/Documents/PSYC/PSYC5316/Sternburg","no","mono","no","18","no","white","no","yes","768","legacy","33","11","C:/Users/borna.000/Documents/PSYC/PSYC5316/Sternburg/DH-subject-2.csv","legacy","8 5 4 7 3 1","Lentiform Loewenfeld","3.3.9","2","y","0","right","right","right","right","NA","572","6595","38123","572","NA","2","legacy","6","1024","2","48000","-16","experiment","2","even","5","116212","318349","2597","122808","319424","289073","2600","321628","323630","324203","320425","40724","323630","NA","319422","Sternburg Task","38","33413","46","yes","1024"
"82.9787234043","82.9787234043","723.531914894","723.531914894","black","experiment","legacy","legacy","legacy","0","uniform","1","undefined","1","right","0","46","0","0","46","46","0","46","46","46","46","0","46","0","46","10/16/21 19:37:09","The main experiment item","yes","SternburgTask.osexp","C:/Users/borna.000/Documents/PSYC/PSYC5316/Sternburg","no","mono","no","18","no","white","no","yes","768","legacy","34","11","C:/Users/borna.000/Documents/PSYC/PSYC5316/Sternburg/DH-subject-2.csv","legacy","1 4 9 2 5","Lentiform Loewenfeld","3.3.9","0","n","0","right","right","right","right","NA","593","6595","38123","593","NA","2","legacy","5","1024","2","48000","-16","experiment","2","even","7","116212","318349","2597","122808","325287","324212","2600","327489","329494","330088","326288","40724","329493","NA","325285","Sternburg Task","39","34006","47","yes","1024"
"83.3333333333","83.3333333333","724.458333333","724.458333333","black","experiment","legacy","legacy","legacy","0","uniform","1","undefined","1","right","0","47","0","0","47","47","0","47","47","47","47","0","47","0","47","10/16/21 19:37:09","The main experiment item","yes","SternburgTask.osexp","C:/Users/borna.000/Documents/PSYC/PSYC5316/Sternburg","no","mono","no","18","no","white","no","yes","768","legacy","35","11","C:/Users/borna.000/Documents/PSYC/PSYC5316/Sternburg/DH-subject-2.csv","legacy","2 3 8 5 6 7","Lentiform Loewenfeld","3.3.9","0","n","0","right","right","right","right","NA","768","6595","38123","768","NA","2","legacy","6","1024","2","48000","-16","experiment","2","even","1","116212","330096","2597","122808","331169","324212","2600","333374","335376","336145","332170","40724","335376","NA","331167","Sternburg Task","40","34774","48","yes","1024"
"83.6734693878","83.6734693878","721.734693878","721.734693878","black","experiment","legacy","legacy","legacy","0","uniform","1","undefined","1","right","0","48","0","0","48","48","0","48","48","48","48","0","48","0","48","10/16/21 19:37:09","The main experiment item","yes","SternburgTask.osexp","C:/Users/borna.000/Documents/PSYC/PSYC5316/Sternburg","no","mono","no","18","no","white","no","yes","768","legacy","36","11","C:/Users/borna.000/Documents/PSYC/PSYC5316/Sternburg/DH-subject-2.csv","legacy","2 8 9","Lentiform Loewenfeld","3.3.9","0","n","0","right","right","right","right","NA","591","6595","38123","591","NA","2","legacy","3","1024","2","48000","-16","experiment","2","even","6","116212","336153","2597","122808","337228","324212","2600","339431","341437","342029","338229","40724","341437","NA","337226","Sternburg Task","41","35365","49","yes","1024"
"84","84","718.48","718.48","black","experiment","legacy","legacy","legacy","0","uniform","1","undefined","1","right","0","49","0","0","49","49","0","49","49","49","49","0","49","0","49","10/16/21 19:37:09","The main experiment item","yes","SternburgTask.osexp","C:/Users/borna.000/Documents/PSYC/PSYC5316/Sternburg","no","mono","no","18","no","white","no","yes","768","legacy","37","11","C:/Users/borna.000/Documents/PSYC/PSYC5316/Sternburg/DH-subject-2.csv","legacy","6 7 5 9","Lentiform Loewenfeld","3.3.9","0","n","0","right","right","right","right","NA","559","6595","38123","559","NA","2","legacy","4","1024","2","48000","-16","experiment","2","even","2","116212","342037","2597","122808","343109","324212","2600","345316","347318","347877","344111","40724","347318","NA","343106","Sternburg Task","42","35924","50","yes","1024"
"84.3137254902","84.3137254902","715.470588235","715.470588235","black","experiment","legacy","legacy","legacy","0","uniform","1","undefined","1","right","0","50","0","0","50","50","0","50","50","50","50","0","50","0","50","10/16/21 19:37:09","The main experiment item","yes","SternburgTask.osexp","C:/Users/borna.000/Documents/PSYC/PSYC5316/Sternburg","no","mono","no","18","no","white","no","yes","768","legacy","38","11","C:/Users/borna.000/Documents/PSYC/PSYC5316/Sternburg/DH-subject-2.csv","legacy","8 5 4 2 9 6","Lentiform Loewenfeld","3.3.9","0","n","0","right","right","right","right","NA","565","6595","38123","565","NA","2","legacy","6","1024","2","48000","-16","experiment","2","even","3","116212","347886","2597","122808","348960","324212","2600","351163","353165","353731","349961","40724","353165","NA","348957","Sternburg Task","43","36489","51","yes","1024"
"82.6923076923","82.6923076923","718.442307692","718.442307692","black","experiment","legacy","legacy","legacy","0","uniform","0","undefined","0","left","0","51","0","0","51","51","0","51","51","51","51","0","51","0","51","10/16/21 19:37:09","The main experiment item","yes","SternburgTask.osexp","C:/Users/borna.000/Documents/PSYC/PSYC5316/Sternburg","no","mono","no","18","no","white","no","yes","768","legacy","39","11","C:/Users/borna.000/Documents/PSYC/PSYC5316/Sternburg/DH-subject-2.csv","legacy","9 1 6 7 8","Lentiform Loewenfeld","3.3.9","1","y","0","right","right","right","right","NA","870","6595","38123","870","NA","2","legacy","5","1024","2","48000","-16","experiment","2","even","9","116212","353739","2597","122808","354810","324212","2600","357014","359016","359886","355812","40724","359016","NA","354807","Sternburg Task","43","37359","52","yes","1024"
"83.0188679245","83.0188679245","720.547169811","720.547169811","black","experiment","legacy","legacy","legacy","0","uniform","1","undefined","1","right","0","52","0","0","52","52","0","52","52","52","52","0","52","0","52","10/16/21 19:37:09","The main experiment item","yes","SternburgTask.osexp","C:/Users/borna.000/Documents/PSYC/PSYC5316/Sternburg","no","mono","no","18","no","white","no","yes","768","legacy","40","11","C:/Users/borna.000/Documents/PSYC/PSYC5316/Sternburg/DH-subject-2.csv","legacy","1 4 3 6 5","Lentiform Loewenfeld","3.3.9","0","n","0","right","right","right","right","NA","830","6595","38123","830","NA","2","legacy","5","1024","2","48000","-16","experiment","2","even","8","116212","353739","2597","122808","360973","359895","2600","363177","365179","366010","361974","40724","365179","NA","360971","Sternburg Task","44","38189","53","yes","1024"
"83.3333333333","83.3333333333","718.740740741","718.740740741","black","experiment","legacy","legacy","legacy","0","uniform","1","undefined","1","left","0","53","0","0","53","53","0","53","53","53","53","0","53","0","53","10/16/21 19:37:09","The main experiment item","yes","SternburgTask.osexp","C:/Users/borna.000/Documents/PSYC/PSYC5316/Sternburg","no","mono","no","18","no","white","no","yes","768","legacy","41","11","C:/Users/borna.000/Documents/PSYC/PSYC5316/Sternburg/DH-subject-2.csv","legacy","8 9 5 6 7","Lentiform Loewenfeld","3.3.9","1","y","0","left","right","right","left","NA","623","6595","38123","623","NA","2","legacy","5","1024","2","48000","-16","experiment","2","even","8","116212","366019","2597","122808","367093","359895","2600","369296","371299","371923","368094","40724","371299","NA","367091","Sternburg Task","45","38812","54","yes","1024"
"83.6363636364","83.6363636364","717.472727273","717.472727273","black","experiment","legacy","legacy","legacy","0","uniform","1","undefined","1","right","0","54","0","0","54","54","0","54","54","54","54","0","54","0","54","10/16/21 19:37:09","The main experiment item","yes","SternburgTask.osexp","C:/Users/borna.000/Documents/PSYC/PSYC5316/Sternburg","no","mono","no","18","no","white","no","yes","768","legacy","42","11","C:/Users/borna.000/Documents/PSYC/PSYC5316/Sternburg/DH-subject-2.csv","legacy","1 7 5 2","Lentiform Loewenfeld","3.3.9","0","n","0","right","right","right","right","NA","649","6595","38123","649","NA","2","legacy","4","1024","2","48000","-16","experiment","2","even","3","116212","371931","2597","122808","373002","359895","2600","375206","377208","377858","374003","40724","377208","NA","373001","Sternburg Task","46","39461","55","yes","1024"
"83.9285714286","83.9285714286","714.75","714.75","black","experiment","legacy","legacy","legacy","0","uniform","1","undefined","1","right","0","55","0","0","55","55","0","55","55","55","55","0","55","0","55","10/16/21 19:37:09","The main experiment item","yes","SternburgTask.osexp","C:/Users/borna.000/Documents/PSYC/PSYC5316/Sternburg","no","mono","no","18","no","white","no","yes","768","legacy","43","11","C:/Users/borna.000/Documents/PSYC/PSYC5316/Sternburg/DH-subject-2.csv","legacy","4 2 7 6 1 3","Lentiform Loewenfeld","3.3.9","0","n","0","right","right","right","right","NA","565","6595","38123","565","NA","2","legacy","6","1024","2","48000","-16","experiment","2","even","8","116212","377866","2597","122808","378943","359895","2600","381145","383146","383712","379944","40724","383146","NA","378941","Sternburg Task","47","40026","56","yes","1024"
"84.2105263158","84.2105263158","712.140350877","712.140350877","black","experiment","legacy","legacy","legacy","0","uniform","1","undefined","1","right","0","56","0","0","56","56","0","56","56","56","56","0","56","0","56","10/16/21 19:37:09","The main experiment item","yes","SternburgTask.osexp","C:/Users/borna.000/Documents/PSYC/PSYC5316/Sternburg","no","mono","no","18","no","white","no","yes","768","legacy","44","11","C:/Users/borna.000/Documents/PSYC/PSYC5316/Sternburg/DH-subject-2.csv","legacy","1 7 5 2 9","Lentiform Loewenfeld","3.3.9","0","n","0","right","right","right","right","NA","566","6595","38123","566","NA","2","legacy","5","1024","2","48000","-16","experiment","2","even","3","116212","383721","2597","122808","384794","359895","2600","386999","389002","389569","385797","40724","389002","NA","384792","Sternburg Task","48","40592","57","yes","1024"
"84.4827586207","84.4827586207","711.689655172","711.689655172","black","experiment","legacy","legacy","legacy","0","uniform","1","undefined","1","left","0","57","0","0","57","57","0","57","57","57","57","0","57","0","57","10/16/21 19:37:09","The main experiment item","yes","SternburgTask.osexp","C:/Users/borna.000/Documents/PSYC/PSYC5316/Sternburg","no","mono","no","18","no","white","no","yes","768","legacy","45","11","C:/Users/borna.000/Documents/PSYC/PSYC5316/Sternburg/DH-subject-2.csv","legacy","8 5 1 3 9","Lentiform Loewenfeld","3.3.9","4","y","0","left","right","right","left","NA","686","6595","38123","686","NA","2","legacy","5","1024","2","48000","-16","experiment","2","even","3","116212","389577","2597","122808","390648","359895","2600","392853","394855","395542","391651","40724","394855","NA","390646","Sternburg Task","49","41278","58","yes","1024"
"84.7457627119","84.7457627119","708.322033898","708.322033898","black","experiment","legacy","legacy","legacy","0","uniform","1","undefined","1","right","0","58","0","0","58","58","0","58","58","58","58","0","58","0","58","10/16/21 19:37:09","The main experiment item","yes","SternburgTask.osexp","C:/Users/borna.000/Documents/PSYC/PSYC5316/Sternburg","no","mono","no","18","no","white","no","yes","768","legacy","46","11","C:/Users/borna.000/Documents/PSYC/PSYC5316/Sternburg/DH-subject-2.csv","legacy","8 4 3 9","Lentiform Loewenfeld","3.3.9","0","n","0","right","right","right","right","NA","513","6595","38123","513","NA","2","legacy","4","1024","2","48000","-16","experiment","2","even","5","116212","395550","2597","122808","396626","359895","2600","398829","400833","401346","397628","40724","400833","NA","396625","Sternburg Task","50","41791","59","yes","1024"
"85","85","708.366666667","708.366666667","black","experiment","legacy","legacy","legacy","0","uniform","1","undefined","1","right","0","59","0","0","59","59","0","59","59","59","59","0","59","0","59","10/16/21 19:37:09","The main experiment item","yes","SternburgTask.osexp","C:/Users/borna.000/Documents/PSYC/PSYC5316/Sternburg","no","mono","no","18","no","white","no","yes","768","legacy","47","11","C:/Users/borna.000/Documents/PSYC/PSYC5316/Sternburg/DH-subject-2.csv","legacy","9 8 2 7 4","Lentiform Loewenfeld","3.3.9","0","n","0","right","right","right","right","NA","711","6595","38123","711","NA","2","legacy","5","1024","2","48000","-16","experiment","2","even","5","116212","401355","2597","122808","402430","359895","2600","404636","406640","407352","403432","40724","406640","NA","402429","Sternburg Task","51","42502","60","yes","1024"
"85.2459016393","85.2459016393","709.655737705","709.655737705","black","experiment","legacy","legacy","legacy","0","uniform","1","undefined","1","right","0","60","0","0","60","60","0","60","60","60","60","0","60","0","60","10/16/21 19:37:09","The main experiment item","yes","SternburgTask.osexp","C:/Users/borna.000/Documents/PSYC/PSYC5316/Sternburg","no","mono","no","18","no","white","no","yes","768","legacy","48","11","C:/Users/borna.000/Documents/PSYC/PSYC5316/Sternburg/DH-subject-2.csv","legacy","1 3 2 6 9","Lentiform Loewenfeld","3.3.9","0","n","0","right","right","right","right","NA","787","6595","38123","787","NA","2","legacy","5","1024","2","48000","-16","experiment","2","even","5","116212","407361","2597","122808","408433","359895","2600","410638","412641","413429","409434","40724","412641","NA","408431","Sternburg Task","52","43289","61","yes","1024"
"85.4838709677","85.4838709677","705.419354839","705.419354839","black","experiment","legacy","legacy","legacy","0","uniform","1","undefined","1","right","0","61","0","0","61","61","0","61","61","61","61","0","61","0","61","10/16/21 19:37:09","The main experiment item","yes","SternburgTask.osexp","C:/Users/borna.000/Documents/PSYC/PSYC5316/Sternburg","no","mono","no","18","no","white","no","yes","768","legacy","49","11","C:/Users/borna.000/Documents/PSYC/PSYC5316/Sternburg/DH-subject-2.csv","legacy","7 1","Lentiform Loewenfeld","3.3.9","0","n","0","right","right","right","right","NA","447","6595","38123","447","NA","2","legacy","2","1024","2","48000","-16","experiment","2","even","8","116212","413437","2597","122808","414510","359895","2600","416715","418717","419164","415513","40724","418717","NA","414508","Sternburg Task","53","43736","62","yes","1024"
"85.7142857143","85.7142857143","701.634920635","701.634920635","black","experiment","legacy","legacy","legacy","0","uniform","1","undefined","1","right","0","62","0","0","62","62","0","62","62","62","62","0","62","0","62","10/16/21 19:37:09","The main experiment item","yes","SternburgTask.osexp","C:/Users/borna.000/Documents/PSYC/PSYC5316/Sternburg","no","mono","no","18","no","white","no","yes","768","legacy","50","11","C:/Users/borna.000/Documents/PSYC/PSYC5316/Sternburg/DH-subject-2.csv","legacy","5 7 3","Lentiform Loewenfeld","3.3.9","0","n","0","right","right","right","right","NA","467","6595","38123","467","NA","2","legacy","3","1024","2","48000","-16","experiment","2","even","9","116212","419172","2597","122808","420243","359895","2600","422447","424449","424917","421245","40724","424449","NA","420241","Sternburg Task","54","44203","63","yes","1024"
"85.9375","85.9375","710.0625","710.0625","black","experiment","legacy","legacy","legacy","0","uniform","1","undefined","1","left","0","63","0","0","63","63","0","63","63","63","63","0","63","0","63","10/16/21 19:37:09","The main experiment item","yes","SternburgTask.osexp","C:/Users/borna.000/Documents/PSYC/PSYC5316/Sternburg","no","mono","no","18","no","white","no","yes","768","legacy","51","11","C:/Users/borna.000/Documents/PSYC/PSYC5316/Sternburg/DH-subject-2.csv","legacy","9 6 2 4 1","Lentiform Loewenfeld","3.3.9","4","y","0","left","right","right","left","NA","1241","6595","38123","1241","NA","2","legacy","5","1024","2","48000","-16","experiment","2","even","4","116212","424925","2597","122808","425999","359895","2600","428201","430206","431447","427000","40724","430206","NA","425997","Sternburg Task","55","45444","64","yes","1024"
"86.1538461538","86.1538461538","706.953846154","706.953846154","black","experiment","legacy","legacy","legacy","0","uniform","1","undefined","1","right","0","64","0","0","64","64","0","64","64","64","64","0","64","0","64","10/16/21 19:37:09","The main experiment item","yes","SternburgTask.osexp","C:/Users/borna.000/Documents/PSYC/PSYC5316/Sternburg","no","mono","no","18","no","white","no","yes","768","legacy","52","11","C:/Users/borna.000/Documents/PSYC/PSYC5316/Sternburg/DH-subject-2.csv","legacy","1 5 3 2 8","Lentiform Loewenfeld","3.3.9","0","n","0","right","right","right","right","NA","508","6595","38123","508","NA","2","legacy","5","1024","2","48000","-16","experiment","2","even","4","116212","431455","2597","122808","432525","359895","2600","434730","436732","437241","433527","40724","436732","NA","432523","Sternburg Task","56","45952","65","yes","1024"
"86.3636363636","86.3636363636","708.015151515","708.015151515","black","experiment","legacy","legacy","legacy","0","uniform","1","undefined","1","left","0","65","0","0","65","65","0","65","65","65","65","0","65","0","65","10/16/21 19:37:09","The main experiment item","yes","SternburgTask.osexp","C:/Users/borna.000/Documents/PSYC/PSYC5316/Sternburg","no","mono","no","18","no","white","no","yes","768","legacy","53","11","C:/Users/borna.000/Documents/PSYC/PSYC5316/Sternburg/DH-subject-2.csv","legacy","3 9 7 6 4","Lentiform Loewenfeld","3.3.9","3","y","0","left","right","right","left","NA","777","6595","38123","777","NA","2","legacy","5","1024","2","48000","-16","experiment","2","even","7","116212","437249","2597","122808","438325","359895","2600","440529","442530","443308","439327","40724","442530","NA","438323","Sternburg Task","57","46729","66","yes","1024"
"85.0746268657","85.0746268657","704.791044776","704.791044776","black","experiment","legacy","legacy","legacy","0","uniform","0","undefined","0","left","0","66","0","0","66","66","0","66","66","66","66","0","66","0","66","10/16/21 19:37:09","The main experiment item","yes","SternburgTask.osexp","C:/Users/borna.000/Documents/PSYC/PSYC5316/Sternburg","no","mono","no","18","no","white","no","yes","768","legacy","54","11","C:/Users/borna.000/Documents/PSYC/PSYC5316/Sternburg/DH-subject-2.csv","legacy","3 9 6 2","Lentiform Loewenfeld","3.3.9","4","y","0","right","right","right","right","NA","492","6595","38123","492","NA","2","legacy","4","1024","2","48000","-16","experiment","2","even","2","116212","443316","2597","122808","444390","359895","2600","446592","448593","449085","445391","40724","448593","NA","444388","Sternburg Task","57","47221","67","yes","1024"
"85.2941176471","85.2941176471","705.323529412","705.323529412","black","experiment","legacy","legacy","legacy","0","uniform","1","undefined","1","left","0","67","0","0","67","67","0","67","67","67","67","0","67","0","67","10/16/21 19:37:09","The main experiment item","yes","SternburgTask.osexp","C:/Users/borna.000/Documents/PSYC/PSYC5316/Sternburg","no","mono","no","18","no","white","no","yes","768","legacy","55","11","C:/Users/borna.000/Documents/PSYC/PSYC5316/Sternburg/DH-subject-2.csv","legacy","4 1 8 7 5","Lentiform Loewenfeld","3.3.9","3","y","0","left","right","right","left","NA","741","6595","38123","741","NA","2","legacy","5","1024","2","48000","-16","experiment","2","even","8","116212","443316","2597","122808","450166","449089","2600","452374","454375","455117","451169","40724","454375","NA","450163","Sternburg Task","58","47962","68","yes","1024"
"85.5072463768","85.5072463768","704.956521739","704.956521739","black","experiment","legacy","legacy","legacy","0","uniform","1","undefined","1","right","0","68","0","0","68","68","0","68","68","68","68","0","68","0","68","10/16/21 19:37:09","The main experiment item","yes","SternburgTask.osexp","C:/Users/borna.000/Documents/PSYC/PSYC5316/Sternburg","no","mono","no","18","no","white","no","yes","768","legacy","56","11","C:/Users/borna.000/Documents/PSYC/PSYC5316/Sternburg/DH-subject-2.csv","legacy","6 3 1 7 9 8","Lentiform Loewenfeld","3.3.9","0","n","0","right","right","right","right","NA","680","6595","38123","680","NA","2","legacy","6","1024","2","48000","-16","experiment","2","even","4","116212","455125","2597","122808","456196","449089","2600","458405","460406","461086","457200","40724","460406","NA","456195","Sternburg Task","59","48642","69","yes","1024"
"85.7142857143","85.7142857143","704.5","704.5","black","experiment","legacy","legacy","legacy","0","uniform","1","undefined","1","right","0","69","0","0","69","69","0","69","69","69","69","0","69","0","69","10/16/21 19:37:09","The main experiment item","yes","SternburgTask.osexp","C:/Users/borna.000/Documents/PSYC/PSYC5316/Sternburg","no","mono","no","18","no","white","no","yes","768","legacy","57","11","C:/Users/borna.000/Documents/PSYC/PSYC5316/Sternburg/DH-subject-2.csv","legacy","7 6 4 8 1 2","Lentiform Loewenfeld","3.3.9","0","n","0","right","right","right","right","NA","673","6595","38123","673","NA","2","legacy","6","1024","2","48000","-16","experiment","2","even","9","116212","461095","2597","122808","462165","449089","2600","464370","466372","467046","463167","40724","466372","NA","462163","Sternburg Task","60","49315","70","yes","1024"
"85.9154929577","85.9154929577","701.549295775","701.549295775","black","experiment","legacy","legacy","legacy","0","uniform","1","undefined","1","left","0","70","0","0","70","70","0","70","70","70","70","0","70","0","70","10/16/21 19:37:09","The main experiment item","yes","SternburgTask.osexp","C:/Users/borna.000/Documents/PSYC/PSYC5316/Sternburg","no","mono","no","18","no","white","no","yes","768","legacy","58","11","C:/Users/borna.000/Documents/PSYC/PSYC5316/Sternburg/DH-subject-2.csv","legacy","9 8 4","Lentiform Loewenfeld","3.3.9","1","y","0","left","right","right","left","NA","495","6595","38123","495","NA","2","legacy","3","1024","2","48000","-16","experiment","2","even","9","116212","467056","2597","122808","468131","449089","2600","470336","472340","472836","469133","40724","472340","NA","468129","Sternburg Task","61","49810","71","yes","1024"
"86.1111111111","86.1111111111","698.805555556","698.805555556","black","experiment","legacy","legacy","legacy","0","uniform","1","undefined","1","right","0","71","0","0","71","71","0","71","71","71","71","0","71","0","71","10/16/21 19:37:09","The main experiment item","yes","SternburgTask.osexp","C:/Users/borna.000/Documents/PSYC/PSYC5316/Sternburg","no","mono","no","18","no","white","no","yes","768","legacy","59","11","C:/Users/borna.000/Documents/PSYC/PSYC5316/Sternburg/DH-subject-2.csv","legacy","6 9 4 5 2","Lentiform Loewenfeld","3.3.9","0","n","0","right","right","right","right","NA","504","6595","38123","504","NA","2","legacy","5","1024","2","48000","-16","experiment","2","even","1","116212","472844","2597","122808","473920","449089","2600","476127","478130","478635","474924","40724","478130","NA","473917","Sternburg Task","62","50314","72","yes","1024"
"86.301369863","86.301369863","696.479452055","696.479452055","black","experiment","legacy","legacy","legacy","0","uniform","1","undefined","1","left","0","72","0","0","72","72","0","72","72","72","72","0","72","0","72","10/16/21 19:37:09","The main experiment item","yes","SternburgTask.osexp","C:/Users/borna.000/Documents/PSYC/PSYC5316/Sternburg","no","mono","no","18","no","white","no","yes","768","legacy","60","11","C:/Users/borna.000/Documents/PSYC/PSYC5316/Sternburg/DH-subject-2.csv","legacy","8","Lentiform Loewenfeld","3.3.9","1","y","0","left","right","right","left","NA","529","6595","38123","529","NA","2","legacy","1","1024","2","48000","-16","experiment","2","even","8","116212","478643","2597","122808","479715","449089","2600","481920","483923","484452","480717","40724","483923","NA","479714","Sternburg Task","63","50843","73","yes","1024"
"86.4864864865","86.4864864865","695.135135135","695.135135135","black","experiment","legacy","legacy","legacy","0","uniform","1","undefined","1","left","0","73","0","0","73","73","0","73","73","73","73","0","73","0","73","10/16/21 19:37:09","The main experiment item","yes","SternburgTask.osexp","C:/Users/borna.000/Documents/PSYC/PSYC5316/Sternburg","no","mono","no","18","no","white","no","yes","768","legacy","61","11","C:/Users/borna.000/Documents/PSYC/PSYC5316/Sternburg/DH-subject-2.csv","legacy","9 1 7 2","Lentiform Loewenfeld","3.3.9","2","y","0","left","right","right","left","NA","597","6595","38123","597","NA","2","legacy","4","1024","2","48000","-16","experiment","2","even","1","116212","484461","2597","122808","485534","449089","2600","487737","489738","490336","486536","40724","489738","NA","485532","Sternburg Task","64","51440","74","yes","1024"
"86.6666666667","86.6666666667","694.8","694.8","black","experiment","legacy","legacy","legacy","0","uniform","1","undefined","1","right","0","74","0","0","74","74","0","74","74","74","74","0","74","0","74","10/16/21 19:37:09","The main experiment item","yes","SternburgTask.osexp","C:/Users/borna.000/Documents/PSYC/PSYC5316/Sternburg","no","mono","no","18","no","white","no","yes","768","legacy","62","11","C:/Users/borna.000/Documents/PSYC/PSYC5316/Sternburg/DH-subject-2.csv","legacy","8 2 1 4 5 9","Lentiform Loewenfeld","3.3.9","0","n","0","right","right","right","right","NA","670","6595","38123","670","NA","2","legacy","6","1024","2","48000","-16","experiment","2","even","7","116212","490345","2597","122808","491417","449089","2600","493625","495627","496298","492421","40724","495627","NA","491415","Sternburg Task","65","52110","75","yes","1024"
"86.8421052632","86.8421052632","696","696","black","experiment","legacy","legacy","legacy","0","uniform","1","undefined","1","left","0","75","0","0","75","75","0","75","75","75","75","0","75","0","75","10/16/21 19:37:09","The main experiment item","yes","SternburgTask.osexp","C:/Users/borna.000/Documents/PSYC/PSYC5316/Sternburg","no","mono","no","18","no","white","no","yes","768","legacy","63","11","C:/Users/borna.000/Documents/PSYC/PSYC5316/Sternburg/DH-subject-2.csv","legacy","4 9 7 8 5 3","Lentiform Loewenfeld","3.3.9","4","y","0","left","right","right","left","NA","786","6595","38123","786","NA","2","legacy","6","1024","2","48000","-16","experiment","2","even","8","116212","496306","2597","122808","497381","449089","2600","499586","501588","502375","498383","40724","501587","NA","497379","Sternburg Task","66","52896","76","yes","1024"
"87.012987013","87.012987013","693.155844156","693.155844156","black","experiment","legacy","legacy","legacy","0","uniform","1","undefined","1","right","0","76","0","0","76","76","0","76","76","76","76","0","76","0","76","10/16/21 19:37:09","The main experiment item","yes","SternburgTask.osexp","C:/Users/borna.000/Documents/PSYC/PSYC5316/Sternburg","no","mono","no","18","no","white","no","yes","768","legacy","64","11","C:/Users/borna.000/Documents/PSYC/PSYC5316/Sternburg/DH-subject-2.csv","legacy","9","Lentiform Loewenfeld","3.3.9","0","n","0","right","right","right","right","NA","477","6595","38123","477","NA","2","legacy","1","1024","2","48000","-16","experiment","2","even","6","116212","502383","2597","122808","503465","449089","2600","505669","507670","508148","504468","40724","507670","NA","503463","Sternburg Task","67","53373","77","yes","1024"
"87.1794871795","87.1794871795","693.141025641","693.141025641","black","experiment","legacy","legacy","legacy","0","uniform","1","undefined","1","left","0","77","0","0","77","77","0","77","77","77","77","0","77","0","77","10/16/21 19:37:09","The main experiment item","yes","SternburgTask.osexp","C:/Users/borna.000/Documents/PSYC/PSYC5316/Sternburg","no","mono","no","18","no","white","no","yes","768","legacy","65","11","C:/Users/borna.000/Documents/PSYC/PSYC5316/Sternburg/DH-subject-2.csv","legacy","8 9 6 1","Lentiform Loewenfeld","3.3.9","2","y","0","left","right","right","left","NA","692","6595","38123","692","NA","2","legacy","4","1024","2","48000","-16","experiment","2","even","9","116212","508156","2597","122808","509233","449089","2600","511437","513440","514133","510234","40724","513439","NA","509231","Sternburg Task","68","54065","78","yes","1024"
"87.3417721519","87.3417721519","690.772151899","690.772151899","black","experiment","legacy","legacy","legacy","0","uniform","1","undefined","1","left","0","78","0","0","78","78","0","78","78","78","78","0","78","0","78","10/16/21 19:37:09","The main experiment item","yes","SternburgTask.osexp","C:/Users/borna.000/Documents/PSYC/PSYC5316/Sternburg","no","mono","no","18","no","white","no","yes","768","legacy","66","11","C:/Users/borna.000/Documents/PSYC/PSYC5316/Sternburg/DH-subject-2.csv","legacy","7 1 8 5 6 2","Lentiform Loewenfeld","3.3.9","2","y","0","left","right","right","left","NA","506","6595","38123","506","NA","2","legacy","6","1024","2","48000","-16","experiment","2","even","1","116212","514141","2597","122808","515217","449089","2600","517419","519421","519927","516218","40724","519421","NA","515215","Sternburg Task","69","54571","79","yes","1024"
"87.5","87.5","689.1625","689.1625","black","experiment","legacy","legacy","legacy","0","uniform","1","undefined","1","left","0","79","0","0","79","79","0","79","79","79","79","0","79","0","79","10/16/21 19:37:09","The main experiment item","yes","SternburgTask.osexp","C:/Users/borna.000/Documents/PSYC/PSYC5316/Sternburg","no","mono","no","18","no","white","no","yes","768","legacy","67","11","C:/Users/borna.000/Documents/PSYC/PSYC5316/Sternburg/DH-subject-2.csv","legacy","6 1 2","Lentiform Loewenfeld","3.3.9","3","y","0","left","right","right","left","NA","562","6595","38123","562","NA","2","legacy","3","1024","2","48000","-16","experiment","2","even","2","116212","519936","2597","122808","521006","449089","2600","523209","525214","525777","522008","40724","525213","NA","521004","Sternburg Task","70","55133","80","yes","1024"
"87.6543209877","87.6543209877","687.765432099","687.765432099","black","experiment","legacy","legacy","legacy","0","uniform","1","undefined","1","right","0","80","0","0","80","80","0","80","80","80","80","0","80","0","80","10/16/21 19:37:09","The main experiment item","yes","SternburgTask.osexp","C:/Users/borna.000/Documents/PSYC/PSYC5316/Sternburg","no","mono","no","18","no","white","no","yes","768","legacy","68","11","C:/Users/borna.000/Documents/PSYC/PSYC5316/Sternburg/DH-subject-2.csv","legacy","9 5 3 2 8 6","Lentiform Loewenfeld","3.3.9","0","n","0","right","right","right","right","NA","576","6595","38123","576","NA","2","legacy","6","1024","2","48000","-16","experiment","2","even","7","116212","525791","2597","122808","526860","449089","2600","529066","531068","531645","527862","40724","531068","NA","526858","Sternburg Task","71","55709","81","yes","1024"
"87.8048780488","87.8048780488","685.731707317","685.731707317","black","experiment","legacy","legacy","legacy","0","uniform","1","undefined","1","left","0","81","0","0","81","81","0","81","81","81","81","0","81","0","81","10/16/21 19:37:09","The main experiment item","yes","SternburgTask.osexp","C:/Users/borna.000/Documents/PSYC/PSYC5316/Sternburg","no","mono","no","18","no","white","no","yes","768","legacy","69","11","C:/Users/borna.000/Documents/PSYC/PSYC5316/Sternburg/DH-subject-2.csv","legacy","6 9 7 4 5 1","Lentiform Loewenfeld","3.3.9","2","y","0","left","right","right","left","NA","521","6595","38123","521","NA","2","legacy","6","1024","2","48000","-16","experiment","2","even","9","116212","531654","2597","122808","532725","449089","2600","534930","536933","537455","533728","40724","536933","NA","532722","Sternburg Task","72","56230","82","yes","1024"
"87.9518072289","87.9518072289","686.662650602","686.662650602","black","experiment","legacy","legacy","legacy","0","uniform","1","undefined","1","right","0","82","0","0","82","82","0","82","82","82","82","0","82","0","82","10/16/21 19:37:09","The main experiment item","yes","SternburgTask.osexp","C:/Users/borna.000/Documents/PSYC/PSYC5316/Sternburg","no","mono","no","18","no","white","no","yes","768","legacy","70","11","C:/Users/borna.000/Documents/PSYC/PSYC5316/Sternburg/DH-subject-2.csv","legacy","1 6 4","Lentiform Loewenfeld","3.3.9","0","n","0","right","right","right","right","NA","763","6595","38123","763","NA","2","legacy","3","1024","2","48000","-16","experiment","2","even","7","116212","537464","2597","122808","538534","449089","2600","540737","542740","543504","539536","40724","542740","NA","538532","Sternburg Task","73","56993","83","yes","1024"
"88.0952380952","88.0952380952","688.130952381","688.130952381","black","experiment","legacy","legacy","legacy","0","uniform","1","undefined","1","right","0","83","0","0","83","83","0","83","83","83","83","0","83","0","83","10/16/21 19:37:09","The main experiment item","yes","SternburgTask.osexp","C:/Users/borna.000/Documents/PSYC/PSYC5316/Sternburg","no","mono","no","18","no","white","no","yes","768","legacy","71","11","C:/Users/borna.000/Documents/PSYC/PSYC5316/Sternburg/DH-subject-2.csv","legacy","9 7 4 5 8","Lentiform Loewenfeld","3.3.9","0","n","0","right","right","right","right","NA","810","6595","38123","810","NA","2","legacy","5","1024","2","48000","-16","experiment","2","even","6","116212","543512","2597","122808","544588","449089","2600","546794","548797","549607","545590","40724","548797","NA","544586","Sternburg Task","74","57803","84","yes","1024"
"88.2352941176","88.2352941176","686.235294118","686.235294118","black","experiment","legacy","legacy","legacy","0","uniform","1","undefined","1","left","0","84","0","0","84","84","0","84","84","84","84","0","84","0","84","10/16/21 19:37:09","The main experiment item","yes","SternburgTask.osexp","C:/Users/borna.000/Documents/PSYC/PSYC5316/Sternburg","no","mono","no","18","no","white","no","yes","768","legacy","72","11","C:/Users/borna.000/Documents/PSYC/PSYC5316/Sternburg/DH-subject-2.csv","legacy","3 5 4 7","Lentiform Loewenfeld","3.3.9","1","y","0","left","right","right","left","NA","527","6595","38123","527","NA","2","legacy","4","1024","2","48000","-16","experiment","2","even","3","116212","549616","2597","122808","550690","449089","2600","552894","554896","555424","551692","40724","554896","NA","550688","Sternburg Task","75","58330","85","yes","1024"
"88.3720930233","88.3720930233","683.674418605","683.674418605","black","experiment","legacy","legacy","legacy","0","uniform","1","undefined","1","left","0","85","0","0","85","85","0","85","85","85","85","0","85","0","85","10/16/21 19:37:09","The main experiment item","yes","SternburgTask.osexp","C:/Users/borna.000/Documents/PSYC/PSYC5316/Sternburg","no","mono","no","18","no","white","no","yes","768","legacy","73","11","C:/Users/borna.000/Documents/PSYC/PSYC5316/Sternburg/DH-subject-2.csv","legacy","2 6 1 7 4","Lentiform Loewenfeld","3.3.9","2","y","0","left","right","right","left","NA","466","6595","38123","466","NA","2","legacy","5","1024","2","48000","-16","experiment","2","even","6","116212","555433","2597","122808","556503","449089","2600","558706","560708","561175","557505","40724","560708","NA","556501","Sternburg Task","76","58796","86","yes","1024"
"88.5057471264","88.5057471264","683.701149425","683.701149425","black","experiment","legacy","legacy","legacy","0","uniform","1","undefined","1","right","0","86","0","0","86","86","0","86","86","86","86","0","86","0","86","10/16/21 19:37:09","The main experiment item","yes","SternburgTask.osexp","C:/Users/borna.000/Documents/PSYC/PSYC5316/Sternburg","no","mono","no","18","no","white","no","yes","768","legacy","74","11","C:/Users/borna.000/Documents/PSYC/PSYC5316/Sternburg/DH-subject-2.csv","legacy","4 2 6 9","Lentiform Loewenfeld","3.3.9","0","n","0","right","right","right","right","NA","686","6595","38123","686","NA","2","legacy","4","1024","2","48000","-16","experiment","2","even","7","116212","561183","2597","122808","562258","449089","2600","564462","566467","567154","563259","40724","566467","NA","562256","Sternburg Task","77","59482","87","yes","1024"
"88.6363636364","88.6363636364","683.011363636","683.011363636","black","experiment","legacy","legacy","legacy","0","uniform","1","undefined","1","right","0","87","0","0","87","87","0","87","87","87","87","0","87","0","87","10/16/21 19:37:09","The main experiment item","yes","SternburgTask.osexp","C:/Users/borna.000/Documents/PSYC/PSYC5316/Sternburg","no","mono","no","18","no","white","no","yes","768","legacy","75","11","C:/Users/borna.000/Documents/PSYC/PSYC5316/Sternburg/DH-subject-2.csv","legacy","5 3 8 7 2 4","Lentiform Loewenfeld","3.3.9","0","n","0","right","right","right","right","NA","623","6595","38123","623","NA","2","legacy","6","1024","2","48000","-16","experiment","2","even","9","116212","567164","2597","122808","568237","449089","2600","570443","572447","573070","569240","40724","572446","NA","568235","Sternburg Task","78","60105","88","yes","1024"
"88.7640449438","88.7640449438","688.662921348","688.662921348","black","experiment","legacy","legacy","legacy","0","uniform","1","undefined","1","left","0","88","0","0","88","88","0","88","88","88","88","0","88","0","88","10/16/21 19:37:09","The main experiment item","yes","SternburgTask.osexp","C:/Users/borna.000/Documents/PSYC/PSYC5316/Sternburg","no","mono","no","18","no","white","no","yes","768","legacy","76","11","C:/Users/borna.000/Documents/PSYC/PSYC5316/Sternburg/DH-subject-2.csv","legacy","7 8 4 6 9 5","Lentiform Loewenfeld","3.3.9","4","y","0","left","right","right","left","NA","1186","6595","38123","1186","NA","2","legacy","6","1024","2","48000","-16","experiment","2","even","6","116212","573074","2597","122808","574149","449089","2600","576356","578359","579546","575152","40724","578359","NA","574148","Sternburg Task","79","61291","89","yes","1024"
"88.8888888889","88.8888888889","686.933333333","686.933333333","black","experiment","legacy","legacy","legacy","0","uniform","1","undefined","1","right","0","89","0","0","89","89","0","89","89","89","89","0","89","0","89","10/16/21 19:37:09","The main experiment item","yes","SternburgTask.osexp","C:/Users/borna.000/Documents/PSYC/PSYC5316/Sternburg","no","mono","no","18","no","white","no","yes","768","legacy","77","11","C:/Users/borna.000/Documents/PSYC/PSYC5316/Sternburg/DH-subject-2.csv","legacy","1 7 8 3 9","Lentiform Loewenfeld","3.3.9","0","n","0","right","right","right","right","NA","533","6595","38123","533","NA","2","legacy","5","1024","2","48000","-16","experiment","2","even","2","116212","579554","2597","122808","580622","449089","2600","582829","584830","585364","581627","40724","584830","NA","580620","Sternburg Task","80","61824","90","yes","1024"
"89.010989011","89.010989011","684.340659341","684.340659341","black","experiment","legacy","legacy","legacy","0","uniform","1","undefined","1","left","0","90","0","0","90","90","0","90","90","90","90","0","90","0","90","10/16/21 19:37:09","The main experiment item","yes","SternburgTask.osexp","C:/Users/borna.000/Documents/PSYC/PSYC5316/Sternburg","no","mono","no","18","no","white","no","yes","768","legacy","78","11","C:/Users/borna.000/Documents/PSYC/PSYC5316/Sternburg/DH-subject-2.csv","legacy","2 3 7 4","Lentiform Loewenfeld","3.3.9","1","y","0","left","right","right","left","NA","451","6595","38123","451","NA","2","legacy","4","1024","2","48000","-16","experiment","2","even","2","116212","585372","2597","122808","586441","449089","2600","588649","590651","591103","587444","40724","590650","NA","586439","Sternburg Task","81","62275","91","yes","1024"
"89.1304347826","89.1304347826","682.467391304","682.467391304","black","experiment","legacy","legacy","legacy","0","uniform","1","undefined","1","right","0","91","0","0","91","91","0","91","91","91","91","0","91","0","91","10/16/21 19:37:09","The main experiment item","yes","SternburgTask.osexp","C:/Users/borna.000/Documents/PSYC/PSYC5316/Sternburg","no","mono","no","18","no","white","no","yes","768","legacy","79","11","C:/Users/borna.000/Documents/PSYC/PSYC5316/Sternburg/DH-subject-2.csv","legacy","2 5 1 4","Lentiform Loewenfeld","3.3.9","0","n","0","right","right","right","right","NA","512","6595","38123","512","NA","2","legacy","4","1024","2","48000","-16","experiment","2","even","6","116212","591111","2597","122808","592186","449089","2600","594391","596393","596906","593188","40724","596393","NA","592184","Sternburg Task","82","62787","92","yes","1024"
"89.247311828","89.247311828","682.978494624","682.978494624","black","experiment","legacy","legacy","legacy","0","uniform","1","undefined","1","right","0","92","0","0","92","92","0","92","92","92","92","0","92","0","92","10/16/21 19:37:09","The main experiment item","yes","SternburgTask.osexp","C:/Users/borna.000/Documents/PSYC/PSYC5316/Sternburg","no","mono","no","18","no","white","no","yes","768","legacy","80","11","C:/Users/borna.000/Documents/PSYC/PSYC5316/Sternburg/DH-subject-2.csv","legacy","8 4 3 5","Lentiform Loewenfeld","3.3.9","0","n","0","right","right","right","right","NA","730","6595","38123","730","NA","2","legacy","4","1024","2","48000","-16","experiment","2","even","6","116212","596914","2597","122808","597986","449089","2600","600192","602195","602926","598988","40724","602195","NA","597984","Sternburg Task","83","63517","93","yes","1024"
"89.3617021277","89.3617021277","682.053191489","682.053191489","black","experiment","legacy","legacy","legacy","0","uniform","1","undefined","1","left","0","93","0","0","93","93","0","93","93","93","93","0","93","0","93","10/16/21 19:37:09","The main experiment item","yes","SternburgTask.osexp","C:/Users/borna.000/Documents/PSYC/PSYC5316/Sternburg","no","mono","no","18","no","white","no","yes","768","legacy","81","11","C:/Users/borna.000/Documents/PSYC/PSYC5316/Sternburg/DH-subject-2.csv","legacy","3 4 9 6 2 9","Lentiform Loewenfeld","3.3.9","5","y","0","left","right","right","left","NA","596","6595","38123","596","NA","2","legacy","6","1024","2","48000","-16","experiment","2","even","2","116212","602934","2597","122808","604004","449089","2600","606210","608213","608810","605006","40724","608213","NA","604002","Sternburg Task","84","64113","94","yes","1024"
"89.4736842105","89.4736842105","682.673684211","682.673684211","black","experiment","legacy","legacy","legacy","0","uniform","1","undefined","1","left","0","94","0","0","94","94","0","94","94","94","94","0","94","0","94","10/16/21 19:37:09","The main experiment item","yes","SternburgTask.osexp","C:/Users/borna.000/Documents/PSYC/PSYC5316/Sternburg","no","mono","no","18","no","white","no","yes","768","legacy","82","11","C:/Users/borna.000/Documents/PSYC/PSYC5316/Sternburg/DH-subject-2.csv","legacy","5 7 8 2 3 8","Lentiform Loewenfeld","3.3.9","5","y","0","left","right","right","left","NA","741","6595","38123","741","NA","2","legacy","6","1024","2","48000","-16","experiment","2","even","3","116212","608819","2597","122808","609889","449089","2600","612093","614094","614836","610891","40724","614094","NA","609887","Sternburg Task","85","64854","95","yes","1024"
"88.5416666667","88.5416666667","681.09375","681.09375","black","experiment","legacy","legacy","legacy","0","uniform","0","undefined","0","left","0","95","0","0","95","95","0","95","95","95","95","0","95","0","95","10/16/21 19:37:09","The main experiment item","yes","SternburgTask.osexp","C:/Users/borna.000/Documents/PSYC/PSYC5316/Sternburg","no","mono","no","18","no","white","no","yes","768","legacy","83","11","C:/Users/borna.000/Documents/PSYC/PSYC5316/Sternburg/DH-subject-2.csv","legacy","7 8 6 3 1","Lentiform Loewenfeld","3.3.9","5","y","0","right","right","right","right","NA","531","6595","38123","531","NA","2","legacy","5","1024","2","48000","-16","experiment","2","even","1","116212","614844","2597","122808","615915","449089","2600","618121","620123","620655","616919","40724","620123","NA","615913","Sternburg Task","85","65385","96","yes","1024"
"88.6597938144","88.6597938144","681.907216495","681.907216495","black","experiment","legacy","legacy","legacy","0","uniform","1","undefined","1","right","0","96","0","0","96","96","0","96","96","96","96","0","96","0","96","10/16/21 19:37:09","The main experiment item","yes","SternburgTask.osexp","C:/Users/borna.000/Documents/PSYC/PSYC5316/Sternburg","no","mono","no","18","no","white","no","yes","768","legacy","84","11","C:/Users/borna.000/Documents/PSYC/PSYC5316/Sternburg/DH-subject-2.csv","legacy","7 4 2 8 1 9","Lentiform Loewenfeld","3.3.9","0","n","0","right","right","right","right","NA","760","6595","38123","760","NA","2","legacy","6","1024","2","48000","-16","experiment","2","even","5","116212","614844","2597","122808","621734","620664","2600","623937","625942","626703","622735","40724","625942","NA","621732","Sternburg Task","86","66145","97","yes","1024"
"88.7755102041","88.7755102041","679.744897959","679.744897959","black","experiment","legacy","legacy","legacy","0","uniform","1","undefined","1","right","0","97","0","0","97","97","0","97","97","97","97","0","97","0","97","10/16/21 19:37:09","The main experiment item","yes","SternburgTask.osexp","C:/Users/borna.000/Documents/PSYC/PSYC5316/Sternburg","no","mono","no","18","no","white","no","yes","768","legacy","85","11","C:/Users/borna.000/Documents/PSYC/PSYC5316/Sternburg/DH-subject-2.csv","legacy","4 1","Lentiform Loewenfeld","3.3.9","0","n","0","right","right","right","right","NA","470","6595","38123","470","NA","2","legacy","2","1024","2","48000","-16","experiment","2","even","6","116212","626712","2597","122808","627783","620664","2600","629988","631990","632461","628785","40724","631990","NA","627780","Sternburg Task","87","66615","98","yes","1024"
"88.8888888889","88.8888888889","681.232323232","681.232323232","black","experiment","legacy","legacy","legacy","0","uniform","1","undefined","1","left","0","98","0","0","98","98","0","98","98","98","98","0","98","0","98","10/16/21 19:37:09","The main experiment item","yes","SternburgTask.osexp","C:/Users/borna.000/Documents/PSYC/PSYC5316/Sternburg","no","mono","no","18","no","white","no","yes","768","legacy","86","11","C:/Users/borna.000/Documents/PSYC/PSYC5316/Sternburg/DH-subject-2.csv","legacy","6 8 9 3 4 9","Lentiform Loewenfeld","3.3.9","5","y","0","left","right","right","left","NA","827","6595","38123","827","NA","2","legacy","6","1024","2","48000","-16","experiment","2","even","4","116212","632469","2597","122808","633539","620664","2600","635744","637748","638576","634540","40724","637748","NA","633537","Sternburg Task","88","67442","99","yes","1024"
"89","89","679.72","679.72","black","experiment","legacy","legacy","legacy","0","uniform","1","undefined","1","right","0","99","0","0","99","99","0","99","99","99","99","0","99","0","99","10/16/21 19:37:09","The main experiment item","yes","SternburgTask.osexp","C:/Users/borna.000/Documents/PSYC/PSYC5316/Sternburg","no","mono","no","18","no","white","no","yes","768","legacy","87","11","C:/Users/borna.000/Documents/PSYC/PSYC5316/Sternburg/DH-subject-2.csv","legacy","6 8","Lentiform Loewenfeld","3.3.9","0","n","0","right","right","right","right","NA","530","6595","38123","530","NA","2","legacy","2","1024","2","48000","-16","experiment","2","even","9","116212","638585","2597","122808","639660","620664","2600","641870","643872","644403","640664","40724","643872","NA","639658","Sternburg Task","89","67972","100","yes","1024"
"89.1089108911","89.1089108911","678.287128713","678.287128713","black","experiment","legacy","legacy","legacy","0","uniform","1","undefined","1","right","0","100","0","0","100","100","0","100","100","100","100","0","100","0","100","10/16/21 19:37:09","The main experiment item","yes","SternburgTask.osexp","C:/Users/borna.000/Documents/PSYC/PSYC5316/Sternburg","no","mono","no","18","no","white","no","yes","768","legacy","88","11","C:/Users/borna.000/Documents/PSYC/PSYC5316/Sternburg/DH-subject-2.csv","legacy","8 9","Lentiform Loewenfeld","3.3.9","0","n","0","right","right","right","right","NA","535","6595","38123","535","NA","2","legacy","2","1024","2","48000","-16","experiment","2","even","5","116212","644412","2597","122808","645482","620664","2600","647689","649690","650226","646486","40724","649690","NA","645480","Sternburg Task","90","68507","101","yes","1024"
"89.2156862745","89.2156862745","676.715686275","676.715686275","black","experiment","legacy","legacy","legacy","0","uniform","1","undefined","1","right","0","101","0","0","101","101","0","101","101","101","101","0","101","0","101","10/16/21 19:37:09","The main experiment item","yes","SternburgTask.osexp","C:/Users/borna.000/Documents/PSYC/PSYC5316/Sternburg","no","mono","no","18","no","white","no","yes","768","legacy","89","11","C:/Users/borna.000/Documents/PSYC/PSYC5316/Sternburg/DH-subject-2.csv","legacy","4 8 1 2","Lentiform Loewenfeld","3.3.9","0","n","0","right","right","right","right","NA","518","6595","38123","518","NA","2","legacy","4","1024","2","48000","-16","experiment","2","even","7","116212","650229","2597","122808","651299","620664","2600","653502","655506","656025","652301","40724","655506","NA","651297","Sternburg Task","91","69025","102","yes","1024"
"89.3203883495","89.3203883495","675.621359223","675.621359223","black","experiment","legacy","legacy","legacy","0","uniform","1","undefined","1","left","0","102","0","0","102","102","0","102","102","102","102","0","102","0","102","10/16/21 19:37:09","The main experiment item","yes","SternburgTask.osexp","C:/Users/borna.000/Documents/PSYC/PSYC5316/Sternburg","no","mono","no","18","no","white","no","yes","768","legacy","90","11","C:/Users/borna.000/Documents/PSYC/PSYC5316/Sternburg/DH-subject-2.csv","legacy","9 4 2","Lentiform Loewenfeld","3.3.9","1","y","0","left","right","right","left","NA","564","6595","38123","564","NA","2","legacy","3","1024","2","48000","-16","experiment","2","even","9","116212","656033","2597","122808","657105","620664","2600","659308","661311","661876","658107","40724","661311","NA","657103","Sternburg Task","92","69589","103","yes","1024"
"89.4230769231","89.4230769231","673.096153846","673.096153846","black","experiment","legacy","legacy","legacy","0","uniform","1","undefined","1","left","0","103","0","0","103","103","0","103","103","103","103","0","103","0","103","10/16/21 19:37:09","The main experiment item","yes","SternburgTask.osexp","C:/Users/borna.000/Documents/PSYC/PSYC5316/Sternburg","no","mono","no","18","no","white","no","yes","768","legacy","91","11","C:/Users/borna.000/Documents/PSYC/PSYC5316/Sternburg/DH-subject-2.csv","legacy","6 2","Lentiform Loewenfeld","3.3.9","1","y","0","left","right","right","left","NA","413","6595","38123","413","NA","2","legacy","2","1024","2","48000","-16","experiment","2","even","6","116212","661886","2597","122808","662958","620664","2600","665163","667164","667578","663961","40724","667164","NA","662956","Sternburg Task","93","70002","104","yes","1024"
"89.5238095238","89.5238095238","671.447619048","671.447619048","black","experiment","legacy","legacy","legacy","0","uniform","1","undefined","1","left","0","104","0","0","104","104","0","104","104","104","104","0","104","0","104","10/16/21 19:37:09","The main experiment item","yes","SternburgTask.osexp","C:/Users/borna.000/Documents/PSYC/PSYC5316/Sternburg","no","mono","no","18","no","white","no","yes","768","legacy","92","11","C:/Users/borna.000/Documents/PSYC/PSYC5316/Sternburg/DH-subject-2.csv","legacy","9 3 1 2 5","Lentiform Loewenfeld","3.3.9","4","y","0","left","right","right","left","NA","500","6595","38123","500","NA","2","legacy","5","1024","2","48000","-16","experiment","2","even","2","116212","667587","2597","122808","668658","620664","2600","670865","672867","673368","669661","40724","672867","NA","668656","Sternburg Task","94","70502","105","yes","1024"
"89.6226415094","89.6226415094","669.358490566","669.358490566","black","experiment","legacy","legacy","legacy","0","uniform","1","undefined","1","left","0","105","0","0","105","105","0","105","105","105","105","0","105","0","105","10/16/21 19:37:09","The main experiment item","yes","SternburgTask.osexp","C:/Users/borna.000/Documents/PSYC/PSYC5316/Sternburg","no","mono","no","18","no","white","no","yes","768","legacy","93","11","C:/Users/borna.000/Documents/PSYC/PSYC5316/Sternburg/DH-subject-2.csv","legacy","4 3 2 5 8","Lentiform Loewenfeld","3.3.9","2","y","0","left","right","right","left","NA","450","6595","38123","450","NA","2","legacy","5","1024","2","48000","-16","experiment","2","even","3","116212","673376","2597","122808","674446","620664","2600","676649","678652","679103","675447","40724","678652","NA","674444","Sternburg Task","95","70952","106","yes","1024"
"89.7196261682","89.7196261682","671.61682243","671.61682243","black","experiment","legacy","legacy","legacy","0","uniform","1","undefined","1","left","0","106","0","0","106","106","0","106","106","106","106","0","106","0","106","10/16/21 19:37:09","The main experiment item","yes","SternburgTask.osexp","C:/Users/borna.000/Documents/PSYC/PSYC5316/Sternburg","no","mono","no","18","no","white","no","yes","768","legacy","94","11","C:/Users/borna.000/Documents/PSYC/PSYC5316/Sternburg/DH-subject-2.csv","legacy","2 8 5 1","Lentiform Loewenfeld","3.3.9","4","y","0","left","right","right","left","NA","911","6595","38123","911","NA","2","legacy","4","1024","2","48000","-16","experiment","2","even","1","116212","679112","2597","122808","680189","620664","2600","682396","684398","685310","681191","40724","684398","NA","680187","Sternburg Task","96","71863","107","yes","1024"
"89.8148148148","89.8148148148","670.398148148","670.398148148","black","experiment","legacy","legacy","legacy","0","uniform","1","undefined","1","right","0","107","0","0","107","107","0","107","107","107","107","0","107","0","107","10/16/21 19:37:09","The main experiment item","yes","SternburgTask.osexp","C:/Users/borna.000/Documents/PSYC/PSYC5316/Sternburg","no","mono","no","18","no","white","no","yes","768","legacy","95","11","C:/Users/borna.000/Documents/PSYC/PSYC5316/Sternburg/DH-subject-2.csv","legacy","2 8 6 3 1","Lentiform Loewenfeld","3.3.9","0","n","0","right","right","right","right","NA","540","6595","38123","540","NA","2","legacy","5","1024","2","48000","-16","experiment","2","even","7","116212","685319","2597","122808","686387","620664","2600","688592","690593","691135","687390","40724","690593","NA","686385","Sternburg Task","97","72403","108","yes","1024"
"89.9082568807","89.9082568807","668.688073394","668.688073394","black","experiment","legacy","legacy","legacy","0","uniform","1","undefined","1","right","0","108","0","0","108","108","0","108","108","108","108","0","108","0","108","10/16/21 19:37:09","The main experiment item","yes","SternburgTask.osexp","C:/Users/borna.000/Documents/PSYC/PSYC5316/Sternburg","no","mono","no","18","no","white","no","yes","768","legacy","96","11","C:/Users/borna.000/Documents/PSYC/PSYC5316/Sternburg/DH-subject-2.csv","legacy","5 2","Lentiform Loewenfeld","3.3.9","0","n","0","right","right","right","right","NA","484","6595","38123","484","NA","2","legacy","2","1024","2","48000","-16","experiment","2","even","7","116212","691143","2597","122808","692219","620664","2600","694424","696426","696911","693220","40724","696426","NA","692217","Sternburg Task","98","72887","109","yes","1024"
"90","90","668.618181818","668.618181818","black","experiment","legacy","legacy","legacy","0","uniform","1","undefined","1","left","0","109","0","0","109","109","0","109","109","109","109","0","109","0","109","10/16/21 19:37:09","The main experiment item","yes","SternburgTask.osexp","C:/Users/borna.000/Documents/PSYC/PSYC5316/Sternburg","no","mono","no","18","no","white","no","yes","768","legacy","97","11","C:/Users/borna.000/Documents/PSYC/PSYC5316/Sternburg/DH-subject-2.csv","legacy","5 7 3 6 2","Lentiform Loewenfeld","3.3.9","5","y","0","left","right","right","left","NA","661","6595","38123","661","NA","2","legacy","5","1024","2","48000","-16","experiment","2","even","2","116212","696919","2597","122808","697996","620664","2600","700199","702202","702864","698998","40724","702202","NA","697994","Sternburg Task","99","73548","110","yes","1024"
"90.0900900901","90.0900900901","670.117117117","670.117117117","black","experiment","legacy","legacy","legacy","0","uniform","1","undefined","1","right","0","110","0","0","110","110","0","110","110","110","110","0","110","0","110","10/16/21 19:37:09","The main experiment item","yes","SternburgTask.osexp","C:/Users/borna.000/Documents/PSYC/PSYC5316/Sternburg","no","mono","no","18","no","white","no","yes","768","legacy","98","11","C:/Users/borna.000/Documents/PSYC/PSYC5316/Sternburg/DH-subject-2.csv","legacy","3 9 8 1 6 4","Lentiform Loewenfeld","3.3.9","0","n","0","right","right","right","right","NA","835","6595","38123","835","NA","2","legacy","6","1024","2","48000","-16","experiment","2","even","7","116212","702873","2597","122808","703948","620664","2600","706150","708151","708987","704949","40724","708151","NA","703946","Sternburg Task","100","74383","111","yes","1024"
"90.1785714286","90.1785714286","668.642857143","668.642857143","black","experiment","legacy","legacy","legacy","0","uniform","1","undefined","1","left","0","111","0","0","111","111","0","111","111","111","111","0","111","0","111","10/16/21 19:37:09","The main experiment item","yes","SternburgTask.osexp","C:/Users/borna.000/Documents/PSYC/PSYC5316/Sternburg","no","mono","no","18","no","white","no","yes","768","legacy","99","11","C:/Users/borna.000/Documents/PSYC/PSYC5316/Sternburg/DH-subject-2.csv","legacy","4 6 5 8","Lentiform Loewenfeld","3.3.9","1","y","0","left","right","right","left","NA","505","6595","38123","505","NA","2","legacy","4","1024","2","48000","-16","experiment","2","even","4","116212","708995","2597","122808","710068","620664","2600","712272","714276","714783","711069","40724","714276","NA","710066","Sternburg Task","101","74888","112","yes","1024"
"90.2654867257","90.2654867257","666.398230088","666.398230088","black","experiment","legacy","legacy","legacy","0","uniform","1","undefined","1","left","0","112","0","0","112","112","0","112","112","112","112","0","112","0","112","10/16/21 19:37:09","The main experiment item","yes","SternburgTask.osexp","C:/Users/borna.000/Documents/PSYC/PSYC5316/Sternburg","no","mono","no","18","no","white","no","yes","768","legacy","100","11","C:/Users/borna.000/Documents/PSYC/PSYC5316/Sternburg/DH-subject-2.csv","legacy","7","Lentiform Loewenfeld","3.3.9","1","y","0","left","right","right","left","NA","415","6595","38123","415","NA","2","legacy","1","1024","2","48000","-16","experiment","2","even","7","116212","714791","2597","122808","715860","620664","2600","718066","720068","720484","716862","40724","720068","NA","715858","Sternburg Task","102","75303","113","yes","1024"
