"acc","accuracy","average_response_time","avg_rt","background","block","canvas_backend","clock_backend","color_backend","compensation","coordinates","correct","correct_Keyboard_response","correct_instructions1","correct_response","count_Fixation","count_ISI","count_Keyboard_response","count_Logger","count_Probe","count_Thankyou","count_correctFeedback","count_expSequence","count_experiment","count_experimentalLoop","count_incorrectFeedback","count_instructions1","count_instructions2","count_memorySet","count_practiceLoop","datetime","description","disable_garbage_collection","experiment_file","experiment_path","font_bold","font_family","font_italic","font_size","font_underline","foreground","form_clicks","fullscreen","height","keyboard_backend","live_row","live_row_practiceLoop","logfile","mouse_backend","numberSet","opensesame_codename","opensesame_version","posInSet","present","repeat_cycle","response","response_Keyboard_response","response_Thankyou","response_instructions1","response_instructions2","response_time","response_time_Keyboard_response","response_time_Thankyou","response_time_instructions1","response_time_instructions2","round_decimals","sampler_backend","setSize","sound_buf_size","sound_channels","sound_freq","sound_sample_size","start","subject_nr","subject_parity","target","time_Fixation","time_ISI","time_Keyboard_response","time_Logger","time_Probe","time_Thankyou","time_correctFeedback","time_expSequence","time_experiment","time_experimentalLoop","time_incorrectFeedback","time_instructions1","time_instructions2","time_memorySet","time_practiceLoop","title","total_correct","total_response_time","total_responses","uniform_coordinates","width"
"100","100","1055","1055","black","practice","legacy","legacy","legacy","0","uniform","1","1","undefined","left","0","0","0","0","0","0","0","0","0","0","0","0","0","0","0","10/16/22 22:24:03","The main experiment item","yes","Sternbergtask.osexp","C:/Users/ayesh/OneDrive/Desktop","no","mono","no","18","no","white","no","yes","768","legacy","0","0","C:/Users/ayesh/OneDrive/Desktop/MK-subject-1.csv","legacy","1 7 9 8 5","Lentiform Loewenfeld","3.3.12","4","y","0","left","left","NA","left","NA","1055","1055","NA","19063","NA","2","legacy","5","1024","2","48000","-16","experiment","0","even","8","21533","23739","25740","26796","25740","NA","NA","21531","1937","NA","NA","1940","NA","22535","21004","Sternberg task ","1","1055","1","yes","1024"
"100","100","811.5","811.5","black","practice","legacy","legacy","legacy","0","uniform","1","1","undefined","right","1","1","1","1","1","0","1","1","0","0","1","0","0","1","0","10/16/22 22:24:03","The main experiment item","yes","Sternbergtask.osexp","C:/Users/ayesh/OneDrive/Desktop","no","mono","no","18","no","white","no","yes","768","legacy","1","1","C:/Users/ayesh/OneDrive/Desktop/MK-subject-1.csv","legacy","9 6 7 4 5","Lentiform Loewenfeld","3.3.12","0","n","0","right","right","NA","left","NA","568","568","NA","19063","NA","2","legacy","5","1024","2","48000","-16","experiment","0","even","3","27940","30145","32147","32715","32147","NA","26865","27939","1937","NA","NA","1940","NA","28941","21004","Sternberg task ","2","1623","2","yes","1024"
"100","100","751","751","black","practice","legacy","legacy","legacy","0","uniform","1","1","undefined","left","2","2","2","2","2","0","2","2","0","0","2","0","0","2","0","10/16/22 22:24:03","The main experiment item","yes","Sternbergtask.osexp","C:/Users/ayesh/OneDrive/Desktop","no","mono","no","18","no","white","no","yes","768","legacy","2","2","C:/Users/ayesh/OneDrive/Desktop/MK-subject-1.csv","legacy","4 8","Lentiform Loewenfeld","3.3.12","1","y","0","left","left","NA","left","NA","630","630","NA","19063","NA","2","legacy","2","1024","2","48000","-16","experiment","0","even","4","33789","35995","37996","38627","37996","NA","32719","33788","1937","NA","NA","1940","NA","34790","21004","Sternberg task ","3","2253","3","yes","1024"
"100","100","697.5","697.5","black","practice","legacy","legacy","legacy","0","uniform","1","1","undefined","right","3","3","3","3","3","0","3","3","0","0","3","0","0","3","0","10/16/22 22:24:03","The main experiment item","yes","Sternbergtask.osexp","C:/Users/ayesh/OneDrive/Desktop","no","mono","no","18","no","white","no","yes","768","legacy","3","3","C:/Users/ayesh/OneDrive/Desktop/MK-subject-1.csv","legacy","4 1 5","Lentiform Loewenfeld","3.3.12","0","n","0","right","right","NA","left","NA","537","537","NA","19063","NA","2","legacy","3","1024","2","48000","-16","experiment","0","even","2","39716","41919","43921","44459","43920","NA","38631","39715","1937","NA","NA","1940","NA","40718","21004","Sternberg task ","4","2790","4","yes","1024"
"100","100","675","675","black","practice","legacy","legacy","legacy","0","uniform","1","1","undefined","right","4","4","4","4","4","0","4","4","0","0","4","0","0","4","0","10/16/22 22:24:03","The main experiment item","yes","Sternbergtask.osexp","C:/Users/ayesh/OneDrive/Desktop","no","mono","no","18","no","white","no","yes","768","legacy","4","4","C:/Users/ayesh/OneDrive/Desktop/MK-subject-1.csv","legacy","3 1 9 4","Lentiform Loewenfeld","3.3.12","0","n","0","right","right","NA","left","NA","585","585","NA","19063","NA","2","legacy","4","1024","2","48000","-16","experiment","0","even","6","45538","47744","49745","50331","49745","NA","44464","45536","1937","NA","NA","1940","NA","46539","21004","Sternberg task ","5","3375","5","yes","1024"
"100","100","700","700","black","practice","legacy","legacy","legacy","0","uniform","1","1","undefined","left","5","5","5","5","5","0","5","5","0","0","5","0","0","5","0","10/16/22 22:24:03","The main experiment item","yes","Sternbergtask.osexp","C:/Users/ayesh/OneDrive/Desktop","no","mono","no","18","no","white","no","yes","768","legacy","5","5","C:/Users/ayesh/OneDrive/Desktop/MK-subject-1.csv","legacy","2 9 4","Lentiform Loewenfeld","3.3.12","3","y","0","left","left","NA","left","NA","825","825","NA","19063","NA","2","legacy","3","1024","2","48000","-16","experiment","0","even","4","51430","53632","55633","56459","55633","NA","50334","51428","1937","NA","NA","1940","NA","52431","21004","Sternberg task ","6","4200","6","yes","1024"
"100","100","667.285714286","667.285714286","black","practice","legacy","legacy","legacy","0","uniform","1","1","undefined","left","6","6","6","6","6","0","6","6","0","0","6","0","0","6","0","10/16/22 22:24:03","The main experiment item","yes","Sternbergtask.osexp","C:/Users/ayesh/OneDrive/Desktop","no","mono","no","18","no","white","no","yes","768","legacy","6","6","C:/Users/ayesh/OneDrive/Desktop/MK-subject-1.csv","legacy","6","Lentiform Loewenfeld","3.3.12","1","y","0","left","left","NA","left","NA","471","471","NA","19063","NA","2","legacy","1","1024","2","48000","-16","experiment","0","even","6","57536","59739","61740","62211","61740","NA","56463","57534","1937","NA","NA","1940","NA","58537","21004","Sternberg task ","7","4671","7","yes","1024"
"100","100","672.75","672.75","black","practice","legacy","legacy","legacy","0","uniform","1","1","undefined","left","7","7","7","7","7","0","7","7","0","0","7","0","0","7","0","10/16/22 22:24:03","The main experiment item","yes","Sternbergtask.osexp","C:/Users/ayesh/OneDrive/Desktop","no","mono","no","18","no","white","no","yes","768","legacy","7","7","C:/Users/ayesh/OneDrive/Desktop/MK-subject-1.csv","legacy","4 3 1 7 9 8","Lentiform Loewenfeld","3.3.12","1","y","0","left","left","NA","left","NA","711","711","NA","19063","NA","2","legacy","6","1024","2","48000","-16","experiment","0","even","4","63288","65491","67492","68204","67492","NA","62216","63287","1937","NA","NA","1940","NA","64290","21004","Sternberg task ","8","5382","8","yes","1024"
"100","100","657.777777778","657.777777778","black","practice","legacy","legacy","legacy","0","uniform","1","1","undefined","right","8","8","8","8","8","0","8","8","0","0","8","0","0","8","0","10/16/22 22:24:03","The main experiment item","yes","Sternbergtask.osexp","C:/Users/ayesh/OneDrive/Desktop","no","mono","no","18","no","white","no","yes","768","legacy","8","8","C:/Users/ayesh/OneDrive/Desktop/MK-subject-1.csv","legacy","2 1","Lentiform Loewenfeld","3.3.12","0","n","0","right","right","NA","left","NA","538","538","NA","19063","NA","2","legacy","2","1024","2","48000","-16","experiment","0","even","5","69291","71496","73497","74035","73497","NA","68209","69289","1937","NA","NA","1940","NA","70292","21004","Sternberg task ","9","5920","9","yes","1024"
"100","100","659.4","659.4","black","practice","legacy","legacy","legacy","0","uniform","1","1","undefined","right","9","9","9","9","9","0","9","9","0","0","9","0","0","9","0","10/16/22 22:24:03","The main experiment item","yes","Sternbergtask.osexp","C:/Users/ayesh/OneDrive/Desktop","no","mono","no","18","no","white","no","yes","768","legacy","9","9","C:/Users/ayesh/OneDrive/Desktop/MK-subject-1.csv","legacy","5 7 8 4 1 2","Lentiform Loewenfeld","3.3.12","0","n","0","right","right","NA","left","NA","674","674","NA","19063","NA","2","legacy","6","1024","2","48000","-16","experiment","0","even","6","75117","77319","79320","79995","79320","NA","74039","75115","1937","NA","NA","1940","NA","76118","21004","Sternberg task ","10","6594","10","yes","1024"
"100","100","662.090909091","662.090909091","black","practice","legacy","legacy","legacy","0","uniform","1","1","undefined","left","10","10","10","10","10","0","10","10","0","0","10","0","0","10","0","10/16/22 22:24:03","The main experiment item","yes","Sternbergtask.osexp","C:/Users/ayesh/OneDrive/Desktop","no","mono","no","18","no","white","no","yes","768","legacy","10","10","C:/Users/ayesh/OneDrive/Desktop/MK-subject-1.csv","legacy","1 5 2 9","Lentiform Loewenfeld","3.3.12","2","y","0","left","left","NA","left","NA","689","689","NA","19063","NA","2","legacy","4","1024","2","48000","-16","experiment","0","even","5","81070","83272","85273","85963","85273","NA","79998","81068","1937","NA","NA","1940","NA","82071","21004","Sternberg task ","11","7283","11","yes","1024"
"100","100","650.083333333","650.083333333","black","practice","legacy","legacy","legacy","0","uniform","1","1","undefined","right","11","11","11","11","11","0","11","11","0","0","11","0","0","11","0","10/16/22 22:24:03","The main experiment item","yes","Sternbergtask.osexp","C:/Users/ayesh/OneDrive/Desktop","no","mono","no","18","no","white","no","yes","768","legacy","11","11","C:/Users/ayesh/OneDrive/Desktop/MK-subject-1.csv","legacy","5","Lentiform Loewenfeld","3.3.12","0","n","0","right","right","NA","left","NA","518","518","NA","19063","NA","2","legacy","1","1024","2","48000","-16","experiment","0","even","3","87038","89243","91244","91763","91244","NA","85967","87036","1937","NA","NA","1940","NA","88042","21004","Sternberg task ","12","7801","12","yes","1024"
"100","100","660.769230769","660.769230769","black","experiment","legacy","legacy","legacy","0","uniform","1","1","undefined","left","12","12","12","12","12","0","12","12","0","0","12","0","0","12","0","10/16/22 22:24:03","The main experiment item","yes","Sternbergtask.osexp","C:/Users/ayesh/OneDrive/Desktop","no","mono","no","18","no","white","no","yes","768","legacy","0","11","C:/Users/ayesh/OneDrive/Desktop/MK-subject-1.csv","legacy","5 2 9 6 1 7","Lentiform Loewenfeld","3.3.12","3","y","0","left","left","NA","left","left","789","789","NA","19063","10685","2","legacy","6","1024","2","48000","-16","experiment","0","even","9","103571","105776","107781","108571","107780","NA","91768","103570","1937","103467","NA","1940","92781","104572","21004","Sternberg task ","13","8590","13","yes","1024"
"100","100","662.857142857","662.857142857","black","experiment","legacy","legacy","legacy","0","uniform","1","1","undefined","left","13","13","13","13","13","0","13","13","0","0","13","0","0","13","0","10/16/22 22:24:03","The main experiment item","yes","Sternbergtask.osexp","C:/Users/ayesh/OneDrive/Desktop","no","mono","no","18","no","white","no","yes","768","legacy","1","11","C:/Users/ayesh/OneDrive/Desktop/MK-subject-1.csv","legacy","1 4 9 3 2 5","Lentiform Loewenfeld","3.3.12","3","y","0","left","left","NA","left","left","690","690","NA","19063","10685","2","legacy","6","1024","2","48000","-16","experiment","0","even","9","109646","111848","113849","114539","113849","NA","108574","109645","1937","103467","NA","1940","92781","110647","21004","Sternberg task ","14","9280","14","yes","1024"
"100","100","660.6","660.6","black","experiment","legacy","legacy","legacy","0","uniform","1","1","undefined","left","14","14","14","14","14","0","14","14","0","0","14","0","0","14","0","10/16/22 22:24:03","The main experiment item","yes","Sternbergtask.osexp","C:/Users/ayesh/OneDrive/Desktop","no","mono","no","18","no","white","no","yes","768","legacy","2","11","C:/Users/ayesh/OneDrive/Desktop/MK-subject-1.csv","legacy","2 3 7 4","Lentiform Loewenfeld","3.3.12","1","y","0","left","left","NA","left","left","629","629","NA","19063","10685","2","legacy","4","1024","2","48000","-16","experiment","0","even","2","115617","117820","119821","120451","119821","NA","114543","115615","1937","103467","NA","1940","92781","116619","21004","Sternberg task ","15","9909","15","yes","1024"
"100","100","659.1875","659.1875","black","experiment","legacy","legacy","legacy","0","uniform","1","1","undefined","right","15","15","15","15","15","0","15","15","0","0","15","0","0","15","0","10/16/22 22:24:03","The main experiment item","yes","Sternbergtask.osexp","C:/Users/ayesh/OneDrive/Desktop","no","mono","no","18","no","white","no","yes","768","legacy","3","11","C:/Users/ayesh/OneDrive/Desktop/MK-subject-1.csv","legacy","3 9 1","Lentiform Loewenfeld","3.3.12","0","n","0","right","right","NA","left","left","638","638","NA","19063","10685","2","legacy","3","1024","2","48000","-16","experiment","0","even","7","121528","123730","125732","126371","125732","NA","120457","121526","1937","103467","NA","1940","92781","122529","21004","Sternberg task ","16","10547","16","yes","1024"
"100","100","652.588235294","652.588235294","black","experiment","legacy","legacy","legacy","0","uniform","1","1","undefined","right","16","16","16","16","16","0","16","16","0","0","16","0","0","16","0","10/16/22 22:24:03","The main experiment item","yes","Sternbergtask.osexp","C:/Users/ayesh/OneDrive/Desktop","no","mono","no","18","no","white","no","yes","768","legacy","4","11","C:/Users/ayesh/OneDrive/Desktop/MK-subject-1.csv","legacy","1 3 2 6 9","Lentiform Loewenfeld","3.3.12","0","n","0","right","right","NA","left","left","547","547","NA","19063","10685","2","legacy","5","1024","2","48000","-16","experiment","0","even","5","127449","129654","131655","132203","131655","NA","126376","127447","1937","103467","NA","1940","92781","128450","21004","Sternberg task ","17","11094","17","yes","1024"
"100","100","647.333333333","647.333333333","black","experiment","legacy","legacy","legacy","0","uniform","1","1","undefined","right","17","17","17","17","17","0","17","17","0","0","17","0","0","17","0","10/16/22 22:24:03","The main experiment item","yes","Sternbergtask.osexp","C:/Users/ayesh/OneDrive/Desktop","no","mono","no","18","no","white","no","yes","768","legacy","5","11","C:/Users/ayesh/OneDrive/Desktop/MK-subject-1.csv","legacy","8 4 3 5","Lentiform Loewenfeld","3.3.12","0","n","0","right","right","NA","left","left","558","558","NA","19063","10685","2","legacy","4","1024","2","48000","-16","experiment","0","even","6","133279","135484","137485","138043","137485","NA","132207","133278","1937","103467","NA","1940","92781","134280","21004","Sternberg task ","18","11652","18","yes","1024"
"100","100","636.578947368","636.578947368","black","experiment","legacy","legacy","legacy","0","uniform","1","1","undefined","left","18","18","18","18","18","0","18","18","0","0","18","0","0","18","0","10/16/22 22:24:03","The main experiment item","yes","Sternbergtask.osexp","C:/Users/ayesh/OneDrive/Desktop","no","mono","no","18","no","white","no","yes","768","legacy","6","11","C:/Users/ayesh/OneDrive/Desktop/MK-subject-1.csv","legacy","9 5 3 8 4","Lentiform Loewenfeld","3.3.12","1","y","0","left","left","NA","left","left","443","443","NA","19063","10685","2","legacy","5","1024","2","48000","-16","experiment","0","even","9","139120","141326","143327","143771","143327","NA","138048","139119","1937","103467","NA","1940","92781","140121","21004","Sternberg task ","19","12095","19","yes","1024"
"100","100","637.7","637.7","black","experiment","legacy","legacy","legacy","0","uniform","1","1","undefined","left","19","19","19","19","19","0","19","19","0","0","19","0","0","19","0","10/16/22 22:24:03","The main experiment item","yes","Sternbergtask.osexp","C:/Users/ayesh/OneDrive/Desktop","no","mono","no","18","no","white","no","yes","768","legacy","7","11","C:/Users/ayesh/OneDrive/Desktop/MK-subject-1.csv","legacy","3 5 7 1","Lentiform Loewenfeld","3.3.12","3","y","0","left","left","NA","left","left","659","659","NA","19063","10685","2","legacy","4","1024","2","48000","-16","experiment","0","even","7","144848","147055","149056","149715","149056","NA","143775","144846","1937","103467","NA","1940","92781","145850","21004","Sternberg task ","20","12754","20","yes","1024"
"95.2380952381","95.2380952381","629.047619048","629.047619048","black","experiment","legacy","legacy","legacy","0","uniform","0","0","undefined","right","20","20","20","20","20","0","20","20","0","0","20","0","0","20","0","10/16/22 22:24:03","The main experiment item","yes","Sternbergtask.osexp","C:/Users/ayesh/OneDrive/Desktop","no","mono","no","18","no","white","no","yes","768","legacy","8","11","C:/Users/ayesh/OneDrive/Desktop/MK-subject-1.csv","legacy","9 5 3 2 8 6","Lentiform Loewenfeld","3.3.12","0","n","0","left","left","NA","left","left","456","456","NA","19063","10685","2","legacy","6","1024","2","48000","-16","experiment","0","even","7","150791","152993","154994","155451","154994","NA","149719","150789","1937","103467","NA","1940","92781","151792","21004","Sternberg task ","20","13210","21","yes","1024"
"95.4545454545","95.4545454545","624.545454545","624.545454545","black","experiment","legacy","legacy","legacy","0","uniform","1","1","undefined","left","21","21","21","21","21","0","21","21","0","0","21","0","0","21","0","10/16/22 22:24:03","The main experiment item","yes","Sternbergtask.osexp","C:/Users/ayesh/OneDrive/Desktop","no","mono","no","18","no","white","no","yes","768","legacy","9","11","C:/Users/ayesh/OneDrive/Desktop/MK-subject-1.csv","legacy","7","Lentiform Loewenfeld","3.3.12","1","y","0","left","left","NA","left","left","530","530","NA","19063","10685","2","legacy","1","1024","2","48000","-16","experiment","0","even","7","156525","158727","160728","161259","160728","NA","149719","156523","1937","103467","155455","1940","92781","157526","21004","Sternberg task ","21","13740","22","yes","1024"
"95.652173913","95.652173913","618.173913043","618.173913043","black","experiment","legacy","legacy","legacy","0","uniform","1","1","undefined","left","22","22","22","22","22","0","22","22","0","0","22","0","0","22","0","10/16/22 22:24:03","The main experiment item","yes","Sternbergtask.osexp","C:/Users/ayesh/OneDrive/Desktop","no","mono","no","18","no","white","no","yes","768","legacy","10","11","C:/Users/ayesh/OneDrive/Desktop/MK-subject-1.csv","legacy","7 6","Lentiform Loewenfeld","3.3.12","2","y","0","left","left","NA","left","left","478","478","NA","19063","10685","2","legacy","2","1024","2","48000","-16","experiment","0","even","6","162334","164539","166540","167018","166540","NA","161264","162333","1937","103467","155455","1940","92781","163335","21004","Sternberg task ","22","14218","23","yes","1024"
"95.8333333333","95.8333333333","619.083333333","619.083333333","black","experiment","legacy","legacy","legacy","0","uniform","1","1","undefined","right","23","23","23","23","23","0","23","23","0","0","23","0","0","23","0","10/16/22 22:24:03","The main experiment item","yes","Sternbergtask.osexp","C:/Users/ayesh/OneDrive/Desktop","no","mono","no","18","no","white","no","yes","768","legacy","11","11","C:/Users/ayesh/OneDrive/Desktop/MK-subject-1.csv","legacy","2 3 8 5 6 7","Lentiform Loewenfeld","3.3.12","0","n","0","right","right","NA","left","left","640","640","NA","19063","10685","2","legacy","6","1024","2","48000","-16","experiment","0","even","1","168094","170297","172298","172939","172298","NA","167023","168092","1937","103467","155455","1940","92781","169095","21004","Sternberg task ","23","14858","24","yes","1024"
"96","96","625.64","625.64","black","experiment","legacy","legacy","legacy","0","uniform","1","1","undefined","right","24","24","24","24","24","0","24","24","0","0","24","0","0","24","0","10/16/22 22:24:03","The main experiment item","yes","Sternbergtask.osexp","C:/Users/ayesh/OneDrive/Desktop","no","mono","no","18","no","white","no","yes","768","legacy","12","11","C:/Users/ayesh/OneDrive/Desktop/MK-subject-1.csv","legacy","7 4 2 8 1 9","Lentiform Loewenfeld","3.3.12","0","n","0","right","right","NA","left","left","783","783","NA","19063","10685","2","legacy","6","1024","2","48000","-16","experiment","0","even","5","174013","176219","178220","179003","178220","NA","172943","174011","1937","103467","155455","1940","92781","175015","21004","Sternberg task ","24","15641","25","yes","1024"
"96.1538461538","96.1538461538","617.153846154","617.153846154","black","experiment","legacy","legacy","legacy","0","uniform","1","1","undefined","left","25","25","25","25","25","0","25","25","0","0","25","0","0","25","0","10/16/22 22:24:03","The main experiment item","yes","Sternbergtask.osexp","C:/Users/ayesh/OneDrive/Desktop","no","mono","no","18","no","white","no","yes","768","legacy","13","11","C:/Users/ayesh/OneDrive/Desktop/MK-subject-1.csv","legacy","6 5","Lentiform Loewenfeld","3.3.12","2","y","0","left","left","NA","left","left","405","405","NA","19063","10685","2","legacy","2","1024","2","48000","-16","experiment","0","even","5","180080","182285","184286","184691","184286","NA","179007","180078","1937","103467","155455","1940","92781","181081","21004","Sternberg task ","25","16046","26","yes","1024"
"92.5925925926","92.5925925926","620.666666667","620.666666667","black","experiment","legacy","legacy","legacy","0","uniform","0","0","undefined","left","26","26","26","26","26","0","26","26","0","0","26","0","0","26","0","10/16/22 22:24:03","The main experiment item","yes","Sternbergtask.osexp","C:/Users/ayesh/OneDrive/Desktop","no","mono","no","18","no","white","no","yes","768","legacy","14","11","C:/Users/ayesh/OneDrive/Desktop/MK-subject-1.csv","legacy","3 2 1 4 7","Lentiform Loewenfeld","3.3.12","2","y","0","right","right","NA","left","left","712","712","NA","19063","10685","2","legacy","5","1024","2","48000","-16","experiment","0","even","2","185767","187970","189971","190684","189971","NA","184695","185766","1937","103467","155455","1940","92781","186769","21004","Sternberg task ","25","16758","27","yes","1024"
"92.8571428571","92.8571428571","618.928571429","618.928571429","black","experiment","legacy","legacy","legacy","0","uniform","1","1","undefined","right","27","27","27","27","27","0","27","27","0","0","27","0","0","27","0","10/16/22 22:24:03","The main experiment item","yes","Sternbergtask.osexp","C:/Users/ayesh/OneDrive/Desktop","no","mono","no","18","no","white","no","yes","768","legacy","15","11","C:/Users/ayesh/OneDrive/Desktop/MK-subject-1.csv","legacy","7 1","Lentiform Loewenfeld","3.3.12","0","n","0","right","right","NA","left","left","572","572","NA","19063","10685","2","legacy","2","1024","2","48000","-16","experiment","0","even","8","191757","193962","195967","196540","195966","NA","184695","191756","1937","103467","190687","1940","92781","192758","21004","Sternberg task ","26","17330","28","yes","1024"
"93.1034482759","93.1034482759","619.827586207","619.827586207","black","experiment","legacy","legacy","legacy","0","uniform","1","1","undefined","right","28","28","28","28","28","0","28","28","0","0","28","0","0","28","0","10/16/22 22:24:03","The main experiment item","yes","Sternbergtask.osexp","C:/Users/ayesh/OneDrive/Desktop","no","mono","no","18","no","white","no","yes","768","legacy","16","11","C:/Users/ayesh/OneDrive/Desktop/MK-subject-1.csv","legacy","2 8 6 3 1","Lentiform Loewenfeld","3.3.12","0","n","0","right","right","NA","left","left","645","645","NA","19063","10685","2","legacy","5","1024","2","48000","-16","experiment","0","even","7","197617","199820","201821","202467","201821","NA","196543","197615","1937","103467","190687","1940","92781","198619","21004","Sternberg task ","27","17975","29","yes","1024"
"90","90","621.633333333","621.633333333","black","experiment","legacy","legacy","legacy","0","uniform","0","0","undefined","right","29","29","29","29","29","0","29","29","0","0","29","0","0","29","0","10/16/22 22:24:03","The main experiment item","yes","Sternbergtask.osexp","C:/Users/ayesh/OneDrive/Desktop","no","mono","no","18","no","white","no","yes","768","legacy","17","11","C:/Users/ayesh/OneDrive/Desktop/MK-subject-1.csv","legacy","3 9 8 1 6 4","Lentiform Loewenfeld","3.3.12","0","n","0","left","left","NA","left","left","674","674","NA","19063","10685","2","legacy","6","1024","2","48000","-16","experiment","0","even","7","203541","205743","207744","208419","207744","NA","202470","203539","1937","103467","190687","1940","92781","204542","21004","Sternberg task ","27","18649","30","yes","1024"
"90.3225806452","90.3225806452","622.193548387","622.193548387","black","experiment","legacy","legacy","legacy","0","uniform","1","1","undefined","right","30","30","30","30","30","0","30","30","0","0","30","0","0","30","0","10/16/22 22:24:03","The main experiment item","yes","Sternbergtask.osexp","C:/Users/ayesh/OneDrive/Desktop","no","mono","no","18","no","white","no","yes","768","legacy","18","11","C:/Users/ayesh/OneDrive/Desktop/MK-subject-1.csv","legacy","2 8 9 4 1","Lentiform Loewenfeld","3.3.12","0","n","0","right","right","NA","left","left","639","639","NA","19063","10685","2","legacy","5","1024","2","48000","-16","experiment","0","even","5","209493","211698","213699","214339","213699","NA","202470","209491","1937","103467","208422","1940","92781","210494","21004","Sternberg task ","28","19288","31","yes","1024"
"87.5","87.5","617.75","617.75","black","experiment","legacy","legacy","legacy","0","uniform","0","0","undefined","left","31","31","31","31","31","0","31","31","0","0","31","0","0","31","0","10/16/22 22:24:03","The main experiment item","yes","Sternbergtask.osexp","C:/Users/ayesh/OneDrive/Desktop","no","mono","no","18","no","white","no","yes","768","legacy","19","11","C:/Users/ayesh/OneDrive/Desktop/MK-subject-1.csv","legacy","4 7 6 8 2 3","Lentiform Loewenfeld","3.3.12","6","y","0","right","right","NA","left","left","480","480","NA","19063","10685","2","legacy","6","1024","2","48000","-16","experiment","0","even","3","215415","217617","219618","220099","219618","NA","214343","215413","1937","103467","208422","1940","92781","216416","21004","Sternberg task ","28","19768","32","yes","1024"
"84.8484848485","84.8484848485","619.242424242","619.242424242","black","experiment","legacy","legacy","legacy","0","uniform","0","0","undefined","left","32","32","32","32","32","0","32","32","0","0","32","0","0","32","0","10/16/22 22:24:03","The main experiment item","yes","Sternbergtask.osexp","C:/Users/ayesh/OneDrive/Desktop","no","mono","no","18","no","white","no","yes","768","legacy","20","11","C:/Users/ayesh/OneDrive/Desktop/MK-subject-1.csv","legacy","7 1 8 5 6 2","Lentiform Loewenfeld","3.3.12","2","y","0","right","right","NA","left","left","667","667","NA","19063","10685","2","legacy","6","1024","2","48000","-16","experiment","0","even","1","221173","223378","225383","226050","225383","NA","214343","221171","1937","103467","220103","1940","92781","222174","21004","Sternberg task ","28","20435","33","yes","1024"
"82.3529411765","82.3529411765","616.029411765","616.029411765","black","experiment","legacy","legacy","legacy","0","uniform","0","0","undefined","right","33","33","33","33","33","0","33","33","0","0","33","0","0","33","0","10/16/22 22:24:03","The main experiment item","yes","Sternbergtask.osexp","C:/Users/ayesh/OneDrive/Desktop","no","mono","no","18","no","white","no","yes","768","legacy","21","11","C:/Users/ayesh/OneDrive/Desktop/MK-subject-1.csv","legacy","6 8 4","Lentiform Loewenfeld","3.3.12","0","n","0","left","left","NA","left","left","510","510","NA","19063","10685","2","legacy","3","1024","2","48000","-16","experiment","0","even","1","227129","229331","231332","231843","231332","NA","214343","227128","1937","103467","226055","1940","92781","228130","21004","Sternberg task ","28","20945","34","yes","1024"
"80","80","616.685714286","616.685714286","black","experiment","legacy","legacy","legacy","0","uniform","0","0","undefined","left","34","34","34","34","34","0","34","34","0","0","34","0","0","34","0","10/16/22 22:24:03","The main experiment item","yes","Sternbergtask.osexp","C:/Users/ayesh/OneDrive/Desktop","no","mono","no","18","no","white","no","yes","768","legacy","22","11","C:/Users/ayesh/OneDrive/Desktop/MK-subject-1.csv","legacy","3 5 9 6 2 4","Lentiform Loewenfeld","3.3.12","1","y","0","right","right","NA","left","left","639","639","NA","19063","10685","2","legacy","6","1024","2","48000","-16","experiment","0","even","3","232921","235122","237123","237763","237123","NA","214343","232920","1937","103467","231848","1940","92781","233922","21004","Sternberg task ","28","21584","35","yes","1024"
"80.5555555556","80.5555555556","613.305555556","613.305555556","black","experiment","legacy","legacy","legacy","0","uniform","1","1","undefined","left","35","35","35","35","35","0","35","35","0","0","35","0","0","35","0","10/16/22 22:24:03","The main experiment item","yes","Sternbergtask.osexp","C:/Users/ayesh/OneDrive/Desktop","no","mono","no","18","no","white","no","yes","768","legacy","23","11","C:/Users/ayesh/OneDrive/Desktop/MK-subject-1.csv","legacy","2 5 4 8 7","Lentiform Loewenfeld","3.3.12","3","y","0","left","left","NA","left","left","495","495","NA","19063","10685","2","legacy","5","1024","2","48000","-16","experiment","0","even","4","238840","241042","243043","243539","243043","NA","214343","238837","1937","103467","237766","1940","92781","239841","21004","Sternberg task ","29","22079","36","yes","1024"
"81.0810810811","81.0810810811","615.243243243","615.243243243","black","experiment","legacy","legacy","legacy","0","uniform","1","1","undefined","left","36","36","36","36","36","0","36","36","0","0","36","0","0","36","0","10/16/22 22:24:03","The main experiment item","yes","Sternbergtask.osexp","C:/Users/ayesh/OneDrive/Desktop","no","mono","no","18","no","white","no","yes","768","legacy","24","11","C:/Users/ayesh/OneDrive/Desktop/MK-subject-1.csv","legacy","7 2 3","Lentiform Loewenfeld","3.3.12","3","y","0","left","left","NA","left","left","685","685","NA","19063","10685","2","legacy","3","1024","2","48000","-16","experiment","0","even","3","244618","246820","248821","249507","248821","NA","243543","244615","1937","103467","237766","1940","92781","245619","21004","Sternberg task ","30","22764","37","yes","1024"
"78.9473684211","78.9473684211","615.868421053","615.868421053","black","experiment","legacy","legacy","legacy","0","uniform","0","0","undefined","right","37","37","37","37","37","0","37","37","0","0","37","0","0","37","0","10/16/22 22:24:03","The main experiment item","yes","Sternbergtask.osexp","C:/Users/ayesh/OneDrive/Desktop","no","mono","no","18","no","white","no","yes","768","legacy","25","11","C:/Users/ayesh/OneDrive/Desktop/MK-subject-1.csv","legacy","9 7 4 5 8","Lentiform Loewenfeld","3.3.12","0","n","0","left","left","NA","left","left","639","639","NA","19063","10685","2","legacy","5","1024","2","48000","-16","experiment","0","even","6","250584","252786","254787","255427","254787","NA","249512","250583","1937","103467","237766","1940","92781","251585","21004","Sternberg task ","30","23403","38","yes","1024"
"76.9230769231","76.9230769231","613.41025641","613.41025641","black","experiment","legacy","legacy","legacy","0","uniform","0","0","undefined","left","38","38","38","38","38","0","38","38","0","0","38","0","0","38","0","10/16/22 22:24:03","The main experiment item","yes","Sternbergtask.osexp","C:/Users/ayesh/OneDrive/Desktop","no","mono","no","18","no","white","no","yes","768","legacy","26","11","C:/Users/ayesh/OneDrive/Desktop/MK-subject-1.csv","legacy","9 8 4","Lentiform Loewenfeld","3.3.12","1","y","0","right","right","NA","left","left","520","520","NA","19063","10685","2","legacy","3","1024","2","48000","-16","experiment","0","even","9","256517","258722","260722","261243","260722","NA","249512","256516","1937","103467","255432","1940","92781","257518","21004","Sternberg task ","30","23923","39","yes","1024"
"77.5","77.5","615.225","615.225","black","experiment","legacy","legacy","legacy","0","uniform","1","1","undefined","left","39","39","39","39","39","0","39","39","0","0","39","0","0","39","0","10/16/22 22:24:03","The main experiment item","yes","Sternbergtask.osexp","C:/Users/ayesh/OneDrive/Desktop","no","mono","no","18","no","white","no","yes","768","legacy","27","11","C:/Users/ayesh/OneDrive/Desktop/MK-subject-1.csv","legacy","5 2 6","Lentiform Loewenfeld","3.3.12","2","y","0","left","left","NA","left","left","686","686","NA","19063","10685","2","legacy","3","1024","2","48000","-16","experiment","0","even","2","262317","264522","266524","267211","266524","NA","249512","262316","1937","103467","261247","1940","92781","263318","21004","Sternberg task ","31","24609","40","yes","1024"
"78.0487804878","78.0487804878","614.048780488","614.048780488","black","experiment","legacy","legacy","legacy","0","uniform","1","1","undefined","left","40","40","40","40","40","0","40","40","0","0","40","0","0","40","0","10/16/22 22:24:03","The main experiment item","yes","Sternbergtask.osexp","C:/Users/ayesh/OneDrive/Desktop","no","mono","no","18","no","white","no","yes","768","legacy","28","11","C:/Users/ayesh/OneDrive/Desktop/MK-subject-1.csv","legacy","9 5 8 1","Lentiform Loewenfeld","3.3.12","2","y","0","left","left","NA","left","left","567","567","NA","19063","10685","2","legacy","4","1024","2","48000","-16","experiment","0","even","5","268288","270490","272491","273059","272491","NA","267217","268286","1937","103467","261247","1940","92781","269289","21004","Sternberg task ","32","25176","41","yes","1024"
"78.5714285714","78.5714285714","614.095238095","614.095238095","black","experiment","legacy","legacy","legacy","0","uniform","1","1","undefined","right","41","41","41","41","41","0","41","41","0","0","41","0","0","41","0","10/16/22 22:24:03","The main experiment item","yes","Sternbergtask.osexp","C:/Users/ayesh/OneDrive/Desktop","no","mono","no","18","no","white","no","yes","768","legacy","29","11","C:/Users/ayesh/OneDrive/Desktop/MK-subject-1.csv","legacy","7 6 4 8 1 2","Lentiform Loewenfeld","3.3.12","0","n","0","right","right","NA","left","left","616","616","NA","19063","10685","2","legacy","6","1024","2","48000","-16","experiment","0","even","9","274136","276341","278346","278963","278346","NA","273062","274134","1937","103467","261247","1940","92781","275137","21004","Sternberg task ","33","25792","42","yes","1024"
"76.7441860465","76.7441860465","611.534883721","611.534883721","black","experiment","legacy","legacy","legacy","0","uniform","0","0","undefined","right","42","42","42","42","42","0","42","42","0","0","42","0","0","42","0","10/16/22 22:24:03","The main experiment item","yes","Sternbergtask.osexp","C:/Users/ayesh/OneDrive/Desktop","no","mono","no","18","no","white","no","yes","768","legacy","30","11","C:/Users/ayesh/OneDrive/Desktop/MK-subject-1.csv","legacy","6 9 5","Lentiform Loewenfeld","3.3.12","0","n","0","left","left","NA","left","left","504","504","NA","19063","10685","2","legacy","3","1024","2","48000","-16","experiment","0","even","8","280039","282241","284242","284747","284242","NA","278968","280037","1937","103467","261247","1940","92781","281040","21004","Sternberg task ","33","26296","43","yes","1024"
"77.2727272727","77.2727272727","609.75","609.75","black","experiment","legacy","legacy","legacy","0","uniform","1","1","undefined","right","43","43","43","43","43","0","43","43","0","0","43","0","0","43","0","10/16/22 22:24:03","The main experiment item","yes","Sternbergtask.osexp","C:/Users/ayesh/OneDrive/Desktop","no","mono","no","18","no","white","no","yes","768","legacy","31","11","C:/Users/ayesh/OneDrive/Desktop/MK-subject-1.csv","legacy","8 9","Lentiform Loewenfeld","3.3.12","0","n","0","right","right","NA","left","left","533","533","NA","19063","10685","2","legacy","2","1024","2","48000","-16","experiment","0","even","5","285835","288040","290045","290579","290045","NA","278968","285833","1937","103467","284750","1940","92781","286838","21004","Sternberg task ","34","26829","44","yes","1024"
"77.7777777778","77.7777777778","612.555555556","612.555555556","black","experiment","legacy","legacy","legacy","0","uniform","1","1","undefined","right","44","44","44","44","44","0","44","44","0","0","44","0","0","44","0","10/16/22 22:24:03","The main experiment item","yes","Sternbergtask.osexp","C:/Users/ayesh/OneDrive/Desktop","no","mono","no","18","no","white","no","yes","768","legacy","32","11","C:/Users/ayesh/OneDrive/Desktop/MK-subject-1.csv","legacy","1 5 3 2 8","Lentiform Loewenfeld","3.3.12","0","n","0","right","right","NA","left","left","736","736","NA","19063","10685","2","legacy","5","1024","2","48000","-16","experiment","0","even","4","291655","293857","295858","296595","295858","NA","290584","291653","1937","103467","284750","1940","92781","292656","21004","Sternberg task ","35","27565","45","yes","1024"
"78.2608695652","78.2608695652","616.217391304","616.217391304","black","experiment","legacy","legacy","legacy","0","uniform","1","1","undefined","right","45","45","45","45","45","0","45","45","0","0","45","0","0","45","0","10/16/22 22:24:03","The main experiment item","yes","Sternbergtask.osexp","C:/Users/ayesh/OneDrive/Desktop","no","mono","no","18","no","white","no","yes","768","legacy","33","11","C:/Users/ayesh/OneDrive/Desktop/MK-subject-1.csv","legacy","7 9 1 6","Lentiform Loewenfeld","3.3.12","0","n","0","right","right","NA","left","left","781","781","NA","19063","10685","2","legacy","4","1024","2","48000","-16","experiment","0","even","4","297671","299876","301877","302659","301877","NA","296599","297669","1937","103467","284750","1940","92781","298672","21004","Sternberg task ","36","28346","46","yes","1024"
"76.5957446809","76.5957446809","616.893617021","616.893617021","black","experiment","legacy","legacy","legacy","0","uniform","0","0","undefined","right","46","46","46","46","46","0","46","46","0","0","46","0","0","46","0","10/16/22 22:24:03","The main experiment item","yes","Sternbergtask.osexp","C:/Users/ayesh/OneDrive/Desktop","no","mono","no","18","no","white","no","yes","768","legacy","34","11","C:/Users/ayesh/OneDrive/Desktop/MK-subject-1.csv","legacy","9 8 2 7 4","Lentiform Loewenfeld","3.3.12","0","n","0","left","left","NA","left","left","648","648","NA","19063","10685","2","legacy","5","1024","2","48000","-16","experiment","0","even","5","303735","305937","307938","308587","307938","NA","302663","303733","1937","103467","284750","1940","92781","304736","21004","Sternberg task ","36","28994","47","yes","1024"
"77.0833333333","77.0833333333","615.041666667","615.041666667","black","experiment","legacy","legacy","legacy","0","uniform","1","1","undefined","right","47","47","47","47","47","0","47","47","0","0","47","0","0","47","0","10/16/22 22:24:03","The main experiment item","yes","Sternbergtask.osexp","C:/Users/ayesh/OneDrive/Desktop","no","mono","no","18","no","white","no","yes","768","legacy","35","11","C:/Users/ayesh/OneDrive/Desktop/MK-subject-1.csv","legacy","6 2 9 3 8 4","Lentiform Loewenfeld","3.3.12","0","n","0","right","right","NA","left","left","528","528","NA","19063","10685","2","legacy","6","1024","2","48000","-16","experiment","0","even","1","309663","311865","313866","314395","313866","NA","302663","309661","1937","103467","308592","1940","92781","310664","21004","Sternberg task ","37","29522","48","yes","1024"
"77.5510204082","77.5510204082","619.612244898","619.612244898","black","experiment","legacy","legacy","legacy","0","uniform","1","1","undefined","left","48","48","48","48","48","0","48","48","0","0","48","0","0","48","0","10/16/22 22:24:03","The main experiment item","yes","Sternbergtask.osexp","C:/Users/ayesh/OneDrive/Desktop","no","mono","no","18","no","white","no","yes","768","legacy","36","11","C:/Users/ayesh/OneDrive/Desktop/MK-subject-1.csv","legacy","3 9 6 2","Lentiform Loewenfeld","3.3.12","4","y","0","left","left","NA","left","left","839","839","NA","19063","10685","2","legacy","4","1024","2","48000","-16","experiment","0","even","2","315471","317674","319675","320515","319675","NA","314400","315469","1937","103467","308592","1940","92781","316472","21004","Sternberg task ","38","30361","49","yes","1024"
"78","78","618.28","618.28","black","experiment","legacy","legacy","legacy","0","uniform","1","1","undefined","right","49","49","49","49","49","0","49","49","0","0","49","0","0","49","0","10/16/22 22:24:03","The main experiment item","yes","Sternbergtask.osexp","C:/Users/ayesh/OneDrive/Desktop","no","mono","no","18","no","white","no","yes","768","legacy","37","11","C:/Users/ayesh/OneDrive/Desktop/MK-subject-1.csv","legacy","4 2 6 9","Lentiform Loewenfeld","3.3.12","0","n","0","right","right","NA","left","left","553","553","NA","19063","10685","2","legacy","4","1024","2","48000","-16","experiment","0","even","7","321590","323796","325801","326355","325801","NA","320520","321588","1937","103467","308592","1940","92781","322592","21004","Sternberg task ","39","30914","50","yes","1024"
"76.4705882353","76.4705882353","625.901960784","625.901960784","black","experiment","legacy","legacy","legacy","0","uniform","0","0","undefined","right","50","50","50","50","50","0","50","50","0","0","50","0","0","50","0","10/16/22 22:24:03","The main experiment item","yes","Sternbergtask.osexp","C:/Users/ayesh/OneDrive/Desktop","no","mono","no","18","no","white","no","yes","768","legacy","38","11","C:/Users/ayesh/OneDrive/Desktop/MK-subject-1.csv","legacy","4 1","Lentiform Loewenfeld","3.3.12","0","n","0","left","left","NA","left","left","1007","1007","NA","19063","10685","2","legacy","2","1024","2","48000","-16","experiment","0","even","6","327431","329634","331635","332643","331635","NA","326359","327429","1937","103467","308592","1940","92781","328432","21004","Sternberg task ","39","31921","51","yes","1024"
"75","75","623.711538462","623.711538462","black","experiment","legacy","legacy","legacy","0","uniform","0","0","undefined","left","51","51","51","51","51","0","51","51","0","0","51","0","0","51","0","10/16/22 22:24:03","The main experiment item","yes","Sternbergtask.osexp","C:/Users/ayesh/OneDrive/Desktop","no","mono","no","18","no","white","no","yes","768","legacy","39","11","C:/Users/ayesh/OneDrive/Desktop/MK-subject-1.csv","legacy","9 1 6 7 8","Lentiform Loewenfeld","3.3.12","1","y","0","right","right","NA","left","left","512","512","NA","19063","10685","2","legacy","5","1024","2","48000","-16","experiment","0","even","9","333719","335921","337922","338435","337922","NA","326359","333718","1937","103467","332648","1940","92781","334720","21004","Sternberg task ","39","32433","52","yes","1024"
"73.5849056604","73.5849056604","627.132075472","627.132075472","black","experiment","legacy","legacy","legacy","0","uniform","0","0","undefined","right","52","52","52","52","52","0","52","52","0","0","52","0","0","52","0","10/16/22 22:24:03","The main experiment item","yes","Sternbergtask.osexp","C:/Users/ayesh/OneDrive/Desktop","no","mono","no","18","no","white","no","yes","768","legacy","40","11","C:/Users/ayesh/OneDrive/Desktop/MK-subject-1.csv","legacy","1 8 7","Lentiform Loewenfeld","3.3.12","0","n","0","left","left","NA","left","left","805","805","NA","19063","10685","2","legacy","3","1024","2","48000","-16","experiment","0","even","4","339511","341716","343717","344523","343717","NA","326359","339509","1937","103467","338439","1940","92781","340512","21004","Sternberg task ","39","33238","53","yes","1024"
"72.2222222222","72.2222222222","636.388888889","636.388888889","black","experiment","legacy","legacy","legacy","0","uniform","0","0","undefined","left","53","53","53","53","53","0","53","53","0","0","53","0","0","53","0","10/16/22 22:24:03","The main experiment item","yes","Sternbergtask.osexp","C:/Users/ayesh/OneDrive/Desktop","no","mono","no","18","no","white","no","yes","768","legacy","41","11","C:/Users/ayesh/OneDrive/Desktop/MK-subject-1.csv","legacy","9 3 8 2 1 4","Lentiform Loewenfeld","3.3.12","3","y","0","right","right","NA","left","left","1127","1127","NA","19063","10685","2","legacy","6","1024","2","48000","-16","experiment","0","even","8","345599","347801","349802","350930","349802","NA","326359","345598","1937","103467","344528","1940","92781","346600","21004","Sternberg task ","39","34365","54","yes","1024"
"70.9090909091","70.9090909091","632.163636364","632.163636364","black","experiment","legacy","legacy","legacy","0","uniform","0","0","undefined","right","54","54","54","54","54","0","54","54","0","0","54","0","0","54","0","10/16/22 22:24:03","The main experiment item","yes","Sternbergtask.osexp","C:/Users/ayesh/OneDrive/Desktop","no","mono","no","18","no","white","no","yes","768","legacy","42","11","C:/Users/ayesh/OneDrive/Desktop/MK-subject-1.csv","legacy","1 6 4 3 9 7","Lentiform Loewenfeld","3.3.12","0","n","0","left","left","NA","left","left","404","404","NA","19063","10685","2","legacy","6","1024","2","48000","-16","experiment","0","even","8","352007","354213","356214","356619","356214","NA","326359","352006","1937","103467","350936","1940","92781","353009","21004","Sternberg task ","39","34769","55","yes","1024"
"71.4285714286","71.4285714286","627.839285714","627.839285714","black","experiment","legacy","legacy","legacy","0","uniform","1","1","undefined","right","55","55","55","55","55","0","55","55","0","0","55","0","0","55","0","10/16/22 22:24:03","The main experiment item","yes","Sternbergtask.osexp","C:/Users/ayesh/OneDrive/Desktop","no","mono","no","18","no","white","no","yes","768","legacy","43","11","C:/Users/ayesh/OneDrive/Desktop/MK-subject-1.csv","legacy","2 5 1 4","Lentiform Loewenfeld","3.3.12","0","n","0","right","right","NA","left","left","390","390","NA","19063","10685","2","legacy","4","1024","2","48000","-16","experiment","0","even","6","357694","359899","361900","362291","361900","NA","326359","357692","1937","103467","356622","1940","92781","358695","21004","Sternberg task ","40","35159","56","yes","1024"
"70.1754385965","70.1754385965","626.192982456","626.192982456","black","experiment","legacy","legacy","legacy","0","uniform","0","0","undefined","right","56","56","56","56","56","0","56","56","0","0","56","0","0","56","0","10/16/22 22:24:03","The main experiment item","yes","Sternbergtask.osexp","C:/Users/ayesh/OneDrive/Desktop","no","mono","no","18","no","white","no","yes","768","legacy","44","11","C:/Users/ayesh/OneDrive/Desktop/MK-subject-1.csv","legacy","8 4 3 9","Lentiform Loewenfeld","3.3.12","0","n","0","left","left","NA","left","left","534","534","NA","19063","10685","2","legacy","4","1024","2","48000","-16","experiment","0","even","5","363365","365571","367572","368107","367572","NA","362295","363364","1937","103467","356622","1940","92781","364367","21004","Sternberg task ","40","35693","57","yes","1024"
"68.9655172414","68.9655172414","621.827586207","621.827586207","black","experiment","legacy","legacy","legacy","0","uniform","0","0","undefined","left","57","57","57","57","57","0","57","57","0","0","57","0","0","57","0","10/16/22 22:24:03","The main experiment item","yes","Sternbergtask.osexp","C:/Users/ayesh/OneDrive/Desktop","no","mono","no","18","no","white","no","yes","768","legacy","45","11","C:/Users/ayesh/OneDrive/Desktop/MK-subject-1.csv","legacy","4 1 8 7 5","Lentiform Loewenfeld","3.3.12","3","y","0","right","right","NA","left","left","373","373","NA","19063","10685","2","legacy","5","1024","2","48000","-16","experiment","0","even","8","369183","371388","373389","373763","373389","NA","362295","369181","1937","103467","368111","1940","92781","370184","21004","Sternberg task ","40","36066","58","yes","1024"
"69.4915254237","69.4915254237","618.830508475","618.830508475","black","experiment","legacy","legacy","legacy","0","uniform","1","1","undefined","left","58","58","58","58","58","0","58","58","0","0","58","0","0","58","0","10/16/22 22:24:03","The main experiment item","yes","Sternbergtask.osexp","C:/Users/ayesh/OneDrive/Desktop","no","mono","no","18","no","white","no","yes","768","legacy","46","11","C:/Users/ayesh/OneDrive/Desktop/MK-subject-1.csv","legacy","6 2","Lentiform Loewenfeld","3.3.12","1","y","0","left","left","NA","left","left","445","445","NA","19063","10685","2","legacy","2","1024","2","48000","-16","experiment","0","even","6","374840","377043","379044","379490","379044","NA","362295","374838","1937","103467","373768","1940","92781","375841","21004","Sternberg task ","41","36511","59","yes","1024"
"68.3333333333","68.3333333333","616.266666667","616.266666667","black","experiment","legacy","legacy","legacy","0","uniform","0","0","undefined","right","59","59","59","59","59","0","59","59","0","0","59","0","0","59","0","10/16/22 22:24:03","The main experiment item","yes","Sternbergtask.osexp","C:/Users/ayesh/OneDrive/Desktop","no","mono","no","18","no","white","no","yes","768","legacy","47","11","C:/Users/ayesh/OneDrive/Desktop/MK-subject-1.csv","legacy","8 6 3 4 7","Lentiform Loewenfeld","3.3.12","0","n","0","left","left","NA","left","left","465","465","NA","19063","10685","2","legacy","5","1024","2","48000","-16","experiment","0","even","1","380566","382768","384769","385235","384769","NA","379495","380565","1937","103467","373768","1940","92781","381567","21004","Sternberg task ","41","36976","60","yes","1024"
"68.8524590164","68.8524590164","613.590163934","613.590163934","black","experiment","legacy","legacy","legacy","0","uniform","1","1","undefined","right","60","60","60","60","60","0","60","60","0","0","60","0","0","60","0","10/16/22 22:24:03","The main experiment item","yes","Sternbergtask.osexp","C:/Users/ayesh/OneDrive/Desktop","no","mono","no","18","no","white","no","yes","768","legacy","48","11","C:/Users/ayesh/OneDrive/Desktop/MK-subject-1.csv","legacy","5 7 3","Lentiform Loewenfeld","3.3.12","0","n","0","right","right","NA","left","left","453","453","NA","19063","10685","2","legacy","3","1024","2","48000","-16","experiment","0","even","9","386310","388516","390517","390971","390517","NA","379495","386309","1937","103467","385238","1940","92781","387315","21004","Sternberg task ","42","37429","61","yes","1024"
"69.3548387097","69.3548387097","611.209677419","611.209677419","black","experiment","legacy","legacy","legacy","0","uniform","1","1","undefined","left","61","61","61","61","61","0","61","61","0","0","61","0","0","61","0","10/16/22 22:24:03","The main experiment item","yes","Sternbergtask.osexp","C:/Users/ayesh/OneDrive/Desktop","no","mono","no","18","no","white","no","yes","768","legacy","49","11","C:/Users/ayesh/OneDrive/Desktop/MK-subject-1.csv","legacy","9 6 2 4 1","Lentiform Loewenfeld","3.3.12","4","y","0","left","left","NA","left","left","466","466","NA","19063","10685","2","legacy","5","1024","2","48000","-16","experiment","0","even","4","392049","394255","396256","396723","396256","NA","390975","392048","1937","103467","385238","1940","92781","393051","21004","Sternberg task ","43","37895","62","yes","1024"
"68.253968254","68.253968254","608.904761905","608.904761905","black","experiment","legacy","legacy","legacy","0","uniform","0","0","undefined","right","62","62","62","62","62","0","62","62","0","0","62","0","0","62","0","10/16/22 22:24:03","The main experiment item","yes","Sternbergtask.osexp","C:/Users/ayesh/OneDrive/Desktop","no","mono","no","18","no","white","no","yes","768","legacy","50","11","C:/Users/ayesh/OneDrive/Desktop/MK-subject-1.csv","legacy","8 2 1 4 5 9","Lentiform Loewenfeld","3.3.12","0","n","0","left","left","NA","left","left","466","466","NA","19063","10685","2","legacy","6","1024","2","48000","-16","experiment","0","even","7","397802","400006","402007","402474","402007","NA","396727","397800","1937","103467","385238","1940","92781","398803","21004","Sternberg task ","43","38361","63","yes","1024"
"68.75","68.75","606.5625","606.5625","black","experiment","legacy","legacy","legacy","0","uniform","1","1","undefined","right","63","63","63","63","63","0","63","63","0","0","63","0","0","63","0","10/16/22 22:24:03","The main experiment item","yes","Sternbergtask.osexp","C:/Users/ayesh/OneDrive/Desktop","no","mono","no","18","no","white","no","yes","768","legacy","51","11","C:/Users/ayesh/OneDrive/Desktop/MK-subject-1.csv","legacy","3 4 9 6 7 8","Lentiform Loewenfeld","3.3.12","0","n","0","right","right","NA","left","left","459","459","NA","19063","10685","2","legacy","6","1024","2","48000","-16","experiment","0","even","2","403556","405758","407759","408219","407759","NA","396727","403554","1937","103467","402484","1940","92781","404557","21004","Sternberg task ","44","38820","64","yes","1024"
"69.2307692308","69.2307692308","603.984615385","603.984615385","black","experiment","legacy","legacy","legacy","0","uniform","1","1","undefined","left","64","64","64","64","64","0","64","64","0","0","64","0","0","64","0","10/16/22 22:24:03","The main experiment item","yes","Sternbergtask.osexp","C:/Users/ayesh/OneDrive/Desktop","no","mono","no","18","no","white","no","yes","768","legacy","52","11","C:/Users/ayesh/OneDrive/Desktop/MK-subject-1.csv","legacy","3 9 7 6 4","Lentiform Loewenfeld","3.3.12","3","y","0","left","left","NA","left","left","439","439","NA","19063","10685","2","legacy","5","1024","2","48000","-16","experiment","0","even","7","409295","411497","413498","413938","413498","NA","408223","409294","1937","103467","402484","1940","92781","410296","21004","Sternberg task ","45","39259","65","yes","1024"
"69.696969697","69.696969697","600.060606061","600.060606061","black","experiment","legacy","legacy","legacy","0","uniform","1","1","undefined","right","65","65","65","65","65","0","65","65","0","0","65","0","0","65","0","10/16/22 22:24:03","The main experiment item","yes","Sternbergtask.osexp","C:/Users/ayesh/OneDrive/Desktop","no","mono","no","18","no","white","no","yes","768","legacy","53","11","C:/Users/ayesh/OneDrive/Desktop/MK-subject-1.csv","legacy","5 3 2 6 9 8","Lentiform Loewenfeld","3.3.12","0","n","0","right","right","NA","left","left","345","345","NA","19063","10685","2","legacy","6","1024","2","48000","-16","experiment","0","even","4","415014","417216","419217","419563","419217","NA","413942","415013","1937","103467","402484","1940","92781","416015","21004","Sternberg task ","46","39604","66","yes","1024"
"68.6567164179","68.6567164179","598.597014925","598.597014925","black","experiment","legacy","legacy","legacy","0","uniform","0","0","undefined","right","66","66","66","66","66","0","66","66","0","0","66","0","0","66","0","10/16/22 22:24:03","The main experiment item","yes","Sternbergtask.osexp","C:/Users/ayesh/OneDrive/Desktop","no","mono","no","18","no","white","no","yes","768","legacy","54","11","C:/Users/ayesh/OneDrive/Desktop/MK-subject-1.csv","legacy","2 6 4 3 9","Lentiform Loewenfeld","3.3.12","0","n","0","left","left","NA","left","left","502","502","NA","19063","10685","2","legacy","5","1024","2","48000","-16","experiment","0","even","1","420637","422843","424844","425347","424844","NA","419566","420636","1937","103467","402484","1940","92781","421639","21004","Sternberg task ","46","40106","67","yes","1024"
"69.1176470588","69.1176470588","595.529411765","595.529411765","black","experiment","legacy","legacy","legacy","0","uniform","1","1","undefined","right","67","67","67","67","67","0","67","67","0","0","67","0","0","67","0","10/16/22 22:24:03","The main experiment item","yes","Sternbergtask.osexp","C:/Users/ayesh/OneDrive/Desktop","no","mono","no","18","no","white","no","yes","768","legacy","55","11","C:/Users/ayesh/OneDrive/Desktop/MK-subject-1.csv","legacy","1 7 5 2 9","Lentiform Loewenfeld","3.3.12","0","n","0","right","right","NA","left","left","390","390","NA","19063","10685","2","legacy","5","1024","2","48000","-16","experiment","0","even","3","426425","428627","430628","431019","430628","NA","419566","426424","1937","103467","425351","1940","92781","427426","21004","Sternberg task ","47","40496","68","yes","1024"
"68.115942029","68.115942029","592.724637681","592.724637681","black","experiment","legacy","legacy","legacy","0","uniform","0","0","undefined","left","68","68","68","68","68","0","68","68","0","0","68","0","0","68","0","10/16/22 22:24:03","The main experiment item","yes","Sternbergtask.osexp","C:/Users/ayesh/OneDrive/Desktop","no","mono","no","18","no","white","no","yes","768","legacy","56","11","C:/Users/ayesh/OneDrive/Desktop/MK-subject-1.csv","legacy","8 9 6 1","Lentiform Loewenfeld","3.3.12","2","y","0","right","right","NA","left","left","402","402","NA","19063","10685","2","legacy","4","1024","2","48000","-16","experiment","0","even","9","432094","434295","436296","436699","436296","NA","431023","432092","1937","103467","425351","1940","92781","433095","21004","Sternberg task ","47","40898","69","yes","1024"
"67.1428571429","67.1428571429","594.514285714","594.514285714","black","experiment","legacy","legacy","legacy","0","uniform","0","0","undefined","left","69","69","69","69","69","0","69","69","0","0","69","0","0","69","0","10/16/22 22:24:03","The main experiment item","yes","Sternbergtask.osexp","C:/Users/ayesh/OneDrive/Desktop","no","mono","no","18","no","white","no","yes","768","legacy","57","11","C:/Users/ayesh/OneDrive/Desktop/MK-subject-1.csv","legacy","7 8 6 3 1","Lentiform Loewenfeld","3.3.12","5","y","0","right","right","NA","left","left","718","718","NA","19063","10685","2","legacy","5","1024","2","48000","-16","experiment","0","even","1","437774","439979","441980","442699","441980","NA","431023","437772","1937","103467","436702","1940","92781","438775","21004","Sternberg task ","47","41616","70","yes","1024"
"66.1971830986","66.1971830986","595.211267606","595.211267606","black","experiment","legacy","legacy","legacy","0","uniform","0","0","undefined","right","70","70","70","70","70","0","70","70","0","0","70","0","0","70","0","10/16/22 22:24:03","The main experiment item","yes","Sternbergtask.osexp","C:/Users/ayesh/OneDrive/Desktop","no","mono","no","18","no","white","no","yes","768","legacy","58","11","C:/Users/ayesh/OneDrive/Desktop/MK-subject-1.csv","legacy","3 4 2","Lentiform Loewenfeld","3.3.12","0","n","0","left","left","NA","left","left","644","644","NA","19063","10685","2","legacy","3","1024","2","48000","-16","experiment","0","even","5","443774","445977","447982","448626","447982","NA","431023","443773","1937","103467","442703","1940","92781","444775","21004","Sternberg task ","47","42260","71","yes","1024"
"65.2777777778","65.2777777778","594.694444444","594.694444444","black","experiment","legacy","legacy","legacy","0","uniform","0","0","undefined","left","71","71","71","71","71","0","71","71","0","0","71","0","0","71","0","10/16/22 22:24:03","The main experiment item","yes","Sternbergtask.osexp","C:/Users/ayesh/OneDrive/Desktop","no","mono","no","18","no","white","no","yes","768","legacy","59","11","C:/Users/ayesh/OneDrive/Desktop/MK-subject-1.csv","legacy","7 8 4 6 9 5","Lentiform Loewenfeld","3.3.12","4","y","0","right","right","NA","left","left","558","558","NA","19063","10685","2","legacy","6","1024","2","48000","-16","experiment","0","even","6","449704","451907","453908","454468","453908","NA","431023","449702","1937","103467","448630","1940","92781","450706","21004","Sternberg task ","47","42818","72","yes","1024"
"64.3835616438","64.3835616438","596.191780822","596.191780822","black","experiment","legacy","legacy","legacy","0","uniform","0","0","undefined","right","72","72","72","72","72","0","72","72","0","0","72","0","0","72","0","10/16/22 22:24:03","The main experiment item","yes","Sternbergtask.osexp","C:/Users/ayesh/OneDrive/Desktop","no","mono","no","18","no","white","no","yes","768","legacy","60","11","C:/Users/ayesh/OneDrive/Desktop/MK-subject-1.csv","legacy","4 2 7 6 1 3","Lentiform Loewenfeld","3.3.12","0","n","0","left","left","NA","left","left","704","704","NA","19063","10685","2","legacy","6","1024","2","48000","-16","experiment","0","even","8","455541","457744","459745","460450","459745","NA","431023","455540","1937","103467","454472","1940","92781","456543","21004","Sternberg task ","47","43522","73","yes","1024"
"63.5135135135","63.5135135135","611.337837838","611.337837838","black","experiment","legacy","legacy","legacy","0","uniform","0","0","undefined","left","73","73","73","73","73","0","73","73","0","0","73","0","0","73","0","10/16/22 22:24:03","The main experiment item","yes","Sternbergtask.osexp","C:/Users/ayesh/OneDrive/Desktop","no","mono","no","18","no","white","no","yes","768","legacy","61","11","C:/Users/ayesh/OneDrive/Desktop/MK-subject-1.csv","legacy","4 3 2 5 8","Lentiform Loewenfeld","3.3.12","2","y","0","right","right","NA","left","left","1717","1717","NA","19063","10685","2","legacy","5","1024","2","48000","-16","experiment","0","even","3","461527","463732","465733","467451","465733","NA","431023","461526","1937","103467","460455","1940","92781","462528","21004","Sternberg task ","47","45239","74","yes","1024"
"64","64","610.306666667","610.306666667","black","experiment","legacy","legacy","legacy","0","uniform","1","1","undefined","left","74","74","74","74","74","0","74","74","0","0","74","0","0","74","0","10/16/22 22:24:03","The main experiment item","yes","Sternbergtask.osexp","C:/Users/ayesh/OneDrive/Desktop","no","mono","no","18","no","white","no","yes","768","legacy","62","11","C:/Users/ayesh/OneDrive/Desktop/MK-subject-1.csv","legacy","6 7 8 5","Lentiform Loewenfeld","3.3.12","3","y","0","left","left","NA","left","left","534","534","NA","19063","10685","2","legacy","4","1024","2","48000","-16","experiment","0","even","8","468528","470731","472732","473267","472732","NA","431023","468526","1937","103467","467455","1940","92781","469530","21004","Sternberg task ","48","45773","75","yes","1024"
"64.4736842105","64.4736842105","609.315789474","609.315789474","black","experiment","legacy","legacy","legacy","0","uniform","1","1","undefined","left","75","75","75","75","75","0","75","75","0","0","75","0","0","75","0","10/16/22 22:24:03","The main experiment item","yes","Sternbergtask.osexp","C:/Users/ayesh/OneDrive/Desktop","no","mono","no","18","no","white","no","yes","768","legacy","63","11","C:/Users/ayesh/OneDrive/Desktop/MK-subject-1.csv","legacy","2 6 1 7 4","Lentiform Loewenfeld","3.3.12","2","y","0","left","left","NA","left","left","535","535","NA","19063","10685","2","legacy","5","1024","2","48000","-16","experiment","0","even","6","474343","476546","478547","479083","478547","NA","473271","474341","1937","103467","467455","1940","92781","475345","21004","Sternberg task ","49","46308","76","yes","1024"
"64.9350649351","64.9350649351","606.857142857","606.857142857","black","experiment","legacy","legacy","legacy","0","uniform","1","1","undefined","left","76","76","76","76","76","0","76","76","0","0","76","0","0","76","0","10/16/22 22:24:03","The main experiment item","yes","Sternbergtask.osexp","C:/Users/ayesh/OneDrive/Desktop","no","mono","no","18","no","white","no","yes","768","legacy","64","11","C:/Users/ayesh/OneDrive/Desktop/MK-subject-1.csv","legacy","6 1 2","Lentiform Loewenfeld","3.3.12","3","y","0","left","left","NA","left","left","420","420","NA","19063","10685","2","legacy","3","1024","2","48000","-16","experiment","0","even","2","480170","482380","484381","484802","484381","NA","479086","480168","1937","103467","467455","1940","92781","481175","21004","Sternberg task ","50","46728","77","yes","1024"
"64.1025641026","64.1025641026","605.692307692","605.692307692","black","experiment","legacy","legacy","legacy","0","uniform","0","0","undefined","right","77","77","77","77","77","0","77","77","0","0","77","0","0","77","0","10/16/22 22:24:03","The main experiment item","yes","Sternbergtask.osexp","C:/Users/ayesh/OneDrive/Desktop","no","mono","no","18","no","white","no","yes","768","legacy","65","11","C:/Users/ayesh/OneDrive/Desktop/MK-subject-1.csv","legacy","5 3 8 7 2 4","Lentiform Loewenfeld","3.3.12","0","n","0","left","left","NA","left","left","516","516","NA","19063","10685","2","legacy","6","1024","2","48000","-16","experiment","0","even","9","485880","488085","490086","490603","490086","NA","484809","485878","1937","103467","467455","1940","92781","486881","21004","Sternberg task ","50","47244","78","yes","1024"
"63.2911392405","63.2911392405","623.341772152","623.341772152","black","experiment","legacy","legacy","legacy","0","uniform","0","0","undefined","left","78","78","78","78","78","0","78","78","0","0","78","0","0","78","0","10/16/22 22:24:03","The main experiment item","yes","Sternbergtask.osexp","C:/Users/ayesh/OneDrive/Desktop","no","mono","no","18","no","white","no","yes","768","legacy","66","11","C:/Users/ayesh/OneDrive/Desktop/MK-subject-1.csv","legacy","3 4","Lentiform Loewenfeld","3.3.12","1","y","0","None","None","NA","left","left","2000","2000","NA","19063","10685","2","legacy","2","1024","2","48000","-16","experiment","0","even","3","491677","493882","495883","497883","495883","NA","484809","491676","1937","103467","490606","1940","92781","492678","21004","Sternberg task ","50","49244","79","yes","1024"
"63.75","63.75","623.6625","623.6625","black","experiment","legacy","legacy","legacy","0","uniform","1","1","undefined","left","79","79","79","79","79","0","79","79","0","0","79","0","0","79","0","10/16/22 22:24:03","The main experiment item","yes","Sternbergtask.osexp","C:/Users/ayesh/OneDrive/Desktop","no","mono","no","18","no","white","no","yes","768","legacy","67","11","C:/Users/ayesh/OneDrive/Desktop/MK-subject-1.csv","legacy","3 4 9 6 2 9","Lentiform Loewenfeld","3.3.12","5","y","0","left","left","NA","left","left","649","649","NA","19063","10685","2","legacy","6","1024","2","48000","-16","experiment","0","even","2","498977","501183","503184","503835","503184","NA","484809","498976","1937","103467","497888","1940","92781","499979","21004","Sternberg task ","51","49893","80","yes","1024"
"64.1975308642","64.1975308642","623.296296296","623.296296296","black","experiment","legacy","legacy","legacy","0","uniform","1","1","undefined","right","80","80","80","80","80","0","80","80","0","0","80","0","0","80","0","10/16/22 22:24:03","The main experiment item","yes","Sternbergtask.osexp","C:/Users/ayesh/OneDrive/Desktop","no","mono","no","18","no","white","no","yes","768","legacy","68","11","C:/Users/ayesh/OneDrive/Desktop/MK-subject-1.csv","legacy","7 9","Lentiform Loewenfeld","3.3.12","0","n","0","right","right","NA","left","left","594","594","NA","19063","10685","2","legacy","2","1024","2","48000","-16","experiment","0","even","1","504914","507118","509120","509715","509119","NA","503838","504912","1937","103467","497888","1940","92781","505915","21004","Sternberg task ","52","50487","81","yes","1024"
"64.6341463415","64.6341463415","633.182926829","633.182926829","black","experiment","legacy","legacy","legacy","0","uniform","1","1","undefined","left","81","81","81","81","81","0","81","81","0","0","81","0","0","81","0","10/16/22 22:24:03","The main experiment item","yes","Sternbergtask.osexp","C:/Users/ayesh/OneDrive/Desktop","no","mono","no","18","no","white","no","yes","768","legacy","69","11","C:/Users/ayesh/OneDrive/Desktop/MK-subject-1.csv","legacy","7 4 2 6 3 5","Lentiform Loewenfeld","3.3.12","6","y","0","left","left","NA","left","left","1434","1434","NA","19063","10685","2","legacy","6","1024","2","48000","-16","experiment","0","even","5","510808","513014","515015","516450","515015","NA","509719","510807","1937","103467","497888","1940","92781","511810","21004","Sternberg task ","53","51921","82","yes","1024"
"65.0602409639","65.0602409639","632.86746988","632.86746988","black","experiment","legacy","legacy","legacy","0","uniform","1","1","undefined","left","82","82","82","82","82","0","82","82","0","0","82","0","0","82","0","10/16/22 22:24:03","The main experiment item","yes","Sternbergtask.osexp","C:/Users/ayesh/OneDrive/Desktop","no","mono","no","18","no","white","no","yes","768","legacy","70","11","C:/Users/ayesh/OneDrive/Desktop/MK-subject-1.csv","legacy","8 5 3 7 4 6","Lentiform Loewenfeld","3.3.12","6","y","0","left","left","NA","left","left","607","607","NA","19063","10685","2","legacy","6","1024","2","48000","-16","experiment","0","even","6","517540","519745","521746","522355","521746","NA","516454","517539","1937","103467","497888","1940","92781","518541","21004","Sternberg task ","54","52528","83","yes","1024"
"65.4761904762","65.4761904762","631.607142857","631.607142857","black","experiment","legacy","legacy","legacy","0","uniform","1","1","undefined","left","83","83","83","83","83","0","83","83","0","0","83","0","0","83","0","10/16/22 22:24:03","The main experiment item","yes","Sternbergtask.osexp","C:/Users/ayesh/OneDrive/Desktop","no","mono","no","18","no","white","no","yes","768","legacy","71","11","C:/Users/ayesh/OneDrive/Desktop/MK-subject-1.csv","legacy","6 7 9 3 1 2","Lentiform Loewenfeld","3.3.12","1","y","0","left","left","NA","left","left","527","527","NA","19063","10685","2","legacy","6","1024","2","48000","-16","experiment","0","even","6","523432","525634","527635","528163","527635","NA","522358","523430","1937","103467","497888","1940","92781","524433","21004","Sternberg task ","55","53055","84","yes","1024"
"64.7058823529","64.7058823529","630.141176471","630.141176471","black","experiment","legacy","legacy","legacy","0","uniform","0","0","undefined","right","84","84","84","84","84","0","84","84","0","0","84","0","0","84","0","10/16/22 22:24:03","The main experiment item","yes","Sternbergtask.osexp","C:/Users/ayesh/OneDrive/Desktop","no","mono","no","18","no","white","no","yes","768","legacy","72","11","C:/Users/ayesh/OneDrive/Desktop/MK-subject-1.csv","legacy","7 1 8 4 9 3","Lentiform Loewenfeld","3.3.12","0","n","0","left","left","NA","left","left","507","507","NA","19063","10685","2","legacy","6","1024","2","48000","-16","experiment","0","even","6","529239","531445","533447","533955","533447","NA","528167","529237","1937","103467","497888","1940","92781","530240","21004","Sternberg task ","55","53562","85","yes","1024"
"65.1162790698","65.1162790698","627.709302326","627.709302326","black","experiment","legacy","legacy","legacy","0","uniform","1","1","undefined","right","85","85","85","85","85","0","85","85","0","0","85","0","0","85","0","10/16/22 22:24:03","The main experiment item","yes","Sternbergtask.osexp","C:/Users/ayesh/OneDrive/Desktop","no","mono","no","18","no","white","no","yes","768","legacy","73","11","C:/Users/ayesh/OneDrive/Desktop/MK-subject-1.csv","legacy","1 6 4","Lentiform Loewenfeld","3.3.12","0","n","0","right","right","NA","left","left","421","421","NA","19063","10685","2","legacy","3","1024","2","48000","-16","experiment","0","even","7","535031","537236","539237","539659","539237","NA","528167","535029","1937","103467","533960","1940","92781","536032","21004","Sternberg task ","56","53983","86","yes","1024"
"64.367816092","64.367816092","626.448275862","626.448275862","black","experiment","legacy","legacy","legacy","0","uniform","0","0","undefined","right","86","86","86","86","86","0","86","86","0","0","86","0","0","86","0","10/16/22 22:24:03","The main experiment item","yes","Sternbergtask.osexp","C:/Users/ayesh/OneDrive/Desktop","no","mono","no","18","no","white","no","yes","768","legacy","74","11","C:/Users/ayesh/OneDrive/Desktop/MK-subject-1.csv","legacy","1 7 8 3 9","Lentiform Loewenfeld","3.3.12","0","n","0","left","left","NA","left","left","518","518","NA","19063","10685","2","legacy","5","1024","2","48000","-16","experiment","0","even","2","540734","542936","544940","545459","544940","NA","539663","540732","1937","103467","533960","1940","92781","541735","21004","Sternberg task ","56","54501","87","yes","1024"
"63.6363636364","63.6363636364","624.727272727","624.727272727","black","experiment","legacy","legacy","legacy","0","uniform","0","0","undefined","right","87","87","87","87","87","0","87","87","0","0","87","0","0","87","0","10/16/22 22:24:03","The main experiment item","yes","Sternbergtask.osexp","C:/Users/ayesh/OneDrive/Desktop","no","mono","no","18","no","white","no","yes","768","legacy","75","11","C:/Users/ayesh/OneDrive/Desktop/MK-subject-1.csv","legacy","6 9 4 5 3 2","Lentiform Loewenfeld","3.3.12","0","n","0","left","left","NA","left","left","475","475","NA","19063","10685","2","legacy","6","1024","2","48000","-16","experiment","0","even","8","546536","548742","550743","551219","550743","NA","539663","546534","1937","103467","545462","1940","92781","547541","21004","Sternberg task ","56","54976","88","yes","1024"
"64.0449438202","64.0449438202","623.550561798","623.550561798","black","experiment","legacy","legacy","legacy","0","uniform","1","1","undefined","left","88","88","88","88","88","0","88","88","0","0","88","0","0","88","0","10/16/22 22:24:03","The main experiment item","yes","Sternbergtask.osexp","C:/Users/ayesh/OneDrive/Desktop","no","mono","no","18","no","white","no","yes","768","legacy","76","11","C:/Users/ayesh/OneDrive/Desktop/MK-subject-1.csv","legacy","5 7 3 6 2","Lentiform Loewenfeld","3.3.12","5","y","0","left","left","NA","left","left","520","520","NA","19063","10685","2","legacy","5","1024","2","48000","-16","experiment","0","even","2","552294","554496","556497","557018","556497","NA","539663","552292","1937","103467","551223","1940","92781","553295","21004","Sternberg task ","57","55496","89","yes","1024"
"63.3333333333","63.3333333333","622.322222222","622.322222222","black","experiment","legacy","legacy","legacy","0","uniform","0","0","undefined","right","89","89","89","89","89","0","89","89","0","0","89","0","0","89","0","10/16/22 22:24:03","The main experiment item","yes","Sternbergtask.osexp","C:/Users/ayesh/OneDrive/Desktop","no","mono","no","18","no","white","no","yes","768","legacy","77","11","C:/Users/ayesh/OneDrive/Desktop/MK-subject-1.csv","legacy","1 4 9 2 5","Lentiform Loewenfeld","3.3.12","0","n","0","left","left","NA","left","left","513","513","NA","19063","10685","2","legacy","5","1024","2","48000","-16","experiment","0","even","7","558095","560303","562304","562818","562304","NA","557023","558093","1937","103467","551223","1940","92781","559099","21004","Sternberg task ","57","56009","90","yes","1024"
"63.7362637363","63.7362637363","622.065934066","622.065934066","black","experiment","legacy","legacy","legacy","0","uniform","1","1","undefined","left","90","90","90","90","90","0","90","90","0","0","90","0","0","90","0","10/16/22 22:24:03","The main experiment item","yes","Sternbergtask.osexp","C:/Users/ayesh/OneDrive/Desktop","no","mono","no","18","no","white","no","yes","768","legacy","78","11","C:/Users/ayesh/OneDrive/Desktop/MK-subject-1.csv","legacy","4","Lentiform Loewenfeld","3.3.12","1","y","0","left","left","NA","left","left","599","599","NA","19063","10685","2","legacy","1","1024","2","48000","-16","experiment","0","even","4","563895","566097","568098","568699","568098","NA","557023","563893","1937","103467","562822","1940","92781","564896","21004","Sternberg task ","58","56608","91","yes","1024"
"64.1304347826","64.1304347826","620.706521739","620.706521739","black","experiment","legacy","legacy","legacy","0","uniform","1","1","undefined","left","91","91","91","91","91","0","91","91","0","0","91","0","0","91","0","10/16/22 22:24:03","The main experiment item","yes","Sternbergtask.osexp","C:/Users/ayesh/OneDrive/Desktop","no","mono","no","18","no","white","no","yes","768","legacy","79","11","C:/Users/ayesh/OneDrive/Desktop/MK-subject-1.csv","legacy","6 8 9 3 4 9","Lentiform Loewenfeld","3.3.12","5","y","0","left","left","NA","left","left","497","497","NA","19063","10685","2","legacy","6","1024","2","48000","-16","experiment","0","even","4","569773","571975","573976","574475","573976","NA","568702","569771","1937","103467","562822","1940","92781","570774","21004","Sternberg task ","59","57105","92","yes","1024"
"63.4408602151","63.4408602151","618.795698925","618.795698925","black","experiment","legacy","legacy","legacy","0","uniform","0","0","undefined","right","92","92","92","92","92","0","92","92","0","0","92","0","0","92","0","10/16/22 22:24:03","The main experiment item","yes","Sternbergtask.osexp","C:/Users/ayesh/OneDrive/Desktop","no","mono","no","18","no","white","no","yes","768","legacy","80","11","C:/Users/ayesh/OneDrive/Desktop/MK-subject-1.csv","legacy","6 3 1 7 9 8","Lentiform Loewenfeld","3.3.12","0","n","0","left","left","NA","left","left","443","443","NA","19063","10685","2","legacy","6","1024","2","48000","-16","experiment","0","even","4","575548","577749","579750","580194","579750","NA","574478","575547","1937","103467","562822","1940","92781","576549","21004","Sternberg task ","59","57548","93","yes","1024"
"62.7659574468","62.7659574468","633.489361702","633.489361702","black","experiment","legacy","legacy","legacy","0","uniform","0","0","undefined","right","93","93","93","93","93","0","93","93","0","0","93","0","0","93","0","10/16/22 22:24:03","The main experiment item","yes","Sternbergtask.osexp","C:/Users/ayesh/OneDrive/Desktop","no","mono","no","18","no","white","no","yes","768","legacy","81","11","C:/Users/ayesh/OneDrive/Desktop/MK-subject-1.csv","legacy","2 8 7 9 5 3","Lentiform Loewenfeld","3.3.12","0","n","0","None","None","NA","left","left","2000","2000","NA","19063","10685","2","legacy","6","1024","2","48000","-16","experiment","0","even","6","581272","583474","585475","587475","585475","NA","574478","581270","1937","103467","580198","1940","92781","582273","21004","Sternberg task ","59","59548","94","yes","1024"
"62.1052631579","62.1052631579","631.136842105","631.136842105","black","experiment","legacy","legacy","legacy","0","uniform","0","0","undefined","right","94","94","94","94","94","0","94","94","0","0","94","0","0","94","0","10/16/22 22:24:03","The main experiment item","yes","Sternbergtask.osexp","C:/Users/ayesh/OneDrive/Desktop","no","mono","no","18","no","white","no","yes","768","legacy","82","11","C:/Users/ayesh/OneDrive/Desktop/MK-subject-1.csv","legacy","2 7 5","Lentiform Loewenfeld","3.3.12","0","n","0","left","left","NA","left","left","410","410","NA","19063","10685","2","legacy","3","1024","2","48000","-16","experiment","0","even","8","588560","590766","592767","593178","592767","NA","574478","588559","1937","103467","587479","1940","92781","589562","21004","Sternberg task ","59","59958","95","yes","1024"
"62.5","62.5","629.541666667","629.541666667","black","experiment","legacy","legacy","legacy","0","uniform","1","1","undefined","left","95","95","95","95","95","0","95","95","0","0","95","0","0","95","0","10/16/22 22:24:03","The main experiment item","yes","Sternbergtask.osexp","C:/Users/ayesh/OneDrive/Desktop","no","mono","no","18","no","white","no","yes","768","legacy","83","11","C:/Users/ayesh/OneDrive/Desktop/MK-subject-1.csv","legacy","7 1 3","Lentiform Loewenfeld","3.3.12","2","y","0","left","left","NA","left","left","478","478","NA","19063","10685","2","legacy","3","1024","2","48000","-16","experiment","0","even","1","594257","596459","598460","598939","598460","NA","574478","594255","1937","103467","593185","1940","92781","595258","21004","Sternberg task ","60","60436","96","yes","1024"
"62.8865979381","62.8865979381","627.690721649","627.690721649","black","experiment","legacy","legacy","legacy","0","uniform","1","1","undefined","left","96","96","96","96","96","0","96","96","0","0","96","0","0","96","0","10/16/22 22:24:03","The main experiment item","yes","Sternbergtask.osexp","C:/Users/ayesh/OneDrive/Desktop","no","mono","no","18","no","white","no","yes","768","legacy","84","11","C:/Users/ayesh/OneDrive/Desktop/MK-subject-1.csv","legacy","4 6 5 8","Lentiform Loewenfeld","3.3.12","1","y","0","left","left","NA","left","left","450","450","NA","19063","10685","2","legacy","4","1024","2","48000","-16","experiment","0","even","4","600012","602215","604216","604667","604216","NA","598942","600011","1937","103467","593185","1940","92781","601014","21004","Sternberg task ","61","60886","97","yes","1024"
"63.2653061224","63.2653061224","626.816326531","626.816326531","black","experiment","legacy","legacy","legacy","0","uniform","1","1","undefined","left","97","97","97","97","97","0","97","97","0","0","97","0","0","97","0","10/16/22 22:24:03","The main experiment item","yes","Sternbergtask.osexp","C:/Users/ayesh/OneDrive/Desktop","no","mono","no","18","no","white","no","yes","768","legacy","85","11","C:/Users/ayesh/OneDrive/Desktop/MK-subject-1.csv","legacy","4 1 5","Lentiform Loewenfeld","3.3.12","2","y","0","left","left","NA","left","left","542","542","NA","19063","10685","2","legacy","3","1024","2","48000","-16","experiment","0","even","1","605744","607946","609947","610490","609947","NA","604672","605742","1937","103467","593185","1940","92781","606745","21004","Sternberg task ","62","61428","98","yes","1024"
"62.6262626263","62.6262626263","625.616161616","625.616161616","black","experiment","legacy","legacy","legacy","0","uniform","0","0","undefined","right","98","98","98","98","98","0","98","98","0","0","98","0","0","98","0","10/16/22 22:24:03","The main experiment item","yes","Sternbergtask.osexp","C:/Users/ayesh/OneDrive/Desktop","no","mono","no","18","no","white","no","yes","768","legacy","86","11","C:/Users/ayesh/OneDrive/Desktop/MK-subject-1.csv","legacy","8 5 7 3 6","Lentiform Loewenfeld","3.3.12","0","n","0","left","left","NA","left","left","508","508","NA","19063","10685","2","legacy","5","1024","2","48000","-16","experiment","0","even","9","611566","613772","615774","616283","615774","NA","610494","611564","1937","103467","593185","1940","92781","612567","21004","Sternberg task ","62","61936","99","yes","1024"
"63","63","624.92","624.92","black","experiment","legacy","legacy","legacy","0","uniform","1","1","undefined","left","99","99","99","99","99","0","99","99","0","0","99","0","0","99","0","10/16/22 22:24:03","The main experiment item","yes","Sternbergtask.osexp","C:/Users/ayesh/OneDrive/Desktop","no","mono","no","18","no","white","no","yes","768","legacy","87","11","C:/Users/ayesh/OneDrive/Desktop/MK-subject-1.csv","legacy","4 6 2 5 1","Lentiform Loewenfeld","3.3.12","5","y","0","left","left","NA","left","left","556","556","NA","19063","10685","2","legacy","5","1024","2","48000","-16","experiment","0","even","1","617358","619563","621565","622122","621565","NA","610494","617357","1937","103467","616287","1940","92781","618359","21004","Sternberg task ","63","62492","100","yes","1024"
"62.3762376238","62.3762376238","622.623762376","622.623762376","black","experiment","legacy","legacy","legacy","0","uniform","0","0","undefined","right","100","100","100","100","100","0","100","100","0","0","100","0","0","100","0","10/16/22 22:24:03","The main experiment item","yes","Sternbergtask.osexp","C:/Users/ayesh/OneDrive/Desktop","no","mono","no","18","no","white","no","yes","768","legacy","88","11","C:/Users/ayesh/OneDrive/Desktop/MK-subject-1.csv","legacy","1","Lentiform Loewenfeld","3.3.12","0","n","0","left","left","NA","left","left","393","393","NA","19063","10685","2","legacy","1","1024","2","48000","-16","experiment","0","even","7","623202","625407","627408","627802","627408","NA","622126","623200","1937","103467","616287","1940","92781","624203","21004","Sternberg task ","63","62885","101","yes","1024"
"62.7450980392","62.7450980392","620.490196078","620.490196078","black","experiment","legacy","legacy","legacy","0","uniform","1","1","undefined","left","101","101","101","101","101","0","101","101","0","0","101","0","0","101","0","10/16/22 22:24:03","The main experiment item","yes","Sternbergtask.osexp","C:/Users/ayesh/OneDrive/Desktop","no","mono","no","18","no","white","no","yes","768","legacy","89","11","C:/Users/ayesh/OneDrive/Desktop/MK-subject-1.csv","legacy","8 5 1 3 9","Lentiform Loewenfeld","3.3.12","4","y","0","left","left","NA","left","left","405","405","NA","19063","10685","2","legacy","5","1024","2","48000","-16","experiment","0","even","3","628881","631083","633084","633491","633084","NA","622126","628879","1937","103467","627806","1940","92781","629882","21004","Sternberg task ","64","63290","102","yes","1024"
"63.1067961165","63.1067961165","618.980582524","618.980582524","black","experiment","legacy","legacy","legacy","0","uniform","1","1","undefined","right","102","102","102","102","102","0","102","102","0","0","102","0","0","102","0","10/16/22 22:24:03","The main experiment item","yes","Sternbergtask.osexp","C:/Users/ayesh/OneDrive/Desktop","no","mono","no","18","no","white","no","yes","768","legacy","90","11","C:/Users/ayesh/OneDrive/Desktop/MK-subject-1.csv","legacy","9","Lentiform Loewenfeld","3.3.12","0","n","0","right","right","NA","left","left","465","465","NA","19063","10685","2","legacy","1","1024","2","48000","-16","experiment","0","even","6","634578","636783","638784","639251","638784","NA","633494","634577","1937","103467","627806","1940","92781","635579","21004","Sternberg task ","65","63755","103","yes","1024"
"62.5","62.5","618.326923077","618.326923077","black","experiment","legacy","legacy","legacy","0","uniform","0","0","undefined","right","103","103","103","103","103","0","103","103","0","0","103","0","0","103","0","10/16/22 22:24:03","The main experiment item","yes","Sternbergtask.osexp","C:/Users/ayesh/OneDrive/Desktop","no","mono","no","18","no","white","no","yes","768","legacy","91","11","C:/Users/ayesh/OneDrive/Desktop/MK-subject-1.csv","legacy","8 5 4 2 9 6","Lentiform Loewenfeld","3.3.12","0","n","0","left","left","NA","left","left","551","551","NA","19063","10685","2","legacy","6","1024","2","48000","-16","experiment","0","even","3","640325","642530","644531","645083","644531","NA","639254","640323","1937","103467","627806","1940","92781","641326","21004","Sternberg task ","65","64306","104","yes","1024"
"62.8571428571","62.8571428571","622.161904762","622.161904762","black","experiment","legacy","legacy","legacy","0","uniform","1","1","undefined","left","104","104","104","104","104","0","104","104","0","0","104","0","0","104","0","10/16/22 22:24:03","The main experiment item","yes","Sternbergtask.osexp","C:/Users/ayesh/OneDrive/Desktop","no","mono","no","18","no","white","no","yes","768","legacy","92","11","C:/Users/ayesh/OneDrive/Desktop/MK-subject-1.csv","legacy","9 3 1 2 5","Lentiform Loewenfeld","3.3.12","4","y","0","left","left","NA","left","left","1021","1021","NA","19063","10685","2","legacy","5","1024","2","48000","-16","experiment","0","even","2","646161","648363","650364","651386","650364","NA","639254","646159","1937","103467","645089","1940","92781","647162","21004","Sternberg task ","66","65327","105","yes","1024"
"62.2641509434","62.2641509434","635.160377358","635.160377358","black","experiment","legacy","legacy","legacy","0","uniform","0","0","undefined","left","105","105","105","105","105","0","105","105","0","0","105","0","0","105","0","10/16/22 22:24:03","The main experiment item","yes","Sternbergtask.osexp","C:/Users/ayesh/OneDrive/Desktop","no","mono","no","18","no","white","no","yes","768","legacy","93","11","C:/Users/ayesh/OneDrive/Desktop/MK-subject-1.csv","legacy","8","Lentiform Loewenfeld","3.3.12","1","y","0","None","None","NA","left","left","2000","2000","NA","19063","10685","2","legacy","1","1024","2","48000","-16","experiment","0","even","8","652463","654668","656669","658669","656669","NA","651390","652461","1937","103467","645089","1940","92781","653464","21004","Sternberg task ","66","67327","106","yes","1024"
"61.6822429907","61.6822429907","635.121495327","635.121495327","black","experiment","legacy","legacy","legacy","0","uniform","0","0","undefined","right","106","106","106","106","106","0","106","106","0","0","106","0","0","106","0","10/16/22 22:24:03","The main experiment item","yes","Sternbergtask.osexp","C:/Users/ayesh/OneDrive/Desktop","no","mono","no","18","no","white","no","yes","768","legacy","94","11","C:/Users/ayesh/OneDrive/Desktop/MK-subject-1.csv","legacy","5 9 2 3","Lentiform Loewenfeld","3.3.12","0","n","0","left","left","NA","left","left","631","631","NA","19063","10685","2","legacy","4","1024","2","48000","-16","experiment","0","even","8","659748","661954","663955","664587","663955","NA","651390","659746","1937","103467","658673","1940","92781","660750","21004","Sternberg task ","66","67958","107","yes","1024"
"62.037037037","62.037037037","633.666666667","633.666666667","black","experiment","legacy","legacy","legacy","0","uniform","1","1","undefined","left","107","107","107","107","107","0","107","107","0","0","107","0","0","107","0","10/16/22 22:24:03","The main experiment item","yes","Sternbergtask.osexp","C:/Users/ayesh/OneDrive/Desktop","no","mono","no","18","no","white","no","yes","768","legacy","95","11","C:/Users/ayesh/OneDrive/Desktop/MK-subject-1.csv","legacy","8 5 4 7 3 1","Lentiform Loewenfeld","3.3.12","2","y","0","left","left","NA","left","left","478","478","NA","19063","10685","2","legacy","6","1024","2","48000","-16","experiment","0","even","5","665664","667867","669868","670347","669868","NA","651390","665663","1937","103467","664590","1940","92781","666666","21004","Sternberg task ","67","68436","108","yes","1024"
"62.3853211009","62.3853211009","631.788990826","631.788990826","black","experiment","legacy","legacy","legacy","0","uniform","1","1","undefined","left","108","108","108","108","108","0","108","108","0","0","108","0","0","108","0","10/16/22 22:24:03","The main experiment item","yes","Sternbergtask.osexp","C:/Users/ayesh/OneDrive/Desktop","no","mono","no","18","no","white","no","yes","768","legacy","96","11","C:/Users/ayesh/OneDrive/Desktop/MK-subject-1.csv","legacy","8 9 5 7 1 6","Lentiform Loewenfeld","3.3.12","4","y","0","left","left","NA","left","left","429","429","NA","19063","10685","2","legacy","6","1024","2","48000","-16","experiment","0","even","7","671422","673627","675628","676059","675628","NA","670351","671421","1937","103467","664590","1940","92781","672423","21004","Sternberg task ","68","68865","109","yes","1024"
"61.8181818182","61.8181818182","629.672727273","629.672727273","black","experiment","legacy","legacy","legacy","0","uniform","0","0","undefined","right","109","109","109","109","109","0","109","109","0","0","109","0","0","109","0","10/16/22 22:24:03","The main experiment item","yes","Sternbergtask.osexp","C:/Users/ayesh/OneDrive/Desktop","no","mono","no","18","no","white","no","yes","768","legacy","97","11","C:/Users/ayesh/OneDrive/Desktop/MK-subject-1.csv","legacy","6 7 5 9","Lentiform Loewenfeld","3.3.12","0","n","0","left","left","NA","left","left","399","399","NA","19063","10685","2","legacy","4","1024","2","48000","-16","experiment","0","even","2","677134","679337","681338","681739","681338","NA","676063","677133","1937","103467","664590","1940","92781","678136","21004","Sternberg task ","68","69264","110","yes","1024"
"61.2612612613","61.2612612613","628.162162162","628.162162162","black","experiment","legacy","legacy","legacy","0","uniform","0","0","undefined","right","110","110","110","110","110","0","110","110","0","0","110","0","0","110","0","10/16/22 22:24:03","The main experiment item","yes","Sternbergtask.osexp","C:/Users/ayesh/OneDrive/Desktop","no","mono","no","18","no","white","no","yes","768","legacy","98","11","C:/Users/ayesh/OneDrive/Desktop/MK-subject-1.csv","legacy","5","Lentiform Loewenfeld","3.3.12","0","n","0","left","left","NA","left","left","462","462","NA","19063","10685","2","legacy","1","1024","2","48000","-16","experiment","0","even","8","682815","685018","687019","687482","687019","NA","676063","682814","1937","103467","681744","1940","92781","683816","21004","Sternberg task ","68","69726","111","yes","1024"
"61.6071428571","61.6071428571","626.741071429","626.741071429","black","experiment","legacy","legacy","legacy","0","uniform","1","1","undefined","left","111","111","111","111","111","0","111","111","0","0","111","0","0","111","0","10/16/22 22:24:03","The main experiment item","yes","Sternbergtask.osexp","C:/Users/ayesh/OneDrive/Desktop","no","mono","no","18","no","white","no","yes","768","legacy","99","11","C:/Users/ayesh/OneDrive/Desktop/MK-subject-1.csv","legacy","8 7 3","Lentiform Loewenfeld","3.3.12","1","y","0","left","left","NA","left","left","469","469","NA","19063","10685","2","legacy","3","1024","2","48000","-16","experiment","0","even","8","688561","690763","692764","693234","692764","NA","676063","688559","1937","103467","687487","1940","92781","689562","21004","Sternberg task ","69","70195","112","yes","1024"
"61.0619469027","61.0619469027","626.283185841","626.283185841","black","experiment","legacy","legacy","legacy","0","uniform","0","0","undefined","right","112","112","112","112","112","0","112","112","0","0","112","0","0","112","0","10/16/22 22:24:03","The main experiment item","yes","Sternbergtask.osexp","C:/Users/ayesh/OneDrive/Desktop","no","mono","no","18","no","white","no","yes","768","legacy","100","11","C:/Users/ayesh/OneDrive/Desktop/MK-subject-1.csv","legacy","2 8 9","Lentiform Loewenfeld","3.3.12","0","n","0","left","left","NA","left","left","575","575","NA","19063","10685","2","legacy","3","1024","2","48000","-16","experiment","0","even","6","694311","696513","698514","699090","698514","NA","693238","694309","1937","103467","687487","1940","92781","695312","21004","Sternberg task ","69","70770","113","yes","1024"
"60.5263157895","60.5263157895","638.333333333","638.333333333","black","experiment","legacy","legacy","legacy","0","uniform","0","0","undefined","left","113","113","113","113","113","0","113","113","0","0","113","0","0","113","0","10/16/22 22:24:03","The main experiment item","yes","Sternbergtask.osexp","C:/Users/ayesh/OneDrive/Desktop","no","mono","no","18","no","white","no","yes","768","legacy","101","11","C:/Users/ayesh/OneDrive/Desktop/MK-subject-1.csv","legacy","8 9 5 6 7","Lentiform Loewenfeld","3.3.12","1","y","0","None","None","NA","left","left","2000","2000","NA","19063","10685","2","legacy","5","1024","2","48000","-16","experiment","0","even","8","700165","702371","704372","706372","704372","NA","693238","700163","1937","103467","699094","1940","92781","701166","21004","Sternberg task ","69","72770","114","yes","1024"
"60","60","637.365217391","637.365217391","black","experiment","legacy","legacy","legacy","0","uniform","0","0","undefined","right","114","114","114","114","114","0","114","114","0","0","114","0","0","114","0","10/16/22 22:24:03","The main experiment item","yes","Sternbergtask.osexp","C:/Users/ayesh/OneDrive/Desktop","no","mono","no","18","no","white","no","yes","768","legacy","102","11","C:/Users/ayesh/OneDrive/Desktop/MK-subject-1.csv","legacy","1 7 5 2","Lentiform Loewenfeld","3.3.12","0","n","0","left","left","NA","left","left","527","527","NA","19063","10685","2","legacy","4","1024","2","48000","-16","experiment","0","even","3","707447","709650","711651","712179","711651","NA","693238","707445","1937","103467","706377","1940","92781","708449","21004","Sternberg task ","69","73297","115","yes","1024"
"59.4827586207","59.4827586207","635.74137931","635.74137931","black","experiment","legacy","legacy","legacy","0","uniform","0","0","undefined","right","115","115","115","115","115","0","115","115","0","0","115","0","0","115","0","10/16/22 22:24:03","The main experiment item","yes","Sternbergtask.osexp","C:/Users/ayesh/OneDrive/Desktop","no","mono","no","18","no","white","no","yes","768","legacy","103","11","C:/Users/ayesh/OneDrive/Desktop/MK-subject-1.csv","legacy","5 2","Lentiform Loewenfeld","3.3.12","0","n","0","left","left","NA","left","left","449","449","NA","19063","10685","2","legacy","2","1024","2","48000","-16","experiment","0","even","7","713255","715456","717457","717907","717457","NA","693238","713253","1937","103467","712183","1940","92781","714256","21004","Sternberg task ","69","73746","116","yes","1024"
"59.8290598291","59.8290598291","634.606837607","634.606837607","black","experiment","legacy","legacy","legacy","0","uniform","1","1","undefined","right","116","116","116","116","116","0","116","116","0","0","116","0","0","116","0","10/16/22 22:24:03","The main experiment item","yes","Sternbergtask.osexp","C:/Users/ayesh/OneDrive/Desktop","no","mono","no","18","no","white","no","yes","768","legacy","104","11","C:/Users/ayesh/OneDrive/Desktop/MK-subject-1.csv","legacy","1 4 3 6 5","Lentiform Loewenfeld","3.3.12","0","n","0","right","right","NA","left","left","503","503","NA","19063","10685","2","legacy","5","1024","2","48000","-16","experiment","0","even","8","718987","721193","723194","723698","723194","NA","693238","718985","1937","103467","717914","1940","92781","719988","21004","Sternberg task ","70","74249","117","yes","1024"
"60.1694915254","60.1694915254","632.788135593","632.788135593","black","experiment","legacy","legacy","legacy","0","uniform","1","1","undefined","left","117","117","117","117","117","0","117","117","0","0","117","0","0","117","0","10/16/22 22:24:03","The main experiment item","yes","Sternbergtask.osexp","C:/Users/ayesh/OneDrive/Desktop","no","mono","no","18","no","white","no","yes","768","legacy","105","11","C:/Users/ayesh/OneDrive/Desktop/MK-subject-1.csv","legacy","9 1 7 2","Lentiform Loewenfeld","3.3.12","2","y","0","left","left","NA","left","left","420","420","NA","19063","10685","2","legacy","4","1024","2","48000","-16","experiment","0","even","1","724775","726980","728981","729403","728981","NA","723702","724773","1937","103467","717914","1940","92781","725779","21004","Sternberg task ","71","74669","118","yes","1024"
"60.5042016807","60.5042016807","634.932773109","634.932773109","black","experiment","legacy","legacy","legacy","0","uniform","1","1","undefined","left","118","118","118","118","118","0","118","118","0","0","118","0","0","118","0","10/16/22 22:24:03","The main experiment item","yes","Sternbergtask.osexp","C:/Users/ayesh/OneDrive/Desktop","no","mono","no","18","no","white","no","yes","768","legacy","106","11","C:/Users/ayesh/OneDrive/Desktop/MK-subject-1.csv","legacy","6 9 7 4 5 1","Lentiform Loewenfeld","3.3.12","2","y","0","left","left","NA","left","left","888","888","NA","19063","10685","2","legacy","6","1024","2","48000","-16","experiment","0","even","9","730478","732681","734682","735570","734682","NA","729406","730476","1937","103467","717914","1940","92781","731480","21004","Sternberg task ","72","75557","119","yes","1024"
"60","60","632.991666667","632.991666667","black","experiment","legacy","legacy","legacy","0","uniform","0","0","undefined","right","119","119","119","119","119","0","119","119","0","0","119","0","0","119","0","10/16/22 22:24:03","The main experiment item","yes","Sternbergtask.osexp","C:/Users/ayesh/OneDrive/Desktop","no","mono","no","18","no","white","no","yes","768","legacy","107","11","C:/Users/ayesh/OneDrive/Desktop/MK-subject-1.csv","legacy","6 9 4 5 2","Lentiform Loewenfeld","3.3.12","0","n","0","left","left","NA","left","left","402","402","NA","19063","10685","2","legacy","5","1024","2","48000","-16","experiment","0","even","1","736666","738871","740872","741275","740872","NA","735578","736664","1937","103467","717914","1940","92781","737667","21004","Sternberg task ","72","75959","120","yes","1024"
