acc,accuracy,average_response_time,avg_rt,background,block,canvas_backend,clock_backend,color_backend,compensation,coordinates,correct,correct_instruction1,correct_keyboard_response,correct_response,count_ISI,count_correctFeedback,count_expSequence,count_experiment,count_experimentLoop,count_fixation,count_getting_started,count_incorrectFeedback,count_instruction1,count_instructions2,count_keyboard_response,count_logger,count_memorySet,count_practiceLoop,count_probe,count_thankYou,count_welcome,datetime,description,disable_garbage_collection,experiment_file,experiment_path,font_bold,font_family,font_italic,font_size,font_underline,foreground,form_clicks,fullscreen,height,keyboard_backend,live_row,live_row_practiceLoop,logfile,mouse_backend,numberSet,opensesame_codename,opensesame_version,posInSet,present,repeat_cycle,response,response_instruction1,response_instructions2,response_keyboard_response,response_thankYou,response_time,response_time_instruction1,response_time_instructions2,response_time_keyboard_response,response_time_thankYou,round_decimals,sampler_backend,setSize,sound_buf_size,sound_channels,sound_freq,sound_sample_size,start,subject_nr,subject_parity,target,time_ISI,time_correctFeedback,time_expSequence,time_experiment,time_experimentLoop,time_fixation,time_getting_started,time_incorrectFeedback,time_instruction1,time_instructions2,time_keyboard_response,time_logger,time_memorySet,time_practiceLoop,time_probe,time_thankYou,time_welcome,title,total_correct,total_response_time,total_responses,uniform_coordinates,width
100,100,726,726,black,practice,legacy,legacy,legacy,0,uniform,1,undefined,1,right,0,0,0,0,0,0,NA,0,0,0,0,0,0,0,0,0,NA,Tue Oct 22 16:04:29 2019,The main experiment item,yes,Sternbergtask.osexp,/Users/danielrazo0311/Desktop,no,mono,no,18,no,white,no,yes,768,legacy,0,0,/Users/danielrazo0311/Desktop/subject-3.csv,legacy,4 1 5,Kafkaesque Koffka,3.2.8,0,n,0,right,left,NA,right,NA,726,1198,NA,726,NA,2,legacy,3,1024,2,48000,-16,experiment,3,odd,2,9330,NA,7085,3211,NA,7100,NA,NA,3231,NA,11342,12070,8115,4440,11342,NA,NA,Sternberg task,1,726,1,yes,1024
100,100,648,648,black,practice,legacy,legacy,legacy,0,uniform,1,undefined,1,left,1,1,1,0,0,1,NA,1,0,0,1,1,1,0,1,0,NA,Tue Oct 22 16:04:29 2019,The main experiment item,yes,Sternbergtask.osexp,/Users/danielrazo0311/Desktop,no,mono,no,18,no,white,no,yes,768,legacy,1,1,/Users/danielrazo0311/Desktop/subject-3.csv,legacy,4 3 1 7 9 8,Kafkaesque Koffka,3.2.8,1,y,0,left,left,NA,left,NA,570,1198,NA,570,NA,2,legacy,6,1024,2,48000,-16,experiment,3,odd,4,15564,12164,13321,3211,NA,13333,NA,NA,3231,NA,17578,18150,14347,4440,17578,NA,NA,Sternberg task,2,1296,2,yes,1024
100,100,735.3333333,735.3333333,black,practice,legacy,legacy,legacy,0,uniform,1,undefined,1,left,2,2,2,0,0,2,NA,2,0,0,2,2,2,0,2,0,NA,Tue Oct 22 16:04:29 2019,The main experiment item,yes,Sternbergtask.osexp,/Users/danielrazo0311/Desktop,no,mono,no,18,no,white,no,yes,768,legacy,2,2,/Users/danielrazo0311/Desktop/subject-3.csv,legacy,2 9 4,Kafkaesque Koffka,3.2.8,3,y,0,left,left,NA,left,NA,910,1198,NA,910,NA,2,legacy,3,1024,2,48000,-16,experiment,3,odd,4,21588,18195,19344,3211,NA,19357,NA,NA,3231,NA,23606,24518,20370,4440,23605,NA,NA,Sternberg task,3,2206,3,yes,1024
100,100,738,738,black,practice,legacy,legacy,legacy,0,uniform,1,undefined,1,left,3,3,3,0,0,3,NA,3,0,0,3,3,3,0,3,0,NA,Tue Oct 22 16:04:29 2019,The main experiment item,yes,Sternbergtask.osexp,/Users/danielrazo0311/Desktop,no,mono,no,18,no,white,no,yes,768,legacy,3,3,/Users/danielrazo0311/Desktop/subject-3.csv,legacy,4 8,Kafkaesque Koffka,3.2.8,1,y,0,left,left,NA,left,NA,746,1198,NA,746,NA,2,legacy,2,1024,2,48000,-16,experiment,3,odd,4,27930,24534,25682,3211,NA,25694,NA,NA,3231,NA,29946,30694,26709,4440,29946,NA,NA,Sternberg task,4,2952,4,yes,1024
100,100,696,696,black,practice,legacy,legacy,legacy,0,uniform,1,undefined,1,left,4,4,4,0,0,4,NA,4,0,0,4,4,4,0,4,0,NA,Tue Oct 22 16:04:29 2019,The main experiment item,yes,Sternbergtask.osexp,/Users/danielrazo0311/Desktop,no,mono,no,18,no,white,no,yes,768,legacy,4,4,/Users/danielrazo0311/Desktop/subject-3.csv,legacy,1 7 9 8 5,Kafkaesque Koffka,3.2.8,4,y,0,left,left,NA,left,NA,528,1198,NA,528,NA,2,legacy,5,1024,2,48000,-16,experiment,3,odd,8,34095,30709,31855,3211,NA,31867,NA,NA,3231,NA,36108,36638,32881,4440,36108,NA,NA,Sternberg task,5,3480,5,yes,1024
100,100,754.5,754.5,black,practice,legacy,legacy,legacy,0,uniform,1,undefined,1,right,5,5,5,0,0,5,NA,5,0,0,5,5,5,0,5,0,NA,Tue Oct 22 16:04:29 2019,The main experiment item,yes,Sternbergtask.osexp,/Users/danielrazo0311/Desktop,no,mono,no,18,no,white,no,yes,768,legacy,5,5,/Users/danielrazo0311/Desktop/subject-3.csv,legacy,9 6 7 4 5,Kafkaesque Koffka,3.2.8,0,n,0,right,left,NA,right,NA,1047,1198,NA,1047,NA,2,legacy,5,1024,2,48000,-16,experiment,3,odd,3,40040,36654,37801,3211,NA,37813,NA,NA,3231,NA,42053,43102,38827,4440,42053,NA,NA,Sternberg task,6,4527,6,yes,1024
100,100,767.5714286,767.5714286,black,practice,legacy,legacy,legacy,0,uniform,1,undefined,1,right,6,6,6,0,0,6,NA,6,0,0,6,6,6,0,6,0,NA,Tue Oct 22 16:04:29 2019,The main experiment item,yes,Sternbergtask.osexp,/Users/danielrazo0311/Desktop,no,mono,no,18,no,white,no,yes,768,legacy,6,6,/Users/danielrazo0311/Desktop/subject-3.csv,legacy,5 7 8 4 1 2,Kafkaesque Koffka,3.2.8,0,n,0,right,left,NA,right,NA,846,1198,NA,846,NA,2,legacy,6,1024,2,48000,-16,experiment,3,odd,6,46512,43119,44267,3211,NA,44279,NA,NA,3231,NA,48525,49373,45295,4440,48525,NA,NA,Sternberg task,7,5373,7,yes,1024
100,100,759.375,759.375,black,practice,legacy,legacy,legacy,0,uniform,1,undefined,1,right,7,7,7,0,0,7,NA,7,0,0,7,7,7,0,7,0,NA,Tue Oct 22 16:04:29 2019,The main experiment item,yes,Sternbergtask.osexp,/Users/danielrazo0311/Desktop,no,mono,no,18,no,white,no,yes,768,legacy,7,7,/Users/danielrazo0311/Desktop/subject-3.csv,legacy,2 1,Kafkaesque Koffka,3.2.8,0,n,0,right,left,NA,right,NA,702,1198,NA,702,NA,2,legacy,2,1024,2,48000,-16,experiment,3,odd,5,52776,49389,50535,3211,NA,50547,NA,NA,3231,NA,54789,55493,51560,4440,54789,NA,NA,Sternberg task,8,6075,8,yes,1024
100,100,730.2222222,730.2222222,black,practice,legacy,legacy,legacy,0,uniform,1,undefined,1,right,8,8,8,0,0,8,NA,8,0,0,8,8,8,0,8,0,NA,Tue Oct 22 16:04:29 2019,The main experiment item,yes,Sternbergtask.osexp,/Users/danielrazo0311/Desktop,no,mono,no,18,no,white,no,yes,768,legacy,8,8,/Users/danielrazo0311/Desktop/subject-3.csv,legacy,5,Kafkaesque Koffka,3.2.8,0,n,0,right,left,NA,right,NA,497,1198,NA,497,NA,2,legacy,1,1024,2,48000,-16,experiment,3,odd,3,58902,55510,56661,3211,NA,56673,NA,NA,3231,NA,60914,61414,57686,4440,60914,NA,NA,Sternberg task,9,6572,9,yes,1024
100,100,714.5,714.5,black,practice,legacy,legacy,legacy,0,uniform,1,undefined,1,left,9,9,9,0,0,9,NA,9,0,0,9,9,9,0,9,0,NA,Tue Oct 22 16:04:29 2019,The main experiment item,yes,Sternbergtask.osexp,/Users/danielrazo0311/Desktop,no,mono,no,18,no,white,no,yes,768,legacy,9,9,/Users/danielrazo0311/Desktop/subject-3.csv,legacy,1 5 2 9,Kafkaesque Koffka,3.2.8,2,y,0,left,left,NA,left,NA,573,1198,NA,573,NA,2,legacy,4,1024,2,48000,-16,experiment,3,odd,5,64826,61437,62583,3211,NA,62596,NA,NA,3231,NA,66839,67414,63609,4440,66839,NA,NA,Sternberg task,10,7145,10,yes,1024
100,100,696.4545455,696.4545455,black,practice,legacy,legacy,legacy,0,uniform,1,undefined,1,right,10,10,10,0,0,10,NA,10,0,0,10,10,10,0,10,0,NA,Tue Oct 22 16:04:29 2019,The main experiment item,yes,Sternbergtask.osexp,/Users/danielrazo0311/Desktop,no,mono,no,18,no,white,no,yes,768,legacy,10,10,/Users/danielrazo0311/Desktop/subject-3.csv,legacy,3 1 9 4,Kafkaesque Koffka,3.2.8,0,n,0,right,left,NA,right,NA,516,1198,NA,516,NA,2,legacy,4,1024,2,48000,-16,experiment,3,odd,6,70834,67433,68590,3211,NA,68606,NA,NA,3231,NA,72847,73365,69618,4440,72847,NA,NA,Sternberg task,11,7661,11,yes,1024
100,100,682.1666667,682.1666667,black,practice,legacy,legacy,legacy,0,uniform,1,undefined,1,left,11,11,11,0,0,11,NA,11,0,0,11,11,11,0,11,0,NA,Tue Oct 22 16:04:29 2019,The main experiment item,yes,Sternbergtask.osexp,/Users/danielrazo0311/Desktop,no,mono,no,18,no,white,no,yes,768,legacy,11,11,/Users/danielrazo0311/Desktop/subject-3.csv,legacy,6,Kafkaesque Koffka,3.2.8,1,y,0,left,left,NA,left,NA,525,1198,NA,525,NA,2,legacy,1,1024,2,48000,-16,experiment,3,odd,6,76768,73383,74527,3211,NA,74540,NA,NA,3231,NA,78782,79309,75554,4440,78781,NA,NA,Sternberg task,12,8186,12,yes,1024
100,100,707.4615385,707.4615385,black,experiment,legacy,legacy,legacy,0,uniform,1,undefined,1,right,12,12,12,0,0,12,NA,12,0,0,12,12,12,0,12,0,NA,Tue Oct 22 16:04:29 2019,The main experiment item,yes,Sternbergtask.osexp,/Users/danielrazo0311/Desktop,no,mono,no,18,no,white,no,yes,768,legacy,0,11,/Users/danielrazo0311/Desktop/subject-3.csv,legacy,1,Kafkaesque Koffka,3.2.8,0,n,0,right,left,left,right,NA,1011,1198,12630,1011,NA,2,legacy,1,1024,2,48000,-16,experiment,3,odd,7,95426,79325,93182,3211,92998,93199,NA,NA,3231,80365,97439,98453,94213,4440,97439,NA,NA,Sternberg task,13,9197,13,yes,1024
100,100,702,702,black,experiment,legacy,legacy,legacy,0,uniform,1,undefined,1,right,13,13,13,0,0,13,NA,13,0,0,13,13,13,0,13,0,NA,Tue Oct 22 16:04:29 2019,The main experiment item,yes,Sternbergtask.osexp,/Users/danielrazo0311/Desktop,no,mono,no,18,no,white,no,yes,768,legacy,1,11,/Users/danielrazo0311/Desktop/subject-3.csv,legacy,3 4 2,Kafkaesque Koffka,3.2.8,0,n,0,right,left,left,right,NA,631,1198,12630,631,NA,2,legacy,3,1024,2,48000,-16,experiment,3,odd,5,101863,98471,99621,3211,92998,99633,NA,NA,3231,80365,103875,104509,100647,4440,103875,NA,NA,Sternberg task,14,9828,14,yes,1024
100,100,690.8666667,690.8666667,black,experiment,legacy,legacy,legacy,0,uniform,1,undefined,1,left,14,14,14,0,0,14,NA,14,0,0,14,14,14,0,14,0,NA,Tue Oct 22 16:04:29 2019,The main experiment item,yes,Sternbergtask.osexp,/Users/danielrazo0311/Desktop,no,mono,no,18,no,white,no,yes,768,legacy,2,11,/Users/danielrazo0311/Desktop/subject-3.csv,legacy,6 2,Kafkaesque Koffka,3.2.8,1,y,0,left,left,left,left,NA,535,1198,12630,535,NA,2,legacy,2,1024,2,48000,-16,experiment,3,odd,6,107910,104524,105670,3211,92998,105682,NA,NA,3231,80365,109923,110461,106695,4440,109922,NA,NA,Sternberg task,15,10363,15,yes,1024
100,100,688,688,black,experiment,legacy,legacy,legacy,0,uniform,1,undefined,1,left,15,15,15,0,0,15,NA,15,0,0,15,15,15,0,15,0,NA,Tue Oct 22 16:04:29 2019,The main experiment item,yes,Sternbergtask.osexp,/Users/danielrazo0311/Desktop,no,mono,no,18,no,white,no,yes,768,legacy,3,11,/Users/danielrazo0311/Desktop/subject-3.csv,legacy,9 8 4,Kafkaesque Koffka,3.2.8,1,y,0,left,left,left,left,NA,645,1198,12630,645,NA,2,legacy,3,1024,2,48000,-16,experiment,3,odd,9,113863,110478,111624,3211,92998,111636,NA,NA,3231,80365,115877,116524,112649,4440,115876,NA,NA,Sternberg task,16,11008,16,yes,1024
100,100,676.6470588,676.6470588,black,experiment,legacy,legacy,legacy,0,uniform,1,undefined,1,left,16,16,16,0,0,16,NA,16,0,0,16,16,16,0,16,0,NA,Tue Oct 22 16:04:29 2019,The main experiment item,yes,Sternbergtask.osexp,/Users/danielrazo0311/Desktop,no,mono,no,18,no,white,no,yes,768,legacy,4,11,/Users/danielrazo0311/Desktop/subject-3.csv,legacy,4 1 8 7 5,Kafkaesque Koffka,3.2.8,3,y,0,left,left,left,left,NA,495,1198,12630,495,NA,2,legacy,5,1024,2,48000,-16,experiment,3,odd,8,119942,116540,117695,3211,92998,117707,NA,NA,3231,80365,121955,122453,118725,4440,121955,NA,NA,Sternberg task,17,11503,17,yes,1024
100,100,666.7222222,666.7222222,black,experiment,legacy,legacy,legacy,0,uniform,1,undefined,1,left,17,17,17,0,0,17,NA,17,0,0,17,17,17,0,17,0,NA,Tue Oct 22 16:04:29 2019,The main experiment item,yes,Sternbergtask.osexp,/Users/danielrazo0311/Desktop,no,mono,no,18,no,white,no,yes,768,legacy,5,11,/Users/danielrazo0311/Desktop/subject-3.csv,legacy,6 9 3 1,Kafkaesque Koffka,3.2.8,4,y,0,left,left,left,left,NA,498,1198,12630,498,NA,2,legacy,4,1024,2,48000,-16,experiment,3,odd,1,125867,122476,123623,3211,92998,123636,NA,NA,3231,80365,127880,128380,124650,4440,127879,NA,NA,Sternberg task,18,12001,18,yes,1024
100,100,666.9473684,666.9473684,black,experiment,legacy,legacy,legacy,0,uniform,1,undefined,1,left,18,18,18,0,0,18,NA,18,0,0,18,18,18,0,18,0,NA,Tue Oct 22 16:04:29 2019,The main experiment item,yes,Sternbergtask.osexp,/Users/danielrazo0311/Desktop,no,mono,no,18,no,white,no,yes,768,legacy,6,11,/Users/danielrazo0311/Desktop/subject-3.csv,legacy,6 7 8 5,Kafkaesque Koffka,3.2.8,3,y,0,left,left,left,left,NA,671,1198,12630,671,NA,2,legacy,4,1024,2,48000,-16,experiment,3,odd,8,131788,128397,129543,3211,92998,129556,NA,NA,3231,80365,133803,134476,130571,4440,133802,NA,NA,Sternberg task,19,12672,19,yes,1024
100,100,661.4,661.4,black,experiment,legacy,legacy,legacy,0,uniform,1,undefined,1,left,19,19,19,0,0,19,NA,19,0,0,19,19,19,0,19,0,NA,Tue Oct 22 16:04:29 2019,The main experiment item,yes,Sternbergtask.osexp,/Users/danielrazo0311/Desktop,no,mono,no,18,no,white,no,yes,768,legacy,7,11,/Users/danielrazo0311/Desktop/subject-3.csv,legacy,8 3,Kafkaesque Koffka,3.2.8,2,y,0,left,left,left,left,NA,556,1198,12630,556,NA,2,legacy,2,1024,2,48000,-16,experiment,3,odd,3,137880,134492,135637,3211,92998,135650,NA,NA,3231,80365,139893,140452,136665,4440,139893,NA,NA,Sternberg task,20,13228,20,yes,1024
100,100,671.6666667,671.6666667,black,experiment,legacy,legacy,legacy,0,uniform,1,undefined,1,right,20,20,20,0,0,20,NA,20,0,0,20,20,20,0,20,0,NA,Tue Oct 22 16:04:29 2019,The main experiment item,yes,Sternbergtask.osexp,/Users/danielrazo0311/Desktop,no,mono,no,18,no,white,no,yes,768,legacy,8,11,/Users/danielrazo0311/Desktop/subject-3.csv,legacy,1 4 3 6 5,Kafkaesque Koffka,3.2.8,0,n,0,right,left,left,right,NA,877,1198,12630,877,NA,2,legacy,5,1024,2,48000,-16,experiment,3,odd,8,143855,140467,141614,3211,92998,141626,NA,NA,3231,80365,145868,146748,142639,4440,145868,NA,NA,Sternberg task,21,14105,21,yes,1024
100,100,667.1363636,667.1363636,black,experiment,legacy,legacy,legacy,0,uniform,1,undefined,1,left,21,21,21,0,0,21,NA,21,0,0,21,21,21,0,21,0,NA,Tue Oct 22 16:04:29 2019,The main experiment item,yes,Sternbergtask.osexp,/Users/danielrazo0311/Desktop,no,mono,no,18,no,white,no,yes,768,legacy,9,11,/Users/danielrazo0311/Desktop/subject-3.csv,legacy,2 4 6 9,Kafkaesque Koffka,3.2.8,3,y,0,left,left,left,left,NA,572,1198,12630,572,NA,2,legacy,4,1024,2,48000,-16,experiment,3,odd,6,150152,146766,147911,3211,92998,147923,NA,NA,3231,80365,152165,152740,148936,4440,152164,NA,NA,Sternberg task,22,14677,22,yes,1024
100,100,665,665,black,experiment,legacy,legacy,legacy,0,uniform,1,undefined,1,right,22,22,22,0,0,22,NA,22,0,0,22,22,22,0,22,0,NA,Tue Oct 22 16:04:29 2019,The main experiment item,yes,Sternbergtask.osexp,/Users/danielrazo0311/Desktop,no,mono,no,18,no,white,no,yes,768,legacy,10,11,/Users/danielrazo0311/Desktop/subject-3.csv,legacy,1 5 3 2 8,Kafkaesque Koffka,3.2.8,0,n,0,right,left,left,right,NA,618,1198,12630,618,NA,2,legacy,5,1024,2,48000,-16,experiment,3,odd,4,156146,152755,153902,3211,92998,153914,NA,NA,3231,80365,158159,158780,154929,4440,158159,NA,NA,Sternberg task,23,15295,23,yes,1024
100,100,664.6666667,664.6666667,black,experiment,legacy,legacy,legacy,0,uniform,1,undefined,1,right,23,23,23,0,0,23,NA,23,0,0,23,23,23,0,23,0,NA,Tue Oct 22 16:04:29 2019,The main experiment item,yes,Sternbergtask.osexp,/Users/danielrazo0311/Desktop,no,mono,no,18,no,white,no,yes,768,legacy,11,11,/Users/danielrazo0311/Desktop/subject-3.csv,legacy,1 7 5 2 9,Kafkaesque Koffka,3.2.8,0,n,0,right,left,left,right,NA,657,1198,12630,657,NA,2,legacy,5,1024,2,48000,-16,experiment,3,odd,3,162188,158801,159946,3211,92998,159959,NA,NA,3231,80365,164200,164859,160973,4440,164200,NA,NA,Sternberg task,24,15952,24,yes,1024
100,100,659.36,659.36,black,experiment,legacy,legacy,legacy,0,uniform,1,undefined,1,left,24,24,24,0,0,24,NA,24,0,0,24,24,24,0,24,0,NA,Tue Oct 22 16:04:29 2019,The main experiment item,yes,Sternbergtask.osexp,/Users/danielrazo0311/Desktop,no,mono,no,18,no,white,no,yes,768,legacy,12,11,/Users/danielrazo0311/Desktop/subject-3.csv,legacy,3 5 9 6 2 4,Kafkaesque Koffka,3.2.8,1,y,0,left,left,left,left,NA,532,1198,12630,532,NA,2,legacy,6,1024,2,48000,-16,experiment,3,odd,3,168265,164875,166022,3211,92998,166034,NA,NA,3231,80365,170277,170811,167047,4440,170277,NA,NA,Sternberg task,25,16484,25,yes,1024
100,100,651.8846154,651.8846154,black,experiment,legacy,legacy,legacy,0,uniform,1,undefined,1,right,25,25,25,0,0,25,NA,25,0,0,25,25,25,0,25,0,NA,Tue Oct 22 16:04:29 2019,The main experiment item,yes,Sternbergtask.osexp,/Users/danielrazo0311/Desktop,no,mono,no,18,no,white,no,yes,768,legacy,13,11,/Users/danielrazo0311/Desktop/subject-3.csv,legacy,1 3 2 6 9,Kafkaesque Koffka,3.2.8,0,n,0,right,left,left,right,NA,465,1198,12630,465,NA,2,legacy,5,1024,2,48000,-16,experiment,3,odd,5,174219,170827,171978,3211,92998,171992,NA,NA,3231,80365,176232,176699,173004,4440,176232,NA,NA,Sternberg task,26,16949,26,yes,1024
100,100,660.8518519,660.8518519,black,experiment,legacy,legacy,legacy,0,uniform,1,undefined,1,right,26,26,26,0,0,26,NA,26,0,0,26,26,26,0,26,0,NA,Tue Oct 22 16:04:29 2019,The main experiment item,yes,Sternbergtask.osexp,/Users/danielrazo0311/Desktop,no,mono,no,18,no,white,no,yes,768,legacy,14,11,/Users/danielrazo0311/Desktop/subject-3.csv,legacy,3 4 9 6 7 8,Kafkaesque Koffka,3.2.8,0,n,0,right,left,left,right,NA,894,1198,12630,894,NA,2,legacy,6,1024,2,48000,-16,experiment,3,odd,2,180101,176714,177861,3211,92998,177873,NA,NA,3231,80365,182114,183011,178886,4440,182114,NA,NA,Sternberg task,27,17843,27,yes,1024
100,100,661.9285714,661.9285714,black,experiment,legacy,legacy,legacy,0,uniform,1,undefined,1,left,27,27,27,0,0,27,NA,27,0,0,27,27,27,0,27,0,NA,Tue Oct 22 16:04:29 2019,The main experiment item,yes,Sternbergtask.osexp,/Users/danielrazo0311/Desktop,no,mono,no,18,no,white,no,yes,768,legacy,15,11,/Users/danielrazo0311/Desktop/subject-3.csv,legacy,4 1 5,Kafkaesque Koffka,3.2.8,2,y,0,left,left,left,left,NA,691,1198,12630,691,NA,2,legacy,3,1024,2,48000,-16,experiment,3,odd,1,186423,183028,184181,3211,92998,184193,NA,NA,3231,80365,188437,189131,185206,4440,188436,NA,NA,Sternberg task,28,18534,28,yes,1024
100,100,653.8275862,653.8275862,black,experiment,legacy,legacy,legacy,0,uniform,1,undefined,1,left,28,28,28,0,0,28,NA,28,0,0,28,28,28,0,28,0,NA,Tue Oct 22 16:04:29 2019,The main experiment item,yes,Sternbergtask.osexp,/Users/danielrazo0311/Desktop,no,mono,no,18,no,white,no,yes,768,legacy,16,11,/Users/danielrazo0311/Desktop/subject-3.csv,legacy,7 8 6 3 1,Kafkaesque Koffka,3.2.8,5,y,0,left,left,left,left,NA,427,1198,12630,427,NA,2,legacy,5,1024,2,48000,-16,experiment,3,odd,1,192536,189147,190294,3211,92998,190306,NA,NA,3231,80365,194549,194979,191320,4440,194549,NA,NA,Sternberg task,29,18961,29,yes,1024
100,100,648.8,648.8,black,experiment,legacy,legacy,legacy,0,uniform,1,undefined,1,left,29,29,29,0,0,29,NA,29,0,0,29,29,29,0,29,0,NA,Tue Oct 22 16:04:29 2019,The main experiment item,yes,Sternbergtask.osexp,/Users/danielrazo0311/Desktop,no,mono,no,18,no,white,no,yes,768,legacy,17,11,/Users/danielrazo0311/Desktop/subject-3.csv,legacy,7 2 3,Kafkaesque Koffka,3.2.8,3,y,0,left,left,left,left,NA,503,1198,12630,503,NA,2,legacy,3,1024,2,48000,-16,experiment,3,odd,3,198388,194996,196149,3211,92998,196161,NA,NA,3231,80365,200401,200907,197176,4440,200401,NA,NA,Sternberg task,30,19464,30,yes,1024
100,100,658.0322581,658.0322581,black,experiment,legacy,legacy,legacy,0,uniform,1,undefined,1,right,30,30,30,0,0,30,NA,30,0,0,30,30,30,0,30,0,NA,Tue Oct 22 16:04:29 2019,The main experiment item,yes,Sternbergtask.osexp,/Users/danielrazo0311/Desktop,no,mono,no,18,no,white,no,yes,768,legacy,18,11,/Users/danielrazo0311/Desktop/subject-3.csv,legacy,8 5 4 2 9 6,Kafkaesque Koffka,3.2.8,0,n,0,right,left,left,right,NA,935,1198,12630,935,NA,2,legacy,6,1024,2,48000,-16,experiment,3,odd,3,204317,200926,202074,3211,92998,202086,NA,NA,3231,80365,206329,207267,203100,4440,206329,NA,NA,Sternberg task,31,20399,31,yes,1024
100,100,651.53125,651.53125,black,experiment,legacy,legacy,legacy,0,uniform,1,undefined,1,right,31,31,31,0,0,31,NA,31,0,0,31,31,31,0,31,0,NA,Tue Oct 22 16:04:29 2019,The main experiment item,yes,Sternbergtask.osexp,/Users/danielrazo0311/Desktop,no,mono,no,18,no,white,no,yes,768,legacy,19,11,/Users/danielrazo0311/Desktop/subject-3.csv,legacy,5,Kafkaesque Koffka,3.2.8,0,n,0,right,left,left,right,NA,450,1198,12630,450,NA,2,legacy,1,1024,2,48000,-16,experiment,3,odd,8,210681,207294,208439,3211,92998,208451,NA,NA,3231,80365,212694,213146,209464,4440,212693,NA,NA,Sternberg task,32,20849,32,yes,1024
100,100,661.969697,661.969697,black,experiment,legacy,legacy,legacy,0,uniform,1,undefined,1,right,32,32,32,0,0,32,NA,32,0,0,32,32,32,0,32,0,NA,Tue Oct 22 16:04:29 2019,The main experiment item,yes,Sternbergtask.osexp,/Users/danielrazo0311/Desktop,no,mono,no,18,no,white,no,yes,768,legacy,20,11,/Users/danielrazo0311/Desktop/subject-3.csv,legacy,6 9 4 5 3 2,Kafkaesque Koffka,3.2.8,0,n,0,right,left,left,right,NA,996,1198,12630,996,NA,2,legacy,6,1024,2,48000,-16,experiment,3,odd,8,216549,213162,214309,3211,92998,214321,NA,NA,3231,80365,218563,219563,215334,4440,218563,NA,NA,Sternberg task,33,21845,33,yes,1024
100,100,664.6470588,664.6470588,black,experiment,legacy,legacy,legacy,0,uniform,1,undefined,1,left,33,33,33,0,0,33,NA,33,0,0,33,33,33,0,33,0,NA,Tue Oct 22 16:04:29 2019,The main experiment item,yes,Sternbergtask.osexp,/Users/danielrazo0311/Desktop,no,mono,no,18,no,white,no,yes,768,legacy,21,11,/Users/danielrazo0311/Desktop/subject-3.csv,legacy,2 6 1 7 4,Kafkaesque Koffka,3.2.8,2,y,0,left,left,left,left,NA,753,1198,12630,753,NA,2,legacy,5,1024,2,48000,-16,experiment,3,odd,6,222985,219597,220744,3211,92998,220756,NA,NA,3231,80365,224998,225754,221770,4440,224998,NA,NA,Sternberg task,34,22598,34,yes,1024
100,100,659.1142857,659.1142857,black,experiment,legacy,legacy,legacy,0,uniform,1,undefined,1,left,34,34,34,0,0,34,NA,34,0,0,34,34,34,0,34,0,NA,Tue Oct 22 16:04:29 2019,The main experiment item,yes,Sternbergtask.osexp,/Users/danielrazo0311/Desktop,no,mono,no,18,no,white,no,yes,768,legacy,22,11,/Users/danielrazo0311/Desktop/subject-3.csv,legacy,6 1 2,Kafkaesque Koffka,3.2.8,3,y,0,left,left,left,left,NA,471,1198,12630,471,NA,2,legacy,3,1024,2,48000,-16,experiment,3,odd,2,229163,225769,226918,3211,92998,226930,NA,NA,3231,80365,231176,231650,227944,4440,231175,NA,NA,Sternberg task,35,23069,35,yes,1024
100,100,655.5833333,655.5833333,black,experiment,legacy,legacy,legacy,0,uniform,1,undefined,1,right,35,35,35,0,0,35,NA,35,0,0,35,35,35,0,35,0,NA,Tue Oct 22 16:04:29 2019,The main experiment item,yes,Sternbergtask.osexp,/Users/danielrazo0311/Desktop,no,mono,no,18,no,white,no,yes,768,legacy,23,11,/Users/danielrazo0311/Desktop/subject-3.csv,legacy,6 9 7 3 8 2,Kafkaesque Koffka,3.2.8,0,n,0,right,left,left,right,NA,532,1198,12630,532,NA,2,legacy,6,1024,2,48000,-16,experiment,3,odd,5,235055,231665,232814,3211,92998,232826,NA,NA,3231,80365,237067,237602,233839,4440,237067,NA,NA,Sternberg task,36,23601,36,yes,1024
100,100,654.1081081,654.1081081,black,experiment,legacy,legacy,legacy,0,uniform,1,undefined,1,right,36,36,36,0,0,36,NA,36,0,0,36,36,36,0,36,0,NA,Tue Oct 22 16:04:29 2019,The main experiment item,yes,Sternbergtask.osexp,/Users/danielrazo0311/Desktop,no,mono,no,18,no,white,no,yes,768,legacy,24,11,/Users/danielrazo0311/Desktop/subject-3.csv,legacy,5 2,Kafkaesque Koffka,3.2.8,0,n,0,right,left,left,right,NA,601,1198,12630,601,NA,2,legacy,2,1024,2,48000,-16,experiment,3,odd,7,241009,237618,238767,3211,92998,238779,NA,NA,3231,80365,243022,243626,239794,4440,243022,NA,NA,Sternberg task,37,24202,37,yes,1024
100,100,653,653,black,experiment,legacy,legacy,legacy,0,uniform,1,undefined,1,left,37,37,37,0,0,37,NA,37,0,0,37,37,37,0,37,0,NA,Tue Oct 22 16:04:29 2019,The main experiment item,yes,Sternbergtask.osexp,/Users/danielrazo0311/Desktop,no,mono,no,18,no,white,no,yes,768,legacy,25,11,/Users/danielrazo0311/Desktop/subject-3.csv,legacy,4 9 7 8 5 3,Kafkaesque Koffka,3.2.8,4,y,0,left,left,left,left,NA,612,1198,12630,612,NA,2,legacy,6,1024,2,48000,-16,experiment,3,odd,8,247062,243674,244821,3211,92998,244833,NA,NA,3231,80365,249075,249690,245847,4440,249075,NA,NA,Sternberg task,38,24814,38,yes,1024
100,100,649.4102564,649.4102564,black,experiment,legacy,legacy,legacy,0,uniform,1,undefined,1,left,38,38,38,0,0,38,NA,38,0,0,38,38,38,0,38,0,NA,Tue Oct 22 16:04:29 2019,The main experiment item,yes,Sternbergtask.osexp,/Users/danielrazo0311/Desktop,no,mono,no,18,no,white,no,yes,768,legacy,26,11,/Users/danielrazo0311/Desktop/subject-3.csv,legacy,8 9 5 6 7,Kafkaesque Koffka,3.2.8,1,y,0,left,left,left,left,NA,513,1198,12630,513,NA,2,legacy,5,1024,2,48000,-16,experiment,3,odd,8,253129,249736,250887,3211,92998,250899,NA,NA,3231,80365,255142,255658,251913,4440,255141,NA,NA,Sternberg task,39,25327,39,yes,1024
100,100,648.25,648.25,black,experiment,legacy,legacy,legacy,0,uniform,1,undefined,1,right,39,39,39,0,0,39,NA,39,0,0,39,39,39,0,39,0,NA,Tue Oct 22 16:04:29 2019,The main experiment item,yes,Sternbergtask.osexp,/Users/danielrazo0311/Desktop,no,mono,no,18,no,white,no,yes,768,legacy,27,11,/Users/danielrazo0311/Desktop/subject-3.csv,legacy,8 4 3 9,Kafkaesque Koffka,3.2.8,0,n,0,right,left,left,right,NA,603,1198,12630,603,NA,2,legacy,4,1024,2,48000,-16,experiment,3,odd,5,259064,255675,256823,3211,92998,256835,NA,NA,3231,80365,261076,261681,257849,4440,261076,NA,NA,Sternberg task,40,25930,40,yes,1024
100,100,647.4390244,647.4390244,black,experiment,legacy,legacy,legacy,0,uniform,1,undefined,1,right,40,40,40,0,0,40,NA,40,0,0,40,40,40,0,40,0,NA,Tue Oct 22 16:04:29 2019,The main experiment item,yes,Sternbergtask.osexp,/Users/danielrazo0311/Desktop,no,mono,no,18,no,white,no,yes,768,legacy,28,11,/Users/danielrazo0311/Desktop/subject-3.csv,legacy,6 8,Kafkaesque Koffka,3.2.8,0,n,0,right,left,left,right,NA,615,1198,12630,615,NA,2,legacy,2,1024,2,48000,-16,experiment,3,odd,9,265081,261697,262842,3211,92998,262855,NA,NA,3231,80365,267095,267714,263868,4440,267095,NA,NA,Sternberg task,41,26545,41,yes,1024
100,100,644.952381,644.952381,black,experiment,legacy,legacy,legacy,0,uniform,1,undefined,1,left,41,41,41,0,0,41,NA,41,0,0,41,41,41,0,41,0,NA,Tue Oct 22 16:04:29 2019,The main experiment item,yes,Sternbergtask.osexp,/Users/danielrazo0311/Desktop,no,mono,no,18,no,white,no,yes,768,legacy,29,11,/Users/danielrazo0311/Desktop/subject-3.csv,legacy,3 9 7 6 4,Kafkaesque Koffka,3.2.8,3,y,0,left,left,left,left,NA,543,1198,12630,543,NA,2,legacy,5,1024,2,48000,-16,experiment,3,odd,7,271122,267730,268881,3211,92998,268893,NA,NA,3231,80365,273135,273681,269907,4440,273134,NA,NA,Sternberg task,42,27088,42,yes,1024
100,100,642.9534884,642.9534884,black,experiment,legacy,legacy,legacy,0,uniform,1,undefined,1,right,42,42,42,0,0,42,NA,42,0,0,42,42,42,0,42,0,NA,Tue Oct 22 16:04:29 2019,The main experiment item,yes,Sternbergtask.osexp,/Users/danielrazo0311/Desktop,no,mono,no,18,no,white,no,yes,768,legacy,30,11,/Users/danielrazo0311/Desktop/subject-3.csv,legacy,1 4 9 2 5,Kafkaesque Koffka,3.2.8,0,n,0,right,left,left,right,NA,559,1198,12630,559,NA,2,legacy,5,1024,2,48000,-16,experiment,3,odd,7,277090,273697,274848,3211,92998,274860,NA,NA,3231,80365,279103,279665,275874,4440,279103,NA,NA,Sternberg task,43,27647,43,yes,1024
100,100,642.3863636,642.3863636,black,experiment,legacy,legacy,legacy,0,uniform,1,undefined,1,left,43,43,43,0,0,43,NA,43,0,0,43,43,43,0,43,0,NA,Tue Oct 22 16:04:29 2019,The main experiment item,yes,Sternbergtask.osexp,/Users/danielrazo0311/Desktop,no,mono,no,18,no,white,no,yes,768,legacy,31,11,/Users/danielrazo0311/Desktop/subject-3.csv,legacy,2 5 4 8 7,Kafkaesque Koffka,3.2.8,3,y,0,left,left,left,left,NA,618,1198,12630,618,NA,2,legacy,5,1024,2,48000,-16,experiment,3,odd,4,283070,279681,280830,3211,92998,280842,NA,NA,3231,80365,285084,285705,281855,4440,285083,NA,NA,Sternberg task,44,28265,44,yes,1024
100,100,640.1111111,640.1111111,black,experiment,legacy,legacy,legacy,0,uniform,1,undefined,1,left,44,44,44,0,0,44,NA,44,0,0,44,44,44,0,44,0,NA,Tue Oct 22 16:04:29 2019,The main experiment item,yes,Sternbergtask.osexp,/Users/danielrazo0311/Desktop,no,mono,no,18,no,white,no,yes,768,legacy,32,11,/Users/danielrazo0311/Desktop/subject-3.csv,legacy,9 4 2,Kafkaesque Koffka,3.2.8,1,y,0,left,left,left,left,NA,540,1198,12630,540,NA,2,legacy,3,1024,2,48000,-16,experiment,3,odd,9,289117,285720,286878,3211,92998,286890,NA,NA,3231,80365,291130,291672,287903,4440,291129,NA,NA,Sternberg task,45,28805,45,yes,1024
100,100,637.5217391,637.5217391,black,experiment,legacy,legacy,legacy,0,uniform,1,undefined,1,left,45,45,45,0,0,45,NA,45,0,0,45,45,45,0,45,0,NA,Tue Oct 22 16:04:29 2019,The main experiment item,yes,Sternbergtask.osexp,/Users/danielrazo0311/Desktop,no,mono,no,18,no,white,no,yes,768,legacy,33,11,/Users/danielrazo0311/Desktop/subject-3.csv,legacy,9 5 8 1,Kafkaesque Koffka,3.2.8,2,y,0,left,left,left,left,NA,521,1198,12630,521,NA,2,legacy,4,1024,2,48000,-16,experiment,3,odd,5,295073,291688,292835,3211,92998,292847,NA,NA,3231,80365,297085,297609,293859,4440,297085,NA,NA,Sternberg task,46,29326,46,yes,1024
100,100,645.5319149,645.5319149,black,experiment,legacy,legacy,legacy,0,uniform,1,undefined,1,right,46,46,46,0,0,46,NA,46,0,0,46,46,46,0,46,0,NA,Tue Oct 22 16:04:29 2019,The main experiment item,yes,Sternbergtask.osexp,/Users/danielrazo0311/Desktop,no,mono,no,18,no,white,no,yes,768,legacy,34,11,/Users/danielrazo0311/Desktop/subject-3.csv,legacy,6 9 5,Kafkaesque Koffka,3.2.8,0,n,0,right,left,left,right,NA,1014,1198,12630,1014,NA,2,legacy,3,1024,2,48000,-16,experiment,3,odd,8,301018,297628,298778,3211,92998,298790,NA,NA,3231,80365,303032,304048,299803,4440,303031,NA,NA,Sternberg task,47,30340,47,yes,1024
100,100,641.8125,641.8125,black,experiment,legacy,legacy,legacy,0,uniform,1,undefined,1,left,47,47,47,0,0,47,NA,47,0,0,47,47,47,0,47,0,NA,Tue Oct 22 16:04:29 2019,The main experiment item,yes,Sternbergtask.osexp,/Users/danielrazo0311/Desktop,no,mono,no,18,no,white,no,yes,768,legacy,35,11,/Users/danielrazo0311/Desktop/subject-3.csv,legacy,9 3 8 2 1 4,Kafkaesque Koffka,3.2.8,3,y,0,left,left,left,left,NA,467,1198,12630,467,NA,2,legacy,6,1024,2,48000,-16,experiment,3,odd,8,307454,304064,305211,3211,92998,305223,NA,NA,3231,80365,309466,309936,306236,4440,309466,NA,NA,Sternberg task,48,30807,48,yes,1024
100,100,637.4285714,637.4285714,black,experiment,legacy,legacy,legacy,0,uniform,1,undefined,1,left,48,48,48,0,0,48,NA,48,0,0,48,48,48,0,48,0,NA,Tue Oct 22 16:04:29 2019,The main experiment item,yes,Sternbergtask.osexp,/Users/danielrazo0311/Desktop,no,mono,no,18,no,white,no,yes,768,legacy,36,11,/Users/danielrazo0311/Desktop/subject-3.csv,legacy,4,Kafkaesque Koffka,3.2.8,1,y,0,left,left,left,left,NA,427,1198,12630,427,NA,2,legacy,1,1024,2,48000,-16,experiment,3,odd,4,313340,309952,311097,3211,92998,311109,NA,NA,3231,80365,315354,315784,312123,4440,315353,NA,NA,Sternberg task,49,31234,49,yes,1024
100,100,635.36,635.36,black,experiment,legacy,legacy,legacy,0,uniform,1,undefined,1,right,49,49,49,0,0,49,NA,49,0,0,49,49,49,0,49,0,NA,Tue Oct 22 16:04:29 2019,The main experiment item,yes,Sternbergtask.osexp,/Users/danielrazo0311/Desktop,no,mono,no,18,no,white,no,yes,768,legacy,37,11,/Users/danielrazo0311/Desktop/subject-3.csv,legacy,4 2 6 9,Kafkaesque Koffka,3.2.8,0,n,0,right,left,left,right,NA,534,1198,12630,534,NA,2,legacy,4,1024,2,48000,-16,experiment,3,odd,7,319203,315812,316958,3211,92998,316971,NA,NA,3231,80365,321215,321752,317987,4440,321215,NA,NA,Sternberg task,50,31768,50,yes,1024
100,100,634.9215686,634.9215686,black,experiment,legacy,legacy,legacy,0,uniform,1,undefined,1,right,50,50,50,0,0,50,NA,50,0,0,50,50,50,0,50,0,NA,Tue Oct 22 16:04:29 2019,The main experiment item,yes,Sternbergtask.osexp,/Users/danielrazo0311/Desktop,no,mono,no,18,no,white,no,yes,768,legacy,38,11,/Users/danielrazo0311/Desktop/subject-3.csv,legacy,5 3 8 7 2 4,Kafkaesque Koffka,3.2.8,0,n,0,right,left,left,right,NA,613,1198,12630,613,NA,2,legacy,6,1024,2,48000,-16,experiment,3,odd,9,325156,321769,322915,3211,92998,322927,NA,NA,3231,80365,327168,327784,323942,4440,327168,NA,NA,Sternberg task,51,32381,51,yes,1024
100,100,632.8269231,632.8269231,black,experiment,legacy,legacy,legacy,0,uniform,1,undefined,1,right,51,51,51,0,0,51,NA,51,0,0,51,51,51,0,51,0,NA,Tue Oct 22 16:04:29 2019,The main experiment item,yes,Sternbergtask.osexp,/Users/danielrazo0311/Desktop,no,mono,no,18,no,white,no,yes,768,legacy,39,11,/Users/danielrazo0311/Desktop/subject-3.csv,legacy,8 5 7 3 6,Kafkaesque Koffka,3.2.8,0,n,0,right,left,left,right,NA,526,1198,12630,526,NA,2,legacy,5,1024,2,48000,-16,experiment,3,odd,9,331194,327800,328951,3211,92998,328963,NA,NA,3231,80365,333207,333736,329977,4440,333207,NA,NA,Sternberg task,52,32907,52,yes,1024
100,100,631.7735849,631.7735849,black,experiment,legacy,legacy,legacy,0,uniform,1,undefined,1,right,52,52,52,0,0,52,NA,52,0,0,52,52,52,0,52,0,NA,Tue Oct 22 16:04:29 2019,The main experiment item,yes,Sternbergtask.osexp,/Users/danielrazo0311/Desktop,no,mono,no,18,no,white,no,yes,768,legacy,40,11,/Users/danielrazo0311/Desktop/subject-3.csv,legacy,3 9 8 1 6 4,Kafkaesque Koffka,3.2.8,0,n,0,right,left,left,right,NA,577,1198,12630,577,NA,2,legacy,6,1024,2,48000,-16,experiment,3,odd,7,337142,333752,334898,3211,92998,334910,NA,NA,3231,80365,339156,339735,335926,4440,339155,NA,NA,Sternberg task,53,33484,53,yes,1024
100,100,628.0185185,628.0185185,black,experiment,legacy,legacy,legacy,0,uniform,1,undefined,1,left,53,53,53,0,0,53,NA,53,0,0,53,53,53,0,53,0,NA,Tue Oct 22 16:04:29 2019,The main experiment item,yes,Sternbergtask.osexp,/Users/danielrazo0311/Desktop,no,mono,no,18,no,white,no,yes,768,legacy,41,11,/Users/danielrazo0311/Desktop/subject-3.csv,legacy,8,Kafkaesque Koffka,3.2.8,1,y,0,left,left,left,left,NA,429,1198,12630,429,NA,2,legacy,1,1024,2,48000,-16,experiment,3,odd,8,343139,339751,340896,3211,92998,340908,NA,NA,3231,80365,345152,345584,341923,4440,345152,NA,NA,Sternberg task,54,33913,54,yes,1024
100,100,630.3454545,630.3454545,black,experiment,legacy,legacy,legacy,0,uniform,1,undefined,1,right,54,54,54,0,0,54,NA,54,0,0,54,54,54,0,54,0,NA,Tue Oct 22 16:04:29 2019,The main experiment item,yes,Sternbergtask.osexp,/Users/danielrazo0311/Desktop,no,mono,no,18,no,white,no,yes,768,legacy,42,11,/Users/danielrazo0311/Desktop/subject-3.csv,legacy,4 1,Kafkaesque Koffka,3.2.8,0,n,0,right,left,left,right,NA,756,1198,12630,756,NA,2,legacy,2,1024,2,48000,-16,experiment,3,odd,6,348989,345599,346747,3211,92998,346759,NA,NA,3231,80365,351001,351760,347773,4440,351001,NA,NA,Sternberg task,55,34669,55,yes,1024
100,100,628.5178571,628.5178571,black,experiment,legacy,legacy,legacy,0,uniform,1,undefined,1,right,55,55,55,0,0,55,NA,55,0,0,55,55,55,0,55,0,NA,Tue Oct 22 16:04:29 2019,The main experiment item,yes,Sternbergtask.osexp,/Users/danielrazo0311/Desktop,no,mono,no,18,no,white,no,yes,768,legacy,43,11,/Users/danielrazo0311/Desktop/subject-3.csv,legacy,2 8 6 3 1,Kafkaesque Koffka,3.2.8,0,n,0,right,left,left,right,NA,528,1198,12630,528,NA,2,legacy,5,1024,2,48000,-16,experiment,3,odd,7,355167,351776,352928,3211,92998,352940,NA,NA,3231,80365,357180,357711,353953,4440,357180,NA,NA,Sternberg task,56,35197,56,yes,1024
100,100,629.1929825,629.1929825,black,experiment,legacy,legacy,legacy,0,uniform,1,undefined,1,left,56,56,56,0,0,56,NA,56,0,0,56,56,56,0,56,0,NA,Tue Oct 22 16:04:29 2019,The main experiment item,yes,Sternbergtask.osexp,/Users/danielrazo0311/Desktop,no,mono,no,18,no,white,no,yes,768,legacy,44,11,/Users/danielrazo0311/Desktop/subject-3.csv,legacy,7 6,Kafkaesque Koffka,3.2.8,2,y,0,left,left,left,left,NA,667,1198,12630,667,NA,2,legacy,2,1024,2,48000,-16,experiment,3,odd,6,361115,357727,358873,3211,92998,358885,NA,NA,3231,80365,363129,363800,359900,4440,363129,NA,NA,Sternberg task,57,35864,57,yes,1024
100,100,626.6551724,626.6551724,black,experiment,legacy,legacy,legacy,0,uniform,1,undefined,1,right,57,57,57,0,0,57,NA,57,0,0,57,57,57,0,57,0,NA,Tue Oct 22 16:04:29 2019,The main experiment item,yes,Sternbergtask.osexp,/Users/danielrazo0311/Desktop,no,mono,no,18,no,white,no,yes,768,legacy,45,11,/Users/danielrazo0311/Desktop/subject-3.csv,legacy,3 9 1,Kafkaesque Koffka,3.2.8,0,n,0,right,left,left,right,NA,482,1198,12630,482,NA,2,legacy,3,1024,2,48000,-16,experiment,3,odd,7,367222,363822,364983,3211,92998,364995,NA,NA,3231,80365,369234,369720,366008,4440,369234,NA,NA,Sternberg task,58,36346,58,yes,1024
100,100,624.1694915,624.1694915,black,experiment,legacy,legacy,legacy,0,uniform,1,undefined,1,right,58,58,58,0,0,58,NA,58,0,0,58,58,58,0,58,0,NA,Tue Oct 22 16:04:29 2019,The main experiment item,yes,Sternbergtask.osexp,/Users/danielrazo0311/Desktop,no,mono,no,18,no,white,no,yes,768,legacy,46,11,/Users/danielrazo0311/Desktop/subject-3.csv,legacy,1 7 8 3 9,Kafkaesque Koffka,3.2.8,0,n,0,right,left,left,right,NA,480,1198,12630,480,NA,2,legacy,5,1024,2,48000,-16,experiment,3,odd,2,373126,369737,370884,3211,92998,370896,NA,NA,3231,80365,375140,375623,371910,4440,375140,NA,NA,Sternberg task,59,36826,59,yes,1024
100,100,623.5,623.5,black,experiment,legacy,legacy,legacy,0,uniform,1,undefined,1,right,59,59,59,0,0,59,NA,59,0,0,59,59,59,0,59,0,NA,Tue Oct 22 16:04:29 2019,The main experiment item,yes,Sternbergtask.osexp,/Users/danielrazo0311/Desktop,no,mono,no,18,no,white,no,yes,768,legacy,47,11,/Users/danielrazo0311/Desktop/subject-3.csv,legacy,7 4 2 8 1 9,Kafkaesque Koffka,3.2.8,0,n,0,right,left,left,right,NA,584,1198,12630,584,NA,2,legacy,6,1024,2,48000,-16,experiment,3,odd,5,379032,375639,376788,3211,92998,376800,NA,NA,3231,80365,381044,381632,377814,4440,381044,NA,NA,Sternberg task,60,37410,60,yes,1024
100,100,625.0327869,625.0327869,black,experiment,legacy,legacy,legacy,0,uniform,1,undefined,1,right,60,60,60,0,0,60,NA,60,0,0,60,60,60,0,60,0,NA,Tue Oct 22 16:04:29 2019,The main experiment item,yes,Sternbergtask.osexp,/Users/danielrazo0311/Desktop,no,mono,no,18,no,white,no,yes,768,legacy,48,11,/Users/danielrazo0311/Desktop/subject-3.csv,legacy,1 8 7,Kafkaesque Koffka,3.2.8,0,n,0,right,left,left,right,NA,717,1198,12630,717,NA,2,legacy,3,1024,2,48000,-16,experiment,3,odd,4,385042,381652,382799,3211,92998,382811,NA,NA,3231,80365,387055,387774,383826,4440,387054,NA,NA,Sternberg task,61,38127,61,yes,1024
100,100,623.016129,623.016129,black,experiment,legacy,legacy,legacy,0,uniform,1,undefined,1,left,61,61,61,0,0,61,NA,61,0,0,61,61,61,0,61,0,NA,Tue Oct 22 16:04:29 2019,The main experiment item,yes,Sternbergtask.osexp,/Users/danielrazo0311/Desktop,no,mono,no,18,no,white,no,yes,768,legacy,49,11,/Users/danielrazo0311/Desktop/subject-3.csv,legacy,4 6 5 8,Kafkaesque Koffka,3.2.8,1,y,0,left,left,left,left,NA,500,1198,12630,500,NA,2,legacy,4,1024,2,48000,-16,experiment,3,odd,4,391180,387789,388937,3211,92998,388950,NA,NA,3231,80365,393192,393696,389964,4440,393192,NA,NA,Sternberg task,62,38627,62,yes,1024
98.41269841,98.41269841,630.015873,630.015873,black,experiment,legacy,legacy,legacy,0,uniform,0,undefined,0,left,62,62,62,0,0,62,NA,62,0,0,62,62,62,0,62,0,NA,Tue Oct 22 16:04:29 2019,The main experiment item,yes,Sternbergtask.osexp,/Users/danielrazo0311/Desktop,no,mono,no,18,no,white,no,yes,768,legacy,50,11,/Users/danielrazo0311/Desktop/subject-3.csv,legacy,3 5 4 7,Kafkaesque Koffka,3.2.8,1,y,0,right,left,left,right,NA,1064,1198,12630,1064,NA,2,legacy,4,1024,2,48000,-16,experiment,3,odd,3,397118,393729,394876,3211,92998,394888,NA,NA,3231,80365,399131,400199,395902,4440,399131,NA,NA,Sternberg task,62,39691,63,yes,1024
98.4375,98.4375,635.21875,635.21875,black,experiment,legacy,legacy,legacy,0,uniform,1,undefined,1,left,63,63,63,0,0,63,NA,63,0,0,63,63,63,0,63,0,NA,Tue Oct 22 16:04:29 2019,The main experiment item,yes,Sternbergtask.osexp,/Users/danielrazo0311/Desktop,no,mono,no,18,no,white,no,yes,768,legacy,51,11,/Users/danielrazo0311/Desktop/subject-3.csv,legacy,3 2 1 4 7,Kafkaesque Koffka,3.2.8,2,y,0,left,left,left,left,NA,963,1198,12630,963,NA,2,legacy,5,1024,2,48000,-16,experiment,3,odd,2,403618,393729,401377,3211,92998,401390,NA,400229,3231,80365,405632,406600,402404,4440,405632,NA,NA,Sternberg task,63,40654,64,yes,1024
98.46153846,98.46153846,632.5846154,632.5846154,black,experiment,legacy,legacy,legacy,0,uniform,1,undefined,1,right,64,64,64,0,0,64,NA,64,0,0,64,64,64,0,64,0,NA,Tue Oct 22 16:04:29 2019,The main experiment item,yes,Sternbergtask.osexp,/Users/danielrazo0311/Desktop,no,mono,no,18,no,white,no,yes,768,legacy,52,11,/Users/danielrazo0311/Desktop/subject-3.csv,legacy,4 8 1 2,Kafkaesque Koffka,3.2.8,0,n,0,right,left,left,right,NA,464,1198,12630,464,NA,2,legacy,4,1024,2,48000,-16,experiment,3,odd,7,410000,406616,407761,3211,92998,407773,NA,400229,3231,80365,412012,412479,408785,4440,412011,NA,NA,Sternberg task,64,41118,65,yes,1024
98.48484848,98.48484848,630.2272727,630.2272727,black,experiment,legacy,legacy,legacy,0,uniform,1,undefined,1,right,65,65,65,0,0,65,NA,65,0,0,65,65,65,0,65,0,NA,Tue Oct 22 16:04:29 2019,The main experiment item,yes,Sternbergtask.osexp,/Users/danielrazo0311/Desktop,no,mono,no,18,no,white,no,yes,768,legacy,53,11,/Users/danielrazo0311/Desktop/subject-3.csv,legacy,8 2 1 4 5 9,Kafkaesque Koffka,3.2.8,0,n,0,right,left,left,right,NA,477,1198,12630,477,NA,2,legacy,6,1024,2,48000,-16,experiment,3,odd,7,415889,412495,413648,3211,92998,413660,NA,400229,3231,80365,417902,418382,414674,4440,417902,NA,NA,Sternberg task,65,41595,66,yes,1024
98.50746269,98.50746269,627.6119403,627.6119403,black,experiment,legacy,legacy,legacy,0,uniform,1,undefined,1,right,66,66,66,0,0,66,NA,66,0,0,66,66,66,0,66,0,NA,Tue Oct 22 16:04:29 2019,The main experiment item,yes,Sternbergtask.osexp,/Users/danielrazo0311/Desktop,no,mono,no,18,no,white,no,yes,768,legacy,54,11,/Users/danielrazo0311/Desktop/subject-3.csv,legacy,5 7 3,Kafkaesque Koffka,3.2.8,0,n,0,right,left,left,right,NA,455,1198,12630,455,NA,2,legacy,3,1024,2,48000,-16,experiment,3,odd,9,421783,418398,419543,3211,92998,419555,NA,400229,3231,80365,423796,424254,420569,4440,423795,NA,NA,Sternberg task,66,42050,67,yes,1024
98.52941176,98.52941176,628.6911765,628.6911765,black,experiment,legacy,legacy,legacy,0,uniform,1,undefined,1,right,67,67,67,0,0,67,NA,67,0,0,67,67,67,0,67,0,NA,Tue Oct 22 16:04:29 2019,The main experiment item,yes,Sternbergtask.osexp,/Users/danielrazo0311/Desktop,no,mono,no,18,no,white,no,yes,768,legacy,55,11,/Users/danielrazo0311/Desktop/subject-3.csv,legacy,2 8 9 4 1,Kafkaesque Koffka,3.2.8,0,n,0,right,left,left,right,NA,701,1198,12630,701,NA,2,legacy,5,1024,2,48000,-16,experiment,3,odd,5,427666,424270,425419,3211,92998,425431,NA,400229,3231,80365,429678,430383,426446,4440,429678,NA,NA,Sternberg task,67,42751,68,yes,1024
98.55072464,98.55072464,628.8550725,628.8550725,black,experiment,legacy,legacy,legacy,0,uniform,1,undefined,1,right,68,68,68,0,0,68,NA,68,0,0,68,68,68,0,68,0,NA,Tue Oct 22 16:04:29 2019,The main experiment item,yes,Sternbergtask.osexp,/Users/danielrazo0311/Desktop,no,mono,no,18,no,white,no,yes,768,legacy,56,11,/Users/danielrazo0311/Desktop/subject-3.csv,legacy,2 5 1 4,Kafkaesque Koffka,3.2.8,0,n,0,right,left,left,right,NA,640,1198,12630,640,NA,2,legacy,4,1024,2,48000,-16,experiment,3,odd,6,433789,430400,431548,3211,92998,431560,NA,400229,3231,80365,435803,436446,432574,4440,435803,NA,NA,Sternberg task,68,43391,69,yes,1024
97.14285714,97.14285714,647.1,647.1,black,experiment,legacy,legacy,legacy,0,uniform,0,undefined,0,left,69,69,69,0,0,69,NA,69,0,0,69,69,69,0,69,0,NA,Tue Oct 22 16:04:29 2019,The main experiment item,yes,Sternbergtask.osexp,/Users/danielrazo0311/Desktop,no,mono,no,18,no,white,no,yes,768,legacy,57,11,/Users/danielrazo0311/Desktop/subject-3.csv,legacy,9 1 7 2,Kafkaesque Koffka,3.2.8,2,y,0,right,left,left,right,NA,1906,1198,12630,1906,NA,2,legacy,4,1024,2,48000,-16,experiment,3,odd,1,439851,436461,437609,3211,92998,437621,NA,400229,3231,80365,441864,443774,438634,4440,441864,NA,NA,Sternberg task,68,45297,70,yes,1024
97.18309859,97.18309859,654.8591549,654.8591549,black,experiment,legacy,legacy,legacy,0,uniform,1,undefined,1,left,70,70,70,0,0,70,NA,70,0,0,70,70,70,0,70,0,NA,Tue Oct 22 16:04:29 2019,The main experiment item,yes,Sternbergtask.osexp,/Users/danielrazo0311/Desktop,no,mono,no,18,no,white,no,yes,768,legacy,58,11,/Users/danielrazo0311/Desktop/subject-3.csv,legacy,8 9 6 1,Kafkaesque Koffka,3.2.8,2,y,0,left,left,left,left,NA,1198,1198,12630,1198,NA,2,legacy,4,1024,2,48000,-16,experiment,3,odd,9,447184,436461,444941,3211,92998,444953,NA,443790,3231,80365,449196,450397,445967,4440,449196,NA,NA,Sternberg task,69,46495,71,yes,1024
97.22222222,97.22222222,653,653,black,experiment,legacy,legacy,legacy,0,uniform,1,undefined,1,left,71,71,71,0,0,71,NA,71,0,0,71,71,71,0,71,0,NA,Tue Oct 22 16:04:29 2019,The main experiment item,yes,Sternbergtask.osexp,/Users/danielrazo0311/Desktop,no,mono,no,18,no,white,no,yes,768,legacy,59,11,/Users/danielrazo0311/Desktop/subject-3.csv,legacy,4 3 2 5 8,Kafkaesque Koffka,3.2.8,2,y,0,left,left,left,left,NA,521,1198,12630,521,NA,2,legacy,5,1024,2,48000,-16,experiment,3,odd,3,453804,450413,451560,3211,92998,451573,NA,443790,3231,80365,455817,456341,452588,4440,455817,NA,NA,Sternberg task,70,47016,72,yes,1024
97.26027397,97.26027397,650.6986301,650.6986301,black,experiment,legacy,legacy,legacy,0,uniform,1,undefined,1,right,72,72,72,0,0,72,NA,72,0,0,72,72,72,0,72,0,NA,Tue Oct 22 16:04:29 2019,The main experiment item,yes,Sternbergtask.osexp,/Users/danielrazo0311/Desktop,no,mono,no,18,no,white,no,yes,768,legacy,60,11,/Users/danielrazo0311/Desktop/subject-3.csv,legacy,9 8 2 7 4,Kafkaesque Koffka,3.2.8,0,n,0,right,left,left,right,NA,485,1198,12630,485,NA,2,legacy,5,1024,2,48000,-16,experiment,3,odd,5,459744,456356,457504,3211,92998,457517,NA,443790,3231,80365,461757,462245,458529,4440,461756,NA,NA,Sternberg task,71,47501,73,yes,1024
97.2972973,97.2972973,652.5,652.5,black,experiment,legacy,legacy,legacy,0,uniform,1,undefined,1,right,73,73,73,0,0,73,NA,73,0,0,73,73,73,0,73,0,NA,Tue Oct 22 16:04:29 2019,The main experiment item,yes,Sternbergtask.osexp,/Users/danielrazo0311/Desktop,no,mono,no,18,no,white,no,yes,768,legacy,61,11,/Users/danielrazo0311/Desktop/subject-3.csv,legacy,5 3 2 6 9 8,Kafkaesque Koffka,3.2.8,0,n,0,right,left,left,right,NA,784,1198,12630,784,NA,2,legacy,6,1024,2,48000,-16,experiment,3,odd,4,465653,462262,463413,3211,92998,463425,NA,443790,3231,80365,467666,468453,464438,4440,467666,NA,NA,Sternberg task,72,48285,74,yes,1024
97.33333333,97.33333333,652.3466667,652.3466667,black,experiment,legacy,legacy,legacy,0,uniform,1,undefined,1,right,74,74,74,0,0,74,NA,74,0,0,74,74,74,0,74,0,NA,Tue Oct 22 16:04:29 2019,The main experiment item,yes,Sternbergtask.osexp,/Users/danielrazo0311/Desktop,no,mono,no,18,no,white,no,yes,768,legacy,62,11,/Users/danielrazo0311/Desktop/subject-3.csv,legacy,5 9 2 3,Kafkaesque Koffka,3.2.8,0,n,0,right,left,left,right,NA,641,1198,12630,641,NA,2,legacy,4,1024,2,48000,-16,experiment,3,odd,8,471860,468471,469616,3211,92998,469629,NA,443790,3231,80365,473873,474518,470643,4440,473872,NA,NA,Sternberg task,73,48926,75,yes,1024
97.36842105,97.36842105,652.8157895,652.8157895,black,experiment,legacy,legacy,legacy,0,uniform,1,undefined,1,left,75,75,75,0,0,75,NA,75,0,0,75,75,75,0,75,0,NA,Tue Oct 22 16:04:29 2019,The main experiment item,yes,Sternbergtask.osexp,/Users/danielrazo0311/Desktop,no,mono,no,18,no,white,no,yes,768,legacy,63,11,/Users/danielrazo0311/Desktop/subject-3.csv,legacy,9 1 6 7 8,Kafkaesque Koffka,3.2.8,1,y,0,left,left,left,left,NA,688,1198,12630,688,NA,2,legacy,5,1024,2,48000,-16,experiment,3,odd,9,477933,474537,475689,3211,92998,475701,NA,443790,3231,80365,479946,480637,476719,4440,479946,NA,NA,Sternberg task,74,49614,76,yes,1024
97.4025974,97.4025974,651.4675325,651.4675325,black,experiment,legacy,legacy,legacy,0,uniform,1,undefined,1,right,76,76,76,0,0,76,NA,76,0,0,76,76,76,0,76,0,NA,Tue Oct 22 16:04:29 2019,The main experiment item,yes,Sternbergtask.osexp,/Users/danielrazo0311/Desktop,no,mono,no,18,no,white,no,yes,768,legacy,64,11,/Users/danielrazo0311/Desktop/subject-3.csv,legacy,7 3 2 8,Kafkaesque Koffka,3.2.8,0,n,0,right,left,left,right,NA,549,1198,12630,549,NA,2,legacy,4,1024,2,48000,-16,experiment,3,odd,4,484040,480653,481800,3211,92998,481812,NA,443790,3231,80365,486052,486605,482826,4440,486052,NA,NA,Sternberg task,75,50163,77,yes,1024
97.43589744,97.43589744,652.8846154,652.8846154,black,experiment,legacy,legacy,legacy,0,uniform,1,undefined,1,left,77,77,77,0,0,77,NA,77,0,0,77,77,77,0,77,0,NA,Tue Oct 22 16:04:29 2019,The main experiment item,yes,Sternbergtask.osexp,/Users/danielrazo0311/Desktop,no,mono,no,18,no,white,no,yes,768,legacy,65,11,/Users/danielrazo0311/Desktop/subject-3.csv,legacy,9 6 2 4 1,Kafkaesque Koffka,3.2.8,4,y,0,left,left,left,left,NA,762,1198,12630,762,NA,2,legacy,5,1024,2,48000,-16,experiment,3,odd,4,490026,486624,487784,3211,92998,487796,NA,443790,3231,80365,492039,492805,488811,4440,492038,NA,NA,Sternberg task,76,50925,78,yes,1024
97.46835443,97.46835443,657.7088608,657.7088608,black,experiment,legacy,legacy,legacy,0,uniform,1,undefined,1,right,78,78,78,0,0,78,NA,78,0,0,78,78,78,0,78,0,NA,Tue Oct 22 16:04:29 2019,The main experiment item,yes,Sternbergtask.osexp,/Users/danielrazo0311/Desktop,no,mono,no,18,no,white,no,yes,768,legacy,66,11,/Users/danielrazo0311/Desktop/subject-3.csv,legacy,7 1 8 4 9 3,Kafkaesque Koffka,3.2.8,0,n,0,right,left,left,right,NA,1034,1198,12630,1034,NA,2,legacy,6,1024,2,48000,-16,experiment,3,odd,6,496209,492820,493967,3211,92998,493979,NA,443790,3231,80365,498223,499261,494994,4440,498222,NA,NA,Sternberg task,77,51959,79,yes,1024
97.5,97.5,665.85,665.85,black,experiment,legacy,legacy,legacy,0,uniform,1,undefined,1,left,79,79,79,0,0,79,NA,79,0,0,79,79,79,0,79,0,NA,Tue Oct 22 16:04:29 2019,The main experiment item,yes,Sternbergtask.osexp,/Users/danielrazo0311/Desktop,no,mono,no,18,no,white,no,yes,768,legacy,67,11,/Users/danielrazo0311/Desktop/subject-3.csv,legacy,3 4 9 6 2 9,Kafkaesque Koffka,3.2.8,5,y,0,left,left,left,left,NA,1309,1198,12630,1309,NA,2,legacy,6,1024,2,48000,-16,experiment,3,odd,2,502664,499277,500423,3211,92998,500435,NA,443790,3231,80365,504677,505989,501448,4440,504677,NA,NA,Sternberg task,78,53268,80,yes,1024
97.5308642,97.5308642,665.0617284,665.0617284,black,experiment,legacy,legacy,legacy,0,uniform,1,undefined,1,left,80,80,80,0,0,80,NA,80,0,0,80,80,80,0,80,0,NA,Tue Oct 22 16:04:29 2019,The main experiment item,yes,Sternbergtask.osexp,/Users/danielrazo0311/Desktop,no,mono,no,18,no,white,no,yes,768,legacy,68,11,/Users/danielrazo0311/Desktop/subject-3.csv,legacy,3 9 6 2,Kafkaesque Koffka,3.2.8,4,y,0,left,left,left,left,NA,602,1198,12630,602,NA,2,legacy,4,1024,2,48000,-16,experiment,3,odd,2,509393,506004,507155,3211,92998,507167,NA,443790,3231,80365,511407,512012,508180,4440,511407,NA,NA,Sternberg task,79,53870,81,yes,1024
97.56097561,97.56097561,663.0487805,663.0487805,black,experiment,legacy,legacy,legacy,0,uniform,1,undefined,1,right,81,81,81,0,0,81,NA,81,0,0,81,81,81,0,81,0,NA,Tue Oct 22 16:04:29 2019,The main experiment item,yes,Sternbergtask.osexp,/Users/danielrazo0311/Desktop,no,mono,no,18,no,white,no,yes,768,legacy,69,11,/Users/danielrazo0311/Desktop/subject-3.csv,legacy,2 8 9,Kafkaesque Koffka,3.2.8,0,n,0,right,left,left,right,NA,500,1198,12630,500,NA,2,legacy,3,1024,2,48000,-16,experiment,3,odd,6,515415,512028,513175,3211,92998,513187,NA,443790,3231,80365,517429,517932,514201,4440,517429,NA,NA,Sternberg task,80,54370,82,yes,1024
97.59036145,97.59036145,661.5421687,661.5421687,black,experiment,legacy,legacy,legacy,0,uniform,1,undefined,1,right,82,82,82,0,0,82,NA,82,0,0,82,82,82,0,82,0,NA,Tue Oct 22 16:04:29 2019,The main experiment item,yes,Sternbergtask.osexp,/Users/danielrazo0311/Desktop,no,mono,no,18,no,white,no,yes,768,legacy,70,11,/Users/danielrazo0311/Desktop/subject-3.csv,legacy,1 7 5 2,Kafkaesque Koffka,3.2.8,0,n,0,right,left,left,right,NA,538,1198,12630,538,NA,2,legacy,4,1024,2,48000,-16,experiment,3,odd,3,521338,517951,519098,3211,92998,519110,NA,443790,3231,80365,523351,523892,520124,4440,523351,NA,NA,Sternberg task,81,54908,83,yes,1024
96.42857143,96.42857143,677.4880952,677.4880952,black,experiment,legacy,legacy,legacy,0,uniform,0,undefined,0,left,83,83,83,0,0,83,NA,83,0,0,83,83,83,0,83,0,NA,Tue Oct 22 16:04:29 2019,The main experiment item,yes,Sternbergtask.osexp,/Users/danielrazo0311/Desktop,no,mono,no,18,no,white,no,yes,768,legacy,71,11,/Users/danielrazo0311/Desktop/subject-3.csv,legacy,7 1 8 5 6 2,Kafkaesque Koffka,3.2.8,2,y,0,None,left,left,None,NA,2001,1198,12630,2001,NA,2,legacy,6,1024,2,48000,-16,experiment,3,odd,1,527295,523908,525055,3211,92998,525068,NA,443790,3231,80365,529308,531310,526083,4440,529308,NA,NA,Sternberg task,81,56909,84,yes,1024
96.47058824,96.47058824,676.8470588,676.8470588,black,experiment,legacy,legacy,legacy,0,uniform,1,undefined,1,left,84,84,84,0,0,84,NA,84,0,0,84,84,84,0,84,0,NA,Tue Oct 22 16:04:29 2019,The main experiment item,yes,Sternbergtask.osexp,/Users/danielrazo0311/Desktop,no,mono,no,18,no,white,no,yes,768,legacy,72,11,/Users/danielrazo0311/Desktop/subject-3.csv,legacy,5 2 9 6 1 7,Kafkaesque Koffka,3.2.8,3,y,0,left,left,left,left,NA,623,1198,12630,623,NA,2,legacy,6,1024,2,48000,-16,experiment,3,odd,9,534716,523908,532473,3211,92998,532487,NA,531326,3231,80365,536729,537355,533500,4440,536729,NA,NA,Sternberg task,82,57532,85,yes,1024
95.34883721,95.34883721,676.8953488,676.8953488,black,experiment,legacy,legacy,legacy,0,uniform,0,undefined,0,right,85,85,85,0,0,85,NA,85,0,0,85,85,85,0,85,0,NA,Tue Oct 22 16:04:29 2019,The main experiment item,yes,Sternbergtask.osexp,/Users/danielrazo0311/Desktop,no,mono,no,18,no,white,no,yes,768,legacy,73,11,/Users/danielrazo0311/Desktop/subject-3.csv,legacy,8 4 3 5,Kafkaesque Koffka,3.2.8,0,n,0,left,left,left,left,NA,681,1198,12630,681,NA,2,legacy,4,1024,2,48000,-16,experiment,3,odd,6,540762,537372,538524,3211,92998,538536,NA,531326,3231,80365,542775,543459,539550,4440,542774,NA,NA,Sternberg task,82,58213,86,yes,1024
94.25287356,94.25287356,678.7241379,678.7241379,black,experiment,legacy,legacy,legacy,0,uniform,0,undefined,0,right,86,86,86,0,0,86,NA,86,0,0,86,86,86,0,86,0,NA,Tue Oct 22 16:04:29 2019,The main experiment item,yes,Sternbergtask.osexp,/Users/danielrazo0311/Desktop,no,mono,no,18,no,white,no,yes,768,legacy,74,11,/Users/danielrazo0311/Desktop/subject-3.csv,legacy,7 1 5 6 3,Kafkaesque Koffka,3.2.8,0,n,0,left,left,left,left,NA,836,1198,12630,836,NA,2,legacy,5,1024,2,48000,-16,experiment,3,odd,8,546863,537372,544621,3211,92998,544633,NA,543475,3231,80365,548876,549715,545646,4440,548876,NA,NA,Sternberg task,82,59049,87,yes,1024
94.31818182,94.31818182,684.0795455,684.0795455,black,experiment,legacy,legacy,legacy,0,uniform,1,undefined,1,right,87,87,87,0,0,87,NA,87,0,0,87,87,87,0,87,0,NA,Tue Oct 22 16:04:29 2019,The main experiment item,yes,Sternbergtask.osexp,/Users/danielrazo0311/Desktop,no,mono,no,18,no,white,no,yes,768,legacy,75,11,/Users/danielrazo0311/Desktop/subject-3.csv,legacy,7 6 4 8 1 2,Kafkaesque Koffka,3.2.8,0,n,0,right,left,left,right,NA,1150,1198,12630,1150,NA,2,legacy,6,1024,2,48000,-16,experiment,3,odd,9,553118,537372,550877,3211,92998,550889,NA,549731,3231,80365,555130,556283,551903,4440,555130,NA,NA,Sternberg task,83,60199,88,yes,1024
94.38202247,94.38202247,682,682,black,experiment,legacy,legacy,legacy,0,uniform,1,undefined,1,left,88,88,88,0,0,88,NA,88,0,0,88,88,88,0,88,0,NA,Tue Oct 22 16:04:29 2019,The main experiment item,yes,Sternbergtask.osexp,/Users/danielrazo0311/Desktop,no,mono,no,18,no,white,no,yes,768,legacy,76,11,/Users/danielrazo0311/Desktop/subject-3.csv,legacy,2 4 8 5 1 3,Kafkaesque Koffka,3.2.8,1,y,0,left,left,left,left,NA,499,1198,12630,499,NA,2,legacy,6,1024,2,48000,-16,experiment,3,odd,2,559688,556299,557447,3211,92998,557459,NA,549731,3231,80365,561701,562203,558471,4440,561701,NA,NA,Sternberg task,84,60698,89,yes,1024
94.44444444,94.44444444,681.0666667,681.0666667,black,experiment,legacy,legacy,legacy,0,uniform,1,undefined,1,right,89,89,89,0,0,89,NA,89,0,0,89,89,89,0,89,0,NA,Tue Oct 22 16:04:29 2019,The main experiment item,yes,Sternbergtask.osexp,/Users/danielrazo0311/Desktop,no,mono,no,18,no,white,no,yes,768,legacy,77,11,/Users/danielrazo0311/Desktop/subject-3.csv,legacy,6 2 9 3 8 4,Kafkaesque Koffka,3.2.8,0,n,0,right,left,left,right,NA,598,1198,12630,598,NA,2,legacy,6,1024,2,48000,-16,experiment,3,odd,1,565613,562220,563372,3211,92998,563384,NA,549731,3231,80365,567626,568227,564399,4440,567626,NA,NA,Sternberg task,85,61296,90,yes,1024
93.40659341,93.40659341,678.9010989,678.9010989,black,experiment,legacy,legacy,legacy,0,uniform,0,undefined,0,right,90,90,90,0,0,90,NA,90,0,0,90,90,90,0,90,0,NA,Tue Oct 22 16:04:29 2019,The main experiment item,yes,Sternbergtask.osexp,/Users/danielrazo0311/Desktop,no,mono,no,18,no,white,no,yes,768,legacy,78,11,/Users/danielrazo0311/Desktop/subject-3.csv,legacy,6 7 5 9,Kafkaesque Koffka,3.2.8,0,n,0,left,left,left,left,NA,484,1198,12630,484,NA,2,legacy,4,1024,2,48000,-16,experiment,3,odd,2,571629,568243,569389,3211,92998,569402,NA,549731,3231,80365,573643,574131,570415,4440,573643,NA,NA,Sternberg task,85,61780,91,yes,1024
93.47826087,93.47826087,676.9565217,676.9565217,black,experiment,legacy,legacy,legacy,0,uniform,1,undefined,1,left,91,91,91,0,0,91,NA,91,0,0,91,91,91,0,91,0,NA,Tue Oct 22 16:04:29 2019,The main experiment item,yes,Sternbergtask.osexp,/Users/danielrazo0311/Desktop,no,mono,no,18,no,white,no,yes,768,legacy,79,11,/Users/danielrazo0311/Desktop/subject-3.csv,legacy,8 7 3,Kafkaesque Koffka,3.2.8,1,y,0,left,left,left,left,NA,500,1198,12630,500,NA,2,legacy,3,1024,2,48000,-16,experiment,3,odd,8,577550,568243,575308,3211,92998,575321,NA,574162,3231,80365,579563,580068,576335,4440,579563,NA,NA,Sternberg task,86,62280,92,yes,1024
92.47311828,92.47311828,676.7956989,676.7956989,black,experiment,legacy,legacy,legacy,0,uniform,0,undefined,0,left,92,92,92,0,0,92,NA,92,0,0,92,92,92,0,92,0,NA,Tue Oct 22 16:04:29 2019,The main experiment item,yes,Sternbergtask.osexp,/Users/danielrazo0311/Desktop,no,mono,no,18,no,white,no,yes,768,legacy,80,11,/Users/danielrazo0311/Desktop/subject-3.csv,legacy,8 5 4 7 3 1,Kafkaesque Koffka,3.2.8,2,y,0,right,left,left,right,NA,662,1198,12630,662,NA,2,legacy,6,1024,2,48000,-16,experiment,3,odd,5,583476,580084,581232,3211,92998,581244,NA,574162,3231,80365,585489,586156,582259,4440,585489,NA,NA,Sternberg task,86,62942,93,yes,1024
91.4893617,91.4893617,675.0212766,675.0212766,black,experiment,legacy,legacy,legacy,0,uniform,0,undefined,0,right,93,93,93,0,0,93,NA,93,0,0,93,93,93,0,93,0,NA,Tue Oct 22 16:04:29 2019,The main experiment item,yes,Sternbergtask.osexp,/Users/danielrazo0311/Desktop,no,mono,no,18,no,white,no,yes,768,legacy,81,11,/Users/danielrazo0311/Desktop/subject-3.csv,legacy,1 6 4 3 9 7,Kafkaesque Koffka,3.2.8,0,n,0,left,left,left,left,NA,510,1198,12630,510,NA,2,legacy,6,1024,2,48000,-16,experiment,3,odd,8,589563,580084,587320,3211,92998,587332,NA,586172,3231,80365,591577,592090,588345,4440,591576,NA,NA,Sternberg task,86,63452,94,yes,1024
91.57894737,91.57894737,674.3789474,674.3789474,black,experiment,legacy,legacy,legacy,0,uniform,1,undefined,1,left,94,94,94,0,0,94,NA,94,0,0,94,94,94,0,94,0,NA,Tue Oct 22 16:04:29 2019,The main experiment item,yes,Sternbergtask.osexp,/Users/danielrazo0311/Desktop,no,mono,no,18,no,white,no,yes,768,legacy,82,11,/Users/danielrazo0311/Desktop/subject-3.csv,legacy,7 8 4 6 9 5,Kafkaesque Koffka,3.2.8,4,y,0,left,left,left,left,NA,614,1198,12630,614,NA,2,legacy,6,1024,2,48000,-16,experiment,3,odd,6,595493,580084,593256,3211,92998,593269,NA,592107,3231,80365,597505,598124,594281,4440,597505,NA,NA,Sternberg task,87,64066,95,yes,1024
91.66666667,91.66666667,677.53125,677.53125,black,experiment,legacy,legacy,legacy,0,uniform,1,undefined,1,right,95,95,95,0,0,95,NA,95,0,0,95,95,95,0,95,0,NA,Tue Oct 22 16:04:29 2019,The main experiment item,yes,Sternbergtask.osexp,/Users/danielrazo0311/Desktop,no,mono,no,18,no,white,no,yes,768,legacy,83,11,/Users/danielrazo0311/Desktop/subject-3.csv,legacy,7 8 6 1,Kafkaesque Koffka,3.2.8,0,n,0,right,left,left,right,NA,977,1198,12630,977,NA,2,legacy,4,1024,2,48000,-16,experiment,3,odd,3,601529,598140,599285,3211,92998,599298,NA,592107,3231,80365,603542,604523,600313,4440,603541,NA,NA,Sternberg task,88,65043,96,yes,1024
91.75257732,91.75257732,676.185567,676.185567,black,experiment,legacy,legacy,legacy,0,uniform,1,undefined,1,right,96,96,96,0,0,96,NA,96,0,0,96,96,96,0,96,0,NA,Tue Oct 22 16:04:29 2019,The main experiment item,yes,Sternbergtask.osexp,/Users/danielrazo0311/Desktop,no,mono,no,18,no,white,no,yes,768,legacy,84,11,/Users/danielrazo0311/Desktop/subject-3.csv,legacy,6 3 1 7 9 8,Kafkaesque Koffka,3.2.8,0,n,0,right,left,left,right,NA,547,1198,12630,547,NA,2,legacy,6,1024,2,48000,-16,experiment,3,odd,4,607931,604541,605689,3211,92998,605701,NA,592107,3231,80365,609948,610498,606716,4440,609948,NA,NA,Sternberg task,89,65590,97,yes,1024
91.83673469,91.83673469,675.8877551,675.8877551,black,experiment,legacy,legacy,legacy,0,uniform,1,undefined,1,right,97,97,97,0,0,97,NA,97,0,0,97,97,97,0,97,0,NA,Tue Oct 22 16:04:29 2019,The main experiment item,yes,Sternbergtask.osexp,/Users/danielrazo0311/Desktop,no,mono,no,18,no,white,no,yes,768,legacy,85,11,/Users/danielrazo0311/Desktop/subject-3.csv,legacy,9 5 3 2 8 6,Kafkaesque Koffka,3.2.8,0,n,0,right,left,left,right,NA,647,1198,12630,647,NA,2,legacy,6,1024,2,48000,-16,experiment,3,odd,7,613908,610514,611669,3211,92998,611681,NA,592107,3231,80365,615920,616570,612695,4440,615920,NA,NA,Sternberg task,90,66237,98,yes,1024
91.91919192,91.91919192,681.4949495,681.4949495,black,experiment,legacy,legacy,legacy,0,uniform,1,undefined,1,right,98,98,98,0,0,98,NA,98,0,0,98,98,98,0,98,0,NA,Tue Oct 22 16:04:29 2019,The main experiment item,yes,Sternbergtask.osexp,/Users/danielrazo0311/Desktop,no,mono,no,18,no,white,no,yes,768,legacy,86,11,/Users/danielrazo0311/Desktop/subject-3.csv,legacy,2 8 7 9 5 3,Kafkaesque Koffka,3.2.8,0,n,0,right,left,left,right,NA,1231,1198,12630,1231,NA,2,legacy,6,1024,2,48000,-16,experiment,3,odd,6,619977,616585,617733,3211,92998,617745,NA,592107,3231,80365,621991,623226,618758,4440,621990,NA,NA,Sternberg task,91,67468,99,yes,1024
92,92,680.73,680.73,black,experiment,legacy,legacy,legacy,0,uniform,1,undefined,1,left,99,99,99,0,0,99,NA,99,0,0,99,99,99,0,99,0,NA,Tue Oct 22 16:04:29 2019,The main experiment item,yes,Sternbergtask.osexp,/Users/danielrazo0311/Desktop,no,mono,no,18,no,white,no,yes,768,legacy,87,11,/Users/danielrazo0311/Desktop/subject-3.csv,legacy,1 4 9 3 2 5,Kafkaesque Koffka,3.2.8,3,y,0,left,left,left,left,NA,605,1198,12630,605,NA,2,legacy,6,1024,2,48000,-16,experiment,3,odd,9,626637,623247,624395,3211,92998,624407,NA,592107,3231,80365,628649,629258,625421,4440,628649,NA,NA,Sternberg task,92,68073,100,yes,1024
92.07920792,92.07920792,686.4950495,686.4950495,black,experiment,legacy,legacy,legacy,0,uniform,1,undefined,1,left,100,100,100,0,0,100,NA,100,0,0,100,100,100,0,100,0,NA,Tue Oct 22 16:04:29 2019,The main experiment item,yes,Sternbergtask.osexp,/Users/danielrazo0311/Desktop,no,mono,no,18,no,white,no,yes,768,legacy,88,11,/Users/danielrazo0311/Desktop/subject-3.csv,legacy,7 4 2 6 3 5,Kafkaesque Koffka,3.2.8,6,y,0,left,left,left,left,NA,1263,1198,12630,1263,NA,2,legacy,6,1024,2,48000,-16,experiment,3,odd,5,632666,629274,630422,3211,92998,630434,NA,592107,3231,80365,634679,635947,631449,4440,634678,NA,NA,Sternberg task,93,69336,101,yes,1024
92.15686275,92.15686275,684.6078431,684.6078431,black,experiment,legacy,legacy,legacy,0,uniform,1,undefined,1,left,101,101,101,0,0,101,NA,101,0,0,101,101,101,0,101,0,NA,Tue Oct 22 16:04:29 2019,The main experiment item,yes,Sternbergtask.osexp,/Users/danielrazo0311/Desktop,no,mono,no,18,no,white,no,yes,768,legacy,89,11,/Users/danielrazo0311/Desktop/subject-3.csv,legacy,7,Kafkaesque Koffka,3.2.8,1,y,0,left,left,left,left,NA,494,1198,12630,494,NA,2,legacy,1,1024,2,48000,-16,experiment,3,odd,7,639348,635962,637108,3211,92998,637120,NA,592107,3231,80365,641360,641857,638133,4440,641360,NA,NA,Sternberg task,94,69830,102,yes,1024
92.23300971,92.23300971,683.407767,683.407767,black,experiment,legacy,legacy,legacy,0,uniform,1,undefined,1,right,102,102,102,0,0,102,NA,102,0,0,102,102,102,0,102,0,NA,Tue Oct 22 16:04:29 2019,The main experiment item,yes,Sternbergtask.osexp,/Users/danielrazo0311/Desktop,no,mono,no,18,no,white,no,yes,768,legacy,90,11,/Users/danielrazo0311/Desktop/subject-3.csv,legacy,7 9 1 6,Kafkaesque Koffka,3.2.8,0,n,0,right,left,left,right,NA,561,1198,12630,561,NA,2,legacy,4,1024,2,48000,-16,experiment,3,odd,4,645264,641876,643023,3211,92998,643035,NA,592107,3231,80365,647277,647842,644047,4440,647277,NA,NA,Sternberg task,95,70391,103,yes,1024
92.30769231,92.30769231,682.9519231,682.9519231,black,experiment,legacy,legacy,legacy,0,uniform,1,undefined,1,left,103,103,103,0,0,103,NA,103,0,0,103,103,103,0,103,0,NA,Tue Oct 22 16:04:29 2019,The main experiment item,yes,Sternbergtask.osexp,/Users/danielrazo0311/Desktop,no,mono,no,18,no,white,no,yes,768,legacy,91,11,/Users/danielrazo0311/Desktop/subject-3.csv,legacy,8 9 5 7 1 6,Kafkaesque Koffka,3.2.8,4,y,0,left,left,left,left,NA,636,1198,12630,636,NA,2,legacy,6,1024,2,48000,-16,experiment,3,odd,7,651245,647857,649004,3211,92998,649017,NA,592107,3231,80365,653258,653897,650030,4440,653258,NA,NA,Sternberg task,96,71027,104,yes,1024
92.38095238,92.38095238,682.752381,682.752381,black,experiment,legacy,legacy,legacy,0,uniform,1,undefined,1,left,104,104,104,0,0,104,NA,104,0,0,104,104,104,0,104,0,NA,Tue Oct 22 16:04:29 2019,The main experiment item,yes,Sternbergtask.osexp,/Users/danielrazo0311/Desktop,no,mono,no,18,no,white,no,yes,768,legacy,92,11,/Users/danielrazo0311/Desktop/subject-3.csv,legacy,5 2 6,Kafkaesque Koffka,3.2.8,2,y,0,left,left,left,left,NA,662,1198,12630,662,NA,2,legacy,3,1024,2,48000,-16,experiment,3,odd,2,657299,653914,655061,3211,92998,655073,NA,592107,3231,80365,659311,659979,656085,4440,659311,NA,NA,Sternberg task,97,71689,105,yes,1024
92.45283019,92.45283019,681.0943396,681.0943396,black,experiment,legacy,legacy,legacy,0,uniform,1,undefined,1,right,105,105,105,0,0,105,NA,105,0,0,105,105,105,0,105,0,NA,Tue Oct 22 16:04:29 2019,The main experiment item,yes,Sternbergtask.osexp,/Users/danielrazo0311/Desktop,no,mono,no,18,no,white,no,yes,768,legacy,93,11,/Users/danielrazo0311/Desktop/subject-3.csv,legacy,1 4 9 3,Kafkaesque Koffka,3.2.8,0,n,0,right,left,left,right,NA,507,1198,12630,507,NA,2,legacy,4,1024,2,48000,-16,experiment,3,odd,5,663398,660002,661157,3211,92998,661169,NA,592107,3231,80365,665410,665923,662181,4440,665410,NA,NA,Sternberg task,98,72196,106,yes,1024
91.58878505,91.58878505,681.1962617,681.1962617,black,experiment,legacy,legacy,legacy,0,uniform,0,undefined,0,left,106,106,106,0,0,106,NA,106,0,0,106,106,106,0,106,0,NA,Tue Oct 22 16:04:29 2019,The main experiment item,yes,Sternbergtask.osexp,/Users/danielrazo0311/Desktop,no,mono,no,18,no,white,no,yes,768,legacy,94,11,/Users/danielrazo0311/Desktop/subject-3.csv,legacy,6 7 9 3 1 2,Kafkaesque Koffka,3.2.8,1,y,0,right,left,left,right,NA,692,1198,12630,692,NA,2,legacy,6,1024,2,48000,-16,experiment,3,odd,6,669331,665941,667089,3211,92998,667101,NA,592107,3231,80365,671345,672041,668115,4440,671345,NA,NA,Sternberg task,98,72888,107,yes,1024
91.66666667,91.66666667,680.4722222,680.4722222,black,experiment,legacy,legacy,legacy,0,uniform,1,undefined,1,right,107,107,107,0,0,107,NA,107,0,0,107,107,107,0,107,0,NA,Tue Oct 22 16:04:29 2019,The main experiment item,yes,Sternbergtask.osexp,/Users/danielrazo0311/Desktop,no,mono,no,18,no,white,no,yes,768,legacy,95,11,/Users/danielrazo0311/Desktop/subject-3.csv,legacy,6 9 4 5 2,Kafkaesque Koffka,3.2.8,0,n,0,right,left,left,right,NA,603,1198,12630,603,NA,2,legacy,5,1024,2,48000,-16,experiment,3,odd,1,675445,665941,673204,3211,92998,673217,NA,672056,3231,80365,677458,678065,674230,4440,677458,NA,NA,Sternberg task,99,73491,108,yes,1024
91.74311927,91.74311927,679.440367,679.440367,black,experiment,legacy,legacy,legacy,0,uniform,1,undefined,1,right,108,108,108,0,0,108,NA,108,0,0,108,108,108,0,108,0,NA,Tue Oct 22 16:04:29 2019,The main experiment item,yes,Sternbergtask.osexp,/Users/danielrazo0311/Desktop,no,mono,no,18,no,white,no,yes,768,legacy,96,11,/Users/danielrazo0311/Desktop/subject-3.csv,legacy,8 9,Kafkaesque Koffka,3.2.8,0,n,0,right,left,left,right,NA,568,1198,12630,568,NA,2,legacy,2,1024,2,48000,-16,experiment,3,odd,5,681464,678082,679226,3211,92998,679238,NA,672056,3231,80365,683477,684051,680251,4440,683476,NA,NA,Sternberg task,100,74059,109,yes,1024
91.81818182,91.81818182,677.4090909,677.4090909,black,experiment,legacy,legacy,legacy,0,uniform,1,undefined,1,left,109,109,109,0,0,109,NA,109,0,0,109,109,109,0,109,0,NA,Tue Oct 22 16:04:29 2019,The main experiment item,yes,Sternbergtask.osexp,/Users/danielrazo0311/Desktop,no,mono,no,18,no,white,no,yes,768,legacy,97,11,/Users/danielrazo0311/Desktop/subject-3.csv,legacy,2 3,Kafkaesque Koffka,3.2.8,1,y,0,left,left,left,left,NA,456,1198,12630,456,NA,2,legacy,2,1024,2,48000,-16,experiment,3,odd,2,687456,684068,685213,3211,92998,685225,NA,672056,3231,80365,689469,689928,686240,4440,689469,NA,NA,Sternberg task,101,74515,110,yes,1024
91.89189189,91.89189189,677.018018,677.018018,black,experiment,legacy,legacy,legacy,0,uniform,1,undefined,1,left,110,110,110,0,0,110,NA,110,0,0,110,110,110,0,110,0,NA,Tue Oct 22 16:04:29 2019,The main experiment item,yes,Sternbergtask.osexp,/Users/danielrazo0311/Desktop,no,mono,no,18,no,white,no,yes,768,legacy,98,11,/Users/danielrazo0311/Desktop/subject-3.csv,legacy,5 7 8 2 3 8,Kafkaesque Koffka,3.2.8,5,y,0,left,left,left,left,NA,634,1198,12630,634,NA,2,legacy,6,1024,2,48000,-16,experiment,3,odd,3,693334,689944,691093,3211,92998,691105,NA,672056,3231,80365,695347,695987,692119,4440,695347,NA,NA,Sternberg task,102,75149,111,yes,1024
91.96428571,91.96428571,675.2053571,675.2053571,black,experiment,legacy,legacy,legacy,0,uniform,1,undefined,1,left,111,111,111,0,0,111,NA,111,0,0,111,111,111,0,111,0,NA,Tue Oct 22 16:04:29 2019,The main experiment item,yes,Sternbergtask.osexp,/Users/danielrazo0311/Desktop,no,mono,no,18,no,white,no,yes,768,legacy,99,11,/Users/danielrazo0311/Desktop/subject-3.csv,legacy,8 5 1 3 9,Kafkaesque Koffka,3.2.8,4,y,0,left,left,left,left,NA,474,1198,12630,474,NA,2,legacy,5,1024,2,48000,-16,experiment,3,odd,3,699390,696004,697149,3211,92998,697161,NA,672056,3231,80365,701403,701881,698174,4440,701403,NA,NA,Sternberg task,103,75623,112,yes,1024
92.03539823,92.03539823,673.5929204,673.5929204,black,experiment,legacy,legacy,legacy,0,uniform,1,undefined,1,left,112,112,112,0,0,112,NA,112,0,0,112,112,112,0,112,0,NA,Tue Oct 22 16:04:29 2019,The main experiment item,yes,Sternbergtask.osexp,/Users/danielrazo0311/Desktop,no,mono,no,18,no,white,no,yes,768,legacy,100,11,/Users/danielrazo0311/Desktop/subject-3.csv,legacy,2 3 7 4,Kafkaesque Koffka,3.2.8,1,y,0,left,left,left,left,NA,493,1198,12630,493,NA,2,legacy,4,1024,2,48000,-16,experiment,3,odd,2,705282,701897,703046,3211,92998,703058,NA,672056,3231,80365,707295,707792,704069,4440,707295,NA,NA,Sternberg task,104,76116,113,yes,1024
91.22807018,91.22807018,672.4649123,672.4649123,black,experiment,legacy,legacy,legacy,0,uniform,0,undefined,0,left,113,113,113,0,0,113,NA,113,0,0,113,113,113,0,113,0,NA,Tue Oct 22 16:04:29 2019,The main experiment item,yes,Sternbergtask.osexp,/Users/danielrazo0311/Desktop,no,mono,no,18,no,white,no,yes,768,legacy,101,11,/Users/danielrazo0311/Desktop/subject-3.csv,legacy,3 5 7 1,Kafkaesque Koffka,3.2.8,3,y,0,right,left,left,right,NA,545,1198,12630,545,NA,2,legacy,4,1024,2,48000,-16,experiment,3,odd,7,711199,707813,708959,3211,92998,708971,NA,672056,3231,80365,713211,713760,709984,4440,713211,NA,NA,Sternberg task,104,76661,114,yes,1024
91.30434783,91.30434783,675,675,black,experiment,legacy,legacy,legacy,0,uniform,1,undefined,1,left,114,114,114,0,0,114,NA,114,0,0,114,114,114,0,114,0,NA,Tue Oct 22 16:04:29 2019,The main experiment item,yes,Sternbergtask.osexp,/Users/danielrazo0311/Desktop,no,mono,no,18,no,white,no,yes,768,legacy,102,11,/Users/danielrazo0311/Desktop/subject-3.csv,legacy,6 8 9 3 4 9,Kafkaesque Koffka,3.2.8,5,y,0,left,left,left,left,NA,964,1198,12630,964,NA,2,legacy,6,1024,2,48000,-16,experiment,3,odd,4,717171,707813,714929,3211,92998,714942,NA,713776,3231,80365,719184,720153,715954,4440,719184,NA,NA,Sternberg task,105,77625,115,yes,1024
91.37931034,91.37931034,673.6206897,673.6206897,black,experiment,legacy,legacy,legacy,0,uniform,1,undefined,1,right,115,115,115,0,0,115,NA,115,0,0,115,115,115,0,115,0,NA,Tue Oct 22 16:04:29 2019,The main experiment item,yes,Sternbergtask.osexp,/Users/danielrazo0311/Desktop,no,mono,no,18,no,white,no,yes,768,legacy,103,11,/Users/danielrazo0311/Desktop/subject-3.csv,legacy,7 1,Kafkaesque Koffka,3.2.8,0,n,0,right,left,left,right,NA,515,1198,12630,515,NA,2,legacy,2,1024,2,48000,-16,experiment,3,odd,8,723556,720170,721314,3211,92998,721327,NA,713776,3231,80365,725569,726089,722339,4440,725569,NA,NA,Sternberg task,106,78140,116,yes,1024
91.45299145,91.45299145,674.3675214,674.3675214,black,experiment,legacy,legacy,legacy,0,uniform,1,undefined,1,left,116,116,116,0,0,116,NA,116,0,0,116,116,116,0,116,0,NA,Tue Oct 22 16:04:29 2019,The main experiment item,yes,Sternbergtask.osexp,/Users/danielrazo0311/Desktop,no,mono,no,18,no,white,no,yes,768,legacy,104,11,/Users/danielrazo0311/Desktop/subject-3.csv,legacy,9 3 1 2 5,Kafkaesque Koffka,3.2.8,4,y,0,left,left,left,left,NA,761,1198,12630,761,NA,2,legacy,5,1024,2,48000,-16,experiment,3,odd,2,729495,726107,727254,3211,92998,727266,NA,713776,3231,80365,731507,732273,728281,4440,731507,NA,NA,Sternberg task,107,78901,117,yes,1024
91.52542373,91.52542373,677.5254237,677.5254237,black,experiment,legacy,legacy,legacy,0,uniform,1,undefined,1,left,117,117,117,0,0,117,NA,117,0,0,117,117,117,0,117,0,NA,Tue Oct 22 16:04:29 2019,The main experiment item,yes,Sternbergtask.osexp,/Users/danielrazo0311/Desktop,no,mono,no,18,no,white,no,yes,768,legacy,105,11,/Users/danielrazo0311/Desktop/subject-3.csv,legacy,8 1 6,Kafkaesque Koffka,3.2.8,3,y,0,left,left,left,left,NA,1047,1198,12630,1047,NA,2,legacy,3,1024,2,48000,-16,experiment,3,odd,6,735680,732289,733436,3211,92998,733448,NA,713776,3231,80365,737693,738744,734462,4440,737693,NA,NA,Sternberg task,108,79948,118,yes,1024
91.59663866,91.59663866,676.3781513,676.3781513,black,experiment,legacy,legacy,legacy,0,uniform,1,undefined,1,left,118,118,118,0,0,118,NA,118,0,0,118,118,118,0,118,0,NA,Tue Oct 22 16:04:29 2019,The main experiment item,yes,Sternbergtask.osexp,/Users/danielrazo0311/Desktop,no,mono,no,18,no,white,no,yes,768,legacy,106,11,/Users/danielrazo0311/Desktop/subject-3.csv,legacy,9 5 3 8 4,Kafkaesque Koffka,3.2.8,1,y,0,left,left,left,left,NA,541,1198,12630,541,NA,2,legacy,5,1024,2,48000,-16,experiment,3,odd,9,742154,738763,739913,3211,92998,739925,NA,713776,3231,80365,744167,744713,740938,4440,744167,NA,NA,Sternberg task,109,80489,119,yes,1024
91.66666667,91.66666667,675.025,675.025,black,experiment,legacy,legacy,legacy,0,uniform,1,undefined,1,left,119,119,119,0,0,119,NA,119,0,0,119,119,119,0,119,0,NA,Tue Oct 22 16:04:29 2019,The main experiment item,yes,Sternbergtask.osexp,/Users/danielrazo0311/Desktop,no,mono,no,18,no,white,no,yes,768,legacy,107,11,/Users/danielrazo0311/Desktop/subject-3.csv,legacy,5 7 3 6 2,Kafkaesque Koffka,3.2.8,5,y,0,left,left,left,left,NA,514,1198,12630,514,NA,2,legacy,5,1024,2,48000,-16,experiment,3,odd,2,748122,744730,745879,3211,92998,745891,NA,713776,3231,80365,750137,750655,746905,4440,750137,NA,NA,Sternberg task,110,81003,120,yes,1024
91.73553719,91.73553719,672.9917355,672.9917355,black,experiment,legacy,legacy,legacy,0,uniform,1,undefined,1,right,120,120,120,0,0,120,NA,120,0,0,120,120,120,0,120,0,NA,Tue Oct 22 16:04:29 2019,The main experiment item,yes,Sternbergtask.osexp,/Users/danielrazo0311/Desktop,no,mono,no,18,no,white,no,yes,768,legacy,108,11,/Users/danielrazo0311/Desktop/subject-3.csv,legacy,9,Kafkaesque Koffka,3.2.8,0,n,0,right,left,left,right,NA,429,1198,12630,429,NA,2,legacy,1,1024,2,48000,-16,experiment,3,odd,6,754057,750671,751816,3211,92998,751828,NA,713776,3231,80365,756070,756503,752842,4440,756070,NA,NA,Sternberg task,111,81432,121,yes,1024
91.80327869,91.80327869,670.9508197,670.9508197,black,experiment,legacy,legacy,legacy,0,uniform,1,undefined,1,left,121,121,121,0,0,121,NA,121,0,0,121,121,121,0,121,0,NA,Tue Oct 22 16:04:29 2019,The main experiment item,yes,Sternbergtask.osexp,/Users/danielrazo0311/Desktop,no,mono,no,18,no,white,no,yes,768,legacy,109,11,/Users/danielrazo0311/Desktop/subject-3.csv,legacy,2 8 5 1,Kafkaesque Koffka,3.2.8,4,y,0,left,left,left,left,NA,424,1198,12630,424,NA,2,legacy,4,1024,2,48000,-16,experiment,3,odd,1,759903,756518,757664,3211,92998,757676,NA,713776,3231,80365,761915,762343,758689,4440,761915,NA,NA,Sternberg task,112,81856,122,yes,1024
91.8699187,91.8699187,670.0569106,670.0569106,black,experiment,legacy,legacy,legacy,0,uniform,1,undefined,1,right,122,122,122,0,0,122,NA,122,0,0,122,122,122,0,122,0,NA,Tue Oct 22 16:04:29 2019,The main experiment item,yes,Sternbergtask.osexp,/Users/danielrazo0311/Desktop,no,mono,no,18,no,white,no,yes,768,legacy,110,11,/Users/danielrazo0311/Desktop/subject-3.csv,legacy,6 8 4,Kafkaesque Koffka,3.2.8,0,n,0,right,left,left,right,NA,561,1198,12630,561,NA,2,legacy,3,1024,2,48000,-16,experiment,3,odd,1,765750,762359,763504,3211,92998,763516,NA,713776,3231,80365,767762,768327,764531,4440,767762,NA,NA,Sternberg task,113,82417,123,yes,1024
91.93548387,91.93548387,669.3467742,669.3467742,black,experiment,legacy,legacy,legacy,0,uniform,1,undefined,1,right,123,123,123,0,0,123,NA,123,0,0,123,123,123,0,123,0,NA,Tue Oct 22 16:04:29 2019,The main experiment item,yes,Sternbergtask.osexp,/Users/danielrazo0311/Desktop,no,mono,no,18,no,white,no,yes,768,legacy,111,11,/Users/danielrazo0311/Desktop/subject-3.csv,legacy,4 2 7 6 1 3,Kafkaesque Koffka,3.2.8,0,n,0,right,left,left,right,NA,582,1198,12630,582,NA,2,legacy,6,1024,2,48000,-16,experiment,3,odd,8,771735,768343,769494,3211,92998,769506,NA,713776,3231,80365,773749,774336,770519,4440,773749,NA,NA,Sternberg task,114,82999,124,yes,1024
92,92,667.912,667.912,black,experiment,legacy,legacy,legacy,0,uniform,1,undefined,1,left,124,124,124,0,0,124,NA,124,0,0,124,124,124,0,124,0,NA,Tue Oct 22 16:04:29 2019,The main experiment item,yes,Sternbergtask.osexp,/Users/danielrazo0311/Desktop,no,mono,no,18,no,white,no,yes,768,legacy,112,11,/Users/danielrazo0311/Desktop/subject-3.csv,legacy,8 5 3 7 4 6,Kafkaesque Koffka,3.2.8,6,y,0,left,left,left,left,NA,490,1198,12630,490,NA,2,legacy,6,1024,2,48000,-16,experiment,3,odd,6,777740,774352,775499,3211,92998,775512,NA,713776,3231,80365,779753,780247,776525,4440,779753,NA,NA,Sternberg task,115,83489,125,yes,1024
92.06349206,92.06349206,667.3253968,667.3253968,black,experiment,legacy,legacy,legacy,0,uniform,1,undefined,1,left,125,125,125,0,0,125,NA,125,0,0,125,125,125,0,125,0,NA,Tue Oct 22 16:04:29 2019,The main experiment item,yes,Sternbergtask.osexp,/Users/danielrazo0311/Desktop,no,mono,no,18,no,white,no,yes,768,legacy,113,11,/Users/danielrazo0311/Desktop/subject-3.csv,legacy,6 5,Kafkaesque Koffka,3.2.8,2,y,0,left,left,left,left,NA,594,1198,12630,594,NA,2,legacy,2,1024,2,48000,-16,experiment,3,odd,5,783652,780262,781411,3211,92998,781423,NA,713776,3231,80365,785665,786263,782436,4440,785665,NA,NA,Sternberg task,116,84083,126,yes,1024
92.12598425,92.12598425,668.0787402,668.0787402,black,experiment,legacy,legacy,legacy,0,uniform,1,undefined,1,left,126,126,126,0,0,126,NA,126,0,0,126,126,126,0,126,0,NA,Tue Oct 22 16:04:29 2019,The main experiment item,yes,Sternbergtask.osexp,/Users/danielrazo0311/Desktop,no,mono,no,18,no,white,no,yes,768,legacy,114,11,/Users/danielrazo0311/Desktop/subject-3.csv,legacy,6 9 7 4 5 1,Kafkaesque Koffka,3.2.8,2,y,0,left,left,left,left,NA,763,1198,12630,763,NA,2,legacy,6,1024,2,48000,-16,experiment,3,odd,9,789675,786278,787432,3211,92998,787444,NA,713776,3231,80365,791687,792455,788458,4440,791687,NA,NA,Sternberg task,117,84846,127,yes,1024
92.1875,92.1875,665.875,665.875,black,experiment,legacy,legacy,legacy,0,uniform,1,undefined,1,left,127,127,127,0,0,127,NA,127,0,0,127,127,127,0,127,0,NA,Tue Oct 22 16:04:29 2019,The main experiment item,yes,Sternbergtask.osexp,/Users/danielrazo0311/Desktop,no,mono,no,18,no,white,no,yes,768,legacy,115,11,/Users/danielrazo0311/Desktop/subject-3.csv,legacy,7 1 3,Kafkaesque Koffka,3.2.8,2,y,0,left,left,left,left,NA,386,1198,12630,386,NA,2,legacy,3,1024,2,48000,-16,experiment,3,odd,1,795860,792470,793618,3211,92998,793630,NA,713776,3231,80365,797872,798262,794644,4440,797872,NA,NA,Sternberg task,118,85232,128,yes,1024
92.24806202,92.24806202,666.1085271,666.1085271,black,experiment,legacy,legacy,legacy,0,uniform,1,undefined,1,right,128,128,128,0,0,128,NA,128,0,0,128,128,128,0,128,0,NA,Tue Oct 22 16:04:29 2019,The main experiment item,yes,Sternbergtask.osexp,/Users/danielrazo0311/Desktop,no,mono,no,18,no,white,no,yes,768,legacy,116,11,/Users/danielrazo0311/Desktop/subject-3.csv,legacy,2 6 4 3 9,Kafkaesque Koffka,3.2.8,0,n,0,right,left,left,right,NA,696,1198,12630,696,NA,2,legacy,5,1024,2,48000,-16,experiment,3,odd,1,801668,798278,799424,3211,92998,799436,NA,713776,3231,80365,803682,804383,800451,4440,803682,NA,NA,Sternberg task,119,85928,129,yes,1024
92.30769231,92.30769231,664.5846154,664.5846154,black,experiment,legacy,legacy,legacy,0,uniform,1,undefined,1,left,129,129,129,0,0,129,NA,129,0,0,129,129,129,0,129,0,NA,Tue Oct 22 16:04:29 2019,The main experiment item,yes,Sternbergtask.osexp,/Users/danielrazo0311/Desktop,no,mono,no,18,no,white,no,yes,768,legacy,117,11,/Users/danielrazo0311/Desktop/subject-3.csv,legacy,4 7 6 8 2 3,Kafkaesque Koffka,3.2.8,6,y,0,left,left,left,left,NA,468,1198,12630,468,NA,2,legacy,6,1024,2,48000,-16,experiment,3,odd,3,807793,804400,805548,3211,92998,805560,NA,713776,3231,80365,809806,810279,806572,4440,809806,NA,NA,Sternberg task,120,86396,130,yes,1024
91.60305344,91.60305344,674.2290076,674.2290076,black,experiment,legacy,legacy,legacy,0,uniform,0,undefined,0,right,130,130,130,0,0,130,NA,130,0,0,130,130,130,0,130,0,NA,Tue Oct 22 16:04:29 2019,The main experiment item,yes,Sternbergtask.osexp,/Users/danielrazo0311/Desktop,no,mono,no,18,no,white,no,yes,768,legacy,118,11,/Users/danielrazo0311/Desktop/subject-3.csv,legacy,1 6 4,Kafkaesque Koffka,3.2.8,0,n,0,left,left,left,left,NA,1928,1198,12630,1928,NA,2,legacy,3,1024,2,48000,-16,experiment,3,odd,7,813702,810306,811455,3211,92998,811467,NA,713776,3231,80365,815714,817646,812484,4440,815714,NA,NA,Sternberg task,120,88324,131,yes,1024
91.66666667,91.66666667,673.8333333,673.8333333,black,experiment,legacy,legacy,legacy,0,uniform,1,undefined,1,right,131,131,131,0,0,131,NA,131,0,0,131,131,131,0,131,0,NA,Tue Oct 22 16:04:29 2019,The main experiment item,yes,Sternbergtask.osexp,/Users/danielrazo0311/Desktop,no,mono,no,18,no,white,no,yes,768,legacy,119,11,/Users/danielrazo0311/Desktop/subject-3.csv,legacy,2 3 8 5 6 7,Kafkaesque Koffka,3.2.8,0,n,0,right,left,left,right,NA,622,1198,12630,622,NA,2,legacy,6,1024,2,48000,-16,experiment,3,odd,1,821048,810306,818807,3211,92998,818819,NA,817661,3231,80365,823060,823686,819833,4440,823060,NA,NA,Sternberg task,121,88946,132,yes,1024
91.72932331,91.72932331,672.8947368,672.8947368,black,experiment,legacy,legacy,legacy,0,uniform,1,undefined,1,right,132,132,132,0,0,132,NA,132,0,0,132,132,132,0,132,0,NA,Tue Oct 22 16:04:29 2019,The main experiment item,yes,Sternbergtask.osexp,/Users/danielrazo0311/Desktop,no,mono,no,18,no,white,no,yes,768,legacy,120,11,/Users/danielrazo0311/Desktop/subject-3.csv,legacy,2 7 5,Kafkaesque Koffka,3.2.8,0,n,0,right,left,left,right,NA,549,1198,12630,549,NA,2,legacy,3,1024,2,48000,-16,experiment,3,odd,8,827095,823702,824852,3211,92998,824864,NA,817661,3231,80365,829108,829662,825878,4440,829108,NA,NA,Sternberg task,122,89495,133,yes,1024
91.04477612,91.04477612,674.6865672,674.6865672,black,experiment,legacy,legacy,legacy,0,uniform,0,undefined,0,right,133,133,133,0,0,133,NA,133,0,0,133,133,133,0,133,0,NA,Tue Oct 22 16:04:29 2019,The main experiment item,yes,Sternbergtask.osexp,/Users/danielrazo0311/Desktop,no,mono,no,18,no,white,no,yes,768,legacy,121,11,/Users/danielrazo0311/Desktop/subject-3.csv,legacy,9 7 4 5 8,Kafkaesque Koffka,3.2.8,0,n,0,left,left,left,left,NA,913,1198,12630,913,NA,2,legacy,5,1024,2,48000,-16,experiment,3,odd,6,833069,829678,830826,3211,92998,830838,NA,817661,3231,80365,835082,835999,831851,4440,835082,NA,NA,Sternberg task,122,90408,134,yes,1024
91.11111111,91.11111111,673.8518519,673.8518519,black,experiment,legacy,legacy,legacy,0,uniform,1,undefined,1,right,134,134,134,0,0,134,NA,134,0,0,134,134,134,0,134,0,NA,Tue Oct 22 16:04:29 2019,The main experiment item,yes,Sternbergtask.osexp,/Users/danielrazo0311/Desktop,no,mono,no,18,no,white,no,yes,768,legacy,122,11,/Users/danielrazo0311/Desktop/subject-3.csv,legacy,7 9,Kafkaesque Koffka,3.2.8,0,n,0,right,left,left,right,NA,562,1198,12630,562,NA,2,legacy,2,1024,2,48000,-16,experiment,3,odd,1,839411,829678,837165,3211,92998,837178,NA,836014,3231,80365,841424,841990,838195,4440,841423,NA,NA,Sternberg task,123,90970,135,yes,1024
91.17647059,91.17647059,677.3382353,677.3382353,black,experiment,legacy,legacy,legacy,0,uniform,1,undefined,1,left,135,135,135,0,0,135,NA,135,0,0,135,135,135,0,135,0,NA,Tue Oct 22 16:04:29 2019,The main experiment item,yes,Sternbergtask.osexp,/Users/danielrazo0311/Desktop,no,mono,no,18,no,white,no,yes,768,legacy,123,11,/Users/danielrazo0311/Desktop/subject-3.csv,legacy,4 6 2 5 1,Kafkaesque Koffka,3.2.8,5,y,0,left,left,left,left,NA,1148,1198,12630,1148,NA,2,legacy,5,1024,2,48000,-16,experiment,3,odd,1,845400,842005,843158,3211,92998,843170,NA,836014,3231,80365,847413,848566,844184,4440,847413,NA,NA,Sternberg task,124,92118,136,yes,1024
91.24087591,91.24087591,676.189781,676.189781,black,experiment,legacy,legacy,legacy,0,uniform,1,undefined,1,right,136,136,136,0,0,136,NA,136,0,0,136,136,136,0,136,0,NA,Tue Oct 22 16:04:29 2019,The main experiment item,yes,Sternbergtask.osexp,/Users/danielrazo0311/Desktop,no,mono,no,18,no,white,no,yes,768,legacy,124,11,/Users/danielrazo0311/Desktop/subject-3.csv,legacy,8 6 3 4 7,Kafkaesque Koffka,3.2.8,0,n,0,right,left,left,right,NA,520,1198,12630,520,NA,2,legacy,5,1024,2,48000,-16,experiment,3,odd,1,851972,848581,849732,3211,92998,849745,NA,836014,3231,80365,853985,854510,850757,4440,853985,NA,NA,Sternberg task,125,92638,137,yes,1024
91.30434783,91.30434783,674.5797101,674.5797101,black,experiment,legacy,legacy,legacy,0,uniform,1,undefined,1,left,137,137,137,0,0,137,NA,137,0,0,137,137,137,0,137,0,NA,Tue Oct 22 16:04:29 2019,The main experiment item,yes,Sternbergtask.osexp,/Users/danielrazo0311/Desktop,no,mono,no,18,no,white,no,yes,768,legacy,125,11,/Users/danielrazo0311/Desktop/subject-3.csv,legacy,3 4,Kafkaesque Koffka,3.2.8,1,y,0,left,left,left,left,NA,454,1198,12630,454,NA,2,legacy,2,1024,2,48000,-16,experiment,3,odd,3,857918,854527,855673,3211,92998,855685,NA,836014,3231,80365,859931,860389,856700,4440,859931,NA,NA,Sternberg task,126,93092,138,yes,1024