"acc","accuracy","average_response_time","avg_rt","background","block","canvas_backend","clock_backend","color_backend","correct","correct_instruction1","correct_keyboard_response","correct_response","count_Fixation","count_ISI","count_correctFeedback","count_expSequence","count_experiment","count_experimentLoop","count_incorrectFeedback","count_instruction1","count_instructions2","count_keyboard_response","count_logger","count_memorySet","count_practiceloop","count_probe","count_thankYou","datetime","description","disable_garbage_collection","experiment_file","experiment_path","font_bold","font_family","font_italic","font_size","font_underline","foreground","form_clicks","fullscreen","height","keyboard_backend","live_row","live_row_practiceloop","logfile","mouse_backend","numberSet","opensesame_codename","opensesame_version","posInSet","present","repeat_cycle","response","response_instruction1","response_instructions2","response_keyboard_response","response_thankYou","response_time","response_time_instruction1","response_time_instructions2","response_time_keyboard_response","response_time_thankYou","round_decimals","sampler_backend","setSize","sound_buf_size","sound_channels","sound_freq","sound_sample_size","start","subject_nr","subject_parity","target","time_Fixation","time_ISI","time_correctFeedback","time_expSequence","time_experiment","time_experimentLoop","time_incorrectFeedback","time_instruction1","time_instructions2","time_keyboard_response","time_logger","time_memorySet","time_practiceloop","time_probe","time_thankYou","title","total_correct","total_response_time","total_responses","width"
"100","100","421","421","#3d3846","practice","legacy","legacy","legacy","1","undefined","1","right","0","0","0","0","0","0","0","0","0","0","0","0","0","0","0","Sun Oct 22 15:46:51 2023","The main experiment item","False","Sternbergtask.osexp","/Users/keelihatcher/Desktop/Tarleton M.D./Advanced Quantitative Methods & Experimental Design","False","mono","False","18","no","white","no","yes","768","legacy","0","0","/Users/keelihatcher/Desktop/Tarleton M.D./Advanced Quantitative Methods & Experimental Design/KH-subject-3.csv","legacy","4 1 5","Melodramatic Milgram","4.0.5","0","n","0","right","rightleft","NA","right","NA","421.0","9366","NA","421","NA","2","legacy","3","1024","2","48000","-16","experiment","3","odd","2","12337","14554","NA","12333","2378","NA","NA","2517","NA","16576","16998","13346","12071","16576","NA","Sternberg task","1","421.0","1","1024"
"100","100","420","420","#3d3846","practice","legacy","legacy","legacy","1","undefined","1","left","1","1","1","1","0","0","1","0","0","1","1","1","0","1","0","Sun Oct 22 15:46:51 2023","The main experiment item","False","Sternbergtask.osexp","/Users/keelihatcher/Desktop/Tarleton M.D./Advanced Quantitative Methods & Experimental Design","False","mono","False","18","no","white","no","yes","768","legacy","1","1","/Users/keelihatcher/Desktop/Tarleton M.D./Advanced Quantitative Methods & Experimental Design/KH-subject-3.csv","legacy","4 3 1 7 9 8","Melodramatic Milgram","4.0.5","1","y","0","left","rightleft","NA","left","NA","419.0","9366","NA","419","NA","2","legacy","6","1024","2","48000","-16","experiment","3","odd","4","18069","20279","17015","18067","2378","NA","NA","2517","NA","22281","22701","19073","12071","22281","NA","Sternberg task","2","840.0","2","1024"
"100","100","384","384","#3d3846","practice","legacy","legacy","legacy","1","undefined","1","right","2","2","2","2","0","0","2","0","0","2","2","2","0","2","0","Sun Oct 22 15:46:51 2023","The main experiment item","False","Sternbergtask.osexp","/Users/keelihatcher/Desktop/Tarleton M.D./Advanced Quantitative Methods & Experimental Design","False","mono","False","18","no","white","no","yes","768","legacy","2","2","/Users/keelihatcher/Desktop/Tarleton M.D./Advanced Quantitative Methods & Experimental Design/KH-subject-3.csv","legacy","5","Melodramatic Milgram","4.0.5","0","n","0","right","rightleft","NA","right","NA","314.0","9366","NA","314","NA","2","legacy","1","1024","2","48000","-16","experiment","3","odd","3","23757","25966","22704","23754","2378","NA","NA","2517","NA","27970","28285","24761","12071","27970","NA","Sternberg task","3","1154.0","3","1024"
"100","100","411","411","#3d3846","practice","legacy","legacy","legacy","1","undefined","1","right","3","3","3","3","0","0","3","0","0","3","3","3","0","3","0","Sun Oct 22 15:46:51 2023","The main experiment item","False","Sternbergtask.osexp","/Users/keelihatcher/Desktop/Tarleton M.D./Advanced Quantitative Methods & Experimental Design","False","mono","False","18","no","white","no","yes","768","legacy","3","3","/Users/keelihatcher/Desktop/Tarleton M.D./Advanced Quantitative Methods & Experimental Design/KH-subject-3.csv","legacy","2 1","Melodramatic Milgram","4.0.5","0","n","0","right","rightleft","NA","right","NA","491.0","9366","NA","491","NA","2","legacy","2","1024","2","48000","-16","experiment","3","odd","5","29341","31551","28288","29339","2378","NA","NA","2517","NA","33554","34045","30346","12071","33554","NA","Sternberg task","4","1645.0","4","1024"
"80","80","442","442","#3d3846","practice","legacy","legacy","legacy","0","undefined","0","left","4","4","4","4","0","0","4","0","0","4","4","4","0","4","0","Sun Oct 22 15:46:51 2023","The main experiment item","False","Sternbergtask.osexp","/Users/keelihatcher/Desktop/Tarleton M.D./Advanced Quantitative Methods & Experimental Design","False","mono","False","18","no","white","no","yes","768","legacy","4","4","/Users/keelihatcher/Desktop/Tarleton M.D./Advanced Quantitative Methods & Experimental Design/KH-subject-3.csv","legacy","2 9 4","Melodramatic Milgram","4.0.5","3","y","0","right","rightleft","NA","right","NA","567.0","9366","NA","567","NA","2","legacy","3","1024","2","48000","-16","experiment","3","odd","4","35099","37309","34047","35097","2378","NA","NA","2517","NA","39311","39879","36103","12071","39311","NA","Sternberg task","4","2212.0","5","1024"
"66","66","413","413","#3d3846","practice","legacy","legacy","legacy","0","undefined","0","left","5","5","5","5","0","0","5","0","0","5","5","5","0","5","0","Sun Oct 22 15:46:51 2023","The main experiment item","False","Sternbergtask.osexp","/Users/keelihatcher/Desktop/Tarleton M.D./Advanced Quantitative Methods & Experimental Design","False","mono","False","18","no","white","no","yes","768","legacy","5","5","/Users/keelihatcher/Desktop/Tarleton M.D./Advanced Quantitative Methods & Experimental Design/KH-subject-3.csv","legacy","1 7 9 8 5","Melodramatic Milgram","4.0.5","4","y","0","right","rightleft","NA","right","NA","266.0","9366","NA","266","NA","2","legacy","5","1024","2","48000","-16","experiment","3","odd","8","40934","43145","34047","40932","2378","NA","39881","2517","NA","45150","45417","41938","12071","45150","NA","Sternberg task","4","2478.0","6","1024"
"57","57","425","425","#3d3846","practice","legacy","legacy","legacy","0","undefined","0","right","6","6","6","6","0","0","6","0","0","6","6","6","0","6","0","Sun Oct 22 15:46:51 2023","The main experiment item","False","Sternbergtask.osexp","/Users/keelihatcher/Desktop/Tarleton M.D./Advanced Quantitative Methods & Experimental Design","False","mono","False","18","no","white","no","yes","768","legacy","6","6","/Users/keelihatcher/Desktop/Tarleton M.D./Advanced Quantitative Methods & Experimental Design/KH-subject-3.csv","legacy","3 1 9 4","Melodramatic Milgram","4.0.5","0","n","0","left","rightleft","NA","left","NA","502.0","9366","NA","502","NA","2","legacy","4","1024","2","48000","-16","experiment","3","odd","6","46474","48683","34047","46472","2378","NA","45419","2517","NA","50687","51189","47478","12071","50687","NA","Sternberg task","4","2980.0","7","1024"
"62","62","412","412","#3d3846","practice","legacy","legacy","legacy","1","undefined","1","left","7","7","7","7","0","0","7","0","0","7","7","7","0","7","0","Sun Oct 22 15:46:51 2023","The main experiment item","False","Sternbergtask.osexp","/Users/keelihatcher/Desktop/Tarleton M.D./Advanced Quantitative Methods & Experimental Design","False","mono","False","18","no","white","no","yes","768","legacy","7","7","/Users/keelihatcher/Desktop/Tarleton M.D./Advanced Quantitative Methods & Experimental Design/KH-subject-3.csv","legacy","4 8","Melodramatic Milgram","4.0.5","1","y","0","left","rightleft","NA","left","NA","319.0","9366","NA","319","NA","2","legacy","2","1024","2","48000","-16","experiment","3","odd","4","52242","54450","34047","52239","2378","NA","51191","2517","NA","56458","56778","53246","12071","56458","NA","Sternberg task","5","3299.0","8","1024"
"55","55","387","387","#3d3846","practice","legacy","legacy","legacy","0","undefined","0","right","8","8","8","8","0","0","8","0","0","8","8","8","0","8","0","Sun Oct 22 15:46:51 2023","The main experiment item","False","Sternbergtask.osexp","/Users/keelihatcher/Desktop/Tarleton M.D./Advanced Quantitative Methods & Experimental Design","False","mono","False","18","no","white","no","yes","768","legacy","8","8","/Users/keelihatcher/Desktop/Tarleton M.D./Advanced Quantitative Methods & Experimental Design/KH-subject-3.csv","legacy","5 7 8 4 1 2","Melodramatic Milgram","4.0.5","0","n","0","left","rightleft","NA","left","NA","187.0","9366","NA","187","NA","2","legacy","6","1024","2","48000","-16","experiment","3","odd","6","57830","60040","56780","57826","2378","NA","51191","2517","NA","62043","62231","58834","12071","62043","NA","Sternberg task","5","3486.0","9","1024"
"60","60","379","379","#3d3846","practice","legacy","legacy","legacy","1","undefined","1","left","9","9","9","9","0","0","9","0","0","9","9","9","0","9","0","Sun Oct 22 15:46:51 2023","The main experiment item","False","Sternbergtask.osexp","/Users/keelihatcher/Desktop/Tarleton M.D./Advanced Quantitative Methods & Experimental Design","False","mono","False","18","no","white","no","yes","768","legacy","9","9","/Users/keelihatcher/Desktop/Tarleton M.D./Advanced Quantitative Methods & Experimental Design/KH-subject-3.csv","legacy","1 5 2 9","Melodramatic Milgram","4.0.5","2","y","0","left","rightleft","NA","left","NA","306.0","9366","NA","306","NA","2","legacy","4","1024","2","48000","-16","experiment","3","odd","5","63273","65481","56780","63271","2378","NA","62233","2517","NA","67484","67790","64277","12071","67484","NA","Sternberg task","6","3792.0","10","1024"
"63","63","385","385","#3d3846","practice","legacy","legacy","legacy","1","undefined","1","right","10","10","10","10","0","0","10","0","0","10","10","10","0","10","0","Sun Oct 22 15:46:51 2023","The main experiment item","False","Sternbergtask.osexp","/Users/keelihatcher/Desktop/Tarleton M.D./Advanced Quantitative Methods & Experimental Design","False","mono","False","18","no","white","no","yes","768","legacy","10","10","/Users/keelihatcher/Desktop/Tarleton M.D./Advanced Quantitative Methods & Experimental Design/KH-subject-3.csv","legacy","9 6 7 4 5","Melodramatic Milgram","4.0.5","0","n","0","right","rightleft","NA","right","NA","451.0","9366","NA","451","NA","2","legacy","5","1024","2","48000","-16","experiment","3","odd","3","68844","71053","67792","68841","2378","NA","62233","2517","NA","73057","73508","69848","12071","73057","NA","Sternberg task","7","4243.0","11","1024"
"66","66","393","393","#3d3846","practice","legacy","legacy","legacy","1","undefined","1","left","11","11","11","11","0","0","11","0","0","11","11","11","0","11","0","Sun Oct 22 15:46:51 2023","The main experiment item","False","Sternbergtask.osexp","/Users/keelihatcher/Desktop/Tarleton M.D./Advanced Quantitative Methods & Experimental Design","False","mono","False","18","no","white","no","yes","768","legacy","11","11","/Users/keelihatcher/Desktop/Tarleton M.D./Advanced Quantitative Methods & Experimental Design/KH-subject-3.csv","legacy","6","Melodramatic Milgram","4.0.5","1","y","0","left","rightleft","NA","left","NA","480.0","9366","NA","480","NA","2","legacy","1","1024","2","48000","-16","experiment","3","odd","6","74562","76770","73511","74559","2378","NA","62233","2517","NA","78773","79254","75565","12071","78773","NA","Sternberg task","8","4723.0","12","1024"
"61","61","405","405","#3d3846","experiment","legacy","legacy","legacy","0","undefined","0","left","12","12","12","12","0","0","12","0","0","12","12","12","0","12","0","Sun Oct 22 15:46:51 2023","The main experiment item","False","Sternbergtask.osexp","/Users/keelihatcher/Desktop/Tarleton M.D./Advanced Quantitative Methods & Experimental Design","False","mono","False","18","no","white","no","yes","768","legacy","0","11","/Users/keelihatcher/Desktop/Tarleton M.D./Advanced Quantitative Methods & Experimental Design/KH-subject-3.csv","legacy","6 5","Melodramatic Milgram","4.0.5","2","y","0","right","rightleft","right","right","NA","554.0","9366","112858","554","NA","2","legacy","2","1024","2","48000","-16","experiment","3","odd","5","193220","195432","79255","193189","2378","193121","62233","2517","80261","197435","197990","194225","12071","197435","NA","Sternberg task","8","5277.0","13","1024"
"64","64","420","420","#3d3846","experiment","legacy","legacy","legacy","1","undefined","1","right","13","13","13","13","0","0","13","0","0","13","13","13","0","13","0","Sun Oct 22 15:46:51 2023","The main experiment item","False","Sternbergtask.osexp","/Users/keelihatcher/Desktop/Tarleton M.D./Advanced Quantitative Methods & Experimental Design","False","mono","False","18","no","white","no","yes","768","legacy","1","11","/Users/keelihatcher/Desktop/Tarleton M.D./Advanced Quantitative Methods & Experimental Design/KH-subject-3.csv","legacy","3 9 1","Melodramatic Milgram","4.0.5","0","n","0","right","rightleft","right","right","NA","611.0","9366","112858","611","NA","2","legacy","3","1024","2","48000","-16","experiment","3","odd","7","199047","201255","79255","199045","2378","193121","197994","2517","80261","203258","203870","200051","12071","203258","NA","Sternberg task","9","5888.0","14","1024"
"66","66","420","420","#3d3846","experiment","legacy","legacy","legacy","1","undefined","1","right","14","14","14","14","0","0","14","0","0","14","14","14","0","14","0","Sun Oct 22 15:46:51 2023","The main experiment item","False","Sternbergtask.osexp","/Users/keelihatcher/Desktop/Tarleton M.D./Advanced Quantitative Methods & Experimental Design","False","mono","False","18","no","white","no","yes","768","legacy","2","11","/Users/keelihatcher/Desktop/Tarleton M.D./Advanced Quantitative Methods & Experimental Design/KH-subject-3.csv","legacy","8 9","Melodramatic Milgram","4.0.5","0","n","0","right","rightleft","right","right","NA","426.0","9366","112858","426","NA","2","legacy","2","1024","2","48000","-16","experiment","3","odd","5","204928","207136","203872","204926","2378","193121","197994","2517","80261","209139","209566","205931","12071","209139","NA","Sternberg task","10","6314.0","15","1024"
"68","68","417","417","#3d3846","experiment","legacy","legacy","legacy","1","undefined","1","left","15","15","15","15","0","0","15","0","0","15","15","15","0","15","0","Sun Oct 22 15:46:51 2023","The main experiment item","False","Sternbergtask.osexp","/Users/keelihatcher/Desktop/Tarleton M.D./Advanced Quantitative Methods & Experimental Design","False","mono","False","18","no","white","no","yes","768","legacy","3","11","/Users/keelihatcher/Desktop/Tarleton M.D./Advanced Quantitative Methods & Experimental Design/KH-subject-3.csv","legacy","9 5 3 8 4","Melodramatic Milgram","4.0.5","1","y","0","left","rightleft","right","left","NA","373.0","9366","112858","373","NA","2","legacy","5","1024","2","48000","-16","experiment","3","odd","9","210620","212829","209568","210618","2378","193121","197994","2517","80261","214832","215206","211624","12071","214832","NA","Sternberg task","11","6687.0","16","1024"
"70","70","431","431","#3d3846","experiment","legacy","legacy","legacy","1","undefined","1","left","16","16","16","16","0","0","16","0","0","16","16","16","0","16","0","Sun Oct 22 15:46:51 2023","The main experiment item","False","Sternbergtask.osexp","/Users/keelihatcher/Desktop/Tarleton M.D./Advanced Quantitative Methods & Experimental Design","False","mono","False","18","no","white","no","yes","768","legacy","4","11","/Users/keelihatcher/Desktop/Tarleton M.D./Advanced Quantitative Methods & Experimental Design/KH-subject-3.csv","legacy","7 8 6 3 1","Melodramatic Milgram","4.0.5","5","y","0","left","rightleft","right","left","NA","645.0","9366","112858","645","NA","2","legacy","5","1024","2","48000","-16","experiment","3","odd","1","216260","218467","215208","216258","2378","193121","197994","2517","80261","220470","221116","217263","12071","220470","NA","Sternberg task","12","7332.0","17","1024"
"72","72","441","441","#3d3846","experiment","legacy","legacy","legacy","1","undefined","1","left","17","17","17","17","0","0","17","0","0","17","17","17","0","17","0","Sun Oct 22 15:46:51 2023","The main experiment item","False","Sternbergtask.osexp","/Users/keelihatcher/Desktop/Tarleton M.D./Advanced Quantitative Methods & Experimental Design","False","mono","False","18","no","white","no","yes","768","legacy","5","11","/Users/keelihatcher/Desktop/Tarleton M.D./Advanced Quantitative Methods & Experimental Design/KH-subject-3.csv","legacy","9 5 8 1","Melodramatic Milgram","4.0.5","2","y","0","left","rightleft","right","left","NA","608.0","9366","112858","608","NA","2","legacy","4","1024","2","48000","-16","experiment","3","odd","5","222146","224353","221118","222144","2378","193121","197994","2517","80261","226357","226966","223149","12071","226357","NA","Sternberg task","13","7940.0","18","1024"
"68","68","450","450","#3d3846","experiment","legacy","legacy","legacy","0","undefined","0","left","18","18","18","18","0","0","18","0","0","18","18","18","0","18","0","Sun Oct 22 15:46:51 2023","The main experiment item","False","Sternbergtask.osexp","/Users/keelihatcher/Desktop/Tarleton M.D./Advanced Quantitative Methods & Experimental Design","False","mono","False","18","no","white","no","yes","768","legacy","6","11","/Users/keelihatcher/Desktop/Tarleton M.D./Advanced Quantitative Methods & Experimental Design/KH-subject-3.csv","legacy","6 7 8 5","Melodramatic Milgram","4.0.5","3","y","0","right","rightleft","right","right","NA","611.0","9366","112858","611","NA","2","legacy","4","1024","2","48000","-16","experiment","3","odd","8","228016","230223","226968","228014","2378","193121","197994","2517","80261","232226","232838","229020","12071","232226","NA","Sternberg task","13","8551.0","19","1024"
"70","70","455","455","#3d3846","experiment","legacy","legacy","legacy","1","undefined","1","right","19","19","19","19","0","0","19","0","0","19","19","19","0","19","0","Sun Oct 22 15:46:51 2023","The main experiment item","False","Sternbergtask.osexp","/Users/keelihatcher/Desktop/Tarleton M.D./Advanced Quantitative Methods & Experimental Design","False","mono","False","18","no","white","no","yes","768","legacy","7","11","/Users/keelihatcher/Desktop/Tarleton M.D./Advanced Quantitative Methods & Experimental Design/KH-subject-3.csv","legacy","2 6 4 3 9","Melodramatic Milgram","4.0.5","0","n","0","right","rightleft","right","right","NA","553.0","9366","112858","553","NA","2","legacy","5","1024","2","48000","-16","experiment","3","odd","1","233893","236105","226968","233891","2378","193121","232840","2517","80261","238108","238662","234899","12071","238108","NA","Sternberg task","14","9104.0","20","1024"
"71","71","474","474","#3d3846","experiment","legacy","legacy","legacy","1","undefined","1","right","20","20","20","20","0","0","20","0","0","20","20","20","0","20","0","Sun Oct 22 15:46:51 2023","The main experiment item","False","Sternbergtask.osexp","/Users/keelihatcher/Desktop/Tarleton M.D./Advanced Quantitative Methods & Experimental Design","False","mono","False","18","no","white","no","yes","768","legacy","8","11","/Users/keelihatcher/Desktop/Tarleton M.D./Advanced Quantitative Methods & Experimental Design/KH-subject-3.csv","legacy","7 9","Melodramatic Milgram","4.0.5","0","n","0","right","rightleft","right","right","NA","861.0","9366","112858","861","NA","2","legacy","2","1024","2","48000","-16","experiment","3","odd","1","239715","241925","238664","239713","2378","193121","232840","2517","80261","243928","244790","240720","12071","243928","NA","Sternberg task","15","9965.0","21","1024"
"72","72","474","474","#3d3846","experiment","legacy","legacy","legacy","1","undefined","1","right","21","21","21","21","0","0","21","0","0","21","21","21","0","21","0","Sun Oct 22 15:46:51 2023","The main experiment item","False","Sternbergtask.osexp","/Users/keelihatcher/Desktop/Tarleton M.D./Advanced Quantitative Methods & Experimental Design","False","mono","False","18","no","white","no","yes","768","legacy","9","11","/Users/keelihatcher/Desktop/Tarleton M.D./Advanced Quantitative Methods & Experimental Design/KH-subject-3.csv","legacy","7 4 2 8 1 9","Melodramatic Milgram","4.0.5","0","n","0","right","rightleft","right","right","NA","483.0","9366","112858","483","NA","2","legacy","6","1024","2","48000","-16","experiment","3","odd","5","245846","248055","244792","245844","2378","193121","232840","2517","80261","250058","250542","246849","12071","250058","NA","Sternberg task","16","10448.0","22","1024"
"73","73","478","478","#3d3846","experiment","legacy","legacy","legacy","1","undefined","1","right","22","22","22","22","0","0","22","0","0","22","22","22","0","22","0","Sun Oct 22 15:46:51 2023","The main experiment item","False","Sternbergtask.osexp","/Users/keelihatcher/Desktop/Tarleton M.D./Advanced Quantitative Methods & Experimental Design","False","mono","False","18","no","white","no","yes","768","legacy","10","11","/Users/keelihatcher/Desktop/Tarleton M.D./Advanced Quantitative Methods & Experimental Design/KH-subject-3.csv","legacy","2 3 8 5 6 7","Melodramatic Milgram","4.0.5","0","n","0","right","rightleft","right","right","NA","547.0","9366","112858","547","NA","2","legacy","6","1024","2","48000","-16","experiment","3","odd","1","251597","253805","250545","251595","2378","193121","232840","2517","80261","255809","256357","252601","12071","255809","NA","Sternberg task","17","10995.0","23","1024"
"75","75","481","481","#3d3846","experiment","legacy","legacy","legacy","1","undefined","1","right","23","23","23","23","0","0","23","0","0","23","23","23","0","23","0","Sun Oct 22 15:46:51 2023","The main experiment item","False","Sternbergtask.osexp","/Users/keelihatcher/Desktop/Tarleton M.D./Advanced Quantitative Methods & Experimental Design","False","mono","False","18","no","white","no","yes","768","legacy","11","11","/Users/keelihatcher/Desktop/Tarleton M.D./Advanced Quantitative Methods & Experimental Design/KH-subject-3.csv","legacy","7 1 8 4 9 3","Melodramatic Milgram","4.0.5","0","n","0","right","rightleft","right","right","NA","559.0","9366","112858","559","NA","2","legacy","6","1024","2","48000","-16","experiment","3","odd","6","257410","259618","256360","257407","2378","193121","232840","2517","80261","261621","262181","258413","12071","261621","NA","Sternberg task","18","11554.0","24","1024"
"76","76","488","488","#3d3846","experiment","legacy","legacy","legacy","1","undefined","1","right","24","24","24","24","0","0","24","0","0","24","24","24","0","24","0","Sun Oct 22 15:46:51 2023","The main experiment item","False","Sternbergtask.osexp","/Users/keelihatcher/Desktop/Tarleton M.D./Advanced Quantitative Methods & Experimental Design","False","mono","False","18","no","white","no","yes","768","legacy","12","11","/Users/keelihatcher/Desktop/Tarleton M.D./Advanced Quantitative Methods & Experimental Design/KH-subject-3.csv","legacy","4 8 1 2","Melodramatic Milgram","4.0.5","0","n","0","right","rightleft","right","right","NA","666.0","9366","112858","666","NA","2","legacy","4","1024","2","48000","-16","experiment","3","odd","7","263225","265432","262183","263223","2378","193121","232840","2517","80261","267435","268102","264229","12071","267435","NA","Sternberg task","19","12220.0","25","1024"
"76","76","491","491","#3d3846","experiment","legacy","legacy","legacy","1","undefined","1","left","25","25","25","25","0","0","25","0","0","25","25","25","0","25","0","Sun Oct 22 15:46:51 2023","The main experiment item","False","Sternbergtask.osexp","/Users/keelihatcher/Desktop/Tarleton M.D./Advanced Quantitative Methods & Experimental Design","False","mono","False","18","no","white","no","yes","768","legacy","13","11","/Users/keelihatcher/Desktop/Tarleton M.D./Advanced Quantitative Methods & Experimental Design/KH-subject-3.csv","legacy","4 7 6 8 2 3","Melodramatic Milgram","4.0.5","6","y","0","left","rightleft","right","left","NA","566.0","9366","112858","566","NA","2","legacy","6","1024","2","48000","-16","experiment","3","odd","3","269156","271364","268104","269154","2378","193121","232840","2517","80261","273366","273933","270159","12071","273366","NA","Sternberg task","20","12786.0","26","1024"
"77","77","494","494","#3d3846","experiment","legacy","legacy","legacy","1","undefined","1","left","26","26","26","26","0","0","26","0","0","26","26","26","0","26","0","Sun Oct 22 15:46:51 2023","The main experiment item","False","Sternbergtask.osexp","/Users/keelihatcher/Desktop/Tarleton M.D./Advanced Quantitative Methods & Experimental Design","False","mono","False","18","no","white","no","yes","768","legacy","14","11","/Users/keelihatcher/Desktop/Tarleton M.D./Advanced Quantitative Methods & Experimental Design/KH-subject-3.csv","legacy","3 5 7 1","Melodramatic Milgram","4.0.5","3","y","0","left","rightleft","right","left","NA","556.0","9366","112858","556","NA","2","legacy","4","1024","2","48000","-16","experiment","3","odd","7","274989","277198","273935","274987","2378","193121","232840","2517","80261","279201","279758","275992","12071","279201","NA","Sternberg task","21","13342.0","27","1024"
"78","78","495","495","#3d3846","experiment","legacy","legacy","legacy","1","undefined","1","right","27","27","27","27","0","0","27","0","0","27","27","27","0","27","0","Sun Oct 22 15:46:51 2023","The main experiment item","False","Sternbergtask.osexp","/Users/keelihatcher/Desktop/Tarleton M.D./Advanced Quantitative Methods & Experimental Design","False","mono","False","18","no","white","no","yes","768","legacy","15","11","/Users/keelihatcher/Desktop/Tarleton M.D./Advanced Quantitative Methods & Experimental Design/KH-subject-3.csv","legacy","9 5 3 2 8 6","Melodramatic Milgram","4.0.5","0","n","0","right","rightleft","right","right","NA","522.0","9366","112858","522","NA","2","legacy","6","1024","2","48000","-16","experiment","3","odd","7","280817","283029","279760","280815","2378","193121","232840","2517","80261","285033","285556","281821","12071","285032","NA","Sternberg task","22","13864.0","28","1024"
"79","79","501","501","#3d3846","experiment","legacy","legacy","legacy","1","undefined","1","left","28","28","28","28","0","0","28","0","0","28","28","28","0","28","0","Sun Oct 22 15:46:51 2023","The main experiment item","False","Sternbergtask.osexp","/Users/keelihatcher/Desktop/Tarleton M.D./Advanced Quantitative Methods & Experimental Design","False","mono","False","18","no","white","no","yes","768","legacy","16","11","/Users/keelihatcher/Desktop/Tarleton M.D./Advanced Quantitative Methods & Experimental Design/KH-subject-3.csv","legacy","3 5 4 7","Melodramatic Milgram","4.0.5","1","y","0","left","rightleft","right","left","NA","665.0","9366","112858","665","NA","2","legacy","4","1024","2","48000","-16","experiment","3","odd","3","286585","288792","285558","286583","2378","193121","232840","2517","80261","290795","291461","287589","12071","290795","NA","Sternberg task","23","14529.0","29","1024"
"80","80","505","505","#3d3846","experiment","legacy","legacy","legacy","1","undefined","1","right","29","29","29","29","0","0","29","0","0","29","29","29","0","29","0","Sun Oct 22 15:46:51 2023","The main experiment item","False","Sternbergtask.osexp","/Users/keelihatcher/Desktop/Tarleton M.D./Advanced Quantitative Methods & Experimental Design","False","mono","False","18","no","white","no","yes","768","legacy","17","11","/Users/keelihatcher/Desktop/Tarleton M.D./Advanced Quantitative Methods & Experimental Design/KH-subject-3.csv","legacy","9 7 4 5 8","Melodramatic Milgram","4.0.5","0","n","0","right","rightleft","right","right","NA","650.0","9366","112858","650","NA","2","legacy","5","1024","2","48000","-16","experiment","3","odd","6","292511","294719","291465","292509","2378","193121","232840","2517","80261","296722","297373","293514","12071","296722","NA","Sternberg task","24","15179.0","30","1024"
"80","80","513","513","#3d3846","experiment","legacy","legacy","legacy","1","undefined","1","right","30","30","30","30","0","0","30","0","0","30","30","30","0","30","0","Sun Oct 22 15:46:51 2023","The main experiment item","False","Sternbergtask.osexp","/Users/keelihatcher/Desktop/Tarleton M.D./Advanced Quantitative Methods & Experimental Design","False","mono","False","18","no","white","no","yes","768","legacy","18","11","/Users/keelihatcher/Desktop/Tarleton M.D./Advanced Quantitative Methods & Experimental Design/KH-subject-3.csv","legacy","5 9 2 3","Melodramatic Milgram","4.0.5","0","n","0","right","rightleft","right","right","NA","748.0","9366","112858","748","NA","2","legacy","4","1024","2","48000","-16","experiment","3","odd","8","298429","300639","297374","298426","2378","193121","232840","2517","80261","302648","303397","299433","12071","302648","NA","Sternberg task","25","15927.0","31","1024"
"81","81","509","509","#3d3846","experiment","legacy","legacy","legacy","1","undefined","1","left","31","31","31","31","0","0","31","0","0","31","31","31","0","31","0","Sun Oct 22 15:46:51 2023","The main experiment item","False","Sternbergtask.osexp","/Users/keelihatcher/Desktop/Tarleton M.D./Advanced Quantitative Methods & Experimental Design","False","mono","False","18","no","white","no","yes","768","legacy","19","11","/Users/keelihatcher/Desktop/Tarleton M.D./Advanced Quantitative Methods & Experimental Design/KH-subject-3.csv","legacy","7 8 4 6 9 5","Melodramatic Milgram","4.0.5","4","y","0","left","rightleft","right","left","NA","387.0","9366","112858","387","NA","2","legacy","6","1024","2","48000","-16","experiment","3","odd","6","304459","306669","303401","304457","2378","193121","232840","2517","80261","308673","309061","305463","12071","308673","NA","Sternberg task","26","16314.0","32","1024"
"81","81","512","512","#3d3846","experiment","legacy","legacy","legacy","1","undefined","1","right","32","32","32","32","0","0","32","0","0","32","32","32","0","32","0","Sun Oct 22 15:46:51 2023","The main experiment item","False","Sternbergtask.osexp","/Users/keelihatcher/Desktop/Tarleton M.D./Advanced Quantitative Methods & Experimental Design","False","mono","False","18","no","white","no","yes","768","legacy","20","11","/Users/keelihatcher/Desktop/Tarleton M.D./Advanced Quantitative Methods & Experimental Design/KH-subject-3.csv","legacy","1 5 3 2 8","Melodramatic Milgram","4.0.5","0","n","0","right","rightleft","right","right","NA","587.0","9366","112858","587","NA","2","legacy","5","1024","2","48000","-16","experiment","3","odd","4","310116","312327","309063","310114","2378","193121","232840","2517","80261","314330","314918","311121","12071","314330","NA","Sternberg task","27","16901.0","33","1024"
"82","82","510","510","#3d3846","experiment","legacy","legacy","legacy","1","undefined","1","right","33","33","33","33","0","0","33","0","0","33","33","33","0","33","0","Sun Oct 22 15:46:51 2023","The main experiment item","False","Sternbergtask.osexp","/Users/keelihatcher/Desktop/Tarleton M.D./Advanced Quantitative Methods & Experimental Design","False","mono","False","18","no","white","no","yes","768","legacy","21","11","/Users/keelihatcher/Desktop/Tarleton M.D./Advanced Quantitative Methods & Experimental Design/KH-subject-3.csv","legacy","5 2","Melodramatic Milgram","4.0.5","0","n","0","right","rightleft","right","right","NA","465.0","9366","112858","465","NA","2","legacy","2","1024","2","48000","-16","experiment","3","odd","7","315975","318185","314921","315973","2378","193121","232840","2517","80261","320188","320654","316980","12071","320188","NA","Sternberg task","28","17366.0","34","1024"
"82","82","512","512","#3d3846","experiment","legacy","legacy","legacy","1","undefined","1","right","34","34","34","34","0","0","34","0","0","34","34","34","0","34","0","Sun Oct 22 15:46:51 2023","The main experiment item","False","Sternbergtask.osexp","/Users/keelihatcher/Desktop/Tarleton M.D./Advanced Quantitative Methods & Experimental Design","False","mono","False","18","no","white","no","yes","768","legacy","22","11","/Users/keelihatcher/Desktop/Tarleton M.D./Advanced Quantitative Methods & Experimental Design/KH-subject-3.csv","legacy","7 9 1 6","Melodramatic Milgram","4.0.5","0","n","0","right","rightleft","right","right","NA","577.0","9366","112858","577","NA","2","legacy","4","1024","2","48000","-16","experiment","3","odd","4","321705","323913","320656","321703","2378","193121","232840","2517","80261","325916","326494","322708","12071","325916","NA","Sternberg task","29","17943.0","35","1024"
"83","83","512","512","#3d3846","experiment","legacy","legacy","legacy","1","undefined","1","right","35","35","35","35","0","0","35","0","0","35","35","35","0","35","0","Sun Oct 22 15:46:51 2023","The main experiment item","False","Sternbergtask.osexp","/Users/keelihatcher/Desktop/Tarleton M.D./Advanced Quantitative Methods & Experimental Design","False","mono","False","18","no","white","no","yes","768","legacy","23","11","/Users/keelihatcher/Desktop/Tarleton M.D./Advanced Quantitative Methods & Experimental Design/KH-subject-3.csv","legacy","6 2 9 3 8 4","Melodramatic Milgram","4.0.5","0","n","0","right","rightleft","right","right","NA","504.0","9366","112858","504","NA","2","legacy","6","1024","2","48000","-16","experiment","3","odd","1","327546","329754","326498","327543","2378","193121","232840","2517","80261","331757","332262","328548","12071","331756","NA","Sternberg task","30","18447.0","36","1024"
"83","83","514","514","#3d3846","experiment","legacy","legacy","legacy","1","undefined","1","left","36","36","36","36","0","0","36","0","0","36","36","36","0","36","0","Sun Oct 22 15:46:51 2023","The main experiment item","False","Sternbergtask.osexp","/Users/keelihatcher/Desktop/Tarleton M.D./Advanced Quantitative Methods & Experimental Design","False","mono","False","18","no","white","no","yes","768","legacy","24","11","/Users/keelihatcher/Desktop/Tarleton M.D./Advanced Quantitative Methods & Experimental Design/KH-subject-3.csv","legacy","7 6","Melodramatic Milgram","4.0.5","2","y","0","left","rightleft","right","left","NA","577.0","9366","112858","577","NA","2","legacy","2","1024","2","48000","-16","experiment","3","odd","6","333313","335521","332264","333311","2378","193121","232840","2517","80261","337524","338102","334317","12071","337524","NA","Sternberg task","31","19024.0","37","1024"
"81","81","518","518","#3d3846","experiment","legacy","legacy","legacy","0","undefined","0","right","37","37","37","37","0","0","37","0","0","37","37","37","0","37","0","Sun Oct 22 15:46:51 2023","The main experiment item","False","Sternbergtask.osexp","/Users/keelihatcher/Desktop/Tarleton M.D./Advanced Quantitative Methods & Experimental Design","False","mono","False","18","no","white","no","yes","768","legacy","25","11","/Users/keelihatcher/Desktop/Tarleton M.D./Advanced Quantitative Methods & Experimental Design/KH-subject-3.csv","legacy","2 8 9","Melodramatic Milgram","4.0.5","0","n","0","left","rightleft","right","left","NA","662.0","9366","112858","662","NA","2","legacy","3","1024","2","48000","-16","experiment","3","odd","6","339157","341365","338104","339155","2378","193121","232840","2517","80261","343374","344037","340160","12071","343373","NA","Sternberg task","31","19686.0","38","1024"
"79","79","522","522","#3d3846","experiment","legacy","legacy","legacy","0","undefined","0","left","38","38","38","38","0","0","38","0","0","38","38","38","0","38","0","Sun Oct 22 15:46:51 2023","The main experiment item","False","Sternbergtask.osexp","/Users/keelihatcher/Desktop/Tarleton M.D./Advanced Quantitative Methods & Experimental Design","False","mono","False","18","no","white","no","yes","768","legacy","26","11","/Users/keelihatcher/Desktop/Tarleton M.D./Advanced Quantitative Methods & Experimental Design/KH-subject-3.csv","legacy","9 8 4","Melodramatic Milgram","4.0.5","1","y","0","right","rightleft","right","right","NA","701.0","9366","112858","701","NA","2","legacy","3","1024","2","48000","-16","experiment","3","odd","9","345095","347302","338104","345094","2378","193121","344040","2517","80261","349305","350006","346099","12071","349305","NA","Sternberg task","31","20387.0","39","1024"
"80","80","521","521","#3d3846","experiment","legacy","legacy","legacy","1","undefined","1","left","39","39","39","39","0","0","39","0","0","39","39","39","0","39","0","Sun Oct 22 15:46:51 2023","The main experiment item","False","Sternbergtask.osexp","/Users/keelihatcher/Desktop/Tarleton M.D./Advanced Quantitative Methods & Experimental Design","False","mono","False","18","no","white","no","yes","768","legacy","27","11","/Users/keelihatcher/Desktop/Tarleton M.D./Advanced Quantitative Methods & Experimental Design/KH-subject-3.csv","legacy","5 2 6","Melodramatic Milgram","4.0.5","2","y","0","left","rightleft","right","left","NA","471.0","9366","112858","471","NA","2","legacy","3","1024","2","48000","-16","experiment","3","odd","2","351052","353260","338104","351050","2378","193121","350008","2517","80261","355262","355734","352056","12071","355262","NA","Sternberg task","32","20858.0","40","1024"
"80","80","519","519","#3d3846","experiment","legacy","legacy","legacy","1","undefined","1","left","40","40","40","40","0","0","40","0","0","40","40","40","0","40","0","Sun Oct 22 15:46:51 2023","The main experiment item","False","Sternbergtask.osexp","/Users/keelihatcher/Desktop/Tarleton M.D./Advanced Quantitative Methods & Experimental Design","False","mono","False","18","no","white","no","yes","768","legacy","28","11","/Users/keelihatcher/Desktop/Tarleton M.D./Advanced Quantitative Methods & Experimental Design/KH-subject-3.csv","legacy","2 3","Melodramatic Milgram","4.0.5","1","y","0","left","rightleft","right","left","NA","432.0","9366","112858","432","NA","2","legacy","2","1024","2","48000","-16","experiment","3","odd","2","356784","358993","355736","356782","2378","193121","350008","2517","80261","360997","361430","357787","12071","360997","NA","Sternberg task","33","21290.0","41","1024"
"80","80","517","517","#3d3846","experiment","legacy","legacy","legacy","1","undefined","1","left","41","41","41","41","0","0","41","0","0","41","41","41","0","41","0","Sun Oct 22 15:46:51 2023","The main experiment item","False","Sternbergtask.osexp","/Users/keelihatcher/Desktop/Tarleton M.D./Advanced Quantitative Methods & Experimental Design","False","mono","False","18","no","white","no","yes","768","legacy","29","11","/Users/keelihatcher/Desktop/Tarleton M.D./Advanced Quantitative Methods & Experimental Design/KH-subject-3.csv","legacy","8 9 5 6 7","Melodramatic Milgram","4.0.5","1","y","0","left","rightleft","right","left","NA","456.0","9366","112858","456","NA","2","legacy","5","1024","2","48000","-16","experiment","3","odd","8","362483","364691","361432","362481","2378","193121","350008","2517","80261","366694","367150","363487","12071","366694","NA","Sternberg task","34","21746.0","42","1024"
"81","81","519","519","#3d3846","experiment","legacy","legacy","legacy","1","undefined","1","right","42","42","42","42","0","0","42","0","0","42","42","42","0","42","0","Sun Oct 22 15:46:51 2023","The main experiment item","False","Sternbergtask.osexp","/Users/keelihatcher/Desktop/Tarleton M.D./Advanced Quantitative Methods & Experimental Design","False","mono","False","18","no","white","no","yes","768","legacy","30","11","/Users/keelihatcher/Desktop/Tarleton M.D./Advanced Quantitative Methods & Experimental Design/KH-subject-3.csv","legacy","1 7 8 3 9","Melodramatic Milgram","4.0.5","0","n","0","right","rightleft","right","right","NA","603.0","9366","112858","603","NA","2","legacy","5","1024","2","48000","-16","experiment","3","odd","2","368210","370418","367152","368207","2378","193121","350008","2517","80261","372421","373025","369213","12071","372421","NA","Sternberg task","35","22349.0","43","1024"
"81","81","524","524","#3d3846","experiment","legacy","legacy","legacy","1","undefined","1","left","43","43","43","43","0","0","43","0","0","43","43","43","0","43","0","Sun Oct 22 15:46:51 2023","The main experiment item","False","Sternbergtask.osexp","/Users/keelihatcher/Desktop/Tarleton M.D./Advanced Quantitative Methods & Experimental Design","False","mono","False","18","no","white","no","yes","768","legacy","31","11","/Users/keelihatcher/Desktop/Tarleton M.D./Advanced Quantitative Methods & Experimental Design/KH-subject-3.csv","legacy","6 8 9 3 4 9","Melodramatic Milgram","4.0.5","5","y","0","left","rightleft","right","left","NA","716.0","9366","112858","716","NA","2","legacy","6","1024","2","48000","-16","experiment","3","odd","4","374078","376285","373027","374076","2378","193121","350008","2517","80261","378290","379006","375082","12071","378290","NA","Sternberg task","36","23065.0","44","1024"
"82","82","531","531","#3d3846","experiment","legacy","legacy","legacy","1","undefined","1","left","44","44","44","44","0","0","44","0","0","44","44","44","0","44","0","Sun Oct 22 15:46:51 2023","The main experiment item","False","Sternbergtask.osexp","/Users/keelihatcher/Desktop/Tarleton M.D./Advanced Quantitative Methods & Experimental Design","False","mono","False","18","no","white","no","yes","768","legacy","32","11","/Users/keelihatcher/Desktop/Tarleton M.D./Advanced Quantitative Methods & Experimental Design/KH-subject-3.csv","legacy","3 4 9 6 2 9","Melodramatic Milgram","4.0.5","5","y","0","left","rightleft","right","left","NA","832.0","9366","112858","832","NA","2","legacy","6","1024","2","48000","-16","experiment","3","odd","2","380064","382274","379008","380062","2378","193121","350008","2517","80261","384277","385110","381068","12071","384277","NA","Sternberg task","37","23897.0","45","1024"
"82","82","532","532","#3d3846","experiment","legacy","legacy","legacy","1","undefined","1","left","45","45","45","45","0","0","45","0","0","45","45","45","0","45","0","Sun Oct 22 15:46:51 2023","The main experiment item","False","Sternbergtask.osexp","/Users/keelihatcher/Desktop/Tarleton M.D./Advanced Quantitative Methods & Experimental Design","False","mono","False","18","no","white","no","yes","768","legacy","33","11","/Users/keelihatcher/Desktop/Tarleton M.D./Advanced Quantitative Methods & Experimental Design/KH-subject-3.csv","legacy","9 6 2 4 1","Melodramatic Milgram","4.0.5","4","y","0","left","rightleft","right","left","NA","619.0","9366","112858","619","NA","2","legacy","5","1024","2","48000","-16","experiment","3","odd","4","386166","388376","385112","386164","2378","193121","350008","2517","80261","390379","390998","387171","12071","390379","NA","Sternberg task","38","24516.0","46","1024"
"82","82","532","532","#3d3846","experiment","legacy","legacy","legacy","1","undefined","1","left","46","46","46","46","0","0","46","0","0","46","46","46","0","46","0","Sun Oct 22 15:46:51 2023","The main experiment item","False","Sternbergtask.osexp","/Users/keelihatcher/Desktop/Tarleton M.D./Advanced Quantitative Methods & Experimental Design","False","mono","False","18","no","white","no","yes","768","legacy","34","11","/Users/keelihatcher/Desktop/Tarleton M.D./Advanced Quantitative Methods & Experimental Design/KH-subject-3.csv","legacy","2 4 6 9","Melodramatic Milgram","4.0.5","3","y","0","left","rightleft","right","left","NA","527.0","9366","112858","527","NA","2","legacy","4","1024","2","48000","-16","experiment","3","odd","6","392044","394251","391001","392042","2378","193121","350008","2517","80261","396254","396782","393047","12071","396254","NA","Sternberg task","39","25043.0","47","1024"
"83","83","541","541","#3d3846","experiment","legacy","legacy","legacy","1","undefined","1","right","47","47","47","47","0","0","47","0","0","47","47","47","0","47","0","Sun Oct 22 15:46:51 2023","The main experiment item","False","Sternbergtask.osexp","/Users/keelihatcher/Desktop/Tarleton M.D./Advanced Quantitative Methods & Experimental Design","False","mono","False","18","no","white","no","yes","768","legacy","35","11","/Users/keelihatcher/Desktop/Tarleton M.D./Advanced Quantitative Methods & Experimental Design/KH-subject-3.csv","legacy","8 5 4 2 9 6","Melodramatic Milgram","4.0.5","0","n","0","right","rightleft","right","right","NA","944.0","9366","112858","944","NA","2","legacy","6","1024","2","48000","-16","experiment","3","odd","3","397836","400044","396784","397833","2378","193121","350008","2517","80261","402046","402991","398839","12071","402046","NA","Sternberg task","40","25987.0","48","1024"
"83","83","540","540","#3d3846","experiment","legacy","legacy","legacy","1","undefined","1","left","48","48","48","48","0","0","48","0","0","48","48","48","0","48","0","Sun Oct 22 15:46:51 2023","The main experiment item","False","Sternbergtask.osexp","/Users/keelihatcher/Desktop/Tarleton M.D./Advanced Quantitative Methods & Experimental Design","False","mono","False","18","no","white","no","yes","768","legacy","36","11","/Users/keelihatcher/Desktop/Tarleton M.D./Advanced Quantitative Methods & Experimental Design/KH-subject-3.csv","legacy","8 5 1 3 9","Melodramatic Milgram","4.0.5","4","y","0","left","rightleft","right","left","NA","497.0","9366","112858","497","NA","2","legacy","5","1024","2","48000","-16","experiment","3","odd","3","404045","406256","402994","404043","2378","193121","350008","2517","80261","408259","408757","405051","12071","408259","NA","Sternberg task","41","26484.0","49","1024"
"84","84","539","539","#3d3846","experiment","legacy","legacy","legacy","1","undefined","1","right","49","49","49","49","0","0","49","0","0","49","49","49","0","49","0","Sun Oct 22 15:46:51 2023","The main experiment item","False","Sternbergtask.osexp","/Users/keelihatcher/Desktop/Tarleton M.D./Advanced Quantitative Methods & Experimental Design","False","mono","False","18","no","white","no","yes","768","legacy","37","11","/Users/keelihatcher/Desktop/Tarleton M.D./Advanced Quantitative Methods & Experimental Design/KH-subject-3.csv","legacy","6 9 7 3 8 2","Melodramatic Milgram","4.0.5","0","n","0","right","rightleft","right","right","NA","496.0","9366","112858","496","NA","2","legacy","6","1024","2","48000","-16","experiment","3","odd","5","409808","412017","408760","409806","2378","193121","350008","2517","80261","414021","414518","410812","12071","414021","NA","Sternberg task","42","26980.0","50","1024"
"82","82","538","538","#3d3846","experiment","legacy","legacy","legacy","0","undefined","0","left","50","50","50","50","0","0","50","0","0","50","50","50","0","50","0","Sun Oct 22 15:46:51 2023","The main experiment item","False","Sternbergtask.osexp","/Users/keelihatcher/Desktop/Tarleton M.D./Advanced Quantitative Methods & Experimental Design","False","mono","False","18","no","white","no","yes","768","legacy","38","11","/Users/keelihatcher/Desktop/Tarleton M.D./Advanced Quantitative Methods & Experimental Design/KH-subject-3.csv","legacy","7 1 8 5 6 2","Melodramatic Milgram","4.0.5","2","y","0","right","rightleft","right","right","NA","507.0","9366","112858","507","NA","2","legacy","6","1024","2","48000","-16","experiment","3","odd","1","415573","417782","414520","415571","2378","193121","350008","2517","80261","419786","420294","416577","12071","419785","NA","Sternberg task","42","27487.0","51","1024"
"82","82","541","541","#3d3846","experiment","legacy","legacy","legacy","1","undefined","1","right","51","51","51","51","0","0","51","0","0","51","51","51","0","51","0","Sun Oct 22 15:46:51 2023","The main experiment item","False","Sternbergtask.osexp","/Users/keelihatcher/Desktop/Tarleton M.D./Advanced Quantitative Methods & Experimental Design","False","mono","False","18","no","white","no","yes","768","legacy","39","11","/Users/keelihatcher/Desktop/Tarleton M.D./Advanced Quantitative Methods & Experimental Design/KH-subject-3.csv","legacy","5 3 2 6 9 8","Melodramatic Milgram","4.0.5","0","n","0","right","rightleft","right","right","NA","669.0","9366","112858","669","NA","2","legacy","6","1024","2","48000","-16","experiment","3","odd","4","421347","423556","414520","421345","2378","193121","420296","2517","80261","425560","426230","422351","12071","425560","NA","Sternberg task","43","28156.0","52","1024"
"83","83","542","542","#3d3846","experiment","legacy","legacy","legacy","1","undefined","1","right","52","52","52","52","0","0","52","0","0","52","52","52","0","52","0","Sun Oct 22 15:46:51 2023","The main experiment item","False","Sternbergtask.osexp","/Users/keelihatcher/Desktop/Tarleton M.D./Advanced Quantitative Methods & Experimental Design","False","mono","False","18","no","white","no","yes","768","legacy","40","11","/Users/keelihatcher/Desktop/Tarleton M.D./Advanced Quantitative Methods & Experimental Design/KH-subject-3.csv","legacy","6 9 4 5 2","Melodramatic Milgram","4.0.5","0","n","0","right","rightleft","right","right","NA","574.0","9366","112858","574","NA","2","legacy","5","1024","2","48000","-16","experiment","3","odd","1","427285","429492","426233","427283","2378","193121","420296","2517","80261","431495","432070","428288","12071","431495","NA","Sternberg task","44","28730.0","53","1024"
"81","81","542","542","#3d3846","experiment","legacy","legacy","legacy","0","undefined","0","left","53","53","53","53","0","0","53","0","0","53","53","53","0","53","0","Sun Oct 22 15:46:51 2023","The main experiment item","False","Sternbergtask.osexp","/Users/keelihatcher/Desktop/Tarleton M.D./Advanced Quantitative Methods & Experimental Design","False","mono","False","18","no","white","no","yes","768","legacy","41","11","/Users/keelihatcher/Desktop/Tarleton M.D./Advanced Quantitative Methods & Experimental Design/KH-subject-3.csv","legacy","5 7 3 6 2","Melodramatic Milgram","4.0.5","5","y","0","right","rightleft","right","right","NA","545.0","9366","112858","545","NA","2","legacy","5","1024","2","48000","-16","experiment","3","odd","2","433123","435330","432073","433120","2378","193121","420296","2517","80261","437334","437879","434126","12071","437333","NA","Sternberg task","44","29275.0","54","1024"
"81","81","548","548","#3d3846","experiment","legacy","legacy","legacy","1","undefined","1","left","54","54","54","54","0","0","54","0","0","54","54","54","0","54","0","Sun Oct 22 15:46:51 2023","The main experiment item","False","Sternbergtask.osexp","/Users/keelihatcher/Desktop/Tarleton M.D./Advanced Quantitative Methods & Experimental Design","False","mono","False","18","no","white","no","yes","768","legacy","42","11","/Users/keelihatcher/Desktop/Tarleton M.D./Advanced Quantitative Methods & Experimental Design/KH-subject-3.csv","legacy","4 1 5","Melodramatic Milgram","4.0.5","2","y","0","left","rightleft","right","left","NA","888.0","9366","112858","888","NA","2","legacy","3","1024","2","48000","-16","experiment","3","odd","1","438931","441139","432073","438929","2378","193121","437881","2517","80261","443142","444031","439935","12071","443142","NA","Sternberg task","45","30163.0","55","1024"
"82","82","545","545","#3d3846","experiment","legacy","legacy","legacy","1","undefined","1","right","55","55","55","55","0","0","55","0","0","55","55","55","0","55","0","Sun Oct 22 15:46:51 2023","The main experiment item","False","Sternbergtask.osexp","/Users/keelihatcher/Desktop/Tarleton M.D./Advanced Quantitative Methods & Experimental Design","False","mono","False","18","no","white","no","yes","768","legacy","43","11","/Users/keelihatcher/Desktop/Tarleton M.D./Advanced Quantitative Methods & Experimental Design/KH-subject-3.csv","legacy","5","Melodramatic Milgram","4.0.5","0","n","0","right","rightleft","right","right","NA","403.0","9366","112858","403","NA","2","legacy","1","1024","2","48000","-16","experiment","3","odd","8","445083","447290","444033","445081","2378","193121","437881","2517","80261","449299","449703","446086","12071","449299","NA","Sternberg task","46","30566.0","56","1024"
"82","82","545","545","#3d3846","experiment","legacy","legacy","legacy","1","undefined","1","left","56","56","56","56","0","0","56","0","0","56","56","56","0","56","0","Sun Oct 22 15:46:51 2023","The main experiment item","False","Sternbergtask.osexp","/Users/keelihatcher/Desktop/Tarleton M.D./Advanced Quantitative Methods & Experimental Design","False","mono","False","18","no","white","no","yes","768","legacy","44","11","/Users/keelihatcher/Desktop/Tarleton M.D./Advanced Quantitative Methods & Experimental Design/KH-subject-3.csv","legacy","3 5 9 6 2 4","Melodramatic Milgram","4.0.5","1","y","0","left","rightleft","right","left","NA","515.0","9366","112858","515","NA","2","legacy","6","1024","2","48000","-16","experiment","3","odd","3","450753","452960","449705","450751","2378","193121","437881","2517","80261","454963","455479","451756","12071","454963","NA","Sternberg task","47","31081.0","57","1024"
"82","82","543","543","#3d3846","experiment","legacy","legacy","legacy","1","undefined","1","left","57","57","57","57","0","0","57","0","0","57","57","57","0","57","0","Sun Oct 22 15:46:51 2023","The main experiment item","False","Sternbergtask.osexp","/Users/keelihatcher/Desktop/Tarleton M.D./Advanced Quantitative Methods & Experimental Design","False","mono","False","18","no","white","no","yes","768","legacy","45","11","/Users/keelihatcher/Desktop/Tarleton M.D./Advanced Quantitative Methods & Experimental Design/KH-subject-3.csv","legacy","9 4 2","Melodramatic Milgram","4.0.5","1","y","0","left","rightleft","right","left","NA","454.0","9366","112858","454","NA","2","legacy","3","1024","2","48000","-16","experiment","3","odd","9","456533","458740","455482","456531","2378","193121","437881","2517","80261","460743","461198","457536","12071","460743","NA","Sternberg task","48","31535.0","58","1024"
"81","81","542","542","#3d3846","experiment","legacy","legacy","legacy","0","undefined","0","left","58","58","58","58","0","0","58","0","0","58","58","58","0","58","0","Sun Oct 22 15:46:51 2023","The main experiment item","False","Sternbergtask.osexp","/Users/keelihatcher/Desktop/Tarleton M.D./Advanced Quantitative Methods & Experimental Design","False","mono","False","18","no","white","no","yes","768","legacy","46","11","/Users/keelihatcher/Desktop/Tarleton M.D./Advanced Quantitative Methods & Experimental Design/KH-subject-3.csv","legacy","1 4 9 3 2 5","Melodramatic Milgram","4.0.5","3","y","0","right","rightleft","right","right","NA","501.0","9366","112858","501","NA","2","legacy","6","1024","2","48000","-16","experiment","3","odd","9","462246","464454","461199","462244","2378","193121","437881","2517","80261","466457","466958","463249","12071","466457","NA","Sternberg task","48","32036.0","59","1024"
"81","81","543","543","#3d3846","experiment","legacy","legacy","legacy","1","undefined","1","right","59","59","59","59","0","0","59","0","0","59","59","59","0","59","0","Sun Oct 22 15:46:51 2023","The main experiment item","False","Sternbergtask.osexp","/Users/keelihatcher/Desktop/Tarleton M.D./Advanced Quantitative Methods & Experimental Design","False","mono","False","18","no","white","no","yes","768","legacy","47","11","/Users/keelihatcher/Desktop/Tarleton M.D./Advanced Quantitative Methods & Experimental Design/KH-subject-3.csv","legacy","6 7 5 9","Melodramatic Milgram","4.0.5","0","n","0","right","rightleft","right","right","NA","556.0","9366","112858","556","NA","2","legacy","4","1024","2","48000","-16","experiment","3","odd","2","468006","470214","461199","468004","2378","193121","466960","2517","80261","472218","472774","469010","12071","472218","NA","Sternberg task","49","32592.0","60","1024"
"81","81","544","544","#3d3846","experiment","legacy","legacy","legacy","1","undefined","1","left","60","60","60","60","0","0","60","0","0","60","60","60","0","60","0","Sun Oct 22 15:46:51 2023","The main experiment item","False","Sternbergtask.osexp","/Users/keelihatcher/Desktop/Tarleton M.D./Advanced Quantitative Methods & Experimental Design","False","mono","False","18","no","white","no","yes","768","legacy","48","11","/Users/keelihatcher/Desktop/Tarleton M.D./Advanced Quantitative Methods & Experimental Design/KH-subject-3.csv","legacy","7 4 2 6 3 5","Melodramatic Milgram","4.0.5","6","y","0","left","rightleft","right","left","NA","616.0","9366","112858","616","NA","2","legacy","6","1024","2","48000","-16","experiment","3","odd","5","473819","476027","472776","473817","2378","193121","466960","2517","80261","478030","478647","474822","12071","478030","NA","Sternberg task","50","33208.0","61","1024"
"80","80","547","547","#3d3846","experiment","legacy","legacy","legacy","0","undefined","0","right","61","61","61","61","0","0","61","0","0","61","61","61","0","61","0","Sun Oct 22 15:46:51 2023","The main experiment item","False","Sternbergtask.osexp","/Users/keelihatcher/Desktop/Tarleton M.D./Advanced Quantitative Methods & Experimental Design","False","mono","False","18","no","white","no","yes","768","legacy","49","11","/Users/keelihatcher/Desktop/Tarleton M.D./Advanced Quantitative Methods & Experimental Design/KH-subject-3.csv","legacy","9 8 2 7 4","Melodramatic Milgram","4.0.5","0","n","0","left","rightleft","right","left","NA","715.0","9366","112858","715","NA","2","legacy","5","1024","2","48000","-16","experiment","3","odd","5","479696","481904","478649","479694","2378","193121","466960","2517","80261","483907","484623","480701","12071","483907","NA","Sternberg task","50","33923.0","62","1024"
"80","80","550","550","#3d3846","experiment","legacy","legacy","legacy","1","undefined","1","left","62","62","62","62","0","0","62","0","0","62","62","62","0","62","0","Sun Oct 22 15:46:51 2023","The main experiment item","False","Sternbergtask.osexp","/Users/keelihatcher/Desktop/Tarleton M.D./Advanced Quantitative Methods & Experimental Design","False","mono","False","18","no","white","no","yes","768","legacy","50","11","/Users/keelihatcher/Desktop/Tarleton M.D./Advanced Quantitative Methods & Experimental Design/KH-subject-3.csv","legacy","5 2 9 6 1 7","Melodramatic Milgram","4.0.5","3","y","0","left","rightleft","right","left","NA","783.0","9366","112858","783","NA","2","legacy","6","1024","2","48000","-16","experiment","3","odd","9","485675","487884","478649","485673","2378","193121","484625","2517","80261","489887","490671","486679","12071","489886","NA","Sternberg task","51","34706.0","63","1024"
"81","81","548","548","#3d3846","experiment","legacy","legacy","legacy","1","undefined","1","right","63","63","63","63","0","0","63","0","0","63","63","63","0","63","0","Sun Oct 22 15:46:51 2023","The main experiment item","False","Sternbergtask.osexp","/Users/keelihatcher/Desktop/Tarleton M.D./Advanced Quantitative Methods & Experimental Design","False","mono","False","18","no","white","no","yes","768","legacy","51","11","/Users/keelihatcher/Desktop/Tarleton M.D./Advanced Quantitative Methods & Experimental Design/KH-subject-3.csv","legacy","7 1","Melodramatic Milgram","4.0.5","0","n","0","right","rightleft","right","right","NA","429.0","9366","112858","429","NA","2","legacy","2","1024","2","48000","-16","experiment","3","odd","8","491724","493932","490672","491722","2378","193121","484625","2517","80261","495937","496367","492727","12071","495936","NA","Sternberg task","52","35135.0","64","1024"
"81","81","547","547","#3d3846","experiment","legacy","legacy","legacy","1","undefined","1","left","64","64","64","64","0","0","64","0","0","64","64","64","0","64","0","Sun Oct 22 15:46:51 2023","The main experiment item","False","Sternbergtask.osexp","/Users/keelihatcher/Desktop/Tarleton M.D./Advanced Quantitative Methods & Experimental Design","False","mono","False","18","no","white","no","yes","768","legacy","52","11","/Users/keelihatcher/Desktop/Tarleton M.D./Advanced Quantitative Methods & Experimental Design/KH-subject-3.csv","legacy","3 9 7 6 4","Melodramatic Milgram","4.0.5","3","y","0","left","rightleft","right","left","NA","474.0","9366","112858","474","NA","2","legacy","5","1024","2","48000","-16","experiment","3","odd","7","497415","499623","496369","497412","2378","193121","484625","2517","80261","501626","502101","498419","12071","501626","NA","Sternberg task","53","35609.0","65","1024"
"81","81","548","548","#3d3846","experiment","legacy","legacy","legacy","1","undefined","1","right","65","65","65","65","0","0","65","0","0","65","65","65","0","65","0","Sun Oct 22 15:46:51 2023","The main experiment item","False","Sternbergtask.osexp","/Users/keelihatcher/Desktop/Tarleton M.D./Advanced Quantitative Methods & Experimental Design","False","mono","False","18","no","white","no","yes","768","legacy","53","11","/Users/keelihatcher/Desktop/Tarleton M.D./Advanced Quantitative Methods & Experimental Design/KH-subject-3.csv","legacy","8 2 1 4 5 9","Melodramatic Milgram","4.0.5","0","n","0","right","rightleft","right","right","NA","569.0","9366","112858","569","NA","2","legacy","6","1024","2","48000","-16","experiment","3","odd","7","503148","505354","502103","503146","2378","193121","484625","2517","80261","507357","507927","504151","12071","507357","NA","Sternberg task","54","36178.0","66","1024"
"82","82","553","553","#3d3846","experiment","legacy","legacy","legacy","1","undefined","1","right","66","66","66","66","0","0","66","0","0","66","66","66","0","66","0","Sun Oct 22 15:46:51 2023","The main experiment item","False","Sternbergtask.osexp","/Users/keelihatcher/Desktop/Tarleton M.D./Advanced Quantitative Methods & Experimental Design","False","mono","False","18","no","white","no","yes","768","legacy","54","11","/Users/keelihatcher/Desktop/Tarleton M.D./Advanced Quantitative Methods & Experimental Design/KH-subject-3.csv","legacy","8 6 3 4 7","Melodramatic Milgram","4.0.5","0","n","0","right","rightleft","right","right","NA","883.0","9366","112858","883","NA","2","legacy","5","1024","2","48000","-16","experiment","3","odd","1","508976","511189","507929","508974","2378","193121","484625","2517","80261","513193","514076","509979","12071","513193","NA","Sternberg task","55","37061.0","67","1024"
"82","82","551","551","#3d3846","experiment","legacy","legacy","legacy","1","undefined","1","left","67","67","67","67","0","0","67","0","0","67","67","67","0","67","0","Sun Oct 22 15:46:51 2023","The main experiment item","False","Sternbergtask.osexp","/Users/keelihatcher/Desktop/Tarleton M.D./Advanced Quantitative Methods & Experimental Design","False","mono","False","18","no","white","no","yes","768","legacy","55","11","/Users/keelihatcher/Desktop/Tarleton M.D./Advanced Quantitative Methods & Experimental Design/KH-subject-3.csv","legacy","8 9 5 7 1 6","Melodramatic Milgram","4.0.5","4","y","0","left","rightleft","right","left","NA","409.0","9366","112858","409","NA","2","legacy","6","1024","2","48000","-16","experiment","3","odd","7","515120","517329","514078","515117","2378","193121","484625","2517","80261","519333","519743","516124","12071","519333","NA","Sternberg task","56","37470.0","68","1024"
"82","82","551","551","#3d3846","experiment","legacy","legacy","legacy","1","undefined","1","right","68","68","68","68","0","0","68","0","0","68","68","68","0","68","0","Sun Oct 22 15:46:51 2023","The main experiment item","False","Sternbergtask.osexp","/Users/keelihatcher/Desktop/Tarleton M.D./Advanced Quantitative Methods & Experimental Design","False","mono","False","18","no","white","no","yes","768","legacy","56","11","/Users/keelihatcher/Desktop/Tarleton M.D./Advanced Quantitative Methods & Experimental Design/KH-subject-3.csv","legacy","1 3 2 6 9","Melodramatic Milgram","4.0.5","0","n","0","right","rightleft","right","right","NA","588.0","9366","112858","588","NA","2","legacy","5","1024","2","48000","-16","experiment","3","odd","5","520799","523006","519745","520796","2378","193121","484625","2517","80261","525010","525599","521802","12071","525010","NA","Sternberg task","57","38058.0","69","1024"
"82","82","552","552","#3d3846","experiment","legacy","legacy","legacy","1","undefined","1","left","69","69","69","69","0","0","69","0","0","69","69","69","0","69","0","Sun Oct 22 15:46:51 2023","The main experiment item","False","Sternbergtask.osexp","/Users/keelihatcher/Desktop/Tarleton M.D./Advanced Quantitative Methods & Experimental Design","False","mono","False","18","no","white","no","yes","768","legacy","57","11","/Users/keelihatcher/Desktop/Tarleton M.D./Advanced Quantitative Methods & Experimental Design/KH-subject-3.csv","legacy","2 3 7 4","Melodramatic Milgram","4.0.5","1","y","0","left","rightleft","right","left","NA","608.0","9366","112858","608","NA","2","legacy","4","1024","2","48000","-16","experiment","3","odd","2","526655","528864","525601","526653","2378","193121","484625","2517","80261","530868","531477","527659","12071","530868","NA","Sternberg task","58","38666.0","70","1024"
"81","81","551","551","#3d3846","experiment","legacy","legacy","legacy","0","undefined","0","left","70","70","70","70","0","0","70","0","0","70","70","70","0","70","0","Sun Oct 22 15:46:51 2023","The main experiment item","False","Sternbergtask.osexp","/Users/keelihatcher/Desktop/Tarleton M.D./Advanced Quantitative Methods & Experimental Design","False","mono","False","18","no","white","no","yes","768","legacy","58","11","/Users/keelihatcher/Desktop/Tarleton M.D./Advanced Quantitative Methods & Experimental Design/KH-subject-3.csv","legacy","6 9 3 1","Melodramatic Milgram","4.0.5","4","y","0","right","rightleft","right","right","NA","506.0","9366","112858","506","NA","2","legacy","4","1024","2","48000","-16","experiment","3","odd","1","532535","534745","531479","532531","2378","193121","484625","2517","80261","536748","537255","533540","12071","536748","NA","Sternberg task","58","39172.0","71","1024"
"80","80","551","551","#3d3846","experiment","legacy","legacy","legacy","0","undefined","0","left","71","71","71","71","0","0","71","0","0","71","71","71","0","71","0","Sun Oct 22 15:46:51 2023","The main experiment item","False","Sternbergtask.osexp","/Users/keelihatcher/Desktop/Tarleton M.D./Advanced Quantitative Methods & Experimental Design","False","mono","False","18","no","white","no","yes","768","legacy","59","11","/Users/keelihatcher/Desktop/Tarleton M.D./Advanced Quantitative Methods & Experimental Design/KH-subject-3.csv","legacy","8 1 6","Melodramatic Milgram","4.0.5","3","y","0","right","rightleft","right","right","NA","513.0","9366","112858","513","NA","2","legacy","3","1024","2","48000","-16","experiment","3","odd","6","538310","540518","531479","538307","2378","193121","537258","2517","80261","542525","543039","539313","12071","542525","NA","Sternberg task","58","39685.0","72","1024"
"79","79","571","571","#3d3846","experiment","legacy","legacy","legacy","0","undefined","0","right","72","72","72","72","0","0","72","0","0","72","72","72","0","72","0","Sun Oct 22 15:46:51 2023","The main experiment item","False","Sternbergtask.osexp","/Users/keelihatcher/Desktop/Tarleton M.D./Advanced Quantitative Methods & Experimental Design","False","mono","False","18","no","white","no","yes","768","legacy","60","11","/Users/keelihatcher/Desktop/Tarleton M.D./Advanced Quantitative Methods & Experimental Design/KH-subject-3.csv","legacy","9","Melodramatic Milgram","4.0.5","0","n","0","None","rightleft","right","None","NA","2000.0","9366","112858","2000","NA","2","legacy","1","1024","2","48000","-16","experiment","3","odd","6","544094","546303","531479","544092","2378","193121","543041","2517","80261","548306","550306","545098","12071","548306","NA","Sternberg task","58","41685.0","73","1024"
"79","79","571","571","#3d3846","experiment","legacy","legacy","legacy","1","undefined","1","right","73","73","73","73","0","0","73","0","0","73","73","73","0","73","0","Sun Oct 22 15:46:51 2023","The main experiment item","False","Sternbergtask.osexp","/Users/keelihatcher/Desktop/Tarleton M.D./Advanced Quantitative Methods & Experimental Design","False","mono","False","18","no","white","no","yes","768","legacy","61","11","/Users/keelihatcher/Desktop/Tarleton M.D./Advanced Quantitative Methods & Experimental Design/KH-subject-3.csv","legacy","7 8 6 1","Melodramatic Milgram","4.0.5","0","n","0","right","rightleft","right","right","NA","641.0","9366","112858","641","NA","2","legacy","4","1024","2","48000","-16","experiment","3","odd","3","551364","553572","531479","551362","2378","193121","550309","2517","80261","555574","556216","552367","12071","555574","NA","Sternberg task","59","42326.0","74","1024"
"80","80","568","568","#3d3846","experiment","legacy","legacy","legacy","1","undefined","1","left","74","74","74","74","0","0","74","0","0","74","74","74","0","74","0","Sun Oct 22 15:46:51 2023","The main experiment item","False","Sternbergtask.osexp","/Users/keelihatcher/Desktop/Tarleton M.D./Advanced Quantitative Methods & Experimental Design","False","mono","False","18","no","white","no","yes","768","legacy","62","11","/Users/keelihatcher/Desktop/Tarleton M.D./Advanced Quantitative Methods & Experimental Design/KH-subject-3.csv","legacy","4","Melodramatic Milgram","4.0.5","1","y","0","left","rightleft","right","left","NA","302.0","9366","112858","302","NA","2","legacy","1","1024","2","48000","-16","experiment","3","odd","4","557270","559478","556218","557268","2378","193121","550309","2517","80261","561481","561784","558273","12071","561481","NA","Sternberg task","60","42628.0","75","1024"
"78","78","565","565","#3d3846","experiment","legacy","legacy","legacy","0","undefined","0","right","75","75","75","75","0","0","75","0","0","75","75","75","0","75","0","Sun Oct 22 15:46:51 2023","The main experiment item","False","Sternbergtask.osexp","/Users/keelihatcher/Desktop/Tarleton M.D./Advanced Quantitative Methods & Experimental Design","False","mono","False","18","no","white","no","yes","768","legacy","63","11","/Users/keelihatcher/Desktop/Tarleton M.D./Advanced Quantitative Methods & Experimental Design/KH-subject-3.csv","legacy","4 2 7 6 1 3","Melodramatic Milgram","4.0.5","0","n","0","left","rightleft","right","left","NA","350.0","9366","112858","350","NA","2","legacy","6","1024","2","48000","-16","experiment","3","odd","8","562842","565052","561786","562840","2378","193121","550309","2517","80261","567056","567407","563846","12071","567056","NA","Sternberg task","60","42978.0","76","1024"
"79","79","564","564","#3d3846","experiment","legacy","legacy","legacy","1","undefined","1","left","76","76","76","76","0","0","76","0","0","76","76","76","0","76","0","Sun Oct 22 15:46:51 2023","The main experiment item","False","Sternbergtask.osexp","/Users/keelihatcher/Desktop/Tarleton M.D./Advanced Quantitative Methods & Experimental Design","False","mono","False","18","no","white","no","yes","768","legacy","64","11","/Users/keelihatcher/Desktop/Tarleton M.D./Advanced Quantitative Methods & Experimental Design/KH-subject-3.csv","legacy","4 6 5 8","Melodramatic Milgram","4.0.5","1","y","0","left","rightleft","right","left","NA","499.0","9366","112858","499","NA","2","legacy","4","1024","2","48000","-16","experiment","3","odd","4","568456","570664","561786","568453","2378","193121","567409","2517","80261","572667","573167","569459","12071","572667","NA","Sternberg task","61","43477.0","77","1024"
"79","79","566","566","#3d3846","experiment","legacy","legacy","legacy","1","undefined","1","right","77","77","77","77","0","0","77","0","0","77","77","77","0","77","0","Sun Oct 22 15:46:51 2023","The main experiment item","False","Sternbergtask.osexp","/Users/keelihatcher/Desktop/Tarleton M.D./Advanced Quantitative Methods & Experimental Design","False","mono","False","18","no","white","no","yes","768","legacy","65","11","/Users/keelihatcher/Desktop/Tarleton M.D./Advanced Quantitative Methods & Experimental Design/KH-subject-3.csv","legacy","1 4 9 3","Melodramatic Milgram","4.0.5","0","n","0","right","rightleft","right","right","NA","722.0","9366","112858","722","NA","2","legacy","4","1024","2","48000","-16","experiment","3","odd","5","574210","576417","573169","574208","2378","193121","567409","2517","80261","578420","579143","575213","12071","578420","NA","Sternberg task","62","44199.0","78","1024"
"79","79","567","567","#3d3846","experiment","legacy","legacy","legacy","1","undefined","1","right","78","78","78","78","0","0","78","0","0","78","78","78","0","78","0","Sun Oct 22 15:46:51 2023","The main experiment item","False","Sternbergtask.osexp","/Users/keelihatcher/Desktop/Tarleton M.D./Advanced Quantitative Methods & Experimental Design","False","mono","False","18","no","white","no","yes","768","legacy","66","11","/Users/keelihatcher/Desktop/Tarleton M.D./Advanced Quantitative Methods & Experimental Design/KH-subject-3.csv","legacy","6 8","Melodramatic Milgram","4.0.5","0","n","0","right","rightleft","right","right","NA","595.0","9366","112858","595","NA","2","legacy","2","1024","2","48000","-16","experiment","3","odd","9","580191","582400","579145","580189","2378","193121","567409","2517","80261","584404","585000","581194","12071","584404","NA","Sternberg task","63","44794.0","79","1024"
"80","80","566","566","#3d3846","experiment","legacy","legacy","legacy","1","undefined","1","right","79","79","79","79","0","0","79","0","0","79","79","79","0","79","0","Sun Oct 22 15:46:51 2023","The main experiment item","False","Sternbergtask.osexp","/Users/keelihatcher/Desktop/Tarleton M.D./Advanced Quantitative Methods & Experimental Design","False","mono","False","18","no","white","no","yes","768","legacy","67","11","/Users/keelihatcher/Desktop/Tarleton M.D./Advanced Quantitative Methods & Experimental Design/KH-subject-3.csv","legacy","1 4 9 2 5","Melodramatic Milgram","4.0.5","0","n","0","right","rightleft","right","right","NA","502.0","9366","112858","502","NA","2","legacy","5","1024","2","48000","-16","experiment","3","odd","7","586053","588261","585002","586050","2378","193121","567409","2517","80261","590264","590767","587056","12071","590264","NA","Sternberg task","64","45296.0","80","1024"
"80","80","565","565","#3d3846","experiment","legacy","legacy","legacy","1","undefined","1","right","80","80","80","80","0","0","80","0","0","80","80","80","0","80","0","Sun Oct 22 15:46:51 2023","The main experiment item","False","Sternbergtask.osexp","/Users/keelihatcher/Desktop/Tarleton M.D./Advanced Quantitative Methods & Experimental Design","False","mono","False","18","no","white","no","yes","768","legacy","68","11","/Users/keelihatcher/Desktop/Tarleton M.D./Advanced Quantitative Methods & Experimental Design/KH-subject-3.csv","legacy","3 9 8 1 6 4","Melodramatic Milgram","4.0.5","0","n","0","right","rightleft","right","right","NA","512.0","9366","112858","512","NA","2","legacy","6","1024","2","48000","-16","experiment","3","odd","7","591820","594027","590769","591818","2378","193121","567409","2517","80261","596030","596543","592823","12071","596030","NA","Sternberg task","65","45808.0","81","1024"
"80","80","564","564","#3d3846","experiment","legacy","legacy","legacy","1","undefined","1","left","81","81","81","81","0","0","81","0","0","81","81","81","0","81","0","Sun Oct 22 15:46:51 2023","The main experiment item","False","Sternbergtask.osexp","/Users/keelihatcher/Desktop/Tarleton M.D./Advanced Quantitative Methods & Experimental Design","False","mono","False","18","no","white","no","yes","768","legacy","69","11","/Users/keelihatcher/Desktop/Tarleton M.D./Advanced Quantitative Methods & Experimental Design/KH-subject-3.csv","legacy","8 9 6 1","Melodramatic Milgram","4.0.5","2","y","0","left","rightleft","right","left","NA","507.0","9366","112858","507","NA","2","legacy","4","1024","2","48000","-16","experiment","3","odd","9","597599","599808","596545","597597","2378","193121","567409","2517","80261","601811","602319","598604","12071","601811","NA","Sternberg task","66","46315.0","82","1024"
"80","80","563","563","#3d3846","experiment","legacy","legacy","legacy","1","undefined","1","left","82","82","82","82","0","0","82","0","0","82","82","82","0","82","0","Sun Oct 22 15:46:51 2023","The main experiment item","False","Sternbergtask.osexp","/Users/keelihatcher/Desktop/Tarleton M.D./Advanced Quantitative Methods & Experimental Design","False","mono","False","18","no","white","no","yes","768","legacy","70","11","/Users/keelihatcher/Desktop/Tarleton M.D./Advanced Quantitative Methods & Experimental Design/KH-subject-3.csv","legacy","8 5 3 7 4 6","Melodramatic Milgram","4.0.5","6","y","0","left","rightleft","right","left","NA","494.0","9366","112858","494","NA","2","legacy","6","1024","2","48000","-16","experiment","3","odd","6","603371","605580","602321","603369","2378","193121","567409","2517","80261","607584","608079","604375","12071","607583","NA","Sternberg task","67","46809.0","83","1024"
"80","80","565","565","#3d3846","experiment","legacy","legacy","legacy","1","undefined","1","left","83","83","83","83","0","0","83","0","0","83","83","83","0","83","0","Sun Oct 22 15:46:51 2023","The main experiment item","False","Sternbergtask.osexp","/Users/keelihatcher/Desktop/Tarleton M.D./Advanced Quantitative Methods & Experimental Design","False","mono","False","18","no","white","no","yes","768","legacy","71","11","/Users/keelihatcher/Desktop/Tarleton M.D./Advanced Quantitative Methods & Experimental Design/KH-subject-3.csv","legacy","7 2 3","Melodramatic Milgram","4.0.5","3","y","0","left","rightleft","right","left","NA","705.0","9366","112858","705","NA","2","legacy","3","1024","2","48000","-16","experiment","3","odd","3","609130","611338","608081","609127","2378","193121","567409","2517","80261","613341","614047","610133","12071","613341","NA","Sternberg task","68","47514.0","84","1024"
"81","81","565","565","#3d3846","experiment","legacy","legacy","legacy","1","undefined","1","left","84","84","84","84","0","0","84","0","0","84","84","84","0","84","0","Sun Oct 22 15:46:51 2023","The main experiment item","False","Sternbergtask.osexp","/Users/keelihatcher/Desktop/Tarleton M.D./Advanced Quantitative Methods & Experimental Design","False","mono","False","18","no","white","no","yes","768","legacy","72","11","/Users/keelihatcher/Desktop/Tarleton M.D./Advanced Quantitative Methods & Experimental Design/KH-subject-3.csv","legacy","6 9 7 4 5 1","Melodramatic Milgram","4.0.5","2","y","0","left","rightleft","right","left","NA","589.0","9366","112858","589","NA","2","legacy","6","1024","2","48000","-16","experiment","3","odd","9","615095","617302","614049","615092","2378","193121","567409","2517","80261","619305","619895","616098","12071","619305","NA","Sternberg task","69","48103.0","85","1024"
"81","81","564","564","#3d3846","experiment","legacy","legacy","legacy","1","undefined","1","left","85","85","85","85","0","0","85","0","0","85","85","85","0","85","0","Sun Oct 22 15:46:51 2023","The main experiment item","False","Sternbergtask.osexp","/Users/keelihatcher/Desktop/Tarleton M.D./Advanced Quantitative Methods & Experimental Design","False","mono","False","18","no","white","no","yes","768","legacy","73","11","/Users/keelihatcher/Desktop/Tarleton M.D./Advanced Quantitative Methods & Experimental Design/KH-subject-3.csv","legacy","3 2 1 4 7","Melodramatic Milgram","4.0.5","2","y","0","left","rightleft","right","left","NA","457.0","9366","112858","457","NA","2","legacy","5","1024","2","48000","-16","experiment","3","odd","2","620945","623154","619897","620943","2378","193121","567409","2517","80261","625157","625615","621949","12071","625156","NA","Sternberg task","70","48560.0","86","1024"
"81","81","566","566","#3d3846","experiment","legacy","legacy","legacy","1","undefined","1","right","86","86","86","86","0","0","86","0","0","86","86","86","0","86","0","Sun Oct 22 15:46:51 2023","The main experiment item","False","Sternbergtask.osexp","/Users/keelihatcher/Desktop/Tarleton M.D./Advanced Quantitative Methods & Experimental Design","False","mono","False","18","no","white","no","yes","768","legacy","74","11","/Users/keelihatcher/Desktop/Tarleton M.D./Advanced Quantitative Methods & Experimental Design/KH-subject-3.csv","legacy","6 8 4","Melodramatic Milgram","4.0.5","0","n","0","right","rightleft","right","right","NA","701.0","9366","112858","701","NA","2","legacy","3","1024","2","48000","-16","experiment","3","odd","1","626671","628878","625617","626669","2378","193121","567409","2517","80261","630881","631583","627674","12071","630881","NA","Sternberg task","71","49261.0","87","1024"
"80","80","565","565","#3d3846","experiment","legacy","legacy","legacy","0","undefined","0","left","87","87","87","87","0","0","87","0","0","87","87","87","0","87","0","Sun Oct 22 15:46:51 2023","The main experiment item","False","Sternbergtask.osexp","/Users/keelihatcher/Desktop/Tarleton M.D./Advanced Quantitative Methods & Experimental Design","False","mono","False","18","no","white","no","yes","768","legacy","75","11","/Users/keelihatcher/Desktop/Tarleton M.D./Advanced Quantitative Methods & Experimental Design/KH-subject-3.csv","legacy","2 6 1 7 4","Melodramatic Milgram","4.0.5","2","y","0","right","rightleft","right","right","NA","493.0","9366","112858","493","NA","2","legacy","5","1024","2","48000","-16","experiment","3","odd","6","632637","634846","631586","632635","2378","193121","567409","2517","80261","636849","637343","633641","12071","636849","NA","Sternberg task","71","49754.0","88","1024"
"79","79","567","567","#3d3846","experiment","legacy","legacy","legacy","0","undefined","0","right","88","88","88","88","0","0","88","0","0","88","88","88","0","88","0","Sun Oct 22 15:46:51 2023","The main experiment item","False","Sternbergtask.osexp","/Users/keelihatcher/Desktop/Tarleton M.D./Advanced Quantitative Methods & Experimental Design","False","mono","False","18","no","white","no","yes","768","legacy","76","11","/Users/keelihatcher/Desktop/Tarleton M.D./Advanced Quantitative Methods & Experimental Design/KH-subject-3.csv","legacy","8 5 7 3 6","Melodramatic Milgram","4.0.5","0","n","0","left","rightleft","right","left","NA","722.0","9366","112858","722","NA","2","legacy","5","1024","2","48000","-16","experiment","3","odd","9","638395","640601","631586","638393","2378","193121","637345","2517","80261","642604","643327","639398","12071","642604","NA","Sternberg task","71","50476.0","89","1024"
"80","80","566","566","#3d3846","experiment","legacy","legacy","legacy","1","undefined","1","right","89","89","89","89","0","0","89","0","0","89","89","89","0","89","0","Sun Oct 22 15:46:51 2023","The main experiment item","False","Sternbergtask.osexp","/Users/keelihatcher/Desktop/Tarleton M.D./Advanced Quantitative Methods & Experimental Design","False","mono","False","18","no","white","no","yes","768","legacy","77","11","/Users/keelihatcher/Desktop/Tarleton M.D./Advanced Quantitative Methods & Experimental Design/KH-subject-3.csv","legacy","3 4 2","Melodramatic Milgram","4.0.5","0","n","0","right","rightleft","right","right","NA","552.0","9366","112858","552","NA","2","legacy","3","1024","2","48000","-16","experiment","3","odd","5","644378","646586","631586","644376","2378","193121","643329","2517","80261","648590","649143","645382","12071","648590","NA","Sternberg task","72","51028.0","90","1024"
"79","79","569","569","#3d3846","experiment","legacy","legacy","legacy","0","undefined","0","right","90","90","90","90","0","0","90","0","0","90","90","90","0","90","0","Sun Oct 22 15:46:51 2023","The main experiment item","False","Sternbergtask.osexp","/Users/keelihatcher/Desktop/Tarleton M.D./Advanced Quantitative Methods & Experimental Design","False","mono","False","18","no","white","no","yes","768","legacy","78","11","/Users/keelihatcher/Desktop/Tarleton M.D./Advanced Quantitative Methods & Experimental Design/KH-subject-3.csv","legacy","2 8 9 4 1","Melodramatic Milgram","4.0.5","0","n","0","left","rightleft","right","left","NA","826.0","9366","112858","826","NA","2","legacy","5","1024","2","48000","-16","experiment","3","odd","5","650194","652401","649145","650192","2378","193121","643329","2517","80261","654404","655231","651197","12071","654404","NA","Sternberg task","72","51854.0","91","1024"
"79","79","569","569","#3d3846","experiment","legacy","legacy","legacy","1","undefined","1","left","91","91","91","91","0","0","91","0","0","91","91","91","0","91","0","Sun Oct 22 15:46:51 2023","The main experiment item","False","Sternbergtask.osexp","/Users/keelihatcher/Desktop/Tarleton M.D./Advanced Quantitative Methods & Experimental Design","False","mono","False","18","no","white","no","yes","768","legacy","79","11","/Users/keelihatcher/Desktop/Tarleton M.D./Advanced Quantitative Methods & Experimental Design/KH-subject-3.csv","legacy","2 8 5 1","Melodramatic Milgram","4.0.5","4","y","0","left","rightleft","right","left","NA","572.0","9366","112858","572","NA","2","legacy","4","1024","2","48000","-16","experiment","3","odd","1","656280","658488","649145","656278","2378","193121","655233","2517","80261","660491","661064","657283","12071","660491","NA","Sternberg task","73","52426.0","92","1024"
"79","79","569","569","#3d3846","experiment","legacy","legacy","legacy","1","undefined","1","left","92","92","92","92","0","0","92","0","0","92","92","92","0","92","0","Sun Oct 22 15:46:51 2023","The main experiment item","False","Sternbergtask.osexp","/Users/keelihatcher/Desktop/Tarleton M.D./Advanced Quantitative Methods & Experimental Design","False","mono","False","18","no","white","no","yes","768","legacy","80","11","/Users/keelihatcher/Desktop/Tarleton M.D./Advanced Quantitative Methods & Experimental Design/KH-subject-3.csv","legacy","6 1 2","Melodramatic Milgram","4.0.5","3","y","0","left","rightleft","right","left","NA","575.0","9366","112858","575","NA","2","legacy","3","1024","2","48000","-16","experiment","3","odd","2","662115","664322","661066","662113","2378","193121","655233","2517","80261","666326","666902","663118","12071","666325","NA","Sternberg task","74","53001.0","93","1024"
"79","79","569","569","#3d3846","experiment","legacy","legacy","legacy","1","undefined","1","right","93","93","93","93","0","0","93","0","0","93","93","93","0","93","0","Sun Oct 22 15:46:51 2023","The main experiment item","False","Sternbergtask.osexp","/Users/keelihatcher/Desktop/Tarleton M.D./Advanced Quantitative Methods & Experimental Design","False","mono","False","18","no","white","no","yes","768","legacy","81","11","/Users/keelihatcher/Desktop/Tarleton M.D./Advanced Quantitative Methods & Experimental Design/KH-subject-3.csv","legacy","2 8 6 3 1","Melodramatic Milgram","4.0.5","0","n","0","right","rightleft","right","right","NA","485.0","9366","112858","485","NA","2","legacy","5","1024","2","48000","-16","experiment","3","odd","7","667958","670166","666903","667956","2378","193121","655233","2517","80261","672170","672655","668961","12071","672170","NA","Sternberg task","75","53486.0","94","1024"
"80","80","568","568","#3d3846","experiment","legacy","legacy","legacy","1","undefined","1","right","94","94","94","94","0","0","94","0","0","94","94","94","0","94","0","Sun Oct 22 15:46:51 2023","The main experiment item","False","Sternbergtask.osexp","/Users/keelihatcher/Desktop/Tarleton M.D./Advanced Quantitative Methods & Experimental Design","False","mono","False","18","no","white","no","yes","768","legacy","82","11","/Users/keelihatcher/Desktop/Tarleton M.D./Advanced Quantitative Methods & Experimental Design/KH-subject-3.csv","legacy","2 5 1 4","Melodramatic Milgram","4.0.5","0","n","0","right","rightleft","right","right","NA","514.0","9366","112858","514","NA","2","legacy","4","1024","2","48000","-16","experiment","3","odd","6","673705","675913","672658","673702","2378","193121","655233","2517","80261","677917","678432","674709","12071","677917","NA","Sternberg task","76","54000.0","95","1024"
"80","80","566","566","#3d3846","experiment","legacy","legacy","legacy","1","undefined","1","left","95","95","95","95","0","0","95","0","0","95","95","95","0","95","0","Sun Oct 22 15:46:51 2023","The main experiment item","False","Sternbergtask.osexp","/Users/keelihatcher/Desktop/Tarleton M.D./Advanced Quantitative Methods & Experimental Design","False","mono","False","18","no","white","no","yes","768","legacy","83","11","/Users/keelihatcher/Desktop/Tarleton M.D./Advanced Quantitative Methods & Experimental Design/KH-subject-3.csv","legacy","4 9 7 8 5 3","Melodramatic Milgram","4.0.5","4","y","0","left","rightleft","right","left","NA","427.0","9366","112858","427","NA","2","legacy","6","1024","2","48000","-16","experiment","3","odd","8","679481","681688","678434","679479","2378","193121","655233","2517","80261","683692","684120","680484","12071","683692","NA","Sternberg task","77","54427.0","96","1024"
"79","79","569","569","#3d3846","experiment","legacy","legacy","legacy","0","undefined","0","left","96","96","96","96","0","0","96","0","0","96","96","96","0","96","0","Sun Oct 22 15:46:51 2023","The main experiment item","False","Sternbergtask.osexp","/Users/keelihatcher/Desktop/Tarleton M.D./Advanced Quantitative Methods & Experimental Design","False","mono","False","18","no","white","no","yes","768","legacy","84","11","/Users/keelihatcher/Desktop/Tarleton M.D./Advanced Quantitative Methods & Experimental Design/KH-subject-3.csv","legacy","5 7 8 2 3 8","Melodramatic Milgram","4.0.5","5","y","0","right","rightleft","right","right","NA","858.0","9366","112858","858","NA","2","legacy","6","1024","2","48000","-16","experiment","3","odd","3","685169","687377","684122","685167","2378","193121","655233","2517","80261","689380","690239","686173","12071","689380","NA","Sternberg task","77","55285.0","97","1024"
"78","78","574","574","#3d3846","experiment","legacy","legacy","legacy","0","undefined","0","right","97","97","97","97","0","0","97","0","0","97","97","97","0","97","0","Sun Oct 22 15:46:51 2023","The main experiment item","False","Sternbergtask.osexp","/Users/keelihatcher/Desktop/Tarleton M.D./Advanced Quantitative Methods & Experimental Design","False","mono","False","18","no","white","no","yes","768","legacy","85","11","/Users/keelihatcher/Desktop/Tarleton M.D./Advanced Quantitative Methods & Experimental Design/KH-subject-3.csv","legacy","2 7 5","Melodramatic Milgram","4.0.5","0","n","0","left","rightleft","right","left","NA","980.0","9366","112858","980","NA","2","legacy","3","1024","2","48000","-16","experiment","3","odd","8","691288","693496","684122","691286","2378","193121","690241","2517","80261","695499","696479","692291","12071","695499","NA","Sternberg task","77","56265.0","98","1024"
"78","78","575","575","#3d3846","experiment","legacy","legacy","legacy","1","undefined","1","right","98","98","98","98","0","0","98","0","0","98","98","98","0","98","0","Sun Oct 22 15:46:51 2023","The main experiment item","False","Sternbergtask.osexp","/Users/keelihatcher/Desktop/Tarleton M.D./Advanced Quantitative Methods & Experimental Design","False","mono","False","18","no","white","no","yes","768","legacy","86","11","/Users/keelihatcher/Desktop/Tarleton M.D./Advanced Quantitative Methods & Experimental Design/KH-subject-3.csv","legacy","1 6 4","Melodramatic Milgram","4.0.5","0","n","0","right","rightleft","right","right","NA","750.0","9366","112858","750","NA","2","legacy","3","1024","2","48000","-16","experiment","3","odd","7","697528","699736","684122","697525","2378","193121","696481","2517","80261","701740","702491","698532","12071","701740","NA","Sternberg task","78","57015.0","99","1024"
"79","79","574","574","#3d3846","experiment","legacy","legacy","legacy","1","undefined","1","left","99","99","99","99","0","0","99","0","0","99","99","99","0","99","0","Sun Oct 22 15:46:51 2023","The main experiment item","False","Sternbergtask.osexp","/Users/keelihatcher/Desktop/Tarleton M.D./Advanced Quantitative Methods & Experimental Design","False","mono","False","18","no","white","no","yes","768","legacy","87","11","/Users/keelihatcher/Desktop/Tarleton M.D./Advanced Quantitative Methods & Experimental Design/KH-subject-3.csv","legacy","8 3","Melodramatic Milgram","4.0.5","2","y","0","left","rightleft","right","left","NA","431.0","9366","112858","431","NA","2","legacy","2","1024","2","48000","-16","experiment","3","odd","3","703543","705751","702493","703541","2378","193121","696481","2517","80261","707754","708186","704546","12071","707754","NA","Sternberg task","79","57446.0","100","1024"
"79","79","576","576","#3d3846","experiment","legacy","legacy","legacy","1","undefined","1","right","100","100","100","100","0","0","100","0","0","100","100","100","0","100","0","Sun Oct 22 15:46:51 2023","The main experiment item","False","Sternbergtask.osexp","/Users/keelihatcher/Desktop/Tarleton M.D./Advanced Quantitative Methods & Experimental Design","False","mono","False","18","no","white","no","yes","768","legacy","88","11","/Users/keelihatcher/Desktop/Tarleton M.D./Advanced Quantitative Methods & Experimental Design/KH-subject-3.csv","legacy","8 4 3 5","Melodramatic Milgram","4.0.5","0","n","0","right","rightleft","right","right","NA","806.0","9366","112858","806","NA","2","legacy","4","1024","2","48000","-16","experiment","3","odd","6","709235","711444","708188","709233","2378","193121","696481","2517","80261","713447","714254","710239","12071","713447","NA","Sternberg task","80","58252.0","101","1024"
"78","78","585","585","#3d3846","experiment","legacy","legacy","legacy","0","undefined","0","left","101","101","101","101","0","0","101","0","0","101","101","101","0","101","0","Sun Oct 22 15:46:51 2023","The main experiment item","False","Sternbergtask.osexp","/Users/keelihatcher/Desktop/Tarleton M.D./Advanced Quantitative Methods & Experimental Design","False","mono","False","18","no","white","no","yes","768","legacy","89","11","/Users/keelihatcher/Desktop/Tarleton M.D./Advanced Quantitative Methods & Experimental Design/KH-subject-3.csv","legacy","8 5 4 7 3 1","Melodramatic Milgram","4.0.5","2","y","0","right","rightleft","right","right","NA","1501.0","9366","112858","1501","NA","2","legacy","6","1024","2","48000","-16","experiment","3","odd","5","715310","717518","714256","715307","2378","193121","696481","2517","80261","719521","721023","716313","12071","719521","NA","Sternberg task","80","59753.0","102","1024"
"78","78","585","585","#3d3846","experiment","legacy","legacy","legacy","1","undefined","1","left","102","102","102","102","0","0","102","0","0","102","102","102","0","102","0","Sun Oct 22 15:46:51 2023","The main experiment item","False","Sternbergtask.osexp","/Users/keelihatcher/Desktop/Tarleton M.D./Advanced Quantitative Methods & Experimental Design","False","mono","False","18","no","white","no","yes","768","legacy","90","11","/Users/keelihatcher/Desktop/Tarleton M.D./Advanced Quantitative Methods & Experimental Design/KH-subject-3.csv","legacy","6 7 9 3 1 2","Melodramatic Milgram","4.0.5","1","y","0","left","rightleft","right","left","NA","586.0","9366","112858","586","NA","2","legacy","6","1024","2","48000","-16","experiment","3","odd","6","722076","724282","714256","722074","2378","193121","721025","2517","80261","726285","726872","723079","12071","726285","NA","Sternberg task","81","60339.0","103","1024"
"78","78","585","585","#3d3846","experiment","legacy","legacy","legacy","1","undefined","1","left","103","103","103","103","0","0","103","0","0","103","103","103","0","103","0","Sun Oct 22 15:46:51 2023","The main experiment item","False","Sternbergtask.osexp","/Users/keelihatcher/Desktop/Tarleton M.D./Advanced Quantitative Methods & Experimental Design","False","mono","False","18","no","white","no","yes","768","legacy","91","11","/Users/keelihatcher/Desktop/Tarleton M.D./Advanced Quantitative Methods & Experimental Design/KH-subject-3.csv","legacy","9 1 6 7 8","Melodramatic Milgram","4.0.5","1","y","0","left","rightleft","right","left","NA","570.0","9366","112858","570","NA","2","legacy","5","1024","2","48000","-16","experiment","3","odd","9","727921","730128","726874","727918","2378","193121","721025","2517","80261","732131","732702","728924","12071","732131","NA","Sternberg task","82","60909.0","104","1024"
"79","79","583","583","#3d3846","experiment","legacy","legacy","legacy","1","undefined","1","left","104","104","104","104","0","0","104","0","0","104","104","104","0","104","0","Sun Oct 22 15:46:51 2023","The main experiment item","False","Sternbergtask.osexp","/Users/keelihatcher/Desktop/Tarleton M.D./Advanced Quantitative Methods & Experimental Design","False","mono","False","18","no","white","no","yes","768","legacy","92","11","/Users/keelihatcher/Desktop/Tarleton M.D./Advanced Quantitative Methods & Experimental Design/KH-subject-3.csv","legacy","8","Melodramatic Milgram","4.0.5","1","y","0","left","rightleft","right","left","NA","360.0","9366","112858","360","NA","2","legacy","1","1024","2","48000","-16","experiment","3","odd","8","733749","735956","732704","733747","2378","193121","721025","2517","80261","737959","738320","734752","12071","737959","NA","Sternberg task","83","61269.0","105","1024"
"79","79","586","586","#3d3846","experiment","legacy","legacy","legacy","1","undefined","1","right","105","105","105","105","0","0","105","0","0","105","105","105","0","105","0","Sun Oct 22 15:46:51 2023","The main experiment item","False","Sternbergtask.osexp","/Users/keelihatcher/Desktop/Tarleton M.D./Advanced Quantitative Methods & Experimental Design","False","mono","False","18","no","white","no","yes","768","legacy","93","11","/Users/keelihatcher/Desktop/Tarleton M.D./Advanced Quantitative Methods & Experimental Design/KH-subject-3.csv","legacy","1 6 4 3 9 7","Melodramatic Milgram","4.0.5","0","n","0","right","rightleft","right","right","NA","865.0","9366","112858","865","NA","2","legacy","6","1024","2","48000","-16","experiment","3","odd","8","739372","741579","738322","739370","2378","193121","721025","2517","80261","743582","744448","740375","12071","743582","NA","Sternberg task","84","62134.0","106","1024"
"79","79","584","584","#3d3846","experiment","legacy","legacy","legacy","1","undefined","1","left","106","106","106","106","0","0","106","0","0","106","106","106","0","106","0","Sun Oct 22 15:46:51 2023","The main experiment item","False","Sternbergtask.osexp","/Users/keelihatcher/Desktop/Tarleton M.D./Advanced Quantitative Methods & Experimental Design","False","mono","False","18","no","white","no","yes","768","legacy","94","11","/Users/keelihatcher/Desktop/Tarleton M.D./Advanced Quantitative Methods & Experimental Design/KH-subject-3.csv","legacy","4 6 2 5 1","Melodramatic Milgram","4.0.5","5","y","0","left","rightleft","right","left","NA","423.0","9366","112858","423","NA","2","legacy","5","1024","2","48000","-16","experiment","3","odd","1","745494","747701","744449","745492","2378","193121","721025","2517","80261","749704","750128","746497","12071","749704","NA","Sternberg task","85","62557.0","107","1024"
"79","79","584","584","#3d3846","experiment","legacy","legacy","legacy","1","undefined","1","right","107","107","107","107","0","0","107","0","0","107","107","107","0","107","0","Sun Oct 22 15:46:51 2023","The main experiment item","False","Sternbergtask.osexp","/Users/keelihatcher/Desktop/Tarleton M.D./Advanced Quantitative Methods & Experimental Design","False","mono","False","18","no","white","no","yes","768","legacy","95","11","/Users/keelihatcher/Desktop/Tarleton M.D./Advanced Quantitative Methods & Experimental Design/KH-subject-3.csv","legacy","7 3 2 8","Melodramatic Milgram","4.0.5","0","n","0","right","rightleft","right","right","NA","589.0","9366","112858","589","NA","2","legacy","4","1024","2","48000","-16","experiment","3","odd","4","751168","753376","750129","751166","2378","193121","721025","2517","80261","755378","755967","752172","12071","755378","NA","Sternberg task","86","63146.0","108","1024"
