"acc","accuracy","average_response_time","avg_rt","background","block","canvas_backend","clock_backend","color_backend","compensation","coordinates","correct","correct_instruction1","correct_keyboard_response","correct_response","count_ISI","count_correctFeedback","count_expSequence","count_experiment","count_experimentLoop","count_fixation","count_incorrectFeedback","count_instruction1","count_instructions2","count_keyboard_response","count_memorySet","count_new_logger","count_practiceLoop","count_probe","count_thankYou","datetime","description","disable_garbage_collection","experiment_file","experiment_path","font_bold","font_family","font_italic","font_size","font_underline","foreground","form_clicks","fullscreen","height","keyboard_backend","live_row","live_row_practiceLoop","logfile","mouse_backend","numberSet","opensesame_codename","opensesame_version","posInSet","present","repeat_cycle","response","response_instruction1","response_instructions2","response_keyboard_response","response_thankYou","response_time","response_time_instruction1","response_time_instructions2","response_time_keyboard_response","response_time_thankYou","round_decimals","sampler_backend","setSize","sound_buf_size","sound_channels","sound_freq","sound_sample_size","start","subject_nr","subject_parity","target","time_ISI","time_correctFeedback","time_expSequence","time_experiment","time_experimentLoop","time_fixation","time_incorrectFeedback","time_instruction1","time_instructions2","time_keyboard_response","time_memorySet","time_new_logger","time_practiceLoop","time_probe","time_thankYou","title","total_correct","total_response_time","total_responses","uniform_coordinates","width"
"100","100","1466","1466","black","practice","legacy","legacy","legacy","0","uniform","1","undefined","1","right","0","0","0","0","0","0","0","0","0","0","0","0","0","0","0","10/20/21 21:28:47","The main experiment item","yes","SternbergExperiment.osexp","C:\Users\katie\Documents\School\Quant Methods\Lab 3","no","mono","no","18","no","white","no","yes","768","legacy","0","0","C:/Users/katie/Documents/School/Quant Methods/Lab 3/KH-subject-2.csv","legacy","5","Lentiform Loewenfeld","3.3.9","0","n","0","right","right","NA","right","NA","1466","127760","NA","1466","NA","2","legacy","1","1024","2","48000","-16","experiment","1","odd","3","134835","NA","132627","4329","NA","132633","NA","4343","NA","136836","133634","138303","132104","136836","NA","Sternberg task","1","1466","1","yes","1024"
"100","100","1188","1188","black","practice","legacy","legacy","legacy","0","uniform","1","undefined","1","left","1","1","1","0","0","1","1","0","0","1","1","1","0","1","0","10/20/21 21:28:47","The main experiment item","yes","SternbergExperiment.osexp","C:\Users\katie\Documents\School\Quant Methods\Lab 3","no","mono","no","18","no","white","no","yes","768","legacy","1","1","C:/Users/katie/Documents/School/Quant Methods/Lab 3/KH-subject-2.csv","legacy","4 8","Lentiform Loewenfeld","3.3.9","1","y","0","left","right","NA","left","NA","910","127760","NA","910","NA","2","legacy","2","1024","2","48000","-16","experiment","1","odd","4","141610","138344","139404","4329","NA","139406","NA","4343","NA","143611","140407","144522","132104","143611","NA","Sternberg task","2","2376","2","yes","1024"
"100","100","1060.33333333","1060.33333333","black","practice","legacy","legacy","legacy","0","uniform","1","undefined","1","left","2","2","2","0","0","2","2","0","0","2","2","2","0","2","0","10/20/21 21:28:47","The main experiment item","yes","SternbergExperiment.osexp","C:\Users\katie\Documents\School\Quant Methods\Lab 3","no","mono","no","18","no","white","no","yes","768","legacy","2","2","C:/Users/katie/Documents/School/Quant Methods/Lab 3/KH-subject-2.csv","legacy","6","Lentiform Loewenfeld","3.3.9","1","y","0","left","right","NA","left","NA","805","127760","NA","805","NA","2","legacy","1","1024","2","48000","-16","experiment","1","odd","6","147793","144527","145587","4329","NA","145588","NA","4343","NA","149794","146590","150599","132104","149794","NA","Sternberg task","3","3181","3","yes","1024"
"100","100","1086","1086","black","practice","legacy","legacy","legacy","0","uniform","1","undefined","1","right","3","3","3","0","0","3","3","0","0","3","3","3","0","3","0","10/20/21 21:28:47","The main experiment item","yes","SternbergExperiment.osexp","C:\Users\katie\Documents\School\Quant Methods\Lab 3","no","mono","no","18","no","white","no","yes","768","legacy","3","3","C:/Users/katie/Documents/School/Quant Methods/Lab 3/KH-subject-2.csv","legacy","9 6 7 4 5","Lentiform Loewenfeld","3.3.9","0","n","0","right","right","NA","right","NA","1163","127760","NA","1163","NA","2","legacy","5","1024","2","48000","-16","experiment","1","odd","3","153876","150612","151669","4329","NA","151672","NA","4343","NA","155878","152673","157042","132104","155878","NA","Sternberg task","4","4344","4","yes","1024"
"100","100","1113.2","1113.2","black","practice","legacy","legacy","legacy","0","uniform","1","undefined","1","left","4","4","4","0","0","4","4","0","0","4","4","4","0","4","0","10/20/21 21:28:47","The main experiment item","yes","SternbergExperiment.osexp","C:\Users\katie\Documents\School\Quant Methods\Lab 3","no","mono","no","18","no","white","no","yes","768","legacy","4","4","C:/Users/katie/Documents/School/Quant Methods/Lab 3/KH-subject-2.csv","legacy","1 5 2 9","Lentiform Loewenfeld","3.3.9","2","y","0","left","right","NA","left","NA","1222","127760","NA","1222","NA","2","legacy","4","1024","2","48000","-16","experiment","1","odd","5","160310","157046","158104","4329","NA","158105","NA","4343","NA","162311","159107","163534","132104","162311","NA","Sternberg task","5","5566","5","yes","1024"
"100","100","1113","1113","black","practice","legacy","legacy","legacy","0","uniform","1","undefined","1","left","5","5","5","0","0","5","5","0","0","5","5","5","0","5","0","10/20/21 21:28:47","The main experiment item","yes","SternbergExperiment.osexp","C:\Users\katie\Documents\School\Quant Methods\Lab 3","no","mono","no","18","no","white","no","yes","768","legacy","5","5","C:/Users/katie/Documents/School/Quant Methods/Lab 3/KH-subject-2.csv","legacy","1 7 9 8 5","Lentiform Loewenfeld","3.3.9","4","y","0","left","right","NA","left","NA","1112","127760","NA","1112","NA","2","legacy","5","1024","2","48000","-16","experiment","1","odd","8","166809","163546","164602","4329","NA","164604","NA","4343","NA","168810","165606","169922","132104","168810","NA","Sternberg task","6","6678","6","yes","1024"
"100","100","1101.85714286","1101.85714286","black","practice","legacy","legacy","legacy","0","uniform","1","undefined","1","right","6","6","6","0","0","6","6","0","0","6","6","6","0","6","0","10/20/21 21:28:47","The main experiment item","yes","SternbergExperiment.osexp","C:\Users\katie\Documents\School\Quant Methods\Lab 3","no","mono","no","18","no","white","no","yes","768","legacy","6","6","C:/Users/katie/Documents/School/Quant Methods/Lab 3/KH-subject-2.csv","legacy","2 1","Lentiform Loewenfeld","3.3.9","0","n","0","right","right","NA","right","NA","1035","127760","NA","1035","NA","2","legacy","2","1024","2","48000","-16","experiment","1","odd","5","173195","169933","170987","4329","NA","170990","NA","4343","NA","175196","171992","176231","132104","175196","NA","Sternberg task","7","7713","7","yes","1024"
"100","100","1118.75","1118.75","black","practice","legacy","legacy","legacy","0","uniform","1","undefined","1","left","7","7","7","0","0","7","7","0","0","7","7","7","0","7","0","10/20/21 21:28:47","The main experiment item","yes","SternbergExperiment.osexp","C:\Users\katie\Documents\School\Quant Methods\Lab 3","no","mono","no","18","no","white","no","yes","768","legacy","7","7","C:/Users/katie/Documents/School/Quant Methods/Lab 3/KH-subject-2.csv","legacy","2 9 4","Lentiform Loewenfeld","3.3.9","3","y","0","left","right","NA","left","NA","1237","127760","NA","1237","NA","2","legacy","3","1024","2","48000","-16","experiment","1","odd","4","179503","176243","177297","4329","NA","177299","NA","4343","NA","181504","178300","182742","132104","181504","NA","Sternberg task","8","8950","8","yes","1024"
"100","100","1099.55555556","1099.55555556","black","practice","legacy","legacy","legacy","0","uniform","1","undefined","1","right","8","8","8","0","0","8","8","0","0","8","8","8","0","8","0","10/20/21 21:28:47","The main experiment item","yes","SternbergExperiment.osexp","C:\Users\katie\Documents\School\Quant Methods\Lab 3","no","mono","no","18","no","white","no","yes","768","legacy","8","8","C:/Users/katie/Documents/School/Quant Methods/Lab 3/KH-subject-2.csv","legacy","5 7 8 4 1 2","Lentiform Loewenfeld","3.3.9","0","n","0","right","right","NA","right","NA","946","127760","NA","946","NA","2","legacy","6","1024","2","48000","-16","experiment","1","odd","6","186013","182753","183809","4329","NA","183811","NA","4343","NA","188014","184812","188961","132104","188014","NA","Sternberg task","9","9896","9","yes","1024"
"100","100","1073.7","1073.7","black","practice","legacy","legacy","legacy","0","uniform","1","undefined","1","right","9","9","9","0","0","9","9","0","0","9","9","9","0","9","0","10/20/21 21:28:47","The main experiment item","yes","SternbergExperiment.osexp","C:\Users\katie\Documents\School\Quant Methods\Lab 3","no","mono","no","18","no","white","no","yes","768","legacy","9","9","C:/Users/katie/Documents/School/Quant Methods/Lab 3/KH-subject-2.csv","legacy","4 1 5","Lentiform Loewenfeld","3.3.9","0","n","0","right","right","NA","right","NA","841","127760","NA","841","NA","2","legacy","3","1024","2","48000","-16","experiment","1","odd","2","192237","188973","190031","4329","NA","190033","NA","4343","NA","194240","191034","195083","132104","194240","NA","Sternberg task","10","10737","10","yes","1024"
"100","100","1052.45454545","1052.45454545","black","practice","legacy","legacy","legacy","0","uniform","1","undefined","1","right","10","10","10","0","0","10","10","0","0","10","10","10","0","10","0","10/20/21 21:28:47","The main experiment item","yes","SternbergExperiment.osexp","C:\Users\katie\Documents\School\Quant Methods\Lab 3","no","mono","no","18","no","white","no","yes","768","legacy","10","10","C:/Users/katie/Documents/School/Quant Methods/Lab 3/KH-subject-2.csv","legacy","3 1 9 4","Lentiform Loewenfeld","3.3.9","0","n","0","right","right","NA","right","NA","840","127760","NA","840","NA","2","legacy","4","1024","2","48000","-16","experiment","1","odd","6","198346","195086","196139","4329","NA","196142","NA","4343","NA","200347","197143","201187","132104","200347","NA","Sternberg task","11","11577","11","yes","1024"
"100","100","1063.83333333","1063.83333333","black","practice","legacy","legacy","legacy","0","uniform","1","undefined","1","left","11","11","11","0","0","11","11","0","0","11","11","11","0","11","0","10/20/21 21:28:47","The main experiment item","yes","SternbergExperiment.osexp","C:\Users\katie\Documents\School\Quant Methods\Lab 3","no","mono","no","18","no","white","no","yes","768","legacy","11","11","C:/Users/katie/Documents/School/Quant Methods/Lab 3/KH-subject-2.csv","legacy","4 3 1 7 9 8","Lentiform Loewenfeld","3.3.9","1","y","0","left","right","NA","left","NA","1189","127760","NA","1189","NA","2","legacy","6","1024","2","48000","-16","experiment","1","odd","4","204451","201191","202246","4329","NA","202247","NA","4343","NA","206452","203249","207641","132104","206452","NA","Sternberg task","12","12766","12","yes","1024"
"100","100","1087.46153846","1087.46153846","black","experiment","legacy","legacy","legacy","0","uniform","1","undefined","1","left","12","12","12","0","0","12","12","0","0","12","12","12","0","12","0","10/20/21 21:28:47","The main experiment item","yes","SternbergExperiment.osexp","C:\Users\katie\Documents\School\Quant Methods\Lab 3","no","mono","no","18","no","white","no","yes","768","legacy","0","11","C:/Users/katie/Documents/School/Quant Methods/Lab 3/KH-subject-2.csv","legacy","4 6 2 5 1","Lentiform Loewenfeld","3.3.9","5","y","0","left","right","right","left","NA","1371","127760","7180","1371","NA","2","legacy","5","1024","2","48000","-16","experiment","1","odd","1","218114","207646","215907","4329","215842","215909","NA","4343","208662","220115","216911","221486","132104","220115","NA","Sternberg task","13","14137","13","yes","1024"
"100","100","1075.28571429","1075.28571429","black","experiment","legacy","legacy","legacy","0","uniform","1","undefined","1","right","13","13","13","0","0","13","13","0","0","13","13","13","0","13","0","10/20/21 21:28:47","The main experiment item","yes","SternbergExperiment.osexp","C:\Users\katie\Documents\School\Quant Methods\Lab 3","no","mono","no","18","no","white","no","yes","768","legacy","1","11","C:/Users/katie/Documents/School/Quant Methods/Lab 3/KH-subject-2.csv","legacy","1 5 3 2 8","Lentiform Loewenfeld","3.3.9","0","n","0","right","right","right","right","NA","917","127760","7180","917","NA","2","legacy","5","1024","2","48000","-16","experiment","1","odd","4","224750","221490","222543","4329","215842","222545","NA","4343","208662","226751","223547","227668","132104","226751","NA","Sternberg task","14","15054","14","yes","1024"
"100","100","1051.06666667","1051.06666667","black","experiment","legacy","legacy","legacy","0","uniform","1","undefined","1","right","14","14","14","0","0","14","14","0","0","14","14","14","0","14","0","10/20/21 21:28:47","The main experiment item","yes","SternbergExperiment.osexp","C:\Users\katie\Documents\School\Quant Methods\Lab 3","no","mono","no","18","no","white","no","yes","768","legacy","2","11","C:/Users/katie/Documents/School/Quant Methods/Lab 3/KH-subject-2.csv","legacy","4 8 1 2","Lentiform Loewenfeld","3.3.9","0","n","0","right","right","right","right","NA","712","127760","7180","712","NA","2","legacy","4","1024","2","48000","-16","experiment","1","odd","7","230944","227680","228736","4329","215842","228739","NA","4343","208662","232945","229741","233658","132104","232945","NA","Sternberg task","15","15766","15","yes","1024"
"100","100","1034.4375","1034.4375","black","experiment","legacy","legacy","legacy","0","uniform","1","undefined","1","right","15","15","15","0","0","15","15","0","0","15","15","15","0","15","0","10/20/21 21:28:47","The main experiment item","yes","SternbergExperiment.osexp","C:\Users\katie\Documents\School\Quant Methods\Lab 3","no","mono","no","18","no","white","no","yes","768","legacy","3","11","C:/Users/katie/Documents/School/Quant Methods/Lab 3/KH-subject-2.csv","legacy","7 8 6 1","Lentiform Loewenfeld","3.3.9","0","n","0","right","right","right","right","NA","785","127760","7180","785","NA","2","legacy","4","1024","2","48000","-16","experiment","1","odd","3","236921","233662","234714","4329","215842","234716","NA","4343","208662","238922","235718","239707","132104","238922","NA","Sternberg task","16","16551","16","yes","1024"
"100","100","1035.35294118","1035.35294118","black","experiment","legacy","legacy","legacy","0","uniform","1","undefined","1","left","16","16","16","0","0","16","16","0","0","16","16","16","0","16","0","10/20/21 21:28:47","The main experiment item","yes","SternbergExperiment.osexp","C:\Users\katie\Documents\School\Quant Methods\Lab 3","no","mono","no","18","no","white","no","yes","768","legacy","4","11","C:/Users/katie/Documents/School/Quant Methods/Lab 3/KH-subject-2.csv","legacy","6 9 3 1","Lentiform Loewenfeld","3.3.9","4","y","0","left","right","right","left","NA","1050","127760","7180","1050","NA","2","legacy","4","1024","2","48000","-16","experiment","1","odd","1","242985","239719","240778","4329","215842","240780","NA","4343","208662","244986","241782","246037","132104","244986","NA","Sternberg task","17","17601","17","yes","1024"
"100","100","1011.77777778","1011.77777778","black","experiment","legacy","legacy","legacy","0","uniform","1","undefined","1","right","17","17","17","0","0","17","17","0","0","17","17","17","0","17","0","10/20/21 21:28:47","The main experiment item","yes","SternbergExperiment.osexp","C:\Users\katie\Documents\School\Quant Methods\Lab 3","no","mono","no","18","no","white","no","yes","768","legacy","5","11","C:/Users/katie/Documents/School/Quant Methods/Lab 3/KH-subject-2.csv","legacy","7 1","Lentiform Loewenfeld","3.3.9","0","n","0","right","right","right","right","NA","611","127760","7180","611","NA","2","legacy","2","1024","2","48000","-16","experiment","1","odd","8","249303","246041","247097","4329","215842","247100","NA","4343","208662","251304","248101","251916","132104","251304","NA","Sternberg task","18","18212","18","yes","1024"
"100","100","1026.10526316","1026.10526316","black","experiment","legacy","legacy","legacy","0","uniform","1","undefined","1","left","18","18","18","0","0","18","18","0","0","18","18","18","0","18","0","10/20/21 21:28:47","The main experiment item","yes","SternbergExperiment.osexp","C:\Users\katie\Documents\School\Quant Methods\Lab 3","no","mono","no","18","no","white","no","yes","768","legacy","6","11","C:/Users/katie/Documents/School/Quant Methods/Lab 3/KH-subject-2.csv","legacy","9 3 1 2 5","Lentiform Loewenfeld","3.3.9","4","y","0","left","right","right","left","NA","1284","127760","7180","1284","NA","2","legacy","5","1024","2","48000","-16","experiment","1","odd","2","255188","251930","252981","4329","215842","252983","NA","4343","208662","257190","253985","258474","132104","257190","NA","Sternberg task","19","19496","19","yes","1024"
"100","100","1009.35","1009.35","black","experiment","legacy","legacy","legacy","0","uniform","1","undefined","1","left","19","19","19","0","0","19","19","0","0","19","19","19","0","19","0","10/20/21 21:28:47","The main experiment item","yes","SternbergExperiment.osexp","C:\Users\katie\Documents\School\Quant Methods\Lab 3","no","mono","no","18","no","white","no","yes","768","legacy","7","11","C:/Users/katie/Documents/School/Quant Methods/Lab 3/KH-subject-2.csv","legacy","4 3 2 5 8","Lentiform Loewenfeld","3.3.9","2","y","0","left","right","right","left","NA","691","127760","7180","691","NA","2","legacy","5","1024","2","48000","-16","experiment","1","odd","3","261741","258478","259532","4329","215842","259537","NA","4343","208662","263742","260539","264434","132104","263742","NA","Sternberg task","20","20187","20","yes","1024"
"100","100","1015.38095238","1015.38095238","black","experiment","legacy","legacy","legacy","0","uniform","1","undefined","1","left","20","20","20","0","0","20","20","0","0","20","20","20","0","20","0","10/20/21 21:28:47","The main experiment item","yes","SternbergExperiment.osexp","C:\Users\katie\Documents\School\Quant Methods\Lab 3","no","mono","no","18","no","white","no","yes","768","legacy","8","11","C:/Users/katie/Documents/School/Quant Methods/Lab 3/KH-subject-2.csv","legacy","9 3 8 2 1 4","Lentiform Loewenfeld","3.3.9","3","y","0","left","right","right","left","NA","1136","127760","7180","1136","NA","2","legacy","6","1024","2","48000","-16","experiment","1","odd","8","267702","264437","265495","4329","215842","265498","NA","4343","208662","269703","266499","270840","132104","269703","NA","Sternberg task","21","21323","21","yes","1024"
"100","100","1009.04545455","1009.04545455","black","experiment","legacy","legacy","legacy","0","uniform","1","undefined","1","right","21","21","21","0","0","21","21","0","0","21","21","21","0","21","0","10/20/21 21:28:47","The main experiment item","yes","SternbergExperiment.osexp","C:\Users\katie\Documents\School\Quant Methods\Lab 3","no","mono","no","18","no","white","no","yes","768","legacy","9","11","C:/Users/katie/Documents/School/Quant Methods/Lab 3/KH-subject-2.csv","legacy","2 8 9 4 1","Lentiform Loewenfeld","3.3.9","0","n","0","right","right","right","right","NA","876","127760","7180","876","NA","2","legacy","5","1024","2","48000","-16","experiment","1","odd","5","274112","270851","271907","4329","215842","271909","NA","4343","208662","276113","272911","276992","132104","276113","NA","Sternberg task","22","22199","22","yes","1024"
"100","100","1008.26086957","1008.26086957","black","experiment","legacy","legacy","legacy","0","uniform","1","undefined","1","left","22","22","22","0","0","22","22","0","0","22","22","22","0","22","0","10/20/21 21:28:47","The main experiment item","yes","SternbergExperiment.osexp","C:\Users\katie\Documents\School\Quant Methods\Lab 3","no","mono","no","18","no","white","no","yes","768","legacy","10","11","C:/Users/katie/Documents/School/Quant Methods/Lab 3/KH-subject-2.csv","legacy","6 8 9 3 4 9","Lentiform Loewenfeld","3.3.9","5","y","0","left","right","right","left","NA","991","127760","7180","991","NA","2","legacy","6","1024","2","48000","-16","experiment","1","odd","4","280264","277003","278059","4329","215842","278061","NA","4343","208662","282265","279061","283256","132104","282265","NA","Sternberg task","23","23190","23","yes","1024"
"100","100","994.833333333","994.833333333","black","experiment","legacy","legacy","legacy","0","uniform","1","undefined","1","left","23","23","23","0","0","23","23","0","0","23","23","23","0","23","0","10/20/21 21:28:47","The main experiment item","yes","SternbergExperiment.osexp","C:\Users\katie\Documents\School\Quant Methods\Lab 3","no","mono","no","18","no","white","no","yes","768","legacy","11","11","C:/Users/katie/Documents/School/Quant Methods/Lab 3/KH-subject-2.csv","legacy","3 4 9 6 2 9","Lentiform Loewenfeld","3.3.9","5","y","0","left","right","right","left","NA","686","127760","7180","686","NA","2","legacy","6","1024","2","48000","-16","experiment","1","odd","2","286518","283260","284313","4329","215842","284314","NA","4343","208662","288519","285315","289207","132104","288519","NA","Sternberg task","24","23876","24","yes","1024"
"100","100","981.64","981.64","black","experiment","legacy","legacy","legacy","0","uniform","1","undefined","1","left","24","24","24","0","0","24","24","0","0","24","24","24","0","24","0","10/20/21 21:28:47","The main experiment item","yes","SternbergExperiment.osexp","C:\Users\katie\Documents\School\Quant Methods\Lab 3","no","mono","no","18","no","white","no","yes","768","legacy","12","11","C:/Users/katie/Documents/School/Quant Methods/Lab 3/KH-subject-2.csv","legacy","8 9 5 6 7","Lentiform Loewenfeld","3.3.9","1","y","0","left","right","right","left","NA","665","127760","7180","665","NA","2","legacy","5","1024","2","48000","-16","experiment","1","odd","8","292475","289211","290268","4329","215842","290270","NA","4343","208662","294477","291272","295143","132104","294477","NA","Sternberg task","25","24541","25","yes","1024"
"100","100","989.038461538","989.038461538","black","experiment","legacy","legacy","legacy","0","uniform","1","undefined","1","left","25","25","25","0","0","25","25","0","0","25","25","25","0","25","0","10/20/21 21:28:47","The main experiment item","yes","SternbergExperiment.osexp","C:\Users\katie\Documents\School\Quant Methods\Lab 3","no","mono","no","18","no","white","no","yes","768","legacy","13","11","C:/Users/katie/Documents/School/Quant Methods/Lab 3/KH-subject-2.csv","legacy","7 1 8 5 6 2","Lentiform Loewenfeld","3.3.9","2","y","0","left","right","right","left","NA","1174","127760","7180","1174","NA","2","legacy","6","1024","2","48000","-16","experiment","1","odd","1","298417","295155","296211","4329","215842","296213","NA","4343","208662","300418","297215","301593","132104","300418","NA","Sternberg task","26","25715","26","yes","1024"
"100","100","974.555555556","974.555555556","black","experiment","legacy","legacy","legacy","0","uniform","1","undefined","1","left","26","26","26","0","0","26","26","0","0","26","26","26","0","26","0","10/20/21 21:28:47","The main experiment item","yes","SternbergExperiment.osexp","C:\Users\katie\Documents\School\Quant Methods\Lab 3","no","mono","no","18","no","white","no","yes","768","legacy","14","11","C:/Users/katie/Documents/School/Quant Methods/Lab 3/KH-subject-2.csv","legacy","3 4","Lentiform Loewenfeld","3.3.9","1","y","0","left","right","right","left","NA","598","127760","7180","598","NA","2","legacy","2","1024","2","48000","-16","experiment","1","odd","3","304859","301598","302652","4329","215842","302654","NA","4343","208662","306861","303656","307460","132104","306861","NA","Sternberg task","27","26313","27","yes","1024"
"100","100","973.5","973.5","black","experiment","legacy","legacy","legacy","0","uniform","1","undefined","1","right","27","27","27","0","0","27","27","0","0","27","27","27","0","27","0","10/20/21 21:28:47","The main experiment item","yes","SternbergExperiment.osexp","C:\Users\katie\Documents\School\Quant Methods\Lab 3","no","mono","no","18","no","white","no","yes","768","legacy","15","11","C:/Users/katie/Documents/School/Quant Methods/Lab 3/KH-subject-2.csv","legacy","8 6 3 4 7","Lentiform Loewenfeld","3.3.9","0","n","0","right","right","right","right","NA","945","127760","7180","945","NA","2","legacy","5","1024","2","48000","-16","experiment","1","odd","1","310734","307471","308527","4329","215842","308529","NA","4343","208662","312735","309531","313680","132104","312735","NA","Sternberg task","28","27258","28","yes","1024"
"100","100","974.655172414","974.655172414","black","experiment","legacy","legacy","legacy","0","uniform","1","undefined","1","right","28","28","28","0","0","28","28","0","0","28","28","28","0","28","0","10/20/21 21:28:47","The main experiment item","yes","SternbergExperiment.osexp","C:\Users\katie\Documents\School\Quant Methods\Lab 3","no","mono","no","18","no","white","no","yes","768","legacy","16","11","C:/Users/katie/Documents/School/Quant Methods/Lab 3/KH-subject-2.csv","legacy","5 3 8 7 2 4","Lentiform Loewenfeld","3.3.9","0","n","0","right","right","right","right","NA","1007","127760","7180","1007","NA","2","legacy","6","1024","2","48000","-16","experiment","1","odd","9","316953","313691","314747","4329","215842","314749","NA","4343","208662","318954","315750","319962","132104","318954","NA","Sternberg task","29","28265","29","yes","1024"
"100","100","966.233333333","966.233333333","black","experiment","legacy","legacy","legacy","0","uniform","1","undefined","1","left","29","29","29","0","0","29","29","0","0","29","29","29","0","29","0","10/20/21 21:28:47","The main experiment item","yes","SternbergExperiment.osexp","C:\Users\katie\Documents\School\Quant Methods\Lab 3","no","mono","no","18","no","white","no","yes","768","legacy","17","11","C:/Users/katie/Documents/School/Quant Methods/Lab 3/KH-subject-2.csv","legacy","9 1 7 2","Lentiform Loewenfeld","3.3.9","2","y","0","left","right","right","left","NA","722","127760","7180","722","NA","2","legacy","4","1024","2","48000","-16","experiment","1","odd","1","323235","319973","321028","4329","215842","321030","NA","4343","208662","325236","322032","325958","132104","325236","NA","Sternberg task","30","28987","30","yes","1024"
"100","100","958.35483871","958.35483871","black","experiment","legacy","legacy","legacy","0","uniform","1","undefined","1","right","30","30","30","0","0","30","30","0","0","30","30","30","0","30","0","10/20/21 21:28:47","The main experiment item","yes","SternbergExperiment.osexp","C:\Users\katie\Documents\School\Quant Methods\Lab 3","no","mono","no","18","no","white","no","yes","768","legacy","18","11","C:/Users/katie/Documents/School/Quant Methods/Lab 3/KH-subject-2.csv","legacy","9","Lentiform Loewenfeld","3.3.9","0","n","0","right","right","right","right","NA","722","127760","7180","722","NA","2","legacy","1","1024","2","48000","-16","experiment","1","odd","6","329233","325969","327022","4329","215842","327028","NA","4343","208662","331234","328030","331958","132104","331234","NA","Sternberg task","31","29709","31","yes","1024"
"96.875","96.875","945.96875","945.96875","black","experiment","legacy","legacy","legacy","0","uniform","0","undefined","0","left","31","31","31","0","0","31","31","0","0","31","31","31","0","31","0","10/20/21 21:28:47","The main experiment item","yes","SternbergExperiment.osexp","C:\Users\katie\Documents\School\Quant Methods\Lab 3","no","mono","no","18","no","white","no","yes","768","legacy","19","11","C:/Users/katie/Documents/School/Quant Methods/Lab 3/KH-subject-2.csv","legacy","1 4 9 3 2 5","Lentiform Loewenfeld","3.3.9","3","y","0","right","right","right","right","NA","562","127760","7180","562","NA","2","legacy","6","1024","2","48000","-16","experiment","1","odd","9","335230","331970","333026","4329","215842","333027","NA","4343","208662","337231","334028","337793","132104","337231","NA","Sternberg task","31","30271","32","yes","1024"
"93.9393939394","93.9393939394","938.757575758","938.757575758","black","experiment","legacy","legacy","legacy","0","uniform","0","undefined","0","right","32","32","32","0","0","32","32","0","0","32","32","32","0","32","0","10/20/21 21:28:47","The main experiment item","yes","SternbergExperiment.osexp","C:\Users\katie\Documents\School\Quant Methods\Lab 3","no","mono","no","18","no","white","no","yes","768","legacy","20","11","C:/Users/katie/Documents/School/Quant Methods/Lab 3/KH-subject-2.csv","legacy","5 3 2 6 9 8","Lentiform Loewenfeld","3.3.9","0","n","0","left","right","right","left","NA","708","127760","7180","708","NA","2","legacy","6","1024","2","48000","-16","experiment","1","odd","4","341062","331970","338852","4329","215842","338858","337796","4343","208662","343063","339859","343774","132104","343063","NA","Sternberg task","31","30979","33","yes","1024"
"94.1176470588","94.1176470588","939.117647059","939.117647059","black","experiment","legacy","legacy","legacy","0","uniform","1","undefined","1","right","33","33","33","0","0","33","33","0","0","33","33","33","0","33","0","10/20/21 21:28:47","The main experiment item","yes","SternbergExperiment.osexp","C:\Users\katie\Documents\School\Quant Methods\Lab 3","no","mono","no","18","no","white","no","yes","768","legacy","21","11","C:/Users/katie/Documents/School/Quant Methods/Lab 3/KH-subject-2.csv","legacy","5 9 2 3","Lentiform Loewenfeld","3.3.9","0","n","0","right","right","right","right","NA","951","127760","7180","951","NA","2","legacy","4","1024","2","48000","-16","experiment","1","odd","8","347049","331970","344841","4329","215842","344846","343788","4343","208662","349050","345847","350002","132104","349050","NA","Sternberg task","32","31930","34","yes","1024"
"94.2857142857","94.2857142857","934.057142857","934.057142857","black","experiment","legacy","legacy","legacy","0","uniform","1","undefined","1","right","34","34","34","0","0","34","34","0","0","34","34","34","0","34","0","10/20/21 21:28:47","The main experiment item","yes","SternbergExperiment.osexp","C:\Users\katie\Documents\School\Quant Methods\Lab 3","no","mono","no","18","no","white","no","yes","768","legacy","22","11","C:/Users/katie/Documents/School/Quant Methods/Lab 3/KH-subject-2.csv","legacy","1","Lentiform Loewenfeld","3.3.9","0","n","0","right","right","right","right","NA","762","127760","7180","762","NA","2","legacy","1","1024","2","48000","-16","experiment","1","odd","7","353269","350006","351059","4329","215842","351064","343788","4343","208662","355270","352066","356032","132104","355270","NA","Sternberg task","33","32692","35","yes","1024"
"91.6666666667","91.6666666667","931.194444444","931.194444444","black","experiment","legacy","legacy","legacy","0","uniform","0","undefined","0","right","35","35","35","0","0","35","35","0","0","35","35","35","0","35","0","10/20/21 21:28:47","The main experiment item","yes","SternbergExperiment.osexp","C:\Users\katie\Documents\School\Quant Methods\Lab 3","no","mono","no","18","no","white","no","yes","768","legacy","23","11","C:/Users/katie/Documents/School/Quant Methods/Lab 3/KH-subject-2.csv","legacy","8 5 4 2 9 6","Lentiform Loewenfeld","3.3.9","0","n","0","left","right","right","left","NA","831","127760","7180","831","NA","2","legacy","6","1024","2","48000","-16","experiment","1","odd","3","359305","356043","357098","4329","215842","357101","343788","4343","208662","361306","358103","362138","132104","361306","NA","Sternberg task","33","33523","36","yes","1024"
"91.8918918919","91.8918918919","926.216216216","926.216216216","black","experiment","legacy","legacy","legacy","0","uniform","1","undefined","1","right","36","36","36","0","0","36","36","0","0","36","36","36","0","36","0","10/20/21 21:28:47","The main experiment item","yes","SternbergExperiment.osexp","C:\Users\katie\Documents\School\Quant Methods\Lab 3","no","mono","no","18","no","white","no","yes","768","legacy","24","11","C:/Users/katie/Documents/School/Quant Methods/Lab 3/KH-subject-2.csv","legacy","1 7 5 2 9","Lentiform Loewenfeld","3.3.9","0","n","0","right","right","right","right","NA","747","127760","7180","747","NA","2","legacy","5","1024","2","48000","-16","experiment","1","odd","3","365411","356043","363201","4329","215842","363206","362149","4343","208662","367412","364208","368160","132104","367412","NA","Sternberg task","34","34270","37","yes","1024"
"92.1052631579","92.1052631579","922.684210526","922.684210526","black","experiment","legacy","legacy","legacy","0","uniform","1","undefined","1","right","37","37","37","0","0","37","37","0","0","37","37","37","0","37","0","10/20/21 21:28:47","The main experiment item","yes","SternbergExperiment.osexp","C:\Users\katie\Documents\School\Quant Methods\Lab 3","no","mono","no","18","no","white","no","yes","768","legacy","25","11","C:/Users/katie/Documents/School/Quant Methods/Lab 3/KH-subject-2.csv","legacy","8 4 3 9","Lentiform Loewenfeld","3.3.9","0","n","0","right","right","right","right","NA","792","127760","7180","792","NA","2","legacy","4","1024","2","48000","-16","experiment","1","odd","5","371421","368164","369217","4329","215842","369219","362149","4343","208662","373422","370220","374214","132104","373422","NA","Sternberg task","35","35062","38","yes","1024"
"92.3076923077","92.3076923077","919.282051282","919.282051282","black","experiment","legacy","legacy","legacy","0","uniform","1","undefined","1","right","38","38","38","0","0","38","38","0","0","38","38","38","0","38","0","10/20/21 21:28:47","The main experiment item","yes","SternbergExperiment.osexp","C:\Users\katie\Documents\School\Quant Methods\Lab 3","no","mono","no","18","no","white","no","yes","768","legacy","26","11","C:/Users/katie/Documents/School/Quant Methods/Lab 3/KH-subject-2.csv","legacy","1 6 4 3 9 7","Lentiform Loewenfeld","3.3.9","0","n","0","right","right","right","right","NA","790","127760","7180","790","NA","2","legacy","6","1024","2","48000","-16","experiment","1","odd","8","377484","374226","375279","4329","215842","375281","362149","4343","208662","379485","376283","380276","132104","379485","NA","Sternberg task","36","35852","39","yes","1024"
"92.5","92.5","918","918","black","experiment","legacy","legacy","legacy","0","uniform","1","undefined","1","right","39","39","39","0","0","39","39","0","0","39","39","39","0","39","0","10/20/21 21:28:47","The main experiment item","yes","SternbergExperiment.osexp","C:\Users\katie\Documents\School\Quant Methods\Lab 3","no","mono","no","18","no","white","no","yes","768","legacy","27","11","C:/Users/katie/Documents/School/Quant Methods/Lab 3/KH-subject-2.csv","legacy","6 2 9 3 8 4","Lentiform Loewenfeld","3.3.9","0","n","0","right","right","right","right","NA","868","127760","7180","868","NA","2","legacy","6","1024","2","48000","-16","experiment","1","odd","1","383545","380287","381339","4329","215842","381343","362149","4343","208662","385546","382345","386414","132104","385546","NA","Sternberg task","37","36720","40","yes","1024"
"92.6829268293","92.6829268293","913.048780488","913.048780488","black","experiment","legacy","legacy","legacy","0","uniform","1","undefined","1","left","40","40","40","0","0","40","40","0","0","40","40","40","0","40","0","10/20/21 21:28:47","The main experiment item","yes","SternbergExperiment.osexp","C:\Users\katie\Documents\School\Quant Methods\Lab 3","no","mono","no","18","no","white","no","yes","768","legacy","28","11","C:/Users/katie/Documents/School/Quant Methods/Lab 3/KH-subject-2.csv","legacy","7","Lentiform Loewenfeld","3.3.9","1","y","0","left","right","right","left","NA","715","127760","7180","715","NA","2","legacy","1","1024","2","48000","-16","experiment","1","odd","7","389677","386418","387470","4329","215842","387475","362149","4343","208662","391678","388476","392393","132104","391678","NA","Sternberg task","38","37435","41","yes","1024"
"92.8571428571","92.8571428571","909.142857143","909.142857143","black","experiment","legacy","legacy","legacy","0","uniform","1","undefined","1","left","41","41","41","0","0","41","41","0","0","41","41","41","0","41","0","10/20/21 21:28:47","The main experiment item","yes","SternbergExperiment.osexp","C:\Users\katie\Documents\School\Quant Methods\Lab 3","no","mono","no","18","no","white","no","yes","768","legacy","29","11","C:/Users/katie/Documents/School/Quant Methods/Lab 3/KH-subject-2.csv","legacy","6 7 8 5","Lentiform Loewenfeld","3.3.9","3","y","0","left","right","right","left","NA","749","127760","7180","749","NA","2","legacy","4","1024","2","48000","-16","experiment","1","odd","8","395666","392406","393460","4329","215842","393461","362149","4343","208662","397668","394464","398418","132104","397668","NA","Sternberg task","39","38184","42","yes","1024"
"93.023255814","93.023255814","900.465116279","900.465116279","black","experiment","legacy","legacy","legacy","0","uniform","1","undefined","1","left","42","42","42","0","0","42","42","0","0","42","42","42","0","42","0","10/20/21 21:28:47","The main experiment item","yes","SternbergExperiment.osexp","C:\Users\katie\Documents\School\Quant Methods\Lab 3","no","mono","no","18","no","white","no","yes","768","legacy","30","11","C:/Users/katie/Documents/School/Quant Methods/Lab 3/KH-subject-2.csv","legacy","3 5 4 7","Lentiform Loewenfeld","3.3.9","1","y","0","left","right","right","left","NA","536","127760","7180","536","NA","2","legacy","4","1024","2","48000","-16","experiment","1","odd","3","401694","398431","399487","4329","215842","399489","362149","4343","208662","403695","400491","404232","132104","403695","NA","Sternberg task","40","38720","43","yes","1024"
"93.1818181818","93.1818181818","898.409090909","898.409090909","black","experiment","legacy","legacy","legacy","0","uniform","1","undefined","1","right","43","43","43","0","0","43","43","0","0","43","43","43","0","43","0","10/20/21 21:28:47","The main experiment item","yes","SternbergExperiment.osexp","C:\Users\katie\Documents\School\Quant Methods\Lab 3","no","mono","no","18","no","white","no","yes","768","legacy","31","11","C:/Users/katie/Documents/School/Quant Methods/Lab 3/KH-subject-2.csv","legacy","3 4 9 6 7 8","Lentiform Loewenfeld","3.3.9","0","n","0","right","right","right","right","NA","810","127760","7180","810","NA","2","legacy","6","1024","2","48000","-16","experiment","1","odd","2","407501","404243","405296","4329","215842","405298","362149","4343","208662","409503","406299","410317","132104","409503","NA","Sternberg task","41","39530","44","yes","1024"
"93.3333333333","93.3333333333","894.088888889","894.088888889","black","experiment","legacy","legacy","legacy","0","uniform","1","undefined","1","left","44","44","44","0","0","44","44","0","0","44","44","44","0","44","0","10/20/21 21:28:47","The main experiment item","yes","SternbergExperiment.osexp","C:\Users\katie\Documents\School\Quant Methods\Lab 3","no","mono","no","18","no","white","no","yes","768","legacy","32","11","C:/Users/katie/Documents/School/Quant Methods/Lab 3/KH-subject-2.csv","legacy","5 7 8 2 3 8","Lentiform Loewenfeld","3.3.9","5","y","0","left","right","right","left","NA","704","127760","7180","704","NA","2","legacy","6","1024","2","48000","-16","experiment","1","odd","3","413590","410331","411384","4329","215842","411385","362149","4343","208662","415591","412387","416296","132104","415591","NA","Sternberg task","42","40234","45","yes","1024"
"93.4782608696","93.4782608696","889.456521739","889.456521739","black","experiment","legacy","legacy","legacy","0","uniform","1","undefined","1","left","45","45","45","0","0","45","45","0","0","45","45","45","0","45","0","10/20/21 21:28:47","The main experiment item","yes","SternbergExperiment.osexp","C:\Users\katie\Documents\School\Quant Methods\Lab 3","no","mono","no","18","no","white","no","yes","768","legacy","33","11","C:/Users/katie/Documents/School/Quant Methods/Lab 3/KH-subject-2.csv","legacy","4 9 7 8 5 3","Lentiform Loewenfeld","3.3.9","4","y","0","left","right","right","left","NA","681","127760","7180","681","NA","2","legacy","6","1024","2","48000","-16","experiment","1","odd","8","419559","416299","417355","4329","215842","417356","362149","4343","208662","421560","418357","422242","132104","421560","NA","Sternberg task","43","40915","46","yes","1024"
"93.6170212766","93.6170212766","893.191489362","893.191489362","black","experiment","legacy","legacy","legacy","0","uniform","1","undefined","1","right","46","46","46","0","0","46","46","0","0","46","46","46","0","46","0","10/20/21 21:28:47","The main experiment item","yes","SternbergExperiment.osexp","C:\Users\katie\Documents\School\Quant Methods\Lab 3","no","mono","no","18","no","white","no","yes","768","legacy","34","11","C:/Users/katie/Documents/School/Quant Methods/Lab 3/KH-subject-2.csv","legacy","6 9 5","Lentiform Loewenfeld","3.3.9","0","n","0","right","right","right","right","NA","1065","127760","7180","1065","NA","2","legacy","3","1024","2","48000","-16","experiment","1","odd","8","425515","422253","423310","4329","215842","423312","362149","4343","208662","427517","424313","428583","132104","427517","NA","Sternberg task","44","41980","47","yes","1024"
"93.75","93.75","891.645833333","891.645833333","black","experiment","legacy","legacy","legacy","0","uniform","1","undefined","1","right","47","47","47","0","0","47","47","0","0","47","47","47","0","47","0","10/20/21 21:28:47","The main experiment item","yes","SternbergExperiment.osexp","C:\Users\katie\Documents\School\Quant Methods\Lab 3","no","mono","no","18","no","white","no","yes","768","legacy","35","11","C:/Users/katie/Documents/School/Quant Methods/Lab 3/KH-subject-2.csv","legacy","2 5 1 4","Lentiform Loewenfeld","3.3.9","0","n","0","right","right","right","right","NA","819","127760","7180","819","NA","2","legacy","4","1024","2","48000","-16","experiment","1","odd","6","431850","428587","429642","4329","215842","429646","362149","4343","208662","433851","430647","434670","132104","433851","NA","Sternberg task","45","42799","48","yes","1024"
"93.8775510204","93.8775510204","892.591836735","892.591836735","black","experiment","legacy","legacy","legacy","0","uniform","1","undefined","1","right","48","48","48","0","0","48","48","0","0","48","48","48","0","48","0","10/20/21 21:28:47","The main experiment item","yes","SternbergExperiment.osexp","C:\Users\katie\Documents\School\Quant Methods\Lab 3","no","mono","no","18","no","white","no","yes","768","legacy","36","11","C:/Users/katie/Documents/School/Quant Methods/Lab 3/KH-subject-2.csv","legacy","7 6 4 8 1 2","Lentiform Loewenfeld","3.3.9","0","n","0","right","right","right","right","NA","938","127760","7180","938","NA","2","legacy","6","1024","2","48000","-16","experiment","1","odd","9","437949","434684","435741","4329","215842","435744","362149","4343","208662","439951","436746","440890","132104","439951","NA","Sternberg task","46","43737","49","yes","1024"
"94","94","896.54","896.54","black","experiment","legacy","legacy","legacy","0","uniform","1","undefined","1","right","49","49","49","0","0","49","49","0","0","49","49","49","0","49","0","10/20/21 21:28:47","The main experiment item","yes","SternbergExperiment.osexp","C:\Users\katie\Documents\School\Quant Methods\Lab 3","no","mono","no","18","no","white","no","yes","768","legacy","37","11","C:/Users/katie/Documents/School/Quant Methods/Lab 3/KH-subject-2.csv","legacy","6 3 1 7 9 8","Lentiform Loewenfeld","3.3.9","0","n","0","right","right","right","right","NA","1090","127760","7180","1090","NA","2","legacy","6","1024","2","48000","-16","experiment","1","odd","4","444164","440902","441957","4329","215842","441959","362149","4343","208662","446165","442961","447256","132104","446165","NA","Sternberg task","47","44827","50","yes","1024"
"94.1176470588","94.1176470588","889.137254902","889.137254902","black","experiment","legacy","legacy","legacy","0","uniform","1","undefined","1","left","50","50","50","0","0","50","50","0","0","50","50","50","0","50","0","10/20/21 21:28:47","The main experiment item","yes","SternbergExperiment.osexp","C:\Users\katie\Documents\School\Quant Methods\Lab 3","no","mono","no","18","no","white","no","yes","768","legacy","38","11","C:/Users/katie/Documents/School/Quant Methods/Lab 3/KH-subject-2.csv","legacy","2 3 7 4","Lentiform Loewenfeld","3.3.9","1","y","0","left","right","right","left","NA","519","127760","7180","519","NA","2","legacy","4","1024","2","48000","-16","experiment","1","odd","2","450533","447267","448324","4329","215842","448328","362149","4343","208662","452534","449330","453056","132104","452534","NA","Sternberg task","48","45346","51","yes","1024"
"94.2307692308","94.2307692308","887.019230769","887.019230769","black","experiment","legacy","legacy","legacy","0","uniform","1","undefined","1","right","51","51","51","0","0","51","51","0","0","51","51","51","0","51","0","10/20/21 21:28:47","The main experiment item","yes","SternbergExperiment.osexp","C:\Users\katie\Documents\School\Quant Methods\Lab 3","no","mono","no","18","no","white","no","yes","768","legacy","39","11","C:/Users/katie/Documents/School/Quant Methods/Lab 3/KH-subject-2.csv","legacy","1 4 9 2 5","Lentiform Loewenfeld","3.3.9","0","n","0","right","right","right","right","NA","779","127760","7180","779","NA","2","legacy","5","1024","2","48000","-16","experiment","1","odd","7","456320","453060","454113","4329","215842","454116","362149","4343","208662","458321","455117","459101","132104","458321","NA","Sternberg task","49","46125","52","yes","1024"
"94.3396226415","94.3396226415","895.396226415","895.396226415","black","experiment","legacy","legacy","legacy","0","uniform","1","undefined","1","left","52","52","52","0","0","52","52","0","0","52","52","52","0","52","0","10/20/21 21:28:47","The main experiment item","yes","SternbergExperiment.osexp","C:\Users\katie\Documents\School\Quant Methods\Lab 3","no","mono","no","18","no","white","no","yes","768","legacy","40","11","C:/Users/katie/Documents/School/Quant Methods/Lab 3/KH-subject-2.csv","legacy","6 5","Lentiform Loewenfeld","3.3.9","2","y","0","left","right","right","left","NA","1331","127760","7180","1331","NA","2","legacy","2","1024","2","48000","-16","experiment","1","odd","5","462363","459106","460160","4329","215842","460161","362149","4343","208662","464365","461162","465697","132104","464365","NA","Sternberg task","50","47456","53","yes","1024"
"94.4444444444","94.4444444444","891.148148148","891.148148148","black","experiment","legacy","legacy","legacy","0","uniform","1","undefined","1","left","53","53","53","0","0","53","53","0","0","53","53","53","0","53","0","10/20/21 21:28:47","The main experiment item","yes","SternbergExperiment.osexp","C:\Users\katie\Documents\School\Quant Methods\Lab 3","no","mono","no","18","no","white","no","yes","768","legacy","41","11","C:/Users/katie/Documents/School/Quant Methods/Lab 3/KH-subject-2.csv","legacy","2 6 1 7 4","Lentiform Loewenfeld","3.3.9","2","y","0","left","right","right","left","NA","666","127760","7180","666","NA","2","legacy","5","1024","2","48000","-16","experiment","1","odd","6","468970","465708","466761","4329","215842","466765","362149","4343","208662","470971","467768","471638","132104","470971","NA","Sternberg task","51","48122","54","yes","1024"
"94.5454545455","94.5454545455","882.654545455","882.654545455","black","experiment","legacy","legacy","legacy","0","uniform","1","undefined","1","left","54","54","54","0","0","54","54","0","0","54","54","54","0","54","0","10/20/21 21:28:47","The main experiment item","yes","SternbergExperiment.osexp","C:\Users\katie\Documents\School\Quant Methods\Lab 3","no","mono","no","18","no","white","no","yes","768","legacy","42","11","C:/Users/katie/Documents/School/Quant Methods/Lab 3/KH-subject-2.csv","legacy","4","Lentiform Loewenfeld","3.3.9","1","y","0","left","right","right","left","NA","424","127760","7180","424","NA","2","legacy","1","1024","2","48000","-16","experiment","1","odd","4","474903","471642","472696","4329","215842","472699","362149","4343","208662","476904","473700","477329","132104","476904","NA","Sternberg task","52","48546","55","yes","1024"
"94.6428571429","94.6428571429","878.535714286","878.535714286","black","experiment","legacy","legacy","legacy","0","uniform","1","undefined","1","left","55","55","55","0","0","55","55","0","0","55","55","55","0","55","0","10/20/21 21:28:47","The main experiment item","yes","SternbergExperiment.osexp","C:\Users\katie\Documents\School\Quant Methods\Lab 3","no","mono","no","18","no","white","no","yes","768","legacy","43","11","C:/Users/katie/Documents/School/Quant Methods/Lab 3/KH-subject-2.csv","legacy","5 2 6","Lentiform Loewenfeld","3.3.9","2","y","0","left","right","right","left","NA","652","127760","7180","652","NA","2","legacy","3","1024","2","48000","-16","experiment","1","odd","2","480602","477340","478395","4329","215842","478399","362149","4343","208662","482603","479400","483256","132104","482603","NA","Sternberg task","53","49198","56","yes","1024"
"94.7368421053","94.7368421053","879.473684211","879.473684211","black","experiment","legacy","legacy","legacy","0","uniform","1","undefined","1","left","56","56","56","0","0","56","56","0","0","56","56","56","0","56","0","10/20/21 21:28:47","The main experiment item","yes","SternbergExperiment.osexp","C:\Users\katie\Documents\School\Quant Methods\Lab 3","no","mono","no","18","no","white","no","yes","768","legacy","44","11","C:/Users/katie/Documents/School/Quant Methods/Lab 3/KH-subject-2.csv","legacy","3 9 6 2","Lentiform Loewenfeld","3.3.9","4","y","0","left","right","right","left","NA","932","127760","7180","932","NA","2","legacy","4","1024","2","48000","-16","experiment","1","odd","2","486532","483268","484325","4329","215842","484327","362149","4343","208662","488533","485329","489465","132104","488533","NA","Sternberg task","54","50130","57","yes","1024"
"94.8275862069","94.8275862069","870.896551724","870.896551724","black","experiment","legacy","legacy","legacy","0","uniform","1","undefined","1","left","57","57","57","0","0","57","57","0","0","57","57","57","0","57","0","10/20/21 21:28:47","The main experiment item","yes","SternbergExperiment.osexp","C:\Users\katie\Documents\School\Quant Methods\Lab 3","no","mono","no","18","no","white","no","yes","768","legacy","45","11","C:/Users/katie/Documents/School/Quant Methods/Lab 3/KH-subject-2.csv","legacy","8","Lentiform Loewenfeld","3.3.9","1","y","0","left","right","right","left","NA","382","127760","7180","382","NA","2","legacy","1","1024","2","48000","-16","experiment","1","odd","8","492734","489476","490527","4329","215842","490531","362149","4343","208662","494735","491533","495118","132104","494735","NA","Sternberg task","55","50512","58","yes","1024"
"94.9152542373","94.9152542373","869.457627119","869.457627119","black","experiment","legacy","legacy","legacy","0","uniform","1","undefined","1","right","58","58","58","0","0","58","58","0","0","58","58","58","0","58","0","10/20/21 21:28:47","The main experiment item","yes","SternbergExperiment.osexp","C:\Users\katie\Documents\School\Quant Methods\Lab 3","no","mono","no","18","no","white","no","yes","768","legacy","46","11","C:/Users/katie/Documents/School/Quant Methods/Lab 3/KH-subject-2.csv","legacy","3 9 1","Lentiform Loewenfeld","3.3.9","0","n","0","right","right","right","right","NA","786","127760","7180","786","NA","2","legacy","3","1024","2","48000","-16","experiment","1","odd","7","498388","495130","496184","4329","215842","496185","362149","4343","208662","500389","497186","501178","132104","500389","NA","Sternberg task","56","51298","59","yes","1024"
"95","95","867.15","867.15","black","experiment","legacy","legacy","legacy","0","uniform","1","undefined","1","right","59","59","59","0","0","59","59","0","0","59","59","59","0","59","0","10/20/21 21:28:47","The main experiment item","yes","SternbergExperiment.osexp","C:\Users\katie\Documents\School\Quant Methods\Lab 3","no","mono","no","18","no","white","no","yes","768","legacy","47","11","C:/Users/katie/Documents/School/Quant Methods/Lab 3/KH-subject-2.csv","legacy","6 7 5 9","Lentiform Loewenfeld","3.3.9","0","n","0","right","right","right","right","NA","731","127760","7180","731","NA","2","legacy","4","1024","2","48000","-16","experiment","1","odd","2","504444","501182","502238","4329","215842","502240","362149","4343","208662","506445","503242","507177","132104","506445","NA","Sternberg task","57","52029","60","yes","1024"
"95.0819672131","95.0819672131","872.590163934","872.590163934","black","experiment","legacy","legacy","legacy","0","uniform","1","undefined","1","left","60","60","60","0","0","60","60","0","0","60","60","60","0","60","0","10/20/21 21:28:47","The main experiment item","yes","SternbergExperiment.osexp","C:\Users\katie\Documents\School\Quant Methods\Lab 3","no","mono","no","18","no","white","no","yes","768","legacy","48","11","C:/Users/katie/Documents/School/Quant Methods/Lab 3/KH-subject-2.csv","legacy","9 4 2","Lentiform Loewenfeld","3.3.9","1","y","0","left","right","right","left","NA","1199","127760","7180","1199","NA","2","legacy","3","1024","2","48000","-16","experiment","1","odd","9","510445","507183","508238","4329","215842","508241","362149","4343","208662","512446","509243","513646","132104","512446","NA","Sternberg task","58","53228","61","yes","1024"
"95.1612903226","95.1612903226","869.080645161","869.080645161","black","experiment","legacy","legacy","legacy","0","uniform","1","undefined","1","left","61","61","61","0","0","61","61","0","0","61","61","61","0","61","0","10/20/21 21:28:47","The main experiment item","yes","SternbergExperiment.osexp","C:\Users\katie\Documents\School\Quant Methods\Lab 3","no","mono","no","18","no","white","no","yes","768","legacy","49","11","C:/Users/katie/Documents/School/Quant Methods/Lab 3/KH-subject-2.csv","legacy","9 6 2 4 1","Lentiform Loewenfeld","3.3.9","4","y","0","left","right","right","left","NA","655","127760","7180","655","NA","2","legacy","5","1024","2","48000","-16","experiment","1","odd","4","516923","513658","514716","4329","215842","514719","362149","4343","208662","518924","515721","519580","132104","518924","NA","Sternberg task","59","53883","62","yes","1024"
"95.2380952381","95.2380952381","867.841269841","867.841269841","black","experiment","legacy","legacy","legacy","0","uniform","1","undefined","1","right","62","62","62","0","0","62","62","0","0","62","62","62","0","62","0","10/20/21 21:28:47","The main experiment item","yes","SternbergExperiment.osexp","C:\Users\katie\Documents\School\Quant Methods\Lab 3","no","mono","no","18","no","white","no","yes","768","legacy","50","11","C:/Users/katie/Documents/School/Quant Methods/Lab 3/KH-subject-2.csv","legacy","2 8 9","Lentiform Loewenfeld","3.3.9","0","n","0","right","right","right","right","NA","791","127760","7180","791","NA","2","legacy","3","1024","2","48000","-16","experiment","1","odd","6","522847","519590","520642","4329","215842","520644","362149","4343","208662","524849","521646","525641","132104","524849","NA","Sternberg task","60","54674","63","yes","1024"
"95.3125","95.3125","865.21875","865.21875","black","experiment","legacy","legacy","legacy","0","uniform","1","undefined","1","right","63","63","63","0","0","63","63","0","0","63","63","63","0","63","0","10/20/21 21:28:47","The main experiment item","yes","SternbergExperiment.osexp","C:\Users\katie\Documents\School\Quant Methods\Lab 3","no","mono","no","18","no","white","no","yes","768","legacy","51","11","C:/Users/katie/Documents/School/Quant Methods/Lab 3/KH-subject-2.csv","legacy","7 4 2 8 1 9","Lentiform Loewenfeld","3.3.9","0","n","0","right","right","right","right","NA","700","127760","7180","700","NA","2","legacy","6","1024","2","48000","-16","experiment","1","odd","5","528916","525652","526710","4329","215842","526711","362149","4343","208662","530917","527713","531618","132104","530917","NA","Sternberg task","61","55374","64","yes","1024"
"95.3846153846","95.3846153846","861.553846154","861.553846154","black","experiment","legacy","legacy","legacy","0","uniform","1","undefined","1","left","64","64","64","0","0","64","64","0","0","64","64","64","0","64","0","10/20/21 21:28:47","The main experiment item","yes","SternbergExperiment.osexp","C:\Users\katie\Documents\School\Quant Methods\Lab 3","no","mono","no","18","no","white","no","yes","768","legacy","52","11","C:/Users/katie/Documents/School/Quant Methods/Lab 3/KH-subject-2.csv","legacy","6 2","Lentiform Loewenfeld","3.3.9","1","y","0","left","right","right","left","NA","627","127760","7180","627","NA","2","legacy","2","1024","2","48000","-16","experiment","1","odd","6","534895","531630","532686","4329","215842","532690","362149","4343","208662","536896","533692","537524","132104","536896","NA","Sternberg task","62","56001","65","yes","1024"
"95.4545454545","95.4545454545","863.03030303","863.03030303","black","experiment","legacy","legacy","legacy","0","uniform","1","undefined","1","left","65","65","65","0","0","65","65","0","0","65","65","65","0","65","0","10/20/21 21:28:47","The main experiment item","yes","SternbergExperiment.osexp","C:\Users\katie\Documents\School\Quant Methods\Lab 3","no","mono","no","18","no","white","no","yes","768","legacy","53","11","C:/Users/katie/Documents/School/Quant Methods/Lab 3/KH-subject-2.csv","legacy","4 7 6 8 2 3","Lentiform Loewenfeld","3.3.9","6","y","0","left","right","right","left","NA","959","127760","7180","959","NA","2","legacy","6","1024","2","48000","-16","experiment","1","odd","3","540793","537527","538584","4329","215842","538588","362149","4343","208662","542795","539591","543756","132104","542795","NA","Sternberg task","63","56960","66","yes","1024"
"95.5223880597","95.5223880597","859.880597015","859.880597015","black","experiment","legacy","legacy","legacy","0","uniform","1","undefined","1","left","66","66","66","0","0","66","66","0","0","66","66","66","0","66","0","10/20/21 21:28:47","The main experiment item","yes","SternbergExperiment.osexp","C:\Users\katie\Documents\School\Quant Methods\Lab 3","no","mono","no","18","no","white","no","yes","768","legacy","54","11","C:/Users/katie/Documents/School/Quant Methods/Lab 3/KH-subject-2.csv","legacy","3 2 1 4 7","Lentiform Loewenfeld","3.3.9","2","y","0","left","right","right","left","NA","652","127760","7180","652","NA","2","legacy","5","1024","2","48000","-16","experiment","1","odd","2","547029","543768","544823","4329","215842","544825","362149","4343","208662","549030","545826","549682","132104","549030","NA","Sternberg task","64","57612","67","yes","1024"
"95.5882352941","95.5882352941","858.411764706","858.411764706","black","experiment","legacy","legacy","legacy","0","uniform","1","undefined","1","right","67","67","67","0","0","67","67","0","0","67","67","67","0","67","0","10/20/21 21:28:47","The main experiment item","yes","SternbergExperiment.osexp","C:\Users\katie\Documents\School\Quant Methods\Lab 3","no","mono","no","18","no","white","no","yes","768","legacy","55","11","C:/Users/katie/Documents/School/Quant Methods/Lab 3/KH-subject-2.csv","legacy","1 4 3 6 5","Lentiform Loewenfeld","3.3.9","0","n","0","right","right","right","right","NA","760","127760","7180","760","NA","2","legacy","5","1024","2","48000","-16","experiment","1","odd","8","552956","549695","550749","4329","215842","550751","362149","4343","208662","554957","551753","555718","132104","554957","NA","Sternberg task","65","58372","68","yes","1024"
"95.652173913","95.652173913","854.362318841","854.362318841","black","experiment","legacy","legacy","legacy","0","uniform","1","undefined","1","left","68","68","68","0","0","68","68","0","0","68","68","68","0","68","0","10/20/21 21:28:47","The main experiment item","yes","SternbergExperiment.osexp","C:\Users\katie\Documents\School\Quant Methods\Lab 3","no","mono","no","18","no","white","no","yes","768","legacy","56","11","C:/Users/katie/Documents/School/Quant Methods/Lab 3/KH-subject-2.csv","legacy","3 5 7 1","Lentiform Loewenfeld","3.3.9","3","y","0","left","right","right","left","NA","579","127760","7180","579","NA","2","legacy","4","1024","2","48000","-16","experiment","1","odd","7","558993","555731","556786","4329","215842","556788","362149","4343","208662","560994","557791","561574","132104","560994","NA","Sternberg task","66","58951","69","yes","1024"
"95.7142857143","95.7142857143","853.557142857","853.557142857","black","experiment","legacy","legacy","legacy","0","uniform","1","undefined","1","right","69","69","69","0","0","69","69","0","0","69","69","69","0","69","0","10/20/21 21:28:47","The main experiment item","yes","SternbergExperiment.osexp","C:\Users\katie\Documents\School\Quant Methods\Lab 3","no","mono","no","18","no","white","no","yes","768","legacy","57","11","C:/Users/katie/Documents/School/Quant Methods/Lab 3/KH-subject-2.csv","legacy","8 5 7 3 6","Lentiform Loewenfeld","3.3.9","0","n","0","right","right","right","right","NA","798","127760","7180","798","NA","2","legacy","5","1024","2","48000","-16","experiment","1","odd","9","564844","561586","562638","4329","215842","562641","362149","4343","208662","566845","563642","567643","132104","566845","NA","Sternberg task","67","59749","70","yes","1024"
"94.3661971831","94.3661971831","852.591549296","852.591549296","black","experiment","legacy","legacy","legacy","0","uniform","0","undefined","0","left","70","70","70","0","0","70","70","0","0","70","70","70","0","70","0","10/20/21 21:28:47","The main experiment item","yes","SternbergExperiment.osexp","C:\Users\katie\Documents\School\Quant Methods\Lab 3","no","mono","no","18","no","white","no","yes","768","legacy","58","11","C:/Users/katie/Documents/School/Quant Methods/Lab 3/KH-subject-2.csv","legacy","8 5 1 3 9","Lentiform Loewenfeld","3.3.9","4","y","0","right","right","right","right","NA","785","127760","7180","785","NA","2","legacy","5","1024","2","48000","-16","experiment","1","odd","3","570907","567647","568700","4329","215842","568702","362149","4343","208662","572908","569704","573694","132104","572908","NA","Sternberg task","67","60534","71","yes","1024"
"93.0555555556","93.0555555556","854.361111111","854.361111111","black","experiment","legacy","legacy","legacy","0","uniform","0","undefined","0","right","71","71","71","0","0","71","71","0","0","71","71","71","0","71","0","10/20/21 21:28:47","The main experiment item","yes","SternbergExperiment.osexp","C:\Users\katie\Documents\School\Quant Methods\Lab 3","no","mono","no","18","no","white","no","yes","768","legacy","59","11","C:/Users/katie/Documents/School/Quant Methods/Lab 3/KH-subject-2.csv","legacy","3 9 8 1 6 4","Lentiform Loewenfeld","3.3.9","0","n","0","left","right","right","left","NA","980","127760","7180","980","NA","2","legacy","6","1024","2","48000","-16","experiment","1","odd","7","576959","567647","574755","4329","215842","574757","573700","4343","208662","578962","575758","579945","132104","578961","NA","Sternberg task","67","61514","72","yes","1024"
"93.1506849315","93.1506849315","850.164383562","850.164383562","black","experiment","legacy","legacy","legacy","0","uniform","1","undefined","1","left","72","72","72","0","0","72","72","0","0","72","72","72","0","72","0","10/20/21 21:28:47","The main experiment item","yes","SternbergExperiment.osexp","C:\Users\katie\Documents\School\Quant Methods\Lab 3","no","mono","no","18","no","white","no","yes","768","legacy","60","11","C:/Users/katie/Documents/School/Quant Methods/Lab 3/KH-subject-2.csv","legacy","2 4 8 5 1 3","Lentiform Loewenfeld","3.3.9","1","y","0","left","right","right","left","NA","548","127760","7180","548","NA","2","legacy","6","1024","2","48000","-16","experiment","1","odd","2","583218","567647","581011","4329","215842","581013","579956","4343","208662","585220","582015","585769","132104","585219","NA","Sternberg task","68","62062","73","yes","1024"
"93.2432432432","93.2432432432","847.364864865","847.364864865","black","experiment","legacy","legacy","legacy","0","uniform","1","undefined","1","right","73","73","73","0","0","73","73","0","0","73","73","73","0","73","0","10/20/21 21:28:47","The main experiment item","yes","SternbergExperiment.osexp","C:\Users\katie\Documents\School\Quant Methods\Lab 3","no","mono","no","18","no","white","no","yes","768","legacy","61","11","C:/Users/katie/Documents/School/Quant Methods/Lab 3/KH-subject-2.csv","legacy","7 1 5 6 3","Lentiform Loewenfeld","3.3.9","0","n","0","right","right","right","right","NA","643","127760","7180","643","NA","2","legacy","5","1024","2","48000","-16","experiment","1","odd","8","589043","585781","586834","4329","215842","586838","579956","4343","208662","591045","587840","591689","132104","591045","NA","Sternberg task","69","62705","74","yes","1024"
"92","92","850.266666667","850.266666667","black","experiment","legacy","legacy","legacy","0","uniform","0","undefined","0","right","74","74","74","0","0","74","74","0","0","74","74","74","0","74","0","10/20/21 21:28:47","The main experiment item","yes","SternbergExperiment.osexp","C:\Users\katie\Documents\School\Quant Methods\Lab 3","no","mono","no","18","no","white","no","yes","768","legacy","62","11","C:/Users/katie/Documents/School/Quant Methods/Lab 3/KH-subject-2.csv","legacy","6 9 7 3 8 2","Lentiform Loewenfeld","3.3.9","0","n","0","left","right","right","left","NA","1065","127760","7180","1065","NA","2","legacy","6","1024","2","48000","-16","experiment","1","odd","5","594965","591702","592759","4329","215842","592761","579956","4343","208662","596967","593763","598033","132104","596967","NA","Sternberg task","69","63770","75","yes","1024"
"92.1052631579","92.1052631579","852.618421053","852.618421053","black","experiment","legacy","legacy","legacy","0","uniform","1","undefined","1","right","75","75","75","0","0","75","75","0","0","75","75","75","0","75","0","10/20/21 21:28:47","The main experiment item","yes","SternbergExperiment.osexp","C:\Users\katie\Documents\School\Quant Methods\Lab 3","no","mono","no","18","no","white","no","yes","768","legacy","63","11","C:/Users/katie/Documents/School/Quant Methods/Lab 3/KH-subject-2.csv","legacy","9 5 3 2 8 6","Lentiform Loewenfeld","3.3.9","0","n","0","right","right","right","right","NA","1029","127760","7180","1029","NA","2","legacy","6","1024","2","48000","-16","experiment","1","odd","7","601305","591702","599098","4329","215842","599102","598044","4343","208662","603306","600103","604336","132104","603306","NA","Sternberg task","70","64799","76","yes","1024"
"92.2077922078","92.2077922078","852.493506494","852.493506494","black","experiment","legacy","legacy","legacy","0","uniform","1","undefined","1","right","76","76","76","0","0","76","76","0","0","76","76","76","0","76","0","10/20/21 21:28:47","The main experiment item","yes","SternbergExperiment.osexp","C:\Users\katie\Documents\School\Quant Methods\Lab 3","no","mono","no","18","no","white","no","yes","768","legacy","64","11","C:/Users/katie/Documents/School/Quant Methods/Lab 3/KH-subject-2.csv","legacy","2 7 5","Lentiform Loewenfeld","3.3.9","0","n","0","right","right","right","right","NA","843","127760","7180","843","NA","2","legacy","3","1024","2","48000","-16","experiment","1","odd","8","607609","604349","605403","4329","215842","605404","598044","4343","208662","609610","606407","610454","132104","609610","NA","Sternberg task","71","65642","77","yes","1024"
"92.3076923077","92.3076923077","852.474358974","852.474358974","black","experiment","legacy","legacy","legacy","0","uniform","1","undefined","1","right","77","77","77","0","0","77","77","0","0","77","77","77","0","77","0","10/20/21 21:28:47","The main experiment item","yes","SternbergExperiment.osexp","C:\Users\katie\Documents\School\Quant Methods\Lab 3","no","mono","no","18","no","white","no","yes","768","legacy","65","11","C:/Users/katie/Documents/School/Quant Methods/Lab 3/KH-subject-2.csv","legacy","6 8","Lentiform Loewenfeld","3.3.9","0","n","0","right","right","right","right","NA","851","127760","7180","851","NA","2","legacy","2","1024","2","48000","-16","experiment","1","odd","9","613726","610465","611520","4329","215842","611521","598044","4343","208662","615727","612522","616579","132104","615727","NA","Sternberg task","72","66493","78","yes","1024"
"92.4050632911","92.4050632911","852.506329114","852.506329114","black","experiment","legacy","legacy","legacy","0","uniform","1","undefined","1","right","78","78","78","0","0","78","78","0","0","78","78","78","0","78","0","10/20/21 21:28:47","The main experiment item","yes","SternbergExperiment.osexp","C:\Users\katie\Documents\School\Quant Methods\Lab 3","no","mono","no","18","no","white","no","yes","768","legacy","66","11","C:/Users/katie/Documents/School/Quant Methods/Lab 3/KH-subject-2.csv","legacy","9 7 4 5 8","Lentiform Loewenfeld","3.3.9","0","n","0","right","right","right","right","NA","855","127760","7180","855","NA","2","legacy","5","1024","2","48000","-16","experiment","1","odd","6","619841","616583","617636","4329","215842","617637","598044","4343","208662","621842","618639","622698","132104","621842","NA","Sternberg task","73","67348","79","yes","1024"
"92.5","92.5","852.15","852.15","black","experiment","legacy","legacy","legacy","0","uniform","1","undefined","1","right","79","79","79","0","0","79","79","0","0","79","79","79","0","79","0","10/20/21 21:28:47","The main experiment item","yes","SternbergExperiment.osexp","C:\Users\katie\Documents\School\Quant Methods\Lab 3","no","mono","no","18","no","white","no","yes","768","legacy","67","11","C:/Users/katie/Documents/School/Quant Methods/Lab 3/KH-subject-2.csv","legacy","5","Lentiform Loewenfeld","3.3.9","0","n","0","right","right","right","right","NA","824","127760","7180","824","NA","2","legacy","1","1024","2","48000","-16","experiment","1","odd","8","625971","622710","623763","4329","215842","623767","598044","4343","208662","627972","624769","628797","132104","627972","NA","Sternberg task","74","68172","80","yes","1024"
"92.5925925926","92.5925925926","850.185185185","850.185185185","black","experiment","legacy","legacy","legacy","0","uniform","1","undefined","1","left","80","80","80","0","0","80","80","0","0","80","80","80","0","80","0","10/20/21 21:28:47","The main experiment item","yes","SternbergExperiment.osexp","C:\Users\katie\Documents\School\Quant Methods\Lab 3","no","mono","no","18","no","white","no","yes","768","legacy","68","11","C:/Users/katie/Documents/School/Quant Methods/Lab 3/KH-subject-2.csv","legacy","9 1 6 7 8","Lentiform Loewenfeld","3.3.9","1","y","0","left","right","right","left","NA","693","127760","7180","693","NA","2","legacy","5","1024","2","48000","-16","experiment","1","odd","9","632062","628800","629856","4329","215842","629857","598044","4343","208662","634063","630859","634757","132104","634063","NA","Sternberg task","75","68865","81","yes","1024"
"92.6829268293","92.6829268293","846.451219512","846.451219512","black","experiment","legacy","legacy","legacy","0","uniform","1","undefined","1","left","81","81","81","0","0","81","81","0","0","81","81","81","0","81","0","10/20/21 21:28:47","The main experiment item","yes","SternbergExperiment.osexp","C:\Users\katie\Documents\School\Quant Methods\Lab 3","no","mono","no","18","no","white","no","yes","768","legacy","69","11","C:/Users/katie/Documents/School/Quant Methods/Lab 3/KH-subject-2.csv","legacy","3 5 9 6 2 4","Lentiform Loewenfeld","3.3.9","1","y","0","left","right","right","left","NA","544","127760","7180","544","NA","2","legacy","6","1024","2","48000","-16","experiment","1","odd","3","638033","634770","635829","4329","215842","635830","598044","4343","208662","640035","636831","640580","132104","640035","NA","Sternberg task","76","69409","82","yes","1024"
"92.7710843373","92.7710843373","843.445783133","843.445783133","black","experiment","legacy","legacy","legacy","0","uniform","1","undefined","1","left","82","82","82","0","0","82","82","0","0","82","82","82","0","82","0","10/20/21 21:28:47","The main experiment item","yes","SternbergExperiment.osexp","C:\Users\katie\Documents\School\Quant Methods\Lab 3","no","mono","no","18","no","white","no","yes","768","legacy","70","11","C:/Users/katie/Documents/School/Quant Methods/Lab 3/KH-subject-2.csv","legacy","2 8 5 1","Lentiform Loewenfeld","3.3.9","4","y","0","left","right","right","left","NA","597","127760","7180","597","NA","2","legacy","4","1024","2","48000","-16","experiment","1","odd","1","643841","640584","641635","4329","215842","641637","598044","4343","208662","645842","642638","646440","132104","645842","NA","Sternberg task","77","70006","83","yes","1024"
"92.8571428571","92.8571428571","842.738095238","842.738095238","black","experiment","legacy","legacy","legacy","0","uniform","1","undefined","1","right","83","83","83","0","0","83","83","0","0","83","83","83","0","83","0","10/20/21 21:28:47","The main experiment item","yes","SternbergExperiment.osexp","C:\Users\katie\Documents\School\Quant Methods\Lab 3","no","mono","no","18","no","white","no","yes","768","legacy","71","11","C:/Users/katie/Documents/School/Quant Methods/Lab 3/KH-subject-2.csv","legacy","1 4 9 3","Lentiform Loewenfeld","3.3.9","0","n","0","right","right","right","right","NA","784","127760","7180","784","NA","2","legacy","4","1024","2","48000","-16","experiment","1","odd","5","649713","646451","647507","4329","215842","647508","598044","4343","208662","651714","648510","652500","132104","651714","NA","Sternberg task","78","70790","84","yes","1024"
"92.9411764706","92.9411764706","843.164705882","843.164705882","black","experiment","legacy","legacy","legacy","0","uniform","1","undefined","1","left","84","84","84","0","0","84","84","0","0","84","84","84","0","84","0","10/20/21 21:28:47","The main experiment item","yes","SternbergExperiment.osexp","C:\Users\katie\Documents\School\Quant Methods\Lab 3","no","mono","no","18","no","white","no","yes","768","legacy","72","11","C:/Users/katie/Documents/School/Quant Methods/Lab 3/KH-subject-2.csv","legacy","5 2 9 6 1 7","Lentiform Loewenfeld","3.3.9","3","y","0","left","right","right","left","NA","879","127760","7180","879","NA","2","legacy","6","1024","2","48000","-16","experiment","1","odd","9","655773","652513","653566","4329","215842","653569","598044","4343","208662","657775","654571","658654","132104","657775","NA","Sternberg task","79","71669","85","yes","1024"
"91.8604651163","91.8604651163","842.720930233","842.720930233","black","experiment","legacy","legacy","legacy","0","uniform","0","undefined","0","left","85","85","85","0","0","85","85","0","0","85","85","85","0","85","0","10/20/21 21:28:47","The main experiment item","yes","SternbergExperiment.osexp","C:\Users\katie\Documents\School\Quant Methods\Lab 3","no","mono","no","18","no","white","no","yes","768","legacy","73","11","C:/Users/katie/Documents/School/Quant Methods/Lab 3/KH-subject-2.csv","legacy","7 4 2 6 3 5","Lentiform Loewenfeld","3.3.9","6","y","0","right","right","right","right","NA","805","127760","7180","805","NA","2","legacy","6","1024","2","48000","-16","experiment","1","odd","5","661930","658667","659719","4329","215842","659725","598044","4343","208662","663931","660727","664739","132104","663931","NA","Sternberg task","79","72474","86","yes","1024"
"91.9540229885","91.9540229885","839.264367816","839.264367816","black","experiment","legacy","legacy","legacy","0","uniform","1","undefined","1","left","86","86","86","0","0","86","86","0","0","86","86","86","0","86","0","10/20/21 21:28:47","The main experiment item","yes","SternbergExperiment.osexp","C:\Users\katie\Documents\School\Quant Methods\Lab 3","no","mono","no","18","no","white","no","yes","768","legacy","74","11","C:/Users/katie/Documents/School/Quant Methods/Lab 3/KH-subject-2.csv","legacy","4 1 5","Lentiform Loewenfeld","3.3.9","2","y","0","left","right","right","left","NA","542","127760","7180","542","NA","2","legacy","3","1024","2","48000","-16","experiment","1","odd","1","668018","658667","665810","4329","215842","665814","664752","4343","208662","670019","666815","670562","132104","670019","NA","Sternberg task","80","73016","87","yes","1024"
"92.0454545455","92.0454545455","842.920454545","842.920454545","black","experiment","legacy","legacy","legacy","0","uniform","1","undefined","1","left","87","87","87","0","0","87","87","0","0","87","87","87","0","87","0","10/20/21 21:28:47","The main experiment item","yes","SternbergExperiment.osexp","C:\Users\katie\Documents\School\Quant Methods\Lab 3","no","mono","no","18","no","white","no","yes","768","legacy","75","11","C:/Users/katie/Documents/School/Quant Methods/Lab 3/KH-subject-2.csv","legacy","5 7 3 6 2","Lentiform Loewenfeld","3.3.9","5","y","0","left","right","right","left","NA","1161","127760","7180","1161","NA","2","legacy","5","1024","2","48000","-16","experiment","1","odd","2","673828","670566","671623","4329","215842","671624","664752","4343","208662","675830","672626","676992","132104","675830","NA","Sternberg task","81","74177","88","yes","1024"
"92.1348314607","92.1348314607","843.438202247","843.438202247","black","experiment","legacy","legacy","legacy","0","uniform","1","undefined","1","right","88","88","88","0","0","88","88","0","0","88","88","88","0","88","0","10/20/21 21:28:47","The main experiment item","yes","SternbergExperiment.osexp","C:\Users\katie\Documents\School\Quant Methods\Lab 3","no","mono","no","18","no","white","no","yes","768","legacy","76","11","C:/Users/katie/Documents/School/Quant Methods/Lab 3/KH-subject-2.csv","legacy","2 8 6 3 1","Lentiform Loewenfeld","3.3.9","0","n","0","right","right","right","right","NA","889","127760","7180","889","NA","2","legacy","5","1024","2","48000","-16","experiment","1","odd","7","680255","676995","678048","4329","215842","678050","664752","4343","208662","682257","679052","683147","132104","682257","NA","Sternberg task","82","75066","89","yes","1024"
"92.2222222222","92.2222222222","841.766666667","841.766666667","black","experiment","legacy","legacy","legacy","0","uniform","1","undefined","1","right","89","89","89","0","0","89","89","0","0","89","89","89","0","89","0","10/20/21 21:28:47","The main experiment item","yes","SternbergExperiment.osexp","C:\Users\katie\Documents\School\Quant Methods\Lab 3","no","mono","no","18","no","white","no","yes","768","legacy","77","11","C:/Users/katie/Documents/School/Quant Methods/Lab 3/KH-subject-2.csv","legacy","5 7 3","Lentiform Loewenfeld","3.3.9","0","n","0","right","right","right","right","NA","693","127760","7180","693","NA","2","legacy","3","1024","2","48000","-16","experiment","1","odd","9","686420","683158","684215","4329","215842","684215","664752","4343","208662","688421","685217","689115","132104","688421","NA","Sternberg task","83","75759","90","yes","1024"
"92.3076923077","92.3076923077","843.758241758","843.758241758","black","experiment","legacy","legacy","legacy","0","uniform","1","undefined","1","left","90","90","90","0","0","90","90","0","0","90","90","90","0","90","0","10/20/21 21:28:47","The main experiment item","yes","SternbergExperiment.osexp","C:\Users\katie\Documents\School\Quant Methods\Lab 3","no","mono","no","18","no","white","no","yes","768","legacy","78","11","C:/Users/katie/Documents/School/Quant Methods/Lab 3/KH-subject-2.csv","legacy","6 9 7 4 5 1","Lentiform Loewenfeld","3.3.9","2","y","0","left","right","right","left","NA","1023","127760","7180","1023","NA","2","legacy","6","1024","2","48000","-16","experiment","1","odd","9","692390","689128","690185","4329","215842","690187","664752","4343","208662","694391","691188","695414","132104","694391","NA","Sternberg task","84","76782","91","yes","1024"
"92.3913043478","92.3913043478","841.673913043","841.673913043","black","experiment","legacy","legacy","legacy","0","uniform","1","undefined","1","left","91","91","91","0","0","91","91","0","0","91","91","91","0","91","0","10/20/21 21:28:47","The main experiment item","yes","SternbergExperiment.osexp","C:\Users\katie\Documents\School\Quant Methods\Lab 3","no","mono","no","18","no","white","no","yes","768","legacy","79","11","C:/Users/katie/Documents/School/Quant Methods/Lab 3/KH-subject-2.csv","legacy","7 8 4 6 9 5","Lentiform Loewenfeld","3.3.9","4","y","0","left","right","right","left","NA","652","127760","7180","652","NA","2","legacy","6","1024","2","48000","-16","experiment","1","odd","6","698689","695425","696483","4329","215842","696485","664752","4343","208662","700691","697487","701344","132104","700690","NA","Sternberg task","85","77434","92","yes","1024"
"92.4731182796","92.4731182796","841.311827957","841.311827957","black","experiment","legacy","legacy","legacy","0","uniform","1","undefined","1","right","92","92","92","0","0","92","92","0","0","92","92","92","0","92","0","10/20/21 21:28:47","The main experiment item","yes","SternbergExperiment.osexp","C:\Users\katie\Documents\School\Quant Methods\Lab 3","no","mono","no","18","no","white","no","yes","768","legacy","80","11","C:/Users/katie/Documents/School/Quant Methods/Lab 3/KH-subject-2.csv","legacy","3 4 2","Lentiform Loewenfeld","3.3.9","0","n","0","right","right","right","right","NA","808","127760","7180","808","NA","2","legacy","3","1024","2","48000","-16","experiment","1","odd","5","704619","701356","702413","4329","215842","702415","664752","4343","208662","706620","703417","707429","132104","706620","NA","Sternberg task","86","78242","93","yes","1024"
"92.5531914894","92.5531914894","839.138297872","839.138297872","black","experiment","legacy","legacy","legacy","0","uniform","1","undefined","1","left","93","93","93","0","0","93","93","0","0","93","93","93","0","93","0","10/20/21 21:28:47","The main experiment item","yes","SternbergExperiment.osexp","C:\Users\katie\Documents\School\Quant Methods\Lab 3","no","mono","no","18","no","white","no","yes","768","legacy","81","11","C:/Users/katie/Documents/School/Quant Methods/Lab 3/KH-subject-2.csv","legacy","7 2 3","Lentiform Loewenfeld","3.3.9","3","y","0","left","right","right","left","NA","637","127760","7180","637","NA","2","legacy","3","1024","2","48000","-16","experiment","1","odd","3","710702","707434","708496","4329","215842","708497","664752","4343","208662","712703","709498","713341","132104","712703","NA","Sternberg task","87","78879","94","yes","1024"
"92.6315789474","92.6315789474","838.115789474","838.115789474","black","experiment","legacy","legacy","legacy","0","uniform","1","undefined","1","right","94","94","94","0","0","94","94","0","0","94","94","94","0","94","0","10/20/21 21:28:47","The main experiment item","yes","SternbergExperiment.osexp","C:\Users\katie\Documents\School\Quant Methods\Lab 3","no","mono","no","18","no","white","no","yes","768","legacy","82","11","C:/Users/katie/Documents/School/Quant Methods/Lab 3/KH-subject-2.csv","legacy","9 8 2 7 4","Lentiform Loewenfeld","3.3.9","0","n","0","right","right","right","right","NA","742","127760","7180","742","NA","2","legacy","5","1024","2","48000","-16","experiment","1","odd","5","716610","713352","714404","4329","215842","714405","664752","4343","208662","718612","715407","719355","132104","718611","NA","Sternberg task","88","79621","95","yes","1024"
"92.7083333333","92.7083333333","836.770833333","836.770833333","black","experiment","legacy","legacy","legacy","0","uniform","1","undefined","1","left","95","95","95","0","0","95","95","0","0","95","95","95","0","95","0","10/20/21 21:28:47","The main experiment item","yes","SternbergExperiment.osexp","C:\Users\katie\Documents\School\Quant Methods\Lab 3","no","mono","no","18","no","white","no","yes","768","legacy","83","11","C:/Users/katie/Documents/School/Quant Methods/Lab 3/KH-subject-2.csv","legacy","7 6","Lentiform Loewenfeld","3.3.9","2","y","0","left","right","right","left","NA","709","127760","7180","709","NA","2","legacy","2","1024","2","48000","-16","experiment","1","odd","6","722621","719359","720412","4329","215842","720417","664752","4343","208662","724622","721419","725332","132104","724622","NA","Sternberg task","89","80330","96","yes","1024"
"92.7835051546","92.7835051546","837","837","black","experiment","legacy","legacy","legacy","0","uniform","1","undefined","1","right","96","96","96","0","0","96","96","0","0","96","96","96","0","96","0","10/20/21 21:28:47","The main experiment item","yes","SternbergExperiment.osexp","C:\Users\katie\Documents\School\Quant Methods\Lab 3","no","mono","no","18","no","white","no","yes","768","legacy","84","11","C:/Users/katie/Documents/School/Quant Methods/Lab 3/KH-subject-2.csv","legacy","8 9","Lentiform Loewenfeld","3.3.9","0","n","0","right","right","right","right","NA","859","127760","7180","859","NA","2","legacy","2","1024","2","48000","-16","experiment","1","odd","5","728604","725344","726397","4329","215842","726398","664752","4343","208662","730605","727401","731465","132104","730605","NA","Sternberg task","90","81189","97","yes","1024"
"92.8571428571","92.8571428571","834.948979592","834.948979592","black","experiment","legacy","legacy","legacy","0","uniform","1","undefined","1","right","97","97","97","0","0","97","97","0","0","97","97","97","0","97","0","10/20/21 21:28:47","The main experiment item","yes","SternbergExperiment.osexp","C:\Users\katie\Documents\School\Quant Methods\Lab 3","no","mono","no","18","no","white","no","yes","768","legacy","85","11","C:/Users/katie/Documents/School/Quant Methods/Lab 3/KH-subject-2.csv","legacy","7 9","Lentiform Loewenfeld","3.3.9","0","n","0","right","right","right","right","NA","636","127760","7180","636","NA","2","legacy","2","1024","2","48000","-16","experiment","1","odd","1","734738","731470","732528","4329","215842","732533","664752","4343","208662","736740","733536","737376","132104","736740","NA","Sternberg task","91","81825","98","yes","1024"
"92.9292929293","92.9292929293","833.171717172","833.171717172","black","experiment","legacy","legacy","legacy","0","uniform","1","undefined","1","left","98","98","98","0","0","98","98","0","0","98","98","98","0","98","0","10/20/21 21:28:47","The main experiment item","yes","SternbergExperiment.osexp","C:\Users\katie\Documents\School\Quant Methods\Lab 3","no","mono","no","18","no","white","no","yes","768","legacy","86","11","C:/Users/katie/Documents/School/Quant Methods/Lab 3/KH-subject-2.csv","legacy","8 9 5 7 1 6","Lentiform Loewenfeld","3.3.9","4","y","0","left","right","right","left","NA","659","127760","7180","659","NA","2","legacy","6","1024","2","48000","-16","experiment","1","odd","7","740637","737380","738433","4329","215842","738435","664752","4343","208662","742638","739436","743298","132104","742638","NA","Sternberg task","92","82484","99","yes","1024"
"93","93","830.7","830.7","black","experiment","legacy","legacy","legacy","0","uniform","1","undefined","1","left","99","99","99","0","0","99","99","0","0","99","99","99","0","99","0","10/20/21 21:28:47","The main experiment item","yes","SternbergExperiment.osexp","C:\Users\katie\Documents\School\Quant Methods\Lab 3","no","mono","no","18","no","white","no","yes","768","legacy","87","11","C:/Users/katie/Documents/School/Quant Methods/Lab 3/KH-subject-2.csv","legacy","2 3","Lentiform Loewenfeld","3.3.9","1","y","0","left","right","right","left","NA","586","127760","7180","586","NA","2","legacy","2","1024","2","48000","-16","experiment","1","odd","2","746572","743310","744364","4329","215842","744367","664752","4343","208662","748573","745369","749159","132104","748573","NA","Sternberg task","93","83070","100","yes","1024"
"93.0693069307","93.0693069307","828.920792079","828.920792079","black","experiment","legacy","legacy","legacy","0","uniform","1","undefined","1","left","100","100","100","0","0","100","100","0","0","100","100","100","0","100","0","10/20/21 21:28:47","The main experiment item","yes","SternbergExperiment.osexp","C:\Users\katie\Documents\School\Quant Methods\Lab 3","no","mono","no","18","no","white","no","yes","768","legacy","88","11","C:/Users/katie/Documents/School/Quant Methods/Lab 3/KH-subject-2.csv","legacy","4 6 5 8","Lentiform Loewenfeld","3.3.9","1","y","0","left","right","right","left","NA","651","127760","7180","651","NA","2","legacy","4","1024","2","48000","-16","experiment","1","odd","4","752430","749164","750220","4329","215842","750225","664752","4343","208662","754431","751227","755083","132104","754431","NA","Sternberg task","94","83721","101","yes","1024"
"93.137254902","93.137254902","827.81372549","827.81372549","black","experiment","legacy","legacy","legacy","0","uniform","1","undefined","1","right","101","101","101","0","0","101","101","0","0","101","101","101","0","101","0","10/20/21 21:28:47","The main experiment item","yes","SternbergExperiment.osexp","C:\Users\katie\Documents\School\Quant Methods\Lab 3","no","mono","no","18","no","white","no","yes","768","legacy","89","11","C:/Users/katie/Documents/School/Quant Methods/Lab 3/KH-subject-2.csv","legacy","1 3 2 6 9","Lentiform Loewenfeld","3.3.9","0","n","0","right","right","right","right","NA","716","127760","7180","716","NA","2","legacy","5","1024","2","48000","-16","experiment","1","odd","5","758346","755087","756139","4329","215842","756141","664752","4343","208662","760347","757143","761064","132104","760347","NA","Sternberg task","95","84437","102","yes","1024"
"93.2038834951","93.2038834951","825.048543689","825.048543689","black","experiment","legacy","legacy","legacy","0","uniform","1","undefined","1","left","102","102","102","0","0","102","102","0","0","102","102","102","0","102","0","10/20/21 21:28:47","The main experiment item","yes","SternbergExperiment.osexp","C:\Users\katie\Documents\School\Quant Methods\Lab 3","no","mono","no","18","no","white","no","yes","768","legacy","90","11","C:/Users/katie/Documents/School/Quant Methods/Lab 3/KH-subject-2.csv","legacy","2 4 6 9","Lentiform Loewenfeld","3.3.9","3","y","0","left","right","right","left","NA","543","127760","7180","543","NA","2","legacy","4","1024","2","48000","-16","experiment","1","odd","6","764326","761067","762119","4329","215842","762122","664752","4343","208662","766327","763122","766870","132104","766327","NA","Sternberg task","96","84980","103","yes","1024"
"92.3076923077","92.3076923077","836.346153846","836.346153846","black","experiment","legacy","legacy","legacy","0","uniform","0","undefined","0","right","103","103","103","0","0","103","103","0","0","103","103","103","0","103","0","10/20/21 21:28:47","The main experiment item","yes","SternbergExperiment.osexp","C:\Users\katie\Documents\School\Quant Methods\Lab 3","no","mono","no","18","no","white","no","yes","768","legacy","91","11","C:/Users/katie/Documents/School/Quant Methods/Lab 3/KH-subject-2.csv","legacy","1 8 7","Lentiform Loewenfeld","3.3.9","0","n","0","None","right","right","None","NA","2000","127760","7180","2000","NA","2","legacy","3","1024","2","48000","-16","experiment","1","odd","4","770144","766881","767935","4329","215842","767940","664752","4343","208662","772145","768942","774145","132104","772145","NA","Sternberg task","96","86980","104","yes","1024"
"92.380952381","92.380952381","833.095238095","833.095238095","black","experiment","legacy","legacy","legacy","0","uniform","1","undefined","1","left","104","104","104","0","0","104","104","0","0","104","104","104","0","104","0","10/20/21 21:28:47","The main experiment item","yes","SternbergExperiment.osexp","C:\Users\katie\Documents\School\Quant Methods\Lab 3","no","mono","no","18","no","white","no","yes","768","legacy","92","11","C:/Users/katie/Documents/School/Quant Methods/Lab 3/KH-subject-2.csv","legacy","8 5 3 7 4 6","Lentiform Loewenfeld","3.3.9","6","y","0","left","right","right","left","NA","495","127760","7180","495","NA","2","legacy","6","1024","2","48000","-16","experiment","1","odd","6","777407","766881","775202","4329","215842","775204","774149","4343","208662","779409","776205","779906","132104","779409","NA","Sternberg task","97","87475","105","yes","1024"
"92.4528301887","92.4528301887","833.216981132","833.216981132","black","experiment","legacy","legacy","legacy","0","uniform","1","undefined","1","right","105","105","105","0","0","105","105","0","0","105","105","105","0","105","0","10/20/21 21:28:47","The main experiment item","yes","SternbergExperiment.osexp","C:\Users\katie\Documents\School\Quant Methods\Lab 3","no","mono","no","18","no","white","no","yes","768","legacy","93","11","C:/Users/katie/Documents/School/Quant Methods/Lab 3/KH-subject-2.csv","legacy","2 3 8 5 6 7","Lentiform Loewenfeld","3.3.9","0","n","0","right","right","right","right","NA","846","127760","7180","846","NA","2","legacy","6","1024","2","48000","-16","experiment","1","odd","1","783182","779917","780971","4329","215842","780976","774149","4343","208662","785183","781979","786030","132104","785183","NA","Sternberg task","98","88321","106","yes","1024"
"92.523364486","92.523364486","837.242990654","837.242990654","black","experiment","legacy","legacy","legacy","0","uniform","1","undefined","1","left","106","106","106","0","0","106","106","0","0","106","106","106","0","106","0","10/20/21 21:28:47","The main experiment item","yes","SternbergExperiment.osexp","C:\Users\katie\Documents\School\Quant Methods\Lab 3","no","mono","no","18","no","white","no","yes","768","legacy","94","11","C:/Users/katie/Documents/School/Quant Methods/Lab 3/KH-subject-2.csv","legacy","6 1 2","Lentiform Loewenfeld","3.3.9","3","y","0","left","right","right","left","NA","1264","127760","7180","1264","NA","2","legacy","3","1024","2","48000","-16","experiment","1","odd","2","789305","786043","787098","4329","215842","787101","774149","4343","208662","791306","788103","792571","132104","791306","NA","Sternberg task","99","89585","107","yes","1024"
"92.5925925926","92.5925925926","837.537037037","837.537037037","black","experiment","legacy","legacy","legacy","0","uniform","1","undefined","1","right","107","107","107","0","0","107","107","0","0","107","107","107","0","107","0","10/20/21 21:28:47","The main experiment item","yes","SternbergExperiment.osexp","C:\Users\katie\Documents\School\Quant Methods\Lab 3","no","mono","no","18","no","white","no","yes","768","legacy","95","11","C:/Users/katie/Documents/School/Quant Methods/Lab 3/KH-subject-2.csv","legacy","1 7 5 2","Lentiform Loewenfeld","3.3.9","0","n","0","right","right","right","right","NA","869","127760","7180","869","NA","2","legacy","4","1024","2","48000","-16","experiment","1","odd","3","795838","792575","793633","4329","215842","793635","774149","4343","208662","797841","794636","798712","132104","797840","NA","Sternberg task","100","90454","108","yes","1024"
"92.6605504587","92.6605504587","836.779816514","836.779816514","black","experiment","legacy","legacy","legacy","0","uniform","1","undefined","1","left","108","108","108","0","0","108","108","0","0","108","108","108","0","108","0","10/20/21 21:28:47","The main experiment item","yes","SternbergExperiment.osexp","C:\Users\katie\Documents\School\Quant Methods\Lab 3","no","mono","no","18","no","white","no","yes","768","legacy","96","11","C:/Users/katie/Documents/School/Quant Methods/Lab 3/KH-subject-2.csv","legacy","8 3","Lentiform Loewenfeld","3.3.9","2","y","0","left","right","right","left","NA","755","127760","7180","755","NA","2","legacy","2","1024","2","48000","-16","experiment","1","odd","3","801979","798716","799771","4329","215842","799776","774149","4343","208662","803980","800777","804739","132104","803980","NA","Sternberg task","101","91209","109","yes","1024"
"92.7272727273","92.7272727273","837.163636364","837.163636364","black","experiment","legacy","legacy","legacy","0","uniform","1","undefined","1","left","109","109","109","0","0","109","109","0","0","109","109","109","0","109","0","10/20/21 21:28:47","The main experiment item","yes","SternbergExperiment.osexp","C:\Users\katie\Documents\School\Quant Methods\Lab 3","no","mono","no","18","no","white","no","yes","768","legacy","97","11","C:/Users/katie/Documents/School/Quant Methods/Lab 3/KH-subject-2.csv","legacy","8 9 6 1","Lentiform Loewenfeld","3.3.9","2","y","0","left","right","right","left","NA","879","127760","7180","879","NA","2","legacy","4","1024","2","48000","-16","experiment","1","odd","9","808012","804749","805806","4329","215842","805807","774149","4343","208662","810013","806809","810894","132104","810013","NA","Sternberg task","102","92088","110","yes","1024"
"92.7927927928","92.7927927928","839.144144144","839.144144144","black","experiment","legacy","legacy","legacy","0","uniform","1","undefined","1","right","110","110","110","0","0","110","110","0","0","110","110","110","0","110","0","10/20/21 21:28:47","The main experiment item","yes","SternbergExperiment.osexp","C:\Users\katie\Documents\School\Quant Methods\Lab 3","no","mono","no","18","no","white","no","yes","768","legacy","98","11","C:/Users/katie/Documents/School/Quant Methods/Lab 3/KH-subject-2.csv","legacy","4 1","Lentiform Loewenfeld","3.3.9","0","n","0","right","right","right","right","NA","1057","127760","7180","1057","NA","2","legacy","2","1024","2","48000","-16","experiment","1","odd","6","814170","810906","811960","4329","215842","811966","774149","4343","208662","816171","812968","817229","132104","816171","NA","Sternberg task","103","93145","111","yes","1024"
"92.8571428571","92.8571428571","836.232142857","836.232142857","black","experiment","legacy","legacy","legacy","0","uniform","1","undefined","1","left","111","111","111","0","0","111","111","0","0","111","111","111","0","111","0","10/20/21 21:28:47","The main experiment item","yes","SternbergExperiment.osexp","C:\Users\katie\Documents\School\Quant Methods\Lab 3","no","mono","no","18","no","white","no","yes","768","legacy","99","11","C:/Users/katie/Documents/School/Quant Methods/Lab 3/KH-subject-2.csv","legacy","8 7 3","Lentiform Loewenfeld","3.3.9","1","y","0","left","right","right","left","NA","513","127760","7180","513","NA","2","legacy","3","1024","2","48000","-16","experiment","1","odd","8","820501","817242","818295","4329","215842","818296","774149","4343","208662","822501","819298","823015","132104","822501","NA","Sternberg task","104","93658","112","yes","1024"
"92.9203539823","92.9203539823","835.247787611","835.247787611","black","experiment","legacy","legacy","legacy","0","uniform","1","undefined","1","left","112","112","112","0","0","112","112","0","0","112","112","112","0","112","0","10/20/21 21:28:47","The main experiment item","yes","SternbergExperiment.osexp","C:\Users\katie\Documents\School\Quant Methods\Lab 3","no","mono","no","18","no","white","no","yes","768","legacy","100","11","C:/Users/katie/Documents/School/Quant Methods/Lab 3/KH-subject-2.csv","legacy","3 9 7 6 4","Lentiform Loewenfeld","3.3.9","3","y","0","left","right","right","left","NA","725","127760","7180","725","NA","2","legacy","5","1024","2","48000","-16","experiment","1","odd","7","826288","823027","824082","4329","215842","824084","774149","4343","208662","828290","825086","829016","132104","828289","NA","Sternberg task","105","94383","113","yes","1024"
