acc,accuracy,average_response_time,avg_rt,background,block,canvas_backend,clock_backend,color_backend,compensation,coordinates,correct,correct_Instruction1,correct_keyboard_response,correct_response,count_CorrectFeedback,count_ExperimentLoop,count_Fixation,count_ISI,count_IncorrectFeedback,count_Instruction1,count_Instruction2,count_MemorySet,count_Practiceloop,count_Probe,count_ThankYou,count_expSequence,count_experiment,count_keyboard_response,count_logger,datetime,description,disable_garbage_collection,experiment_file,experiment_path,font_bold,font_family,font_italic,font_size,font_underline,foreground,form_clicks,fullscreen,height,keyboard_backend,live_row,live_row_Practiceloop,logfile,mouse_backend,numberSet,opensesame_codename,opensesame_version,posInSet,present,repeat_cycle,response,response_Instruction1,response_Instruction2,response_ThankYou,response_keyboard_response,response_time,response_time_Instruction1,response_time_Instruction2,response_time_ThankYou,response_time_keyboard_response,round_decimals,sampler_backend,setSize,sound_buf_size,sound_channels,sound_freq,sound_sample_size,start,subject_nr,subject_parity,target,time_CorrectFeedback,time_ExperimentLoop,time_Fixation,time_ISI,time_IncorrectFeedback,time_Instruction1,time_Instruction2,time_MemorySet,time_Practiceloop,time_Probe,time_ThankYou,time_expSequence,time_experiment,time_keyboard_response,time_logger,title,total_correct,total_response_time,total_responses,uniform_coordinates,width
100,100,1062,1062,black,practice,legacy,legacy,legacy,0,uniform,1,undefined,1,right,0,0,0,0,0,0,0,0,0,0,0,0,0,0,0,10/16/19 12:32,The main experiment item,yes,SternbergTask.osexp,C:/Users/Carolyn/Desktop,no,mono,no,18,no,white,no,yes,768,legacy,0,0,C:/Users/Carolyn/Desktop/cp_subject-1.csv,legacy,2 1,Kafkaesque Koffka,3.2.8,0,n,0,right,left,NA,NA,right,1062,5659,NA,NA,1062,2,legacy,2,1024,2,48000,-16,experiment,1,odd,5,NA,NA,20683,22890,NA,6288,NA,21687,11948,24893,NA,20678,6279,24893,25955,Sternberg Task,1,1062,1,yes,1024
50,50,1531,1531,black,practice,legacy,legacy,legacy,0,uniform,0,undefined,0,right,1,0,1,1,1,0,0,1,0,1,0,1,0,1,1,10/16/19 12:32,The main experiment item,yes,SternbergTask.osexp,C:/Users/Carolyn/Desktop,no,mono,no,18,no,white,no,yes,768,legacy,1,1,C:/Users/Carolyn/Desktop/cp_subject-1.csv,legacy,5 7 8 4 1 2,Kafkaesque Koffka,3.2.8,0,n,0,None,left,NA,NA,None,2000,5659,NA,NA,2000,2,legacy,6,1024,2,48000,-16,experiment,1,odd,6,26157,NA,27340,29546,NA,6288,NA,28343,11948,31550,NA,27336,6279,31551,33551,Sternberg Task,1,3062,2,yes,1024
66.66666667,66.66666667,1407.333333,1407.333333,black,practice,legacy,legacy,legacy,0,uniform,1,undefined,1,right,2,0,2,2,2,0,0,2,0,2,0,2,0,2,2,10/16/19 12:32,The main experiment item,yes,SternbergTask.osexp,C:/Users/Carolyn/Desktop,no,mono,no,18,no,white,no,yes,768,legacy,2,2,C:/Users/Carolyn/Desktop/cp_subject-1.csv,legacy,5,Kafkaesque Koffka,3.2.8,0,n,0,right,left,NA,NA,right,1160,5659,NA,NA,1160,2,legacy,1,1024,2,48000,-16,experiment,1,odd,3,26157,NA,34769,36975,33590,6288,NA,35772,11948,38978,NA,34765,6279,38979,40139,Sternberg Task,2,4222,3,yes,1024
75,75,1303.5,1303.5,black,practice,legacy,legacy,legacy,0,uniform,1,undefined,1,right,3,0,3,3,3,0,0,3,0,3,0,3,0,3,3,10/16/19 12:32,The main experiment item,yes,SternbergTask.osexp,C:/Users/Carolyn/Desktop,no,mono,no,18,no,white,no,yes,768,legacy,3,3,C:/Users/Carolyn/Desktop/cp_subject-1.csv,legacy,9 6 7 4 5,Kafkaesque Koffka,3.2.8,0,n,0,right,left,NA,NA,right,992,5659,NA,NA,992,2,legacy,5,1024,2,48000,-16,experiment,1,odd,3,40182,NA,41360,43567,33590,6288,NA,42363,11948,45570,NA,41356,6279,45571,46563,Sternberg Task,3,5214,4,yes,1024
80,80,1261.6,1261.6,black,practice,legacy,legacy,legacy,0,uniform,1,undefined,1,left,4,0,4,4,4,0,0,4,0,4,0,4,0,4,4,10/16/19 12:32,The main experiment item,yes,SternbergTask.osexp,C:/Users/Carolyn/Desktop,no,mono,no,18,no,white,no,yes,768,legacy,4,4,C:/Users/Carolyn/Desktop/cp_subject-1.csv,legacy,4 8,Kafkaesque Koffka,3.2.8,1,y,0,left,left,NA,NA,left,1094,5659,NA,NA,1094,2,legacy,2,1024,2,48000,-16,experiment,1,odd,4,46607,NA,47787,49993,33590,6288,NA,48790,11948,51997,NA,47783,6279,51997,53091,Sternberg Task,4,6308,5,yes,1024
83.33333333,83.33333333,1326.5,1326.5,black,practice,legacy,legacy,legacy,0,uniform,1,undefined,1,left,5,0,5,5,5,0,0,5,0,5,0,5,0,5,5,10/16/19 12:32,The main experiment item,yes,SternbergTask.osexp,C:/Users/Carolyn/Desktop,no,mono,no,18,no,white,no,yes,768,legacy,5,5,C:/Users/Carolyn/Desktop/cp_subject-1.csv,legacy,1 7 9 8 5,Kafkaesque Koffka,3.2.8,4,y,0,left,left,NA,NA,left,1651,5659,NA,NA,1651,2,legacy,5,1024,2,48000,-16,experiment,1,odd,8,53132,NA,54310,56517,33590,6288,NA,55313,11948,58520,NA,54306,6279,58520,60171,Sternberg Task,5,7959,6,yes,1024
85.71428571,85.71428571,1352.857143,1352.857143,black,practice,legacy,legacy,legacy,0,uniform,1,undefined,1,left,6,0,6,6,6,0,0,6,0,6,0,6,0,6,6,10/16/19 12:32,The main experiment item,yes,SternbergTask.osexp,C:/Users/Carolyn/Desktop,no,mono,no,18,no,white,no,yes,768,legacy,6,6,C:/Users/Carolyn/Desktop/cp_subject-1.csv,legacy,1 5 2 9,Kafkaesque Koffka,3.2.8,2,y,0,left,left,NA,NA,left,1511,5659,NA,NA,1511,2,legacy,4,1024,2,48000,-16,experiment,1,odd,5,60215,NA,61395,63601,33590,6288,NA,62398,11948,65604,NA,61391,6279,65604,67116,Sternberg Task,6,9470,7,yes,1024
87.5,87.5,1311.5,1311.5,black,practice,legacy,legacy,legacy,0,uniform,1,undefined,1,left,7,0,7,7,7,0,0,7,0,7,0,7,0,7,7,10/16/19 12:32,The main experiment item,yes,SternbergTask.osexp,C:/Users/Carolyn/Desktop,no,mono,no,18,no,white,no,yes,768,legacy,7,7,C:/Users/Carolyn/Desktop/cp_subject-1.csv,legacy,2 9 4,Kafkaesque Koffka,3.2.8,3,y,0,left,left,NA,NA,left,1022,5659,NA,NA,1022,2,legacy,3,1024,2,48000,-16,experiment,1,odd,4,67157,NA,68338,70545,33590,6288,NA,69341,11948,72548,NA,68334,6279,72549,73571,Sternberg Task,7,10492,8,yes,1024
77.77777778,77.77777778,1388,1388,black,practice,legacy,legacy,legacy,0,uniform,0,undefined,0,left,8,0,8,8,8,0,0,8,0,8,0,8,0,8,8,10/16/19 12:32,The main experiment item,yes,SternbergTask.osexp,C:/Users/Carolyn/Desktop,no,mono,no,18,no,white,no,yes,768,legacy,8,8,C:/Users/Carolyn/Desktop/cp_subject-1.csv,legacy,6,Kafkaesque Koffka,3.2.8,1,y,0,None,left,NA,NA,None,2000,5659,NA,NA,2000,2,legacy,1,1024,2,48000,-16,experiment,1,odd,6,73615,NA,74792,76999,33590,6288,NA,75796,11948,79002,NA,74789,6279,79002,81002,Sternberg Task,7,12492,9,yes,1024
70,70,1404,1404,black,practice,legacy,legacy,legacy,0,uniform,0,undefined,0,right,9,0,9,9,9,0,0,9,0,9,0,9,0,9,9,10/16/19 12:32,The main experiment item,yes,SternbergTask.osexp,C:/Users/Carolyn/Desktop,no,mono,no,18,no,white,no,yes,768,legacy,9,9,C:/Users/Carolyn/Desktop/cp_subject-1.csv,legacy,3 1 9 4,Kafkaesque Koffka,3.2.8,0,n,0,left,left,NA,NA,left,1548,5659,NA,NA,1548,2,legacy,4,1024,2,48000,-16,experiment,1,odd,6,73615,NA,82220,84427,81040,6288,NA,83223,11948,86430,NA,82216,6279,86431,87979,Sternberg Task,7,14040,10,yes,1024
72.72727273,72.72727273,1361.454545,1361.454545,black,practice,legacy,legacy,legacy,0,uniform,1,undefined,1,left,10,0,10,10,10,0,0,10,0,10,0,10,0,10,10,10/16/19 12:32,The main experiment item,yes,SternbergTask.osexp,C:/Users/Carolyn/Desktop,no,mono,no,18,no,white,no,yes,768,legacy,10,10,C:/Users/Carolyn/Desktop/cp_subject-1.csv,legacy,4 3 1 7 9 8,Kafkaesque Koffka,3.2.8,1,y,0,left,left,NA,NA,left,936,5659,NA,NA,936,2,legacy,6,1024,2,48000,-16,experiment,1,odd,4,73615,NA,89201,91408,88023,6288,NA,90204,11948,93411,NA,89197,6279,93411,94347,Sternberg Task,8,14976,11,yes,1024
75,75,1335.833333,1335.833333,black,practice,legacy,legacy,legacy,0,uniform,1,undefined,1,right,11,0,11,11,11,0,0,11,0,11,0,11,0,11,11,10/16/19 12:32,The main experiment item,yes,SternbergTask.osexp,C:/Users/Carolyn/Desktop,no,mono,no,18,no,white,no,yes,768,legacy,11,11,C:/Users/Carolyn/Desktop/cp_subject-1.csv,legacy,4 1 5,Kafkaesque Koffka,3.2.8,0,n,0,right,left,NA,NA,right,1054,5659,NA,NA,1054,2,legacy,3,1024,2,48000,-16,experiment,1,odd,2,94373,NA,95555,97762,88023,6288,NA,96558,11948,99765,NA,95551,6279,99765,100819,Sternberg Task,9,16030,12,yes,1024
76.92307692,76.92307692,1292.230769,1292.230769,black,experiment,legacy,legacy,legacy,0,uniform,1,undefined,1,right,12,0,12,12,12,0,0,12,0,12,0,12,0,12,12,10/16/19 12:32,The main experiment item,yes,SternbergTask.osexp,C:/Users/Carolyn/Desktop,no,mono,no,18,no,white,no,yes,768,legacy,0,11,C:/Users/Carolyn/Desktop/cp_subject-1.csv,legacy,1 7 5 2,Kafkaesque Koffka,3.2.8,0,n,0,right,left,left,NA,right,769,5659,3975,NA,769,2,legacy,4,1024,2,48000,-16,experiment,1,odd,3,100856,105868,106089,108295,88023,6288,101892,107092,11948,110298,NA,106085,6279,110298,111068,Sternberg Task,10,16799,13,yes,1024
71.42857143,71.42857143,1285.857143,1285.857143,black,experiment,legacy,legacy,legacy,0,uniform,0,undefined,0,right,13,0,13,13,13,0,0,13,0,13,0,13,0,13,13,10/16/19 12:32,The main experiment item,yes,SternbergTask.osexp,C:/Users/Carolyn/Desktop,no,mono,no,18,no,white,no,yes,768,legacy,1,11,C:/Users/Carolyn/Desktop/cp_subject-1.csv,legacy,2 8 6 3 1,Kafkaesque Koffka,3.2.8,0,n,0,left,left,left,NA,left,1203,5659,3975,NA,1203,2,legacy,5,1024,2,48000,-16,experiment,1,odd,7,111106,105868,112286,114493,88023,6288,101892,113289,11948,116496,NA,112282,6279,116496,117700,Sternberg Task,10,18002,14,yes,1024
66.66666667,66.66666667,1265.266667,1265.266667,black,experiment,legacy,legacy,legacy,0,uniform,0,undefined,0,left,14,0,14,14,14,0,0,14,0,14,0,14,0,14,14,10/16/19 12:32,The main experiment item,yes,SternbergTask.osexp,C:/Users/Carolyn/Desktop,no,mono,no,18,no,white,no,yes,768,legacy,2,11,C:/Users/Carolyn/Desktop/cp_subject-1.csv,legacy,4 7 6 8 2 3,Kafkaesque Koffka,3.2.8,6,y,0,right,left,left,NA,right,977,5659,3975,NA,977,2,legacy,6,1024,2,48000,-16,experiment,1,odd,3,111106,105868,118936,121143,117757,6288,101892,119939,11948,123146,NA,118932,6279,123146,124123,Sternberg Task,10,18979,15,yes,1024
68.75,68.75,1254.6875,1254.6875,black,experiment,legacy,legacy,legacy,0,uniform,1,undefined,1,left,15,0,15,15,15,0,0,15,0,15,0,15,0,15,15,10/16/19 12:32,The main experiment item,yes,SternbergTask.osexp,C:/Users/Carolyn/Desktop,no,mono,no,18,no,white,no,yes,768,legacy,3,11,C:/Users/Carolyn/Desktop/cp_subject-1.csv,legacy,1 4 9 3 2 5,Kafkaesque Koffka,3.2.8,3,y,0,left,left,left,NA,left,1096,5659,3975,NA,1096,2,legacy,6,1024,2,48000,-16,experiment,1,odd,9,111106,105868,125344,127551,124165,6288,101892,126347,11948,129555,NA,125340,6279,129555,130651,Sternberg Task,11,20075,16,yes,1024
70.58823529,70.58823529,1220.117647,1220.117647,black,experiment,legacy,legacy,legacy,0,uniform,1,undefined,1,left,16,0,16,16,16,0,0,16,0,16,0,16,0,16,16,10/16/19 12:32,The main experiment item,yes,SternbergTask.osexp,C:/Users/Carolyn/Desktop,no,mono,no,18,no,white,no,yes,768,legacy,4,11,C:/Users/Carolyn/Desktop/cp_subject-1.csv,legacy,6 2,Kafkaesque Koffka,3.2.8,1,y,0,left,left,left,NA,left,667,5659,3975,NA,667,2,legacy,2,1024,2,48000,-16,experiment,1,odd,6,130681,105868,131859,134067,124165,6288,101892,132863,11948,136071,NA,131855,6279,136072,136739,Sternberg Task,12,20742,17,yes,1024
72.22222222,72.22222222,1206.5,1206.5,black,experiment,legacy,legacy,legacy,0,uniform,1,undefined,1,left,17,0,17,17,17,0,0,17,0,17,0,17,0,17,17,10/16/19 12:32,The main experiment item,yes,SternbergTask.osexp,C:/Users/Carolyn/Desktop,no,mono,no,18,no,white,no,yes,768,legacy,5,11,C:/Users/Carolyn/Desktop/cp_subject-1.csv,legacy,8 9 5 7 1 6,Kafkaesque Koffka,3.2.8,4,y,0,left,left,left,NA,left,975,5659,3975,NA,975,2,legacy,6,1024,2,48000,-16,experiment,1,odd,7,136773,105868,137954,140161,124165,6288,101892,138957,11948,142164,NA,137950,6279,142164,143140,Sternberg Task,13,21717,18,yes,1024
73.68421053,73.68421053,1196,1196,black,experiment,legacy,legacy,legacy,0,uniform,1,undefined,1,right,18,0,18,18,18,0,0,18,0,18,0,18,0,18,18,10/16/19 12:32,The main experiment item,yes,SternbergTask.osexp,C:/Users/Carolyn/Desktop,no,mono,no,18,no,white,no,yes,768,legacy,6,11,C:/Users/Carolyn/Desktop/cp_subject-1.csv,legacy,1 4 9 3,Kafkaesque Koffka,3.2.8,0,n,0,right,left,left,NA,right,1007,5659,3975,NA,1007,2,legacy,4,1024,2,48000,-16,experiment,1,odd,5,143181,105868,144361,146568,124165,6288,101892,145364,11948,148571,NA,144357,6279,148572,149580,Sternberg Task,14,22724,19,yes,1024
75,75,1176.9,1176.9,black,experiment,legacy,legacy,legacy,0,uniform,1,undefined,1,left,19,0,19,19,19,0,0,19,0,19,0,19,0,19,19,10/16/19 12:32,The main experiment item,yes,SternbergTask.osexp,C:/Users/Carolyn/Desktop,no,mono,no,18,no,white,no,yes,768,legacy,7,11,C:/Users/Carolyn/Desktop/cp_subject-1.csv,legacy,3 5 7 1,Kafkaesque Koffka,3.2.8,3,y,0,left,left,left,NA,left,814,5659,3975,NA,814,2,legacy,4,1024,2,48000,-16,experiment,1,odd,7,149623,105868,150803,153009,124165,6288,101892,151806,11948,155013,NA,150799,6279,155013,155827,Sternberg Task,15,23538,20,yes,1024
76.19047619,76.19047619,1153.238095,1153.238095,black,experiment,legacy,legacy,legacy,0,uniform,1,undefined,1,right,20,0,20,20,20,0,0,20,0,20,0,20,0,20,20,10/16/19 12:32,The main experiment item,yes,SternbergTask.osexp,C:/Users/Carolyn/Desktop,no,mono,no,18,no,white,no,yes,768,legacy,8,11,C:/Users/Carolyn/Desktop/cp_subject-1.csv,legacy,8 9,Kafkaesque Koffka,3.2.8,0,n,0,right,left,left,NA,right,680,5659,3975,NA,680,2,legacy,2,1024,2,48000,-16,experiment,1,odd,5,155881,105868,157058,159264,124165,6288,101892,158061,11948,161267,NA,157054,6279,161267,161948,Sternberg Task,16,24218,21,yes,1024
77.27272727,77.27272727,1137.181818,1137.181818,black,experiment,legacy,legacy,legacy,0,uniform,1,undefined,1,right,21,0,21,21,21,0,0,21,0,21,0,21,0,21,21,10/16/19 12:32,The main experiment item,yes,SternbergTask.osexp,C:/Users/Carolyn/Desktop,no,mono,no,18,no,white,no,yes,768,legacy,9,11,C:/Users/Carolyn/Desktop/cp_subject-1.csv,legacy,3 4 9 6 7 8,Kafkaesque Koffka,3.2.8,0,n,0,right,left,left,NA,right,800,5659,3975,NA,800,2,legacy,6,1024,2,48000,-16,experiment,1,odd,2,161989,105868,163169,165376,124165,6288,101892,164172,11948,167379,NA,163165,6279,167379,168180,Sternberg Task,17,25018,22,yes,1024
78.26086957,78.26086957,1122.086957,1122.086957,black,experiment,legacy,legacy,legacy,0,uniform,1,undefined,1,left,22,0,22,22,22,0,0,22,0,22,0,22,0,22,22,10/16/19 12:32,The main experiment item,yes,SternbergTask.osexp,C:/Users/Carolyn/Desktop,no,mono,no,18,no,white,no,yes,768,legacy,10,11,C:/Users/Carolyn/Desktop/cp_subject-1.csv,legacy,3 5 4 7,Kafkaesque Koffka,3.2.8,1,y,0,left,left,left,NA,left,790,5659,3975,NA,790,2,legacy,4,1024,2,48000,-16,experiment,1,odd,3,168222,105868,169401,171608,124165,6288,101892,170405,11948,173611,NA,169397,6279,173612,174403,Sternberg Task,18,25808,23,yes,1024
79.16666667,79.16666667,1138.333333,1138.333333,black,experiment,legacy,legacy,legacy,0,uniform,1,undefined,1,right,23,0,23,23,23,0,0,23,0,23,0,23,0,23,23,10/16/19 12:32,The main experiment item,yes,SternbergTask.osexp,C:/Users/Carolyn/Desktop,no,mono,no,18,no,white,no,yes,768,legacy,11,11,C:/Users/Carolyn/Desktop/cp_subject-1.csv,legacy,2 3 8 5 6 7,Kafkaesque Koffka,3.2.8,0,n,0,right,left,left,NA,right,1512,5659,3975,NA,1512,2,legacy,6,1024,2,48000,-16,experiment,1,odd,1,174447,105868,175625,177831,124165,6288,101892,176628,11948,179834,NA,175621,6279,179834,181348,Sternberg Task,19,27320,24,yes,1024
80,80,1127.48,1127.48,black,experiment,legacy,legacy,legacy,0,uniform,1,undefined,1,right,24,0,24,24,24,0,0,24,0,24,0,24,0,24,24,10/16/19 12:32,The main experiment item,yes,SternbergTask.osexp,C:/Users/Carolyn/Desktop,no,mono,no,18,no,white,no,yes,768,legacy,12,11,C:/Users/Carolyn/Desktop/cp_subject-1.csv,legacy,4 1,Kafkaesque Koffka,3.2.8,0,n,0,right,left,left,NA,right,867,5659,3975,NA,867,2,legacy,2,1024,2,48000,-16,experiment,1,odd,6,181389,105868,182566,184772,124165,6288,101892,183569,11948,186775,NA,182562,6279,186775,187643,Sternberg Task,20,28187,25,yes,1024
80.76923077,80.76923077,1130.730769,1130.730769,black,experiment,legacy,legacy,legacy,0,uniform,1,undefined,1,right,25,0,25,25,25,0,0,25,0,25,0,25,0,25,25,10/16/19 12:32,The main experiment item,yes,SternbergTask.osexp,C:/Users/Carolyn/Desktop,no,mono,no,18,no,white,no,yes,768,legacy,13,11,C:/Users/Carolyn/Desktop/cp_subject-1.csv,legacy,5 3 8 7 2 4,Kafkaesque Koffka,3.2.8,0,n,0,right,left,left,NA,right,1212,5659,3975,NA,1212,2,legacy,6,1024,2,48000,-16,experiment,1,odd,9,187689,105868,188868,191075,124165,6288,101892,189871,11948,193078,NA,188864,6279,193078,194291,Sternberg Task,21,29399,26,yes,1024
77.77777778,77.77777778,1162.925926,1162.925926,black,experiment,legacy,legacy,legacy,0,uniform,0,undefined,0,right,26,0,26,26,26,0,0,26,0,26,0,26,0,26,26,10/16/19 12:32,The main experiment item,yes,SternbergTask.osexp,C:/Users/Carolyn/Desktop,no,mono,no,18,no,white,no,yes,768,legacy,14,11,C:/Users/Carolyn/Desktop/cp_subject-1.csv,legacy,1 6 4 3 9 7,Kafkaesque Koffka,3.2.8,0,n,0,None,left,left,NA,None,2000,5659,3975,NA,2000,2,legacy,6,1024,2,48000,-16,experiment,1,odd,8,194330,105868,195506,197712,124165,6288,101892,196509,11948,199715,NA,195502,6279,199715,201715,Sternberg Task,21,31399,27,yes,1024
75,75,1148,1148,black,experiment,legacy,legacy,legacy,0,uniform,0,undefined,0,left,27,0,27,27,27,0,0,27,0,27,0,27,0,27,27,10/16/19 12:32,The main experiment item,yes,SternbergTask.osexp,C:/Users/Carolyn/Desktop,no,mono,no,18,no,white,no,yes,768,legacy,15,11,C:/Users/Carolyn/Desktop/cp_subject-1.csv,legacy,8 5 4 7 3 1,Kafkaesque Koffka,3.2.8,2,y,0,right,left,left,NA,right,745,5659,3975,NA,745,2,legacy,6,1024,2,48000,-16,experiment,1,odd,5,194330,105868,202935,205141,201755,6288,101892,203938,11948,207144,NA,202931,6279,207145,207891,Sternberg Task,21,32144,28,yes,1024
75.86206897,75.86206897,1152.034483,1152.034483,black,experiment,legacy,legacy,legacy,0,uniform,1,undefined,1,right,28,0,28,28,28,0,0,28,0,28,0,28,0,28,28,10/16/19 12:32,The main experiment item,yes,SternbergTask.osexp,C:/Users/Carolyn/Desktop,no,mono,no,18,no,white,no,yes,768,legacy,16,11,C:/Users/Carolyn/Desktop/cp_subject-1.csv,legacy,1,Kafkaesque Koffka,3.2.8,0,n,0,right,left,left,NA,right,1265,5659,3975,NA,1265,2,legacy,1,1024,2,48000,-16,experiment,1,odd,7,194330,105868,209110,211317,207930,6288,101892,210113,11948,213320,NA,209106,6279,213321,214588,Sternberg Task,22,33409,29,yes,1024
76.66666667,76.66666667,1148.266667,1148.266667,black,experiment,legacy,legacy,legacy,0,uniform,1,undefined,1,right,29,0,29,29,29,0,0,29,0,29,0,29,0,29,29,10/16/19 12:32,The main experiment item,yes,SternbergTask.osexp,C:/Users/Carolyn/Desktop,no,mono,no,18,no,white,no,yes,768,legacy,17,11,C:/Users/Carolyn/Desktop/cp_subject-1.csv,legacy,5 3 2 6 9 8,Kafkaesque Koffka,3.2.8,0,n,0,right,left,left,NA,right,1039,5659,3975,NA,1039,2,legacy,6,1024,2,48000,-16,experiment,1,odd,4,214630,105868,215808,218014,207930,6288,101892,216811,11948,220018,NA,215804,6279,220019,221059,Sternberg Task,23,34448,30,yes,1024
77.41935484,77.41935484,1142.580645,1142.580645,black,experiment,legacy,legacy,legacy,0,uniform,1,undefined,1,left,30,0,30,30,30,0,0,30,0,30,0,30,0,30,30,10/16/19 12:32,The main experiment item,yes,SternbergTask.osexp,C:/Users/Carolyn/Desktop,no,mono,no,18,no,white,no,yes,768,legacy,18,11,C:/Users/Carolyn/Desktop/cp_subject-1.csv,legacy,4 1 5,Kafkaesque Koffka,3.2.8,2,y,0,left,left,left,NA,left,972,5659,3975,NA,972,2,legacy,3,1024,2,48000,-16,experiment,1,odd,1,221097,105868,222275,224482,207930,6288,101892,223278,11948,226485,NA,222271,6279,226486,227460,Sternberg Task,24,35420,31,yes,1024
78.125,78.125,1141.53125,1141.53125,black,experiment,legacy,legacy,legacy,0,uniform,1,undefined,1,left,31,0,31,31,31,0,0,31,0,31,0,31,0,31,31,10/16/19 12:32,The main experiment item,yes,SternbergTask.osexp,C:/Users/Carolyn/Desktop,no,mono,no,18,no,white,no,yes,768,legacy,19,11,C:/Users/Carolyn/Desktop/cp_subject-1.csv,legacy,7 4 2 6 3 5,Kafkaesque Koffka,3.2.8,6,y,0,left,left,left,NA,left,1109,5659,3975,NA,1109,2,legacy,6,1024,2,48000,-16,experiment,1,odd,5,227496,105868,228674,230881,207930,6288,101892,229678,11948,232885,NA,228670,6279,232885,233995,Sternberg Task,25,36529,32,yes,1024
78.78787879,78.78787879,1137.878788,1137.878788,black,experiment,legacy,legacy,legacy,0,uniform,1,undefined,1,right,32,0,32,32,32,0,0,32,0,32,0,32,0,32,32,10/16/19 12:32,The main experiment item,yes,SternbergTask.osexp,C:/Users/Carolyn/Desktop,no,mono,no,18,no,white,no,yes,768,legacy,20,11,C:/Users/Carolyn/Desktop/cp_subject-1.csv,legacy,1 8 7,Kafkaesque Koffka,3.2.8,0,n,0,right,left,left,NA,right,1021,5659,3975,NA,1021,2,legacy,3,1024,2,48000,-16,experiment,1,odd,4,234039,105868,235219,237426,207930,6288,101892,236222,11948,239429,NA,235215,6279,239429,240452,Sternberg Task,26,37550,33,yes,1024
79.41176471,79.41176471,1154.617647,1154.617647,black,experiment,legacy,legacy,legacy,0,uniform,1,undefined,1,right,33,0,33,33,33,0,0,33,0,33,0,33,0,33,33,10/16/19 12:32,The main experiment item,yes,SternbergTask.osexp,C:/Users/Carolyn/Desktop,no,mono,no,18,no,white,no,yes,768,legacy,21,11,C:/Users/Carolyn/Desktop/cp_subject-1.csv,legacy,9 7 4 5 8,Kafkaesque Koffka,3.2.8,0,n,0,right,left,left,NA,right,1707,5659,3975,NA,1707,2,legacy,5,1024,2,48000,-16,experiment,1,odd,6,240497,105868,241677,243884,207930,6288,101892,242680,11948,245887,NA,241673,6279,245887,247596,Sternberg Task,27,39257,34,yes,1024
80,80,1148.914286,1148.914286,black,experiment,legacy,legacy,legacy,0,uniform,1,undefined,1,right,34,0,34,34,34,0,0,34,0,34,0,34,0,34,34,10/16/19 12:32,The main experiment item,yes,SternbergTask.osexp,C:/Users/Carolyn/Desktop,no,mono,no,18,no,white,no,yes,768,legacy,22,11,C:/Users/Carolyn/Desktop/cp_subject-1.csv,legacy,6 3 1 7 9 8,Kafkaesque Koffka,3.2.8,0,n,0,right,left,left,NA,right,955,5659,3975,NA,955,2,legacy,6,1024,2,48000,-16,experiment,1,odd,4,247638,105868,248820,251027,207930,6288,101892,249823,11948,253030,NA,248816,6279,253031,253988,Sternberg Task,28,40212,35,yes,1024
80.55555556,80.55555556,1148.777778,1148.777778,black,experiment,legacy,legacy,legacy,0,uniform,1,undefined,1,left,35,0,35,35,35,0,0,35,0,35,0,35,0,35,35,10/16/19 12:32,The main experiment item,yes,SternbergTask.osexp,C:/Users/Carolyn/Desktop,no,mono,no,18,no,white,no,yes,768,legacy,23,11,C:/Users/Carolyn/Desktop/cp_subject-1.csv,legacy,3 4,Kafkaesque Koffka,3.2.8,1,y,0,left,left,left,NA,left,1144,5659,3975,NA,1144,2,legacy,2,1024,2,48000,-16,experiment,1,odd,3,254022,105868,255200,257407,207930,6288,101892,256203,11948,259410,NA,255196,6279,259410,260556,Sternberg Task,29,41356,36,yes,1024
78.37837838,78.37837838,1163.459459,1163.459459,black,experiment,legacy,legacy,legacy,0,uniform,0,undefined,0,left,36,0,36,36,36,0,0,36,0,36,0,36,0,36,36,10/16/19 12:32,The main experiment item,yes,SternbergTask.osexp,C:/Users/Carolyn/Desktop,no,mono,no,18,no,white,no,yes,768,legacy,24,11,C:/Users/Carolyn/Desktop/cp_subject-1.csv,legacy,3 5 9 6 2 4,Kafkaesque Koffka,3.2.8,1,y,0,right,left,left,NA,right,1692,5659,3975,NA,1692,2,legacy,6,1024,2,48000,-16,experiment,1,odd,3,260588,105868,261764,263970,207930,6288,101892,262767,11948,265973,NA,261760,6279,265974,267668,Sternberg Task,29,43048,37,yes,1024
78.94736842,78.94736842,1162.421053,1162.421053,black,experiment,legacy,legacy,legacy,0,uniform,1,undefined,1,left,37,0,37,37,37,0,0,37,0,37,0,37,0,37,37,10/16/19 12:32,The main experiment item,yes,SternbergTask.osexp,C:/Users/Carolyn/Desktop,no,mono,no,18,no,white,no,yes,768,legacy,25,11,C:/Users/Carolyn/Desktop/cp_subject-1.csv,legacy,3 9 6 2,Kafkaesque Koffka,3.2.8,4,y,0,left,left,left,NA,left,1124,5659,3975,NA,1124,2,legacy,4,1024,2,48000,-16,experiment,1,odd,2,260588,105868,268874,271081,267696,6288,101892,269877,11948,273085,NA,268870,6279,273086,274212,Sternberg Task,30,44172,38,yes,1024
79.48717949,79.48717949,1146.538462,1146.538462,black,experiment,legacy,legacy,legacy,0,uniform,1,undefined,1,left,38,0,38,38,38,0,0,38,0,38,0,38,0,38,38,10/16/19 12:32,The main experiment item,yes,SternbergTask.osexp,C:/Users/Carolyn/Desktop,no,mono,no,18,no,white,no,yes,768,legacy,26,11,C:/Users/Carolyn/Desktop/cp_subject-1.csv,legacy,5 2 6,Kafkaesque Koffka,3.2.8,2,y,0,left,left,left,NA,left,543,5659,3975,NA,543,2,legacy,3,1024,2,48000,-16,experiment,1,odd,2,274246,105868,275425,277632,267696,6288,101892,276428,11948,279635,NA,275421,6279,279635,280180,Sternberg Task,31,44715,39,yes,1024
80,80,1150.3,1150.3,black,experiment,legacy,legacy,legacy,0,uniform,1,undefined,1,right,39,0,39,39,39,0,0,39,0,39,0,39,0,39,39,10/16/19 12:32,The main experiment item,yes,SternbergTask.osexp,C:/Users/Carolyn/Desktop,no,mono,no,18,no,white,no,yes,768,legacy,27,11,C:/Users/Carolyn/Desktop/cp_subject-1.csv,legacy,3 9 8 1 6 4,Kafkaesque Koffka,3.2.8,0,n,0,right,left,left,NA,right,1297,5659,3975,NA,1297,2,legacy,6,1024,2,48000,-16,experiment,1,odd,7,280213,105868,281390,283597,267696,6288,101892,282393,11948,285600,NA,281386,6279,285601,286900,Sternberg Task,32,46012,40,yes,1024
80.48780488,80.48780488,1139.317073,1139.317073,black,experiment,legacy,legacy,legacy,0,uniform,1,undefined,1,left,40,0,40,40,40,0,0,40,0,40,0,40,0,40,40,10/16/19 12:32,The main experiment item,yes,SternbergTask.osexp,C:/Users/Carolyn/Desktop,no,mono,no,18,no,white,no,yes,768,legacy,28,11,C:/Users/Carolyn/Desktop/cp_subject-1.csv,legacy,8 5 1 3 9,Kafkaesque Koffka,3.2.8,4,y,0,left,left,left,NA,left,700,5659,3975,NA,700,2,legacy,5,1024,2,48000,-16,experiment,1,odd,3,286929,105868,288108,290315,267696,6288,101892,289111,11948,292318,NA,288104,6279,292318,293020,Sternberg Task,33,46712,41,yes,1024
80.95238095,80.95238095,1127.333333,1127.333333,black,experiment,legacy,legacy,legacy,0,uniform,1,undefined,1,left,41,0,41,41,41,0,0,41,0,41,0,41,0,41,41,10/16/19 12:32,The main experiment item,yes,SternbergTask.osexp,C:/Users/Carolyn/Desktop,no,mono,no,18,no,white,no,yes,768,legacy,29,11,C:/Users/Carolyn/Desktop/cp_subject-1.csv,legacy,7 1 8 5 6 2,Kafkaesque Koffka,3.2.8,2,y,0,left,left,left,NA,left,636,5659,3975,NA,636,2,legacy,6,1024,2,48000,-16,experiment,1,odd,1,293063,105868,294243,296450,267696,6288,101892,295246,11948,298453,NA,294239,6279,298454,299092,Sternberg Task,34,47348,42,yes,1024
81.39534884,81.39534884,1119.418605,1119.418605,black,experiment,legacy,legacy,legacy,0,uniform,1,undefined,1,right,42,0,42,42,42,0,0,42,0,42,0,42,0,42,42,10/16/19 12:32,The main experiment item,yes,SternbergTask.osexp,C:/Users/Carolyn/Desktop,no,mono,no,18,no,white,no,yes,768,legacy,30,11,C:/Users/Carolyn/Desktop/cp_subject-1.csv,legacy,1 7 8 3 9,Kafkaesque Koffka,3.2.8,0,n,0,right,left,left,NA,right,787,5659,3975,NA,787,2,legacy,5,1024,2,48000,-16,experiment,1,odd,2,299129,105868,300307,302514,267696,6288,101892,301310,11948,304518,NA,300303,6279,304519,305308,Sternberg Task,35,48135,43,yes,1024
81.81818182,81.81818182,1111.681818,1111.681818,black,experiment,legacy,legacy,legacy,0,uniform,1,undefined,1,left,43,0,43,43,43,0,0,43,0,43,0,43,0,43,43,10/16/19 12:32,The main experiment item,yes,SternbergTask.osexp,C:/Users/Carolyn/Desktop,no,mono,no,18,no,white,no,yes,768,legacy,31,11,C:/Users/Carolyn/Desktop/cp_subject-1.csv,legacy,2 6 1 7 4,Kafkaesque Koffka,3.2.8,2,y,0,left,left,left,NA,left,779,5659,3975,NA,779,2,legacy,5,1024,2,48000,-16,experiment,1,odd,6,305346,105868,306525,308732,267696,6288,101892,307528,11948,310735,NA,306520,6279,310735,311516,Sternberg Task,36,48914,44,yes,1024
82.22222222,82.22222222,1104.533333,1104.533333,black,experiment,legacy,legacy,legacy,0,uniform,1,undefined,1,right,44,0,44,44,44,0,0,44,0,44,0,44,0,44,44,10/16/19 12:32,The main experiment item,yes,SternbergTask.osexp,C:/Users/Carolyn/Desktop,no,mono,no,18,no,white,no,yes,768,legacy,32,11,C:/Users/Carolyn/Desktop/cp_subject-1.csv,legacy,5 7 3,Kafkaesque Koffka,3.2.8,0,n,0,right,left,left,NA,right,790,5659,3975,NA,790,2,legacy,3,1024,2,48000,-16,experiment,1,odd,9,311554,105868,312730,314936,267696,6288,101892,313733,11948,316939,NA,312726,6279,316940,317732,Sternberg Task,37,49704,45,yes,1024
82.60869565,82.60869565,1098.673913,1098.673913,black,experiment,legacy,legacy,legacy,0,uniform,1,undefined,1,right,45,0,45,45,45,0,0,45,0,45,0,45,0,45,45,10/16/19 12:32,The main experiment item,yes,SternbergTask.osexp,C:/Users/Carolyn/Desktop,no,mono,no,18,no,white,no,yes,768,legacy,33,11,C:/Users/Carolyn/Desktop/cp_subject-1.csv,legacy,2 7 5,Kafkaesque Koffka,3.2.8,0,n,0,right,left,left,NA,right,835,5659,3975,NA,835,2,legacy,3,1024,2,48000,-16,experiment,1,odd,8,317771,105868,318957,321164,267696,6288,101892,319960,11948,323167,NA,318953,6279,323167,324004,Sternberg Task,38,50539,46,yes,1024
82.9787234,82.9787234,1092.808511,1092.808511,black,experiment,legacy,legacy,legacy,0,uniform,1,undefined,1,right,46,0,46,46,46,0,0,46,0,46,0,46,0,46,46,10/16/19 12:32,The main experiment item,yes,SternbergTask.osexp,C:/Users/Carolyn/Desktop,no,mono,no,18,no,white,no,yes,768,legacy,34,11,C:/Users/Carolyn/Desktop/cp_subject-1.csv,legacy,2 5 1 4,Kafkaesque Koffka,3.2.8,0,n,0,right,left,left,NA,right,823,5659,3975,NA,823,2,legacy,4,1024,2,48000,-16,experiment,1,odd,6,324046,105868,325224,327431,267696,6288,101892,326227,11948,329434,NA,325220,6279,329435,330260,Sternberg Task,39,51362,47,yes,1024
83.33333333,83.33333333,1086.291667,1086.291667,black,experiment,legacy,legacy,legacy,0,uniform,1,undefined,1,left,47,0,47,47,47,0,0,47,0,47,0,47,0,47,47,10/16/19 12:32,The main experiment item,yes,SternbergTask.osexp,C:/Users/Carolyn/Desktop,no,mono,no,18,no,white,no,yes,768,legacy,35,11,C:/Users/Carolyn/Desktop/cp_subject-1.csv,legacy,3 9 7 6 4,Kafkaesque Koffka,3.2.8,3,y,0,left,left,left,NA,left,780,5659,3975,NA,780,2,legacy,5,1024,2,48000,-16,experiment,1,odd,7,330296,105868,331474,333682,267696,6288,101892,332478,11948,335685,NA,331470,6279,335686,336468,Sternberg Task,40,52142,48,yes,1024
83.67346939,83.67346939,1079.285714,1079.285714,black,experiment,legacy,legacy,legacy,0,uniform,1,undefined,1,left,48,0,48,48,48,0,0,48,0,48,0,48,0,48,48,10/16/19 12:32,The main experiment item,yes,SternbergTask.osexp,C:/Users/Carolyn/Desktop,no,mono,no,18,no,white,no,yes,768,legacy,36,11,C:/Users/Carolyn/Desktop/cp_subject-1.csv,legacy,5 7 8 2 3 8,Kafkaesque Koffka,3.2.8,5,y,0,left,left,left,NA,left,743,5659,3975,NA,743,2,legacy,6,1024,2,48000,-16,experiment,1,odd,3,336512,105868,337689,339896,267696,6288,101892,338692,11948,341899,NA,337685,6279,341899,342644,Sternberg Task,41,52885,49,yes,1024
84,84,1070.38,1070.38,black,experiment,legacy,legacy,legacy,0,uniform,1,undefined,1,left,49,0,49,49,49,0,0,49,0,49,0,49,0,49,49,10/16/19 12:32,The main experiment item,yes,SternbergTask.osexp,C:/Users/Carolyn/Desktop,no,mono,no,18,no,white,no,yes,768,legacy,37,11,C:/Users/Carolyn/Desktop/cp_subject-1.csv,legacy,9 4 2,Kafkaesque Koffka,3.2.8,1,y,0,left,left,left,NA,left,634,5659,3975,NA,634,2,legacy,3,1024,2,48000,-16,experiment,1,odd,9,342687,105868,343868,346076,267696,6288,101892,344872,11948,348079,NA,343864,6279,348080,348716,Sternberg Task,42,53519,50,yes,1024
84.31372549,84.31372549,1067.176471,1067.176471,black,experiment,legacy,legacy,legacy,0,uniform,1,undefined,1,right,50,0,50,50,50,0,0,50,0,50,0,50,0,50,50,10/16/19 12:32,The main experiment item,yes,SternbergTask.osexp,C:/Users/Carolyn/Desktop,no,mono,no,18,no,white,no,yes,768,legacy,38,11,C:/Users/Carolyn/Desktop/cp_subject-1.csv,legacy,7 1,Kafkaesque Koffka,3.2.8,0,n,0,right,left,left,NA,right,907,5659,3975,NA,907,2,legacy,2,1024,2,48000,-16,experiment,1,odd,8,348754,105868,349933,352140,267696,6288,101892,350936,11948,354143,NA,349929,6279,354143,355052,Sternberg Task,43,54426,51,yes,1024
84.61538462,84.61538462,1060.923077,1060.923077,black,experiment,legacy,legacy,legacy,0,uniform,1,undefined,1,right,51,0,51,51,51,0,0,51,0,51,0,51,0,51,51,10/16/19 12:32,The main experiment item,yes,SternbergTask.osexp,C:/Users/Carolyn/Desktop,no,mono,no,18,no,white,no,yes,768,legacy,39,11,C:/Users/Carolyn/Desktop/cp_subject-1.csv,legacy,7 8 6 1,Kafkaesque Koffka,3.2.8,0,n,0,right,left,left,NA,right,742,5659,3975,NA,742,2,legacy,4,1024,2,48000,-16,experiment,1,odd,3,355087,105868,356273,358481,267696,6288,101892,357277,11948,360484,NA,356269,6279,360484,361228,Sternberg Task,44,55168,52,yes,1024
84.90566038,84.90566038,1054.603774,1054.603774,black,experiment,legacy,legacy,legacy,0,uniform,1,undefined,1,right,52,0,52,52,52,0,0,52,0,52,0,52,0,52,52,10/16/19 12:32,The main experiment item,yes,SternbergTask.osexp,C:/Users/Carolyn/Desktop,no,mono,no,18,no,white,no,yes,768,legacy,40,11,C:/Users/Carolyn/Desktop/cp_subject-1.csv,legacy,6 9 4 5 3 2,Kafkaesque Koffka,3.2.8,0,n,0,right,left,left,NA,right,726,5659,3975,NA,726,2,legacy,6,1024,2,48000,-16,experiment,1,odd,8,361270,105868,362449,364655,267696,6288,101892,363452,11948,366659,NA,362445,6279,366660,367388,Sternberg Task,45,55894,53,yes,1024
85.18518519,85.18518519,1048.425926,1048.425926,black,experiment,legacy,legacy,legacy,0,uniform,1,undefined,1,right,53,0,53,53,53,0,0,53,0,53,0,53,0,53,53,10/16/19 12:32,The main experiment item,yes,SternbergTask.osexp,C:/Users/Carolyn/Desktop,no,mono,no,18,no,white,no,yes,768,legacy,41,11,C:/Users/Carolyn/Desktop/cp_subject-1.csv,legacy,2 8 9 4 1,Kafkaesque Koffka,3.2.8,0,n,0,right,left,left,NA,right,721,5659,3975,NA,721,2,legacy,5,1024,2,48000,-16,experiment,1,odd,5,367429,105868,368608,370814,267696,6288,101892,369611,11948,372817,NA,368604,6279,372817,373540,Sternberg Task,46,56615,54,yes,1024
85.45454545,85.45454545,1040.109091,1040.109091,black,experiment,legacy,legacy,legacy,0,uniform,1,undefined,1,left,54,0,54,54,54,0,0,54,0,54,0,54,0,54,54,10/16/19 12:32,The main experiment item,yes,SternbergTask.osexp,C:/Users/Carolyn/Desktop,no,mono,no,18,no,white,no,yes,768,legacy,42,11,C:/Users/Carolyn/Desktop/cp_subject-1.csv,legacy,9 1 7 2,Kafkaesque Koffka,3.2.8,2,y,0,left,left,left,NA,left,591,5659,3975,NA,591,2,legacy,4,1024,2,48000,-16,experiment,1,odd,1,373571,105868,374751,376959,267696,6288,101892,375755,11948,378962,NA,374748,6279,378963,379556,Sternberg Task,47,57206,55,yes,1024
85.71428571,85.71428571,1032.910714,1032.910714,black,experiment,legacy,legacy,legacy,0,uniform,1,undefined,1,right,55,0,55,55,55,0,0,55,0,55,0,55,0,55,55,10/16/19 12:32,The main experiment item,yes,SternbergTask.osexp,C:/Users/Carolyn/Desktop,no,mono,no,18,no,white,no,yes,768,legacy,43,11,C:/Users/Carolyn/Desktop/cp_subject-1.csv,legacy,1 3 2 6 9,Kafkaesque Koffka,3.2.8,0,n,0,right,left,left,NA,right,637,5659,3975,NA,637,2,legacy,5,1024,2,48000,-16,experiment,1,odd,5,379596,105868,380777,382985,267696,6288,101892,381780,11948,384988,NA,380773,6279,384989,385628,Sternberg Task,48,57843,56,yes,1024
85.96491228,85.96491228,1030.052632,1030.052632,black,experiment,legacy,legacy,legacy,0,uniform,1,undefined,1,left,56,0,56,56,56,0,0,56,0,56,0,56,0,56,56,10/16/19 12:32,The main experiment item,yes,SternbergTask.osexp,C:/Users/Carolyn/Desktop,no,mono,no,18,no,white,no,yes,768,legacy,44,11,C:/Users/Carolyn/Desktop/cp_subject-1.csv,legacy,6 8 9 3 4 9,Kafkaesque Koffka,3.2.8,5,y,0,left,left,left,NA,left,870,5659,3975,NA,870,2,legacy,6,1024,2,48000,-16,experiment,1,odd,4,385670,105868,386850,389057,267696,6288,101892,387853,11948,391060,NA,386846,6279,391060,391932,Sternberg Task,49,58713,57,yes,1024
86.20689655,86.20689655,1025.034483,1025.034483,black,experiment,legacy,legacy,legacy,0,uniform,1,undefined,1,right,57,0,57,57,57,0,0,57,0,57,0,57,0,57,57,10/16/19 12:32,The main experiment item,yes,SternbergTask.osexp,C:/Users/Carolyn/Desktop,no,mono,no,18,no,white,no,yes,768,legacy,45,11,C:/Users/Carolyn/Desktop/cp_subject-1.csv,legacy,1 4 9 2 5,Kafkaesque Koffka,3.2.8,0,n,0,right,left,left,NA,right,739,5659,3975,NA,739,2,legacy,5,1024,2,48000,-16,experiment,1,odd,7,391970,105868,393149,395356,267696,6288,101892,394152,11948,397359,NA,393145,6279,397359,398100,Sternberg Task,50,59452,58,yes,1024
86.44067797,86.44067797,1017.169492,1017.169492,black,experiment,legacy,legacy,legacy,0,uniform,1,undefined,1,right,58,0,58,58,58,0,0,58,0,58,0,58,0,58,58,10/16/19 12:32,The main experiment item,yes,SternbergTask.osexp,C:/Users/Carolyn/Desktop,no,mono,no,18,no,white,no,yes,768,legacy,46,11,C:/Users/Carolyn/Desktop/cp_subject-1.csv,legacy,1 7 5 2 9,Kafkaesque Koffka,3.2.8,0,n,0,right,left,left,NA,right,561,5659,3975,NA,561,2,legacy,5,1024,2,48000,-16,experiment,1,odd,3,398137,105868,399318,401525,267696,6288,101892,400321,11948,403528,NA,399314,6279,403529,404092,Sternberg Task,51,60013,59,yes,1024
86.66666667,86.66666667,1010.133333,1010.133333,black,experiment,legacy,legacy,legacy,0,uniform,1,undefined,1,right,59,0,59,59,59,0,0,59,0,59,0,59,0,59,59,10/16/19 12:32,The main experiment item,yes,SternbergTask.osexp,C:/Users/Carolyn/Desktop,no,mono,no,18,no,white,no,yes,768,legacy,47,11,C:/Users/Carolyn/Desktop/cp_subject-1.csv,legacy,7 4 2 8 1 9,Kafkaesque Koffka,3.2.8,0,n,0,right,left,left,NA,right,595,5659,3975,NA,595,2,legacy,6,1024,2,48000,-16,experiment,1,odd,5,404137,105868,405316,407524,267696,6288,101892,406320,11948,409527,NA,405313,6279,409527,410124,Sternberg Task,52,60608,60,yes,1024
86.8852459,86.8852459,1003.754098,1003.754098,black,experiment,legacy,legacy,legacy,0,uniform,1,undefined,1,left,60,0,60,60,60,0,0,60,0,60,0,60,0,60,60,10/16/19 12:32,The main experiment item,yes,SternbergTask.osexp,C:/Users/Carolyn/Desktop,no,mono,no,18,no,white,no,yes,768,legacy,48,11,C:/Users/Carolyn/Desktop/cp_subject-1.csv,legacy,4 3 2 5 8,Kafkaesque Koffka,3.2.8,2,y,0,left,left,left,NA,left,621,5659,3975,NA,621,2,legacy,5,1024,2,48000,-16,experiment,1,odd,3,410162,105868,411339,413546,267696,6288,101892,412342,11948,415549,NA,411335,6279,415549,416172,Sternberg Task,53,61229,61,yes,1024
85.48387097,85.48387097,995.0645161,995.0645161,black,experiment,legacy,legacy,legacy,0,uniform,0,undefined,0,left,61,0,61,61,61,0,0,61,0,61,0,61,0,61,61,10/16/19 12:32,The main experiment item,yes,SternbergTask.osexp,C:/Users/Carolyn/Desktop,no,mono,no,18,no,white,no,yes,768,legacy,49,11,C:/Users/Carolyn/Desktop/cp_subject-1.csv,legacy,7 2 3,Kafkaesque Koffka,3.2.8,3,y,0,right,left,left,NA,right,465,5659,3975,NA,465,2,legacy,3,1024,2,48000,-16,experiment,1,odd,3,416203,105868,417384,419590,267696,6288,101892,418387,11948,421593,NA,417380,6279,421593,422060,Sternberg Task,53,61694,62,yes,1024
85.71428571,85.71428571,993.5714286,993.5714286,black,experiment,legacy,legacy,legacy,0,uniform,1,undefined,1,right,62,0,62,62,62,0,0,62,0,62,0,62,0,62,62,10/16/19 12:32,The main experiment item,yes,SternbergTask.osexp,C:/Users/Carolyn/Desktop,no,mono,no,18,no,white,no,yes,768,legacy,50,11,C:/Users/Carolyn/Desktop/cp_subject-1.csv,legacy,7 3 2 8,Kafkaesque Koffka,3.2.8,0,n,0,right,left,left,NA,right,901,5659,3975,NA,901,2,legacy,4,1024,2,48000,-16,experiment,1,odd,4,416203,105868,423274,425481,422095,6288,101892,424277,11948,427484,NA,423270,6279,427485,428388,Sternberg Task,54,62595,63,yes,1024
84.375,84.375,989.9375,989.9375,black,experiment,legacy,legacy,legacy,0,uniform,0,undefined,0,left,63,0,63,63,63,0,0,63,0,63,0,63,0,63,63,10/16/19 12:32,The main experiment item,yes,SternbergTask.osexp,C:/Users/Carolyn/Desktop,no,mono,no,18,no,white,no,yes,768,legacy,51,11,C:/Users/Carolyn/Desktop/cp_subject-1.csv,legacy,4 9 7 8 5 3,Kafkaesque Koffka,3.2.8,4,y,0,right,left,left,NA,right,761,5659,3975,NA,761,2,legacy,6,1024,2,48000,-16,experiment,1,odd,8,428428,105868,429607,431813,422095,6288,101892,430610,11948,433816,NA,429603,6279,433817,434580,Sternberg Task,54,63356,64,yes,1024
84.61538462,84.61538462,988.2923077,988.2923077,black,experiment,legacy,legacy,legacy,0,uniform,1,undefined,1,right,64,0,64,64,64,0,0,64,0,64,0,64,0,64,64,10/16/19 12:32,The main experiment item,yes,SternbergTask.osexp,C:/Users/Carolyn/Desktop,no,mono,no,18,no,white,no,yes,768,legacy,52,11,C:/Users/Carolyn/Desktop/cp_subject-1.csv,legacy,1 4 3 6 5,Kafkaesque Koffka,3.2.8,0,n,0,right,left,left,NA,right,883,5659,3975,NA,883,2,legacy,5,1024,2,48000,-16,experiment,1,odd,8,428428,105868,435798,438004,434619,6288,101892,436801,11948,440007,NA,435794,6279,440007,440892,Sternberg Task,55,64239,65,yes,1024
84.84848485,84.84848485,985.969697,985.969697,black,experiment,legacy,legacy,legacy,0,uniform,1,undefined,1,right,65,0,65,65,65,0,0,65,0,65,0,65,0,65,65,10/16/19 12:32,The main experiment item,yes,SternbergTask.osexp,C:/Users/Carolyn/Desktop,no,mono,no,18,no,white,no,yes,768,legacy,53,11,C:/Users/Carolyn/Desktop/cp_subject-1.csv,legacy,6 9 7 3 8 2,Kafkaesque Koffka,3.2.8,0,n,0,right,left,left,NA,right,835,5659,3975,NA,835,2,legacy,6,1024,2,48000,-16,experiment,1,odd,5,440953,105868,442140,444348,434619,6288,101892,443144,11948,446351,NA,442136,6279,446351,447188,Sternberg Task,56,65074,66,yes,1024
85.07462687,85.07462687,981.3731343,981.3731343,black,experiment,legacy,legacy,legacy,0,uniform,1,undefined,1,right,66,0,66,66,66,0,0,66,0,66,0,66,0,66,66,10/16/19 12:32,The main experiment item,yes,SternbergTask.osexp,C:/Users/Carolyn/Desktop,no,mono,no,18,no,white,no,yes,768,legacy,54,11,C:/Users/Carolyn/Desktop/cp_subject-1.csv,legacy,5 2,Kafkaesque Koffka,3.2.8,0,n,0,right,left,left,NA,right,678,5659,3975,NA,678,2,legacy,2,1024,2,48000,-16,experiment,1,odd,7,447228,105868,448408,450615,434619,6288,101892,449411,11948,452619,NA,448404,6279,452620,453300,Sternberg Task,57,65752,67,yes,1024
85.29411765,85.29411765,979.1323529,979.1323529,black,experiment,legacy,legacy,legacy,0,uniform,1,undefined,1,left,67,0,67,67,67,0,0,67,0,67,0,67,0,67,67,10/16/19 12:32,The main experiment item,yes,SternbergTask.osexp,C:/Users/Carolyn/Desktop,no,mono,no,18,no,white,no,yes,768,legacy,55,11,C:/Users/Carolyn/Desktop/cp_subject-1.csv,legacy,8 1 6,Kafkaesque Koffka,3.2.8,3,y,0,left,left,left,NA,left,829,5659,3975,NA,829,2,legacy,3,1024,2,48000,-16,experiment,1,odd,6,453320,105868,454499,456706,434619,6288,101892,455503,11948,458709,NA,454495,6279,458709,459540,Sternberg Task,58,66581,68,yes,1024
85.50724638,85.50724638,980.4202899,980.4202899,black,experiment,legacy,legacy,legacy,0,uniform,1,undefined,1,right,68,0,68,68,68,0,0,68,0,68,0,68,0,68,68,10/16/19 12:32,The main experiment item,yes,SternbergTask.osexp,C:/Users/Carolyn/Desktop,no,mono,no,18,no,white,no,yes,768,legacy,56,11,C:/Users/Carolyn/Desktop/cp_subject-1.csv,legacy,8 4 3 9,Kafkaesque Koffka,3.2.8,0,n,0,right,left,left,NA,right,1068,5659,3975,NA,1068,2,legacy,4,1024,2,48000,-16,experiment,1,odd,5,459569,105868,460748,462955,434619,6288,101892,461751,11948,464958,NA,460744,6279,464959,466029,Sternberg Task,59,67649,69,yes,1024
85.71428571,85.71428571,978.4285714,978.4285714,black,experiment,legacy,legacy,legacy,0,uniform,1,undefined,1,left,69,0,69,69,69,0,0,69,0,69,0,69,0,69,69,10/16/19 12:32,The main experiment item,yes,SternbergTask.osexp,C:/Users/Carolyn/Desktop,no,mono,no,18,no,white,no,yes,768,legacy,57,11,C:/Users/Carolyn/Desktop/cp_subject-1.csv,legacy,8,Kafkaesque Koffka,3.2.8,1,y,0,left,left,left,NA,left,841,5659,3975,NA,841,2,legacy,1,1024,2,48000,-16,experiment,1,odd,8,466054,105868,467232,469439,434619,6288,101892,468235,11948,471442,NA,467228,6279,471442,472285,Sternberg Task,60,68490,70,yes,1024
85.91549296,85.91549296,981.8591549,981.8591549,black,experiment,legacy,legacy,legacy,0,uniform,1,undefined,1,left,70,0,70,70,70,0,0,70,0,70,0,70,0,70,70,10/16/19 12:32,The main experiment item,yes,SternbergTask.osexp,C:/Users/Carolyn/Desktop,no,mono,no,18,no,white,no,yes,768,legacy,58,11,C:/Users/Carolyn/Desktop/cp_subject-1.csv,legacy,8 5 3 7 4 6,Kafkaesque Koffka,3.2.8,6,y,0,left,left,left,NA,left,1222,5659,3975,NA,1222,2,legacy,6,1024,2,48000,-16,experiment,1,odd,6,472304,105868,473483,475690,434619,6288,101892,474486,11948,477693,NA,473479,6279,477693,478917,Sternberg Task,61,69712,71,yes,1024
86.11111111,86.11111111,983.7777778,983.7777778,black,experiment,legacy,legacy,legacy,0,uniform,1,undefined,1,right,71,0,71,71,71,0,0,71,0,71,0,71,0,71,71,10/16/19 12:32,The main experiment item,yes,SternbergTask.osexp,C:/Users/Carolyn/Desktop,no,mono,no,18,no,white,no,yes,768,legacy,59,11,C:/Users/Carolyn/Desktop/cp_subject-1.csv,legacy,7 9 1 6,Kafkaesque Koffka,3.2.8,0,n,0,right,left,left,NA,right,1120,5659,3975,NA,1120,2,legacy,4,1024,2,48000,-16,experiment,1,odd,4,478945,105868,480121,482328,434619,6288,101892,481124,11948,484331,NA,480117,6279,484331,485453,Sternberg Task,62,70832,72,yes,1024
86.30136986,86.30136986,991.8356164,991.8356164,black,experiment,legacy,legacy,legacy,0,uniform,1,undefined,1,right,72,0,72,72,72,0,0,72,0,72,0,72,0,72,72,10/16/19 12:32,The main experiment item,yes,SternbergTask.osexp,C:/Users/Carolyn/Desktop,no,mono,no,18,no,white,no,yes,768,legacy,60,11,C:/Users/Carolyn/Desktop/cp_subject-1.csv,legacy,6 7 5 9,Kafkaesque Koffka,3.2.8,0,n,0,right,left,left,NA,right,1572,5659,3975,NA,1572,2,legacy,4,1024,2,48000,-16,experiment,1,odd,2,485470,105868,486646,488852,434619,6288,101892,487649,11948,490855,NA,486642,6279,490855,492429,Sternberg Task,63,72404,73,yes,1024
86.48648649,86.48648649,986.9459459,986.9459459,black,experiment,legacy,legacy,legacy,0,uniform,1,undefined,1,left,73,0,73,73,73,0,0,73,0,73,0,73,0,73,73,10/16/19 12:32,The main experiment item,yes,SternbergTask.osexp,C:/Users/Carolyn/Desktop,no,mono,no,18,no,white,no,yes,768,legacy,61,11,C:/Users/Carolyn/Desktop/cp_subject-1.csv,legacy,7 1 3,Kafkaesque Koffka,3.2.8,2,y,0,left,left,left,NA,left,630,5659,3975,NA,630,2,legacy,3,1024,2,48000,-16,experiment,1,odd,1,492454,105868,493635,495842,434619,6288,101892,494638,11948,497845,NA,493631,6279,497845,498477,Sternberg Task,64,73034,74,yes,1024
86.66666667,86.66666667,984.4666667,984.4666667,black,experiment,legacy,legacy,legacy,0,uniform,1,undefined,1,right,74,0,74,74,74,0,0,74,0,74,0,74,0,74,74,10/16/19 12:32,The main experiment item,yes,SternbergTask.osexp,C:/Users/Carolyn/Desktop,no,mono,no,18,no,white,no,yes,768,legacy,62,11,C:/Users/Carolyn/Desktop/cp_subject-1.csv,legacy,4 8 1 2,Kafkaesque Koffka,3.2.8,0,n,0,right,left,left,NA,right,801,5659,3975,NA,801,2,legacy,4,1024,2,48000,-16,experiment,1,odd,7,498495,105868,499673,501879,434619,6288,101892,500676,11948,503882,NA,499668,6279,503882,504685,Sternberg Task,65,73835,75,yes,1024
86.84210526,86.84210526,988.5921053,988.5921053,black,experiment,legacy,legacy,legacy,0,uniform,1,undefined,1,right,75,0,75,75,75,0,0,75,0,75,0,75,0,75,75,10/16/19 12:32,The main experiment item,yes,SternbergTask.osexp,C:/Users/Carolyn/Desktop,no,mono,no,18,no,white,no,yes,768,legacy,63,11,C:/Users/Carolyn/Desktop/cp_subject-1.csv,legacy,2 8 9,Kafkaesque Koffka,3.2.8,0,n,0,right,left,left,NA,right,1298,5659,3975,NA,1298,2,legacy,3,1024,2,48000,-16,experiment,1,odd,6,504711,105868,505893,508100,434619,6288,101892,506897,11948,510104,NA,505889,6279,510105,511405,Sternberg Task,66,75133,76,yes,1024
87.01298701,87.01298701,991.1688312,991.1688312,black,experiment,legacy,legacy,legacy,0,uniform,1,undefined,1,right,76,0,76,76,76,0,0,76,0,76,0,76,0,76,76,10/16/19 12:32,The main experiment item,yes,SternbergTask.osexp,C:/Users/Carolyn/Desktop,no,mono,no,18,no,white,no,yes,768,legacy,64,11,C:/Users/Carolyn/Desktop/cp_subject-1.csv,legacy,2 8 7 9 5 3,Kafkaesque Koffka,3.2.8,0,n,0,right,left,left,NA,right,1187,5659,3975,NA,1187,2,legacy,6,1024,2,48000,-16,experiment,1,odd,6,511436,105868,512613,514819,434619,6288,101892,513616,11948,516823,NA,512609,6279,516824,518013,Sternberg Task,67,76320,77,yes,1024
87.17948718,87.17948718,990.4102564,990.4102564,black,experiment,legacy,legacy,legacy,0,uniform,1,undefined,1,right,77,0,77,77,77,0,0,77,0,77,0,77,0,77,77,10/16/19 12:32,The main experiment item,yes,SternbergTask.osexp,C:/Users/Carolyn/Desktop,no,mono,no,18,no,white,no,yes,768,legacy,65,11,C:/Users/Carolyn/Desktop/cp_subject-1.csv,legacy,7 9,Kafkaesque Koffka,3.2.8,0,n,0,right,left,left,NA,right,932,5659,3975,NA,932,2,legacy,2,1024,2,48000,-16,experiment,1,odd,1,518045,105868,519220,521427,434619,6288,101892,520223,11948,523431,NA,519215,6279,523431,524365,Sternberg Task,68,77252,78,yes,1024
87.34177215,87.34177215,994.556962,994.556962,black,experiment,legacy,legacy,legacy,0,uniform,1,undefined,1,right,78,0,78,78,78,0,0,78,0,78,0,78,0,78,78,10/16/19 12:32,The main experiment item,yes,SternbergTask.osexp,C:/Users/Carolyn/Desktop,no,mono,no,18,no,white,no,yes,768,legacy,66,11,C:/Users/Carolyn/Desktop/cp_subject-1.csv,legacy,8 4 3 5,Kafkaesque Koffka,3.2.8,0,n,0,right,left,left,NA,right,1318,5659,3975,NA,1318,2,legacy,4,1024,2,48000,-16,experiment,1,odd,6,524395,105868,525572,527778,434619,6288,101892,526575,11948,529781,NA,525568,6279,529781,531101,Sternberg Task,69,78570,79,yes,1024
87.5,87.5,991.0125,991.0125,black,experiment,legacy,legacy,legacy,0,uniform,1,undefined,1,right,79,0,79,79,79,0,0,79,0,79,0,79,0,79,79,10/16/19 12:32,The main experiment item,yes,SternbergTask.osexp,C:/Users/Carolyn/Desktop,no,mono,no,18,no,white,no,yes,768,legacy,67,11,C:/Users/Carolyn/Desktop/cp_subject-1.csv,legacy,9,Kafkaesque Koffka,3.2.8,0,n,0,right,left,left,NA,right,711,5659,3975,NA,711,2,legacy,1,1024,2,48000,-16,experiment,1,odd,6,531120,105868,532297,534504,434619,6288,101892,533300,11948,536508,NA,532293,6279,536508,537221,Sternberg Task,70,79281,80,yes,1024
87.65432099,87.65432099,989.2469136,989.2469136,black,experiment,legacy,legacy,legacy,0,uniform,1,undefined,1,left,80,0,80,80,80,0,0,80,0,80,0,80,0,80,80,10/16/19 12:32,The main experiment item,yes,SternbergTask.osexp,C:/Users/Carolyn/Desktop,no,mono,no,18,no,white,no,yes,768,legacy,68,11,C:/Users/Carolyn/Desktop/cp_subject-1.csv,legacy,8 7 3,Kafkaesque Koffka,3.2.8,1,y,0,left,left,left,NA,left,848,5659,3975,NA,848,2,legacy,3,1024,2,48000,-16,experiment,1,odd,8,537253,105868,538432,540639,434619,6288,101892,539435,11948,542642,NA,538428,6279,542643,543493,Sternberg Task,71,80129,81,yes,1024
87.80487805,87.80487805,990.1341463,990.1341463,black,experiment,legacy,legacy,legacy,0,uniform,1,undefined,1,right,81,0,81,81,81,0,0,81,0,81,0,81,0,81,81,10/16/19 12:32,The main experiment item,yes,SternbergTask.osexp,C:/Users/Carolyn/Desktop,no,mono,no,18,no,white,no,yes,768,legacy,69,11,C:/Users/Carolyn/Desktop/cp_subject-1.csv,legacy,4 2 7 6 1 3,Kafkaesque Koffka,3.2.8,0,n,0,right,left,left,NA,right,1062,5659,3975,NA,1062,2,legacy,6,1024,2,48000,-16,experiment,1,odd,8,543519,105868,544698,546905,434619,6288,101892,545701,11948,548908,NA,544694,6279,548909,549973,Sternberg Task,72,81191,82,yes,1024
87.95180723,87.95180723,990.7831325,990.7831325,black,experiment,legacy,legacy,legacy,0,uniform,1,undefined,1,left,82,0,82,82,82,0,0,82,0,82,0,82,0,82,82,10/16/19 12:32,The main experiment item,yes,SternbergTask.osexp,C:/Users/Carolyn/Desktop,no,mono,no,18,no,white,no,yes,768,legacy,70,11,C:/Users/Carolyn/Desktop/cp_subject-1.csv,legacy,9 5 3 8 4,Kafkaesque Koffka,3.2.8,1,y,0,left,left,left,NA,left,1044,5659,3975,NA,1044,2,legacy,5,1024,2,48000,-16,experiment,1,odd,9,549995,105868,551172,553379,434619,6288,101892,552176,11948,555382,NA,551168,6279,555383,556429,Sternberg Task,73,82235,83,yes,1024
88.0952381,88.0952381,989.952381,989.952381,black,experiment,legacy,legacy,legacy,0,uniform,1,undefined,1,left,83,0,83,83,83,0,0,83,0,83,0,83,0,83,83,10/16/19 12:32,The main experiment item,yes,SternbergTask.osexp,C:/Users/Carolyn/Desktop,no,mono,no,18,no,white,no,yes,768,legacy,71,11,C:/Users/Carolyn/Desktop/cp_subject-1.csv,legacy,8 9 6 1,Kafkaesque Koffka,3.2.8,2,y,0,left,left,left,NA,left,921,5659,3975,NA,921,2,legacy,4,1024,2,48000,-16,experiment,1,odd,9,556453,105868,557631,559838,434619,6288,101892,558635,11948,561841,NA,557627,6279,561842,562765,Sternberg Task,74,83156,84,yes,1024
88.23529412,88.23529412,984.8470588,984.8470588,black,experiment,legacy,legacy,legacy,0,uniform,1,undefined,1,left,84,0,84,84,84,0,0,84,0,84,0,84,0,84,84,10/16/19 12:32,The main experiment item,yes,SternbergTask.osexp,C:/Users/Carolyn/Desktop,no,mono,no,18,no,white,no,yes,768,legacy,72,11,C:/Users/Carolyn/Desktop/cp_subject-1.csv,legacy,4,Kafkaesque Koffka,3.2.8,1,y,0,left,left,left,NA,left,556,5659,3975,NA,556,2,legacy,1,1024,2,48000,-16,experiment,1,odd,4,562786,105868,563964,566171,434619,6288,101892,564967,11948,568175,NA,563960,6279,568175,568733,Sternberg Task,75,83712,85,yes,1024
88.37209302,88.37209302,983.1860465,983.1860465,black,experiment,legacy,legacy,legacy,0,uniform,1,undefined,1,right,85,0,85,85,85,0,0,85,0,85,0,85,0,85,85,10/16/19 12:32,The main experiment item,yes,SternbergTask.osexp,C:/Users/Carolyn/Desktop,no,mono,no,18,no,white,no,yes,768,legacy,73,11,C:/Users/Carolyn/Desktop/cp_subject-1.csv,legacy,9 8 2 7 4,Kafkaesque Koffka,3.2.8,0,n,0,right,left,left,NA,right,842,5659,3975,NA,842,2,legacy,5,1024,2,48000,-16,experiment,1,odd,5,568769,105868,569950,572157,434619,6288,101892,570953,11948,574160,NA,569946,6279,574161,575005,Sternberg Task,76,84554,86,yes,1024
88.50574713,88.50574713,981.2183908,981.2183908,black,experiment,legacy,legacy,legacy,0,uniform,1,undefined,1,right,86,0,86,86,86,0,0,86,0,86,0,86,0,86,86,10/16/19 12:32,The main experiment item,yes,SternbergTask.osexp,C:/Users/Carolyn/Desktop,no,mono,no,18,no,white,no,yes,768,legacy,74,11,C:/Users/Carolyn/Desktop/cp_subject-1.csv,legacy,6 8,Kafkaesque Koffka,3.2.8,0,n,0,right,left,left,NA,right,812,5659,3975,NA,812,2,legacy,2,1024,2,48000,-16,experiment,1,odd,9,575028,105868,576205,578412,434619,6288,101892,577208,11948,580415,NA,576201,6279,580415,581229,Sternberg Task,77,85366,87,yes,1024
87.5,87.5,981.7159091,981.7159091,black,experiment,legacy,legacy,legacy,0,uniform,0,undefined,0,right,87,0,87,87,87,0,0,87,0,87,0,87,0,87,87,10/16/19 12:32,The main experiment item,yes,SternbergTask.osexp,C:/Users/Carolyn/Desktop,no,mono,no,18,no,white,no,yes,768,legacy,75,11,C:/Users/Carolyn/Desktop/cp_subject-1.csv,legacy,6 8 4,Kafkaesque Koffka,3.2.8,0,n,0,left,left,left,NA,left,1025,5659,3975,NA,1025,2,legacy,3,1024,2,48000,-16,experiment,1,odd,1,581253,105868,582432,584639,434619,6288,101892,583435,11948,586642,NA,582427,6279,586642,587669,Sternberg Task,77,86391,88,yes,1024
87.64044944,87.64044944,979.2247191,979.2247191,black,experiment,legacy,legacy,legacy,0,uniform,1,undefined,1,left,88,0,88,88,88,0,0,88,0,88,0,88,0,88,88,10/16/19 12:32,The main experiment item,yes,SternbergTask.osexp,C:/Users/Carolyn/Desktop,no,mono,no,18,no,white,no,yes,768,legacy,76,11,C:/Users/Carolyn/Desktop/cp_subject-1.csv,legacy,8 9 5 6 7,Kafkaesque Koffka,3.2.8,1,y,0,left,left,left,NA,left,760,5659,3975,NA,760,2,legacy,5,1024,2,48000,-16,experiment,1,odd,8,581253,105868,588873,591080,587694,6288,101892,589876,11948,593083,NA,588868,6279,593083,593845,Sternberg Task,78,87151,89,yes,1024
87.77777778,87.77777778,977.2333333,977.2333333,black,experiment,legacy,legacy,legacy,0,uniform,1,undefined,1,right,89,0,89,89,89,0,0,89,0,89,0,89,0,89,89,10/16/19 12:32,The main experiment item,yes,SternbergTask.osexp,C:/Users/Carolyn/Desktop,no,mono,no,18,no,white,no,yes,768,legacy,77,11,C:/Users/Carolyn/Desktop/cp_subject-1.csv,legacy,1 5 3 2 8,Kafkaesque Koffka,3.2.8,0,n,0,right,left,left,NA,right,800,5659,3975,NA,800,2,legacy,5,1024,2,48000,-16,experiment,1,odd,4,593869,105868,595048,597255,587694,6288,101892,596052,11948,599258,NA,595044,6279,599259,600061,Sternberg Task,79,87951,90,yes,1024
86.81318681,86.81318681,976.0879121,976.0879121,black,experiment,legacy,legacy,legacy,0,uniform,0,undefined,0,left,90,0,90,90,90,0,0,90,0,90,0,90,0,90,90,10/16/19 12:32,The main experiment item,yes,SternbergTask.osexp,C:/Users/Carolyn/Desktop,no,mono,no,18,no,white,no,yes,768,legacy,78,11,C:/Users/Carolyn/Desktop/cp_subject-1.csv,legacy,5 7 3 6 2,Kafkaesque Koffka,3.2.8,5,y,0,right,left,left,NA,right,873,5659,3975,NA,873,2,legacy,5,1024,2,48000,-16,experiment,1,odd,2,600085,105868,601262,603470,587694,6288,101892,602266,11948,605473,NA,601258,6279,605474,606349,Sternberg Task,79,88824,91,yes,1024
86.95652174,86.95652174,976.5652174,976.5652174,black,experiment,legacy,legacy,legacy,0,uniform,1,undefined,1,right,91,0,91,91,91,0,0,91,0,91,0,91,0,91,91,10/16/19 12:32,The main experiment item,yes,SternbergTask.osexp,C:/Users/Carolyn/Desktop,no,mono,no,18,no,white,no,yes,768,legacy,79,11,C:/Users/Carolyn/Desktop/cp_subject-1.csv,legacy,8 6 3 4 7,Kafkaesque Koffka,3.2.8,0,n,0,right,left,left,NA,right,1020,5659,3975,NA,1020,2,legacy,5,1024,2,48000,-16,experiment,1,odd,1,600085,105868,607573,609779,606394,6288,101892,608576,11948,611783,NA,607569,6279,611783,612805,Sternberg Task,80,89844,92,yes,1024
87.09677419,87.09677419,973.1290323,973.1290323,black,experiment,legacy,legacy,legacy,0,uniform,1,undefined,1,left,92,0,92,92,92,0,0,92,0,92,0,92,0,92,92,10/16/19 12:32,The main experiment item,yes,SternbergTask.osexp,C:/Users/Carolyn/Desktop,no,mono,no,18,no,white,no,yes,768,legacy,80,11,C:/Users/Carolyn/Desktop/cp_subject-1.csv,legacy,9 5 8 1,Kafkaesque Koffka,3.2.8,2,y,0,left,left,left,NA,left,657,5659,3975,NA,657,2,legacy,4,1024,2,48000,-16,experiment,1,odd,5,612835,105868,614015,616222,606394,6288,101892,615018,11948,618226,NA,614011,6279,618226,618886,Sternberg Task,81,90501,93,yes,1024
87.23404255,87.23404255,971.4148936,971.4148936,black,experiment,legacy,legacy,legacy,0,uniform,1,undefined,1,left,93,0,93,93,93,0,0,93,0,93,0,93,0,93,93,10/16/19 12:32,The main experiment item,yes,SternbergTask.osexp,C:/Users/Carolyn/Desktop,no,mono,no,18,no,white,no,yes,768,legacy,81,11,C:/Users/Carolyn/Desktop/cp_subject-1.csv,legacy,7 8 4 6 9 5,Kafkaesque Koffka,3.2.8,4,y,0,left,left,left,NA,left,812,5659,3975,NA,812,2,legacy,6,1024,2,48000,-16,experiment,1,odd,6,618927,105868,620108,622314,606394,6288,101892,621111,11948,624318,NA,620103,6279,624319,625133,Sternberg Task,82,91313,94,yes,1024
87.36842105,87.36842105,976.4947368,976.4947368,black,experiment,legacy,legacy,legacy,0,uniform,1,undefined,1,left,94,0,94,94,94,0,0,94,0,94,0,94,0,94,94,10/16/19 12:32,The main experiment item,yes,SternbergTask.osexp,C:/Users/Carolyn/Desktop,no,mono,no,18,no,white,no,yes,768,legacy,82,11,C:/Users/Carolyn/Desktop/cp_subject-1.csv,legacy,7 8 6 3 1,Kafkaesque Koffka,3.2.8,5,y,0,left,left,left,NA,left,1454,5659,3975,NA,1454,2,legacy,5,1024,2,48000,-16,experiment,1,odd,1,625169,105868,626347,628554,606394,6288,101892,627350,11948,630557,NA,626343,6279,630557,632013,Sternberg Task,83,92767,95,yes,1024
87.5,87.5,974.5208333,974.5208333,black,experiment,legacy,legacy,legacy,0,uniform,1,undefined,1,left,95,0,95,95,95,0,0,95,0,95,0,95,0,95,95,10/16/19 12:32,The main experiment item,yes,SternbergTask.osexp,C:/Users/Carolyn/Desktop,no,mono,no,18,no,white,no,yes,768,legacy,83,11,C:/Users/Carolyn/Desktop/cp_subject-1.csv,legacy,9 8 4,Kafkaesque Koffka,3.2.8,1,y,0,left,left,left,NA,left,787,5659,3975,NA,787,2,legacy,3,1024,2,48000,-16,experiment,1,odd,9,632052,105868,633228,635436,606394,6288,101892,634233,11948,637439,NA,633224,6279,637440,638229,Sternberg Task,84,93554,96,yes,1024
87.62886598,87.62886598,976.6804124,976.6804124,black,experiment,legacy,legacy,legacy,0,uniform,1,undefined,1,right,96,0,96,96,96,0,0,96,0,96,0,96,0,96,96,10/16/19 12:32,The main experiment item,yes,SternbergTask.osexp,C:/Users/Carolyn/Desktop,no,mono,no,18,no,white,no,yes,768,legacy,84,11,C:/Users/Carolyn/Desktop/cp_subject-1.csv,legacy,7 6 4 8 1 2,Kafkaesque Koffka,3.2.8,0,n,0,right,left,left,NA,right,1184,5659,3975,NA,1184,2,legacy,6,1024,2,48000,-16,experiment,1,odd,9,638252,105868,639432,641639,606394,6288,101892,640435,11948,643642,NA,639428,6279,643643,644829,Sternberg Task,85,94738,97,yes,1024
87.75510204,87.75510204,973.377551,973.377551,black,experiment,legacy,legacy,legacy,0,uniform,1,undefined,1,left,97,0,97,97,97,0,0,97,0,97,0,97,0,97,97,10/16/19 12:32,The main experiment item,yes,SternbergTask.osexp,C:/Users/Carolyn/Desktop,no,mono,no,18,no,white,no,yes,768,legacy,85,11,C:/Users/Carolyn/Desktop/cp_subject-1.csv,legacy,2 3,Kafkaesque Koffka,3.2.8,1,y,0,left,left,left,NA,left,653,5659,3975,NA,653,2,legacy,2,1024,2,48000,-16,experiment,1,odd,2,644860,105868,646035,648242,606394,6288,101892,647039,11948,650246,NA,646031,6279,650246,650901,Sternberg Task,86,95391,98,yes,1024
86.86868687,86.86868687,983.7474747,983.7474747,black,experiment,legacy,legacy,legacy,0,uniform,0,undefined,0,left,98,0,98,98,98,0,0,98,0,98,0,98,0,98,98,10/16/19 12:32,The main experiment item,yes,SternbergTask.osexp,C:/Users/Carolyn/Desktop,no,mono,no,18,no,white,no,yes,768,legacy,86,11,C:/Users/Carolyn/Desktop/cp_subject-1.csv,legacy,9 1 6 7 8,Kafkaesque Koffka,3.2.8,1,y,0,None,left,left,NA,None,2000,5659,3975,NA,2000,2,legacy,5,1024,2,48000,-16,experiment,1,odd,9,650943,105868,652119,654325,606394,6288,101892,653122,11948,656329,NA,652115,6279,656330,658332,Sternberg Task,86,97391,99,yes,1024
87,87,981.84,981.84,black,experiment,legacy,legacy,legacy,0,uniform,1,undefined,1,left,99,0,99,99,99,0,0,99,0,99,0,99,0,99,99,10/16/19 12:32,The main experiment item,yes,SternbergTask.osexp,C:/Users/Carolyn/Desktop,no,mono,no,18,no,white,no,yes,768,legacy,87,11,C:/Users/Carolyn/Desktop/cp_subject-1.csv,legacy,6 1 2,Kafkaesque Koffka,3.2.8,3,y,0,left,left,left,NA,left,793,5659,3975,NA,793,2,legacy,3,1024,2,48000,-16,experiment,1,odd,2,650943,105868,659536,661743,658360,6288,101892,660539,11948,663746,NA,659532,6279,663746,664541,Sternberg Task,87,98184,100,yes,1024
87.12871287,87.12871287,979.6138614,979.6138614,black,experiment,legacy,legacy,legacy,0,uniform,1,undefined,1,right,100,0,100,100,100,0,0,100,0,100,0,100,0,100,100,10/16/19 12:32,The main experiment item,yes,SternbergTask.osexp,C:/Users/Carolyn/Desktop,no,mono,no,18,no,white,no,yes,768,legacy,88,11,C:/Users/Carolyn/Desktop/cp_subject-1.csv,legacy,7 1 5 6 3,Kafkaesque Koffka,3.2.8,0,n,0,right,left,left,NA,right,757,5659,3975,NA,757,2,legacy,5,1024,2,48000,-16,experiment,1,odd,8,664568,105868,665746,667953,658360,6288,101892,666749,11948,669957,NA,665742,6279,669958,670717,Sternberg Task,88,98941,101,yes,1024
87.25490196,87.25490196,982.8137255,982.8137255,black,experiment,legacy,legacy,legacy,0,uniform,1,undefined,1,right,101,0,101,101,101,0,0,101,0,101,0,101,0,101,101,10/16/19 12:32,The main experiment item,yes,SternbergTask.osexp,C:/Users/Carolyn/Desktop,no,mono,no,18,no,white,no,yes,768,legacy,89,11,C:/Users/Carolyn/Desktop/cp_subject-1.csv,legacy,9 5 3 2 8 6,Kafkaesque Koffka,3.2.8,0,n,0,right,left,left,NA,right,1306,5659,3975,NA,1306,2,legacy,6,1024,2,48000,-16,experiment,1,odd,7,670751,105868,671927,674133,658360,6288,101892,672930,11948,676136,NA,671923,6279,676137,677445,Sternberg Task,89,100247,102,yes,1024
87.37864078,87.37864078,981.6019417,981.6019417,black,experiment,legacy,legacy,legacy,0,uniform,1,undefined,1,right,102,0,102,102,102,0,0,102,0,102,0,102,0,102,102,10/16/19 12:32,The main experiment item,yes,SternbergTask.osexp,C:/Users/Carolyn/Desktop,no,mono,no,18,no,white,no,yes,768,legacy,90,11,C:/Users/Carolyn/Desktop/cp_subject-1.csv,legacy,4 2 6 9,Kafkaesque Koffka,3.2.8,0,n,0,right,left,left,NA,right,858,5659,3975,NA,858,2,legacy,4,1024,2,48000,-16,experiment,1,odd,7,677477,105868,678655,680861,658360,6288,101892,679658,11948,682865,NA,678651,6279,682865,683725,Sternberg Task,90,101105,103,yes,1024
87.5,87.5,982.5096154,982.5096154,black,experiment,legacy,legacy,legacy,0,uniform,1,undefined,1,left,103,0,103,103,103,0,0,103,0,103,0,103,0,103,103,10/16/19 12:32,The main experiment item,yes,SternbergTask.osexp,C:/Users/Carolyn/Desktop,no,mono,no,18,no,white,no,yes,768,legacy,91,11,C:/Users/Carolyn/Desktop/cp_subject-1.csv,legacy,8 3,Kafkaesque Koffka,3.2.8,2,y,0,left,left,left,NA,left,1076,5659,3975,NA,1076,2,legacy,2,1024,2,48000,-16,experiment,1,odd,3,683743,105868,684925,687132,658360,6288,101892,685928,11948,689135,NA,684921,6279,689135,690213,Sternberg Task,91,102181,104,yes,1024
87.61904762,87.61904762,981.6666667,981.6666667,black,experiment,legacy,legacy,legacy,0,uniform,1,undefined,1,left,104,0,104,104,104,0,0,104,0,104,0,104,0,104,104,10/16/19 12:32,The main experiment item,yes,SternbergTask.osexp,C:/Users/Carolyn/Desktop,no,mono,no,18,no,white,no,yes,768,legacy,92,11,C:/Users/Carolyn/Desktop/cp_subject-1.csv,legacy,2 4 6 9,Kafkaesque Koffka,3.2.8,3,y,0,left,left,left,NA,left,894,5659,3975,NA,894,2,legacy,4,1024,2,48000,-16,experiment,1,odd,6,690243,105868,691420,693626,658360,6288,101892,692423,11948,695629,NA,691416,6279,695629,696525,Sternberg Task,92,103075,105,yes,1024
87.73584906,87.73584906,978.1981132,978.1981132,black,experiment,legacy,legacy,legacy,0,uniform,1,undefined,1,left,105,0,105,105,105,0,0,105,0,105,0,105,0,105,105,10/16/19 12:32,The main experiment item,yes,SternbergTask.osexp,C:/Users/Carolyn/Desktop,no,mono,no,18,no,white,no,yes,768,legacy,93,11,C:/Users/Carolyn/Desktop/cp_subject-1.csv,legacy,6 5,Kafkaesque Koffka,3.2.8,2,y,0,left,left,left,NA,left,614,5659,3975,NA,614,2,legacy,2,1024,2,48000,-16,experiment,1,odd,5,696559,105868,697740,699946,658360,6288,101892,698743,11948,701949,NA,697736,6279,701949,702565,Sternberg Task,93,103689,106,yes,1024
87.85046729,87.85046729,975.7009346,975.7009346,black,experiment,legacy,legacy,legacy,0,uniform,1,undefined,1,left,106,0,106,106,106,0,0,106,0,106,0,106,0,106,106,10/16/19 12:32,The main experiment item,yes,SternbergTask.osexp,C:/Users/Carolyn/Desktop,no,mono,no,18,no,white,no,yes,768,legacy,94,11,C:/Users/Carolyn/Desktop/cp_subject-1.csv,legacy,2 3 7 4,Kafkaesque Koffka,3.2.8,1,y,0,left,left,left,NA,left,711,5659,3975,NA,711,2,legacy,4,1024,2,48000,-16,experiment,1,odd,2,702593,105868,703769,705976,658360,6288,101892,704773,11948,707979,NA,703765,6279,707980,708693,Sternberg Task,94,104400,107,yes,1024
87.96296296,87.96296296,974.6759259,974.6759259,black,experiment,legacy,legacy,legacy,0,uniform,1,undefined,1,left,107,0,107,107,107,0,0,107,0,107,0,107,0,107,107,10/16/19 12:32,The main experiment item,yes,SternbergTask.osexp,C:/Users/Carolyn/Desktop,no,mono,no,18,no,white,no,yes,768,legacy,95,11,C:/Users/Carolyn/Desktop/cp_subject-1.csv,legacy,9 3 8 2 1 4,Kafkaesque Koffka,3.2.8,3,y,0,left,left,left,NA,left,865,5659,3975,NA,865,2,legacy,6,1024,2,48000,-16,experiment,1,odd,8,708717,105868,709897,712103,658360,6288,101892,710900,11948,714106,NA,709893,6279,714106,714973,Sternberg Task,95,105265,108,yes,1024
87.1559633,87.1559633,973.8256881,973.8256881,black,experiment,legacy,legacy,legacy,0,uniform,0,undefined,0,right,108,0,108,108,108,0,0,108,0,108,0,108,0,108,108,10/16/19 12:32,The main experiment item,yes,SternbergTask.osexp,C:/Users/Carolyn/Desktop,no,mono,no,18,no,white,no,yes,768,legacy,96,11,C:/Users/Carolyn/Desktop/cp_subject-1.csv,legacy,7 1 8 4 9 3,Kafkaesque Koffka,3.2.8,0,n,0,left,left,left,NA,left,882,5659,3975,NA,882,2,legacy,6,1024,2,48000,-16,experiment,1,odd,6,715001,105868,716184,718390,658360,6288,101892,717187,11948,720393,NA,716179,6279,720393,721277,Sternberg Task,95,106147,109,yes,1024
87.27272727,87.27272727,972.7,972.7,black,experiment,legacy,legacy,legacy,0,uniform,1,undefined,1,right,109,0,109,109,109,0,0,109,0,109,0,109,0,109,109,10/16/19 12:32,The main experiment item,yes,SternbergTask.osexp,C:/Users/Carolyn/Desktop,no,mono,no,18,no,white,no,yes,768,legacy,97,11,C:/Users/Carolyn/Desktop/cp_subject-1.csv,legacy,8 2 1 4 5 9,Kafkaesque Koffka,3.2.8,0,n,0,right,left,left,NA,right,850,5659,3975,NA,850,2,legacy,6,1024,2,48000,-16,experiment,1,odd,7,715001,105868,722479,724685,721301,6288,101892,723482,11948,726688,NA,722475,6279,726689,727541,Sternberg Task,96,106997,110,yes,1024
87.38738739,87.38738739,975.4774775,975.4774775,black,experiment,legacy,legacy,legacy,0,uniform,1,undefined,1,right,110,0,110,110,110,0,0,110,0,110,0,110,0,110,110,10/16/19 12:32,The main experiment item,yes,SternbergTask.osexp,C:/Users/Carolyn/Desktop,no,mono,no,18,no,white,no,yes,768,legacy,98,11,C:/Users/Carolyn/Desktop/cp_subject-1.csv,legacy,8 5 4 2 9 6,Kafkaesque Koffka,3.2.8,0,n,0,right,left,left,NA,right,1281,5659,3975,NA,1281,2,legacy,6,1024,2,48000,-16,experiment,1,odd,3,727576,105868,728753,730959,721301,6288,101892,729756,11948,732962,NA,728749,6279,732962,734245,Sternberg Task,97,108278,111,yes,1024
87.5,87.5,975.1696429,975.1696429,black,experiment,legacy,legacy,legacy,0,uniform,1,undefined,1,left,111,0,111,111,111,0,0,111,0,111,0,111,0,111,111,10/16/19 12:32,The main experiment item,yes,SternbergTask.osexp,C:/Users/Carolyn/Desktop,no,mono,no,18,no,white,no,yes,768,legacy,99,11,C:/Users/Carolyn/Desktop/cp_subject-1.csv,legacy,7 6,Kafkaesque Koffka,3.2.8,2,y,0,left,left,left,NA,left,941,5659,3975,NA,941,2,legacy,2,1024,2,48000,-16,experiment,1,odd,6,734284,105868,735458,737665,721301,6288,101892,736462,11948,739668,NA,735454,6279,739669,740613,Sternberg Task,98,109219,112,yes,1024
87.61061947,87.61061947,974.8495575,974.8495575,black,experiment,legacy,legacy,legacy,0,uniform,1,undefined,1,right,112,0,112,112,112,0,0,112,0,112,0,112,0,112,112,10/16/19 12:32,The main experiment item,yes,SternbergTask.osexp,C:/Users/Carolyn/Desktop,no,mono,no,18,no,white,no,yes,768,legacy,100,11,C:/Users/Carolyn/Desktop/cp_subject-1.csv,legacy,1 6 4,Kafkaesque Koffka,3.2.8,0,n,0,right,left,left,NA,right,939,5659,3975,NA,939,2,legacy,3,1024,2,48000,-16,experiment,1,odd,7,740642,105868,741820,744027,721301,6288,101892,742823,11948,746030,NA,741816,6279,746031,746973,Sternberg Task,99,110158,113,yes,1024
87.71929825,87.71929825,972.2368421,972.2368421,black,experiment,legacy,legacy,legacy,0,uniform,1,undefined,1,left,113,0,113,113,113,0,0,113,0,113,0,113,0,113,113,10/16/19 12:32,The main experiment item,yes,SternbergTask.osexp,C:/Users/Carolyn/Desktop,no,mono,no,18,no,white,no,yes,768,legacy,101,11,C:/Users/Carolyn/Desktop/cp_subject-1.csv,legacy,6 9 3 1,Kafkaesque Koffka,3.2.8,4,y,0,left,left,left,NA,left,677,5659,3975,NA,677,2,legacy,4,1024,2,48000,-16,experiment,1,odd,1,747001,105868,748179,750385,721301,6288,101892,749182,11948,752388,NA,748175,6279,752389,753069,Sternberg Task,100,110835,114,yes,1024
87.82608696,87.82608696,972.6173913,972.6173913,black,experiment,legacy,legacy,legacy,0,uniform,1,undefined,1,right,114,0,114,114,114,0,0,114,0,114,0,114,0,114,114,10/16/19 12:32,The main experiment item,yes,SternbergTask.osexp,C:/Users/Carolyn/Desktop,no,mono,no,18,no,white,no,yes,768,legacy,102,11,C:/Users/Carolyn/Desktop/cp_subject-1.csv,legacy,6 9 4 5 2,Kafkaesque Koffka,3.2.8,0,n,0,right,left,left,NA,right,1016,5659,3975,NA,1016,2,legacy,5,1024,2,48000,-16,experiment,1,odd,1,753101,105868,754280,756486,721301,6288,101892,755283,11948,758489,NA,754276,6279,758490,759509,Sternberg Task,101,111851,115,yes,1024
87.93103448,87.93103448,971.1982759,971.1982759,black,experiment,legacy,legacy,legacy,0,uniform,1,undefined,1,left,115,0,115,115,115,0,0,115,0,115,0,115,0,115,115,10/16/19 12:32,The main experiment item,yes,SternbergTask.osexp,C:/Users/Carolyn/Desktop,no,mono,no,18,no,white,no,yes,768,legacy,103,11,C:/Users/Carolyn/Desktop/cp_subject-1.csv,legacy,9 6 2 4 1,Kafkaesque Koffka,3.2.8,4,y,0,left,left,left,NA,left,808,5659,3975,NA,808,2,legacy,5,1024,2,48000,-16,experiment,1,odd,4,759534,105868,760711,762918,721301,6288,101892,761715,11948,764921,NA,760707,6279,764922,765733,Sternberg Task,102,112659,116,yes,1024
88.03418803,88.03418803,969.4017094,969.4017094,black,experiment,legacy,legacy,legacy,0,uniform,1,undefined,1,left,116,0,116,116,116,0,0,116,0,116,0,116,0,116,116,10/16/19 12:32,The main experiment item,yes,SternbergTask.osexp,C:/Users/Carolyn/Desktop,no,mono,no,18,no,white,no,yes,768,legacy,104,11,C:/Users/Carolyn/Desktop/cp_subject-1.csv,legacy,9 3 1 2 5,Kafkaesque Koffka,3.2.8,4,y,0,left,left,left,NA,left,761,5659,3975,NA,761,2,legacy,5,1024,2,48000,-16,experiment,1,odd,2,765758,105868,766936,769142,721301,6288,101892,767939,11948,771145,NA,766932,6279,771145,771909,Sternberg Task,103,113420,117,yes,1024
88.13559322,88.13559322,967,967,black,experiment,legacy,legacy,legacy,0,uniform,1,undefined,1,left,117,0,117,117,117,0,0,117,0,117,0,117,0,117,117,10/16/19 12:32,The main experiment item,yes,SternbergTask.osexp,C:/Users/Carolyn/Desktop,no,mono,no,18,no,white,no,yes,768,legacy,105,11,C:/Users/Carolyn/Desktop/cp_subject-1.csv,legacy,4 6 2 5 1,Kafkaesque Koffka,3.2.8,5,y,0,left,left,left,NA,left,686,5659,3975,NA,686,2,legacy,5,1024,2,48000,-16,experiment,1,odd,1,771934,105868,773114,775320,721301,6288,101892,774117,11948,777323,NA,773110,6279,777324,778013,Sternberg Task,104,114106,118,yes,1024
88.23529412,88.23529412,966.5378151,966.5378151,black,experiment,legacy,legacy,legacy,0,uniform,1,undefined,1,left,118,0,118,118,118,0,0,118,0,118,0,118,0,118,118,10/16/19 12:32,The main experiment item,yes,SternbergTask.osexp,C:/Users/Carolyn/Desktop,no,mono,no,18,no,white,no,yes,768,legacy,106,11,C:/Users/Carolyn/Desktop/cp_subject-1.csv,legacy,5 2 9 6 1 7,Kafkaesque Koffka,3.2.8,3,y,0,left,left,left,NA,left,912,5659,3975,NA,912,2,legacy,6,1024,2,48000,-16,experiment,1,odd,9,778042,105868,779218,781424,721301,6288,101892,780221,11948,783427,NA,779214,6279,783427,784341,Sternberg Task,105,115018,119,yes,1024
88.33333333,88.33333333,967.15,967.15,black,experiment,legacy,legacy,legacy,0,uniform,1,undefined,1,left,119,0,119,119,119,0,0,119,0,119,0,119,0,119,119,10/16/19 12:32,The main experiment item,yes,SternbergTask.osexp,C:/Users/Carolyn/Desktop,no,mono,no,18,no,white,no,yes,768,legacy,107,11,C:/Users/Carolyn/Desktop/cp_subject-1.csv,legacy,2 4 8 5 1 3,Kafkaesque Koffka,3.2.8,1,y,0,left,left,left,NA,left,1040,5659,3975,NA,1040,2,legacy,6,1024,2,48000,-16,experiment,1,odd,2,784367,105868,785544,787751,721301,6288,101892,786547,11948,789754,NA,785540,6279,789754,790797,Sternberg Task,106,116058,120,yes,1024
87.60330579,87.60330579,968.214876,968.214876,black,experiment,legacy,legacy,legacy,0,uniform,0,undefined,0,left,120,0,120,120,120,0,0,120,0,120,0,120,0,120,120,10/16/19 12:32,The main experiment item,yes,SternbergTask.osexp,C:/Users/Carolyn/Desktop,no,mono,no,18,no,white,no,yes,768,legacy,108,11,C:/Users/Carolyn/Desktop/cp_subject-1.csv,legacy,6 7 8 5,Kafkaesque Koffka,3.2.8,3,y,0,right,left,left,NA,right,1096,5659,3975,NA,1096,2,legacy,4,1024,2,48000,-16,experiment,1,odd,8,790825,105868,792001,794207,721301,6288,101892,793004,11948,796210,NA,791997,6279,796210,797309,Sternberg Task,106,117154,121,yes,1024
86.8852459,86.8852459,968.1557377,968.1557377,black,experiment,legacy,legacy,legacy,0,uniform,0,undefined,0,left,121,0,121,121,121,0,0,121,0,121,0,121,0,121,121,10/16/19 12:32,The main experiment item,yes,SternbergTask.osexp,C:/Users/Carolyn/Desktop,no,mono,no,18,no,white,no,yes,768,legacy,109,11,C:/Users/Carolyn/Desktop/cp_subject-1.csv,legacy,6 7 9 3 1 2,Kafkaesque Koffka,3.2.8,1,y,0,right,left,left,NA,right,961,5659,3975,NA,961,2,legacy,6,1024,2,48000,-16,experiment,1,odd,6,790825,105868,798527,800733,797350,6288,101892,799530,11948,802736,NA,798523,6279,802737,803701,Sternberg Task,106,118115,122,yes,1024
86.99186992,86.99186992,969.5853659,969.5853659,black,experiment,legacy,legacy,legacy,0,uniform,1,undefined,1,right,122,0,122,122,122,0,0,122,0,122,0,122,0,122,122,10/16/19 12:32,The main experiment item,yes,SternbergTask.osexp,C:/Users/Carolyn/Desktop,no,mono,no,18,no,white,no,yes,768,legacy,110,11,C:/Users/Carolyn/Desktop/cp_subject-1.csv,legacy,5 9 2 3,Kafkaesque Koffka,3.2.8,0,n,0,right,left,left,NA,right,1144,5659,3975,NA,1144,2,legacy,4,1024,2,48000,-16,experiment,1,odd,8,790825,105868,804902,807109,803725,6288,101892,805905,11948,809113,NA,804898,6279,809114,810261,Sternberg Task,107,119259,123,yes,1024
87.09677419,87.09677419,969.9677419,969.9677419,black,experiment,legacy,legacy,legacy,0,uniform,1,undefined,1,right,123,0,123,123,123,0,0,123,0,123,0,123,0,123,123,10/16/19 12:32,The main experiment item,yes,SternbergTask.osexp,C:/Users/Carolyn/Desktop,no,mono,no,18,no,white,no,yes,768,legacy,111,11,C:/Users/Carolyn/Desktop/cp_subject-1.csv,legacy,8 5 7 3 6,Kafkaesque Koffka,3.2.8,0,n,0,right,left,left,NA,right,1017,5659,3975,NA,1017,2,legacy,5,1024,2,48000,-16,experiment,1,odd,9,810291,105868,811470,813677,803725,6288,101892,812473,11948,815680,NA,811466,6279,815681,816701,Sternberg Task,108,120276,124,yes,1024
87.2,87.2,970.312,970.312,black,experiment,legacy,legacy,legacy,0,uniform,1,undefined,1,right,124,0,124,124,124,0,0,124,0,124,0,124,0,124,124,10/16/19 12:32,The main experiment item,yes,SternbergTask.osexp,C:/Users/Carolyn/Desktop,no,mono,no,18,no,white,no,yes,768,legacy,112,11,C:/Users/Carolyn/Desktop/cp_subject-1.csv,legacy,3 9 1,Kafkaesque Koffka,3.2.8,0,n,0,right,left,left,NA,right,1013,5659,3975,NA,1013,2,legacy,3,1024,2,48000,-16,experiment,1,odd,7,816733,105868,817912,820120,803725,6288,101892,818916,11948,822124,NA,817908,6279,822125,823141,Sternberg Task,109,121289,125,yes,1024
87.3015873,87.3015873,973.2539683,973.2539683,black,experiment,legacy,legacy,legacy,0,uniform,1,undefined,1,left,125,0,125,125,125,0,0,125,0,125,0,125,0,125,125,10/16/19 12:32,The main experiment item,yes,SternbergTask.osexp,C:/Users/Carolyn/Desktop,no,mono,no,18,no,white,no,yes,768,legacy,113,11,C:/Users/Carolyn/Desktop/cp_subject-1.csv,legacy,2 5 4 8 7,Kafkaesque Koffka,3.2.8,3,y,0,left,left,left,NA,left,1341,5659,3975,NA,1341,2,legacy,5,1024,2,48000,-16,experiment,1,odd,4,823166,105868,824345,826552,803725,6288,101892,825348,11948,828556,NA,824341,6279,828557,829901,Sternberg Task,110,122630,126,yes,1024
87.4015748,87.4015748,973.015748,973.015748,black,experiment,legacy,legacy,legacy,0,uniform,1,undefined,1,right,126,0,126,126,126,0,0,126,0,126,0,126,0,126,126,10/16/19 12:32,The main experiment item,yes,SternbergTask.osexp,C:/Users/Carolyn/Desktop,no,mono,no,18,no,white,no,yes,768,legacy,114,11,C:/Users/Carolyn/Desktop/cp_subject-1.csv,legacy,2 6 4 3 9,Kafkaesque Koffka,3.2.8,0,n,0,right,left,left,NA,right,943,5659,3975,NA,943,2,legacy,5,1024,2,48000,-16,experiment,1,odd,1,829933,105868,831113,833319,803725,6288,101892,832116,11948,835323,NA,831109,6279,835323,836269,Sternberg Task,111,123573,127,yes,1024
87.5,87.5,980.34375,980.34375,black,experiment,legacy,legacy,legacy,0,uniform,1,undefined,1,left,127,0,127,127,127,0,0,127,0,127,0,127,0,127,127,10/16/19 12:32,The main experiment item,yes,SternbergTask.osexp,C:/Users/Carolyn/Desktop,no,mono,no,18,no,white,no,yes,768,legacy,115,11,C:/Users/Carolyn/Desktop/cp_subject-1.csv,legacy,2 8 5 1,Kafkaesque Koffka,3.2.8,4,y,0,left,left,left,NA,left,1911,5659,3975,NA,1911,2,legacy,4,1024,2,48000,-16,experiment,1,odd,1,836300,105868,837480,839687,803725,6288,101892,838483,11948,841690,NA,837476,6279,841691,843605,Sternberg Task,112,125484,128,yes,1024
87.59689922,87.59689922,978.9379845,978.9379845,black,experiment,legacy,legacy,legacy,0,uniform,1,undefined,1,right,128,0,128,128,128,0,0,128,0,128,0,128,0,128,128,10/16/19 12:32,The main experiment item,yes,SternbergTask.osexp,C:/Users/Carolyn/Desktop,no,mono,no,18,no,white,no,yes,768,legacy,116,11,C:/Users/Carolyn/Desktop/cp_subject-1.csv,legacy,3 4 2,Kafkaesque Koffka,3.2.8,0,n,0,right,left,left,NA,right,799,5659,3975,NA,799,2,legacy,3,1024,2,48000,-16,experiment,1,odd,5,843633,105868,844809,847016,803725,6288,101892,845812,11948,849019,NA,844805,6279,849019,849821,Sternberg Task,113,126283,129,yes,1024
87.69230769,87.69230769,977.6384615,977.6384615,black,experiment,legacy,legacy,legacy,0,uniform,1,undefined,1,right,129,0,129,129,129,0,0,129,0,129,0,129,0,129,129,10/16/19 12:32,The main experiment item,yes,SternbergTask.osexp,C:/Users/Carolyn/Desktop,no,mono,no,18,no,white,no,yes,768,legacy,117,11,C:/Users/Carolyn/Desktop/cp_subject-1.csv,legacy,6 2 9 3 8 4,Kafkaesque Koffka,3.2.8,0,n,0,right,left,left,NA,right,810,5659,3975,NA,810,2,legacy,6,1024,2,48000,-16,experiment,1,odd,1,849875,105868,851055,853261,803725,6288,101892,852058,11948,855264,NA,851051,6279,855264,856077,Sternberg Task,114,127093,130,yes,1024
87.78625954,87.78625954,976.4198473,976.4198473,black,experiment,legacy,legacy,legacy,0,uniform,1,undefined,1,right,130,0,130,130,130,0,0,130,0,130,0,130,0,130,130,10/16/19 12:32,The main experiment item,yes,SternbergTask.osexp,C:/Users/Carolyn/Desktop,no,mono,no,18,no,white,no,yes,768,legacy,118,11,C:/Users/Carolyn/Desktop/cp_subject-1.csv,legacy,5,Kafkaesque Koffka,3.2.8,0,n,0,right,left,left,NA,right,818,5659,3975,NA,818,2,legacy,1,1024,2,48000,-16,experiment,1,odd,8,856108,105868,857287,859494,803725,6288,101892,858290,11948,861497,NA,857283,6279,861497,862318,Sternberg Task,115,127911,131,yes,1024
87.87878788,87.87878788,975.2045455,975.2045455,black,experiment,legacy,legacy,legacy,0,uniform,1,undefined,1,left,131,0,131,131,131,0,0,131,0,131,0,131,0,131,131,10/16/19 12:32,The main experiment item,yes,SternbergTask.osexp,C:/Users/Carolyn/Desktop,no,mono,no,18,no,white,no,yes,768,legacy,119,11,C:/Users/Carolyn/Desktop/cp_subject-1.csv,legacy,3 2 1 4 7,Kafkaesque Koffka,3.2.8,2,y,0,left,left,left,NA,left,816,5659,3975,NA,816,2,legacy,5,1024,2,48000,-16,experiment,1,odd,2,862350,105868,863528,865735,803725,6288,101892,864531,11948,867738,NA,863524,6279,867739,868558,Sternberg Task,116,128727,132,yes,1024
87.96992481,87.96992481,973.2857143,973.2857143,black,experiment,legacy,legacy,legacy,0,uniform,1,undefined,1,left,132,0,132,132,132,0,0,132,0,132,0,132,0,132,132,10/16/19 12:32,The main experiment item,yes,SternbergTask.osexp,C:/Users/Carolyn/Desktop,no,mono,no,18,no,white,no,yes,768,legacy,120,11,C:/Users/Carolyn/Desktop/cp_subject-1.csv,legacy,4 1 8 7 5,Kafkaesque Koffka,3.2.8,3,y,0,left,left,left,NA,left,720,5659,3975,NA,720,2,legacy,5,1024,2,48000,-16,experiment,1,odd,8,868583,105868,869761,871967,803725,6288,101892,870764,11948,873971,NA,869757,6279,873971,874694,Sternberg Task,117,129447,133,yes,1024
88.05970149,88.05970149,971.9402985,971.9402985,black,experiment,legacy,legacy,legacy,0,uniform,1,undefined,1,left,133,0,133,133,133,0,0,133,0,133,0,133,0,133,133,10/16/19 12:32,The main experiment item,yes,SternbergTask.osexp,C:/Users/Carolyn/Desktop,no,mono,no,18,no,white,no,yes,768,legacy,121,11,C:/Users/Carolyn/Desktop/cp_subject-1.csv,legacy,4 6 5 8,Kafkaesque Koffka,3.2.8,1,y,0,left,left,left,NA,left,793,5659,3975,NA,793,2,legacy,4,1024,2,48000,-16,experiment,1,odd,4,874725,105868,875903,878110,803725,6288,101892,876907,11948,880114,NA,875900,6279,880114,880910,Sternberg Task,118,130240,134,yes,1024
88.14814815,88.14814815,974.5037037,974.5037037,black,experiment,legacy,legacy,legacy,0,uniform,1,undefined,1,left,134,0,134,134,134,0,0,134,0,134,0,134,0,134,134,10/16/19 12:32,The main experiment item,yes,SternbergTask.osexp,C:/Users/Carolyn/Desktop,no,mono,no,18,no,white,no,yes,768,legacy,122,11,C:/Users/Carolyn/Desktop/cp_subject-1.csv,legacy,6 9 7 4 5 1,Kafkaesque Koffka,3.2.8,2,y,0,left,left,left,NA,left,1318,5659,3975,NA,1318,2,legacy,6,1024,2,48000,-16,experiment,1,odd,9,880950,105868,882131,884338,803725,6288,101892,883134,11948,886341,NA,882127,6279,886341,887662,Sternberg Task,119,131558,135,yes,1024
87.5,87.5,974.0147059,974.0147059,black,experiment,legacy,legacy,legacy,0,uniform,0,undefined,0,right,135,0,135,135,135,0,0,135,0,135,0,135,0,135,135,10/16/19 12:32,The main experiment item,yes,SternbergTask.osexp,C:/Users/Carolyn/Desktop,no,mono,no,18,no,white,no,yes,768,legacy,123,11,C:/Users/Carolyn/Desktop/cp_subject-1.csv,legacy,6 9 5,Kafkaesque Koffka,3.2.8,0,n,0,left,left,left,NA,left,908,5659,3975,NA,908,2,legacy,3,1024,2,48000,-16,experiment,1,odd,8,887691,105868,888869,891076,803725,6288,101892,889872,11948,893079,NA,888865,6279,893079,893990,Sternberg Task,119,132466,136,yes,1024
87.59124088,87.59124088,971.4817518,971.4817518,black,experiment,legacy,legacy,legacy,0,uniform,1,undefined,1,left,136,0,136,136,136,0,0,136,0,136,0,136,0,136,136,10/16/19 12:32,The main experiment item,yes,SternbergTask.osexp,C:/Users/Carolyn/Desktop,no,mono,no,18,no,white,no,yes,768,legacy,124,11,C:/Users/Carolyn/Desktop/cp_subject-1.csv,legacy,7,Kafkaesque Koffka,3.2.8,1,y,0,left,left,left,NA,left,627,5659,3975,NA,627,2,legacy,1,1024,2,48000,-16,experiment,1,odd,7,887691,105868,895204,897412,894025,6288,101892,896208,11948,899415,NA,895200,6279,899416,900046,Sternberg Task,120,133093,137,yes,1024
87.68115942,87.68115942,972.0869565,972.0869565,black,experiment,legacy,legacy,legacy,0,uniform,1,undefined,1,left,137,0,137,137,137,0,0,137,0,137,0,137,0,137,137,10/16/19 12:32,The main experiment item,yes,SternbergTask.osexp,C:/Users/Carolyn/Desktop,no,mono,no,18,no,white,no,yes,768,legacy,125,11,C:/Users/Carolyn/Desktop/cp_subject-1.csv,legacy,3 4 9 6 2 9,Kafkaesque Koffka,3.2.8,5,y,0,left,left,left,NA,left,1055,5659,3975,NA,1055,2,legacy,6,1024,2,48000,-16,experiment,1,odd,2,900075,105868,901251,903457,894025,6288,101892,902254,11948,905460,NA,901247,6279,905460,906518,Sternberg Task,121,134148,138,yes,1024