"acc","accuracy","average_response_time","avg_rt","background","block","canvas_backend","clock_backend","color_backend","compensation","coordinates","correct","correct_Instruction1","correct_keyboard_response","correct_response","count_CorrectFeedback","count_ISI","count_IncorrectFeedback","count_Instruction1","count_Instructions2","count_Practiceloop","count_Thanks","count_experiment","count_experimentloop","count_fixation","count_keyboard_response","count_logger","count_memoryset","count_probe","count_xsequence","datetime","description","disable_garbage_collection","experiment_file","experiment_path","font_bold","font_family","font_italic","font_size","font_underline","foreground","form_clicks","fullscreen","height","keyboard_backend","live_row","live_row_Practiceloop","logfile","mouse_backend","numberSet","opensesame_codename","opensesame_version","posInSet","present","repeat_cycle","response","response_Instruction1","response_Instructions2","response_Thanks","response_keyboard_response","response_time","response_time_Instruction1","response_time_Instructions2","response_time_Thanks","response_time_keyboard_response","round_decimals","sampler_backend","setSize","sound_buf_size","sound_channels","sound_freq","sound_sample_size","start","subject_nr","subject_parity","target","time_CorrectFeedback","time_ISI","time_IncorrectFeedback","time_Instruction1","time_Instructions2","time_Practiceloop","time_Thanks","time_experiment","time_experimentloop","time_fixation","time_keyboard_response","time_logger","time_memoryset","time_probe","time_xsequence","title","total_correct","total_response_time","total_responses","uniform_coordinates","width"
"0","0","2000","2000","black","practice","legacy","legacy","legacy","0","uniform","0","undefined","0","left","0","0","0","0","0","0","0","0","0","0","0","0","0","0","0","Sun Oct 24 19:57:34 2021","The main experiment item","yes","Sternbergtask.osexp","C:/Users/User/Desktop/School/Research Methods","no","mono","no","18","no","white","no","yes","768","legacy","0","0","C:/Users/User/Desktop/School/Research Methods/LW-Subject-4-Stern.csv","legacy","1 5 2 9","Lentiform Loewenfeld","3.3.9","2","y","0","None","left","NA","NA","None","2000","41045","NA","NA","2000","2","legacy","4","1024","2","48000","-16","experiment","4","even","5","NA","46164","NA","2040","NA","43086","NA","2032","NA","43960","48166","50166","44962","48166","43957","Sternberg task","0","2000","1","yes","1024"
"0","0","1913.5","1913.5","black","practice","legacy","legacy","legacy","0","uniform","0","undefined","0","left","1","1","1","0","0","0","0","0","0","1","1","1","1","1","1","Sun Oct 24 19:57:34 2021","The main experiment item","yes","Sternbergtask.osexp","C:/Users/User/Desktop/School/Research Methods","no","mono","no","18","no","white","no","yes","768","legacy","1","1","C:/Users/User/Desktop/School/Research Methods/LW-Subject-4-Stern.csv","legacy","1 7 9 8 5","Lentiform Loewenfeld","3.3.9","4","y","0","right","left","NA","NA","right","1827","41045","NA","NA","1827","2","legacy","5","1024","2","48000","-16","experiment","4","even","8","NA","53517","50219","2040","NA","43086","NA","2032","NA","51313","55519","57346","52315","55519","51311","Sternberg task","0","3827","2","yes","1024"
"0","0","1942.3333333333333","1942.3333333333333","black","practice","legacy","legacy","legacy","0","uniform","0","undefined","0","left","2","2","2","0","0","0","0","0","0","2","2","2","2","2","2","Sun Oct 24 19:57:34 2021","The main experiment item","yes","Sternbergtask.osexp","C:/Users/User/Desktop/School/Research Methods","no","mono","no","18","no","white","no","yes","768","legacy","2","2","C:/Users/User/Desktop/School/Research Methods/LW-Subject-4-Stern.csv","legacy","6","Lentiform Loewenfeld","3.3.9","1","y","0","None","left","NA","NA","None","2000","41045","NA","NA","2000","2","legacy","1","1024","2","48000","-16","experiment","4","even","6","NA","60647","57350","2040","NA","43086","NA","2032","NA","58443","62649","64649","59445","62649","58440","Sternberg task","0","5827","3","yes","1024"
"25","25","1686.75","1686.75","black","practice","legacy","legacy","legacy","0","uniform","1","undefined","1","right","3","3","3","0","0","0","0","0","0","3","3","3","3","3","3","Sun Oct 24 19:57:34 2021","The main experiment item","yes","Sternbergtask.osexp","C:/Users/User/Desktop/School/Research Methods","no","mono","no","18","no","white","no","yes","768","legacy","3","3","C:/Users/User/Desktop/School/Research Methods/LW-Subject-4-Stern.csv","legacy","3 1 9 4","Lentiform Loewenfeld","3.3.9","0","n","0","right","left","NA","NA","right","920","41045","NA","NA","920","2","legacy","4","1024","2","48000","-16","experiment","4","even","6","NA","67949","64653","2040","NA","43086","NA","2032","NA","65745","69951","70872","66747","69951","65743","Sternberg task","1","6747","4","yes","1024"
"40","40","1558.6","1558.6","black","practice","legacy","legacy","legacy","0","uniform","1","undefined","1","right","4","4","4","0","0","0","0","0","0","4","4","4","4","4","4","Sun Oct 24 19:57:34 2021","The main experiment item","yes","Sternbergtask.osexp","C:/Users/User/Desktop/School/Research Methods","no","mono","no","18","no","white","no","yes","768","legacy","4","4","C:/Users/User/Desktop/School/Research Methods/LW-Subject-4-Stern.csv","legacy","2 1","Lentiform Loewenfeld","3.3.9","0","n","0","right","left","NA","NA","right","1046","41045","NA","NA","1046","2","legacy","2","1024","2","48000","-16","experiment","4","even","5","70876","74173","64653","2040","NA","43086","NA","2032","NA","71969","76175","77222","72971","76175","71967","Sternberg task","2","7793","5","yes","1024"
"50","50","1416.5","1416.5","black","practice","legacy","legacy","legacy","0","uniform","1","undefined","1","left","5","5","5","0","0","0","0","0","0","5","5","5","5","5","5","Sun Oct 24 19:57:34 2021","The main experiment item","yes","Sternbergtask.osexp","C:/Users/User/Desktop/School/Research Methods","no","mono","no","18","no","white","no","yes","768","legacy","5","5","C:/Users/User/Desktop/School/Research Methods/LW-Subject-4-Stern.csv","legacy","4 8","Lentiform Loewenfeld","3.3.9","1","y","0","left","left","NA","NA","left","706","41045","NA","NA","706","2","legacy","2","1024","2","48000","-16","experiment","4","even","4","77226","80521","64653","2040","NA","43086","NA","2032","NA","78316","82523","83229","79319","82523","78314","Sternberg task","3","8499","6","yes","1024"
"57.142857142857146","57.142857142857146","1374.5714285714287","1374.5714285714287","black","practice","legacy","legacy","legacy","0","uniform","1","undefined","1","left","6","6","6","0","0","0","0","0","0","6","6","6","6","6","6","Sun Oct 24 19:57:34 2021","The main experiment item","yes","Sternbergtask.osexp","C:/Users/User/Desktop/School/Research Methods","no","mono","no","18","no","white","no","yes","768","legacy","6","6","C:/Users/User/Desktop/School/Research Methods/LW-Subject-4-Stern.csv","legacy","2 9 4","Lentiform Loewenfeld","3.3.9","3","y","0","left","left","NA","NA","left","1123","41045","NA","NA","1123","2","legacy","3","1024","2","48000","-16","experiment","4","even","4","83233","86527","64653","2040","NA","43086","NA","2032","NA","84323","88529","89653","85325","88529","84321","Sternberg task","4","9622","7","yes","1024"
"62.5","62.5","1299","1299","black","practice","legacy","legacy","legacy","0","uniform","1","undefined","1","right","7","7","7","0","0","0","0","0","0","7","7","7","7","7","7","Sun Oct 24 19:57:34 2021","The main experiment item","yes","Sternbergtask.osexp","C:/Users/User/Desktop/School/Research Methods","no","mono","no","18","no","white","no","yes","768","legacy","7","7","C:/Users/User/Desktop/School/Research Methods/LW-Subject-4-Stern.csv","legacy","9 6 7 4 5","Lentiform Loewenfeld","3.3.9","0","n","0","right","left","NA","NA","right","770","41045","NA","NA","770","2","legacy","5","1024","2","48000","-16","experiment","4","even","3","89657","92952","64653","2040","NA","43086","NA","2032","NA","90748","94954","95724","91750","94954","90746","Sternberg task","5","10392","8","yes","1024"
"66.66666666666667","66.66666666666667","1226.7777777777778","1226.7777777777778","black","practice","legacy","legacy","legacy","0","uniform","1","undefined","1","right","8","8","8","0","0","0","0","0","0","8","8","8","8","8","8","Sun Oct 24 19:57:34 2021","The main experiment item","yes","Sternbergtask.osexp","C:/Users/User/Desktop/School/Research Methods","no","mono","no","18","no","white","no","yes","768","legacy","8","8","C:/Users/User/Desktop/School/Research Methods/LW-Subject-4-Stern.csv","legacy","5 7 8 4 1 2","Lentiform Loewenfeld","3.3.9","0","n","0","right","left","NA","NA","right","649","41045","NA","NA","649","2","legacy","6","1024","2","48000","-16","experiment","4","even","6","95728","99023","64653","2040","NA","43086","NA","2032","NA","96818","101025","101675","97821","101025","96816","Sternberg task","6","11041","9","yes","1024"
"70","70","1205.9","1205.9","black","practice","legacy","legacy","legacy","0","uniform","1","undefined","1","right","9","9","9","0","0","0","0","0","0","9","9","9","9","9","9","Sun Oct 24 19:57:34 2021","The main experiment item","yes","Sternbergtask.osexp","C:/Users/User/Desktop/School/Research Methods","no","mono","no","18","no","white","no","yes","768","legacy","9","9","C:/Users/User/Desktop/School/Research Methods/LW-Subject-4-Stern.csv","legacy","4 1 5","Lentiform Loewenfeld","3.3.9","0","n","0","right","left","NA","NA","right","1018","41045","NA","NA","1018","2","legacy","3","1024","2","48000","-16","experiment","4","even","2","101679","104974","64653","2040","NA","43086","NA","2032","NA","102770","106976","107995","103772","106976","102767","Sternberg task","7","12059","10","yes","1024"
"63.63636363636363","63.63636363636363","1177","1177","black","practice","legacy","legacy","legacy","0","uniform","0","undefined","0","right","10","10","10","0","0","0","0","0","0","10","10","10","10","10","10","Sun Oct 24 19:57:34 2021","The main experiment item","yes","Sternbergtask.osexp","C:/Users/User/Desktop/School/Research Methods","no","mono","no","18","no","white","no","yes","768","legacy","10","10","C:/Users/User/Desktop/School/Research Methods/LW-Subject-4-Stern.csv","legacy","5","Lentiform Loewenfeld","3.3.9","0","n","0","left","left","NA","NA","left","888","41045","NA","NA","888","2","legacy","1","1024","2","48000","-16","experiment","4","even","3","107999","111292","64653","2040","NA","43086","NA","2032","NA","109088","113294","114182","110090","113294","109086","Sternberg task","7","12947","11","yes","1024"
"66.66666666666667","66.66666666666667","1165.1666666666667","1165.1666666666667","black","practice","legacy","legacy","legacy","0","uniform","1","undefined","1","left","11","11","11","0","0","0","0","0","0","11","11","11","11","11","11","Sun Oct 24 19:57:34 2021","The main experiment item","yes","Sternbergtask.osexp","C:/Users/User/Desktop/School/Research Methods","no","mono","no","18","no","white","no","yes","768","legacy","11","11","C:/Users/User/Desktop/School/Research Methods/LW-Subject-4-Stern.csv","legacy","4 3 1 7 9 8","Lentiform Loewenfeld","3.3.9","1","y","0","left","left","NA","NA","left","1035","41045","NA","NA","1035","2","legacy","6","1024","2","48000","-16","experiment","4","even","4","107999","117481","114186","2040","NA","43086","NA","2032","NA","115277","119483","120519","116279","119483","115275","Sternberg task","8","13982","12","yes","1024"
"69.23076923076923","69.23076923076923","1169.8461538461538","1169.8461538461538","black","experiment","legacy","legacy","legacy","0","uniform","1","undefined","1","left","12","12","12","0","0","0","0","0","0","12","12","12","12","12","12","Sun Oct 24 19:57:34 2021","The main experiment item","yes","Sternbergtask.osexp","C:/Users/User/Desktop/School/Research Methods","no","mono","no","18","no","white","no","yes","768","legacy","0","11","C:/Users/User/Desktop/School/Research Methods/LW-Subject-4-Stern.csv","legacy","4 1 5","Lentiform Loewenfeld","3.3.9","2","y","0","left","left","left","NA","left","1226","41045","11066","NA","1226","2","legacy","3","1024","2","48000","-16","experiment","4","even","1","120523","134924","114186","2040","121553","43086","NA","2032","132619","132720","136926","138152","133722","136926","132718","Sternberg task","9","15208","13","yes","1024"
"71.42857142857143","71.42857142857143","1136.7142857142858","1136.7142857142858","black","experiment","legacy","legacy","legacy","0","uniform","1","undefined","1","left","13","13","13","0","0","0","0","0","0","13","13","13","13","13","13","Sun Oct 24 19:57:34 2021","The main experiment item","yes","Sternbergtask.osexp","C:/Users/User/Desktop/School/Research Methods","no","mono","no","18","no","white","no","yes","768","legacy","1","11","C:/Users/User/Desktop/School/Research Methods/LW-Subject-4-Stern.csv","legacy","8 9 5 7 1 6","Lentiform Loewenfeld","3.3.9","4","y","0","left","left","left","NA","left","706","41045","11066","NA","706","2","legacy","6","1024","2","48000","-16","experiment","4","even","7","138157","141453","114186","2040","121553","43086","NA","2032","132619","139249","143455","144162","140251","143455","139247","Sternberg task","10","15914","14","yes","1024"
"73.33333333333333","73.33333333333333","1106.7333333333333","1106.7333333333333","black","experiment","legacy","legacy","legacy","0","uniform","1","undefined","1","left","14","14","14","0","0","0","0","0","0","14","14","14","14","14","14","Sun Oct 24 19:57:34 2021","The main experiment item","yes","Sternbergtask.osexp","C:/Users/User/Desktop/School/Research Methods","no","mono","no","18","no","white","no","yes","768","legacy","2","11","C:/Users/User/Desktop/School/Research Methods/LW-Subject-4-Stern.csv","legacy","9 3 1 2 5","Lentiform Loewenfeld","3.3.9","4","y","0","left","left","left","NA","left","687","41045","11066","NA","687","2","legacy","5","1024","2","48000","-16","experiment","4","even","2","144166","147465","114186","2040","121553","43086","NA","2032","132619","145261","149467","150155","146263","149467","145259","Sternberg task","11","16601","15","yes","1024"
"75","75","1071.125","1071.125","black","experiment","legacy","legacy","legacy","0","uniform","1","undefined","1","left","15","15","15","0","0","0","0","0","0","15","15","15","15","15","15","Sun Oct 24 19:57:34 2021","The main experiment item","yes","Sternbergtask.osexp","C:/Users/User/Desktop/School/Research Methods","no","mono","no","18","no","white","no","yes","768","legacy","3","11","C:/Users/User/Desktop/School/Research Methods/LW-Subject-4-Stern.csv","legacy","2 3","Lentiform Loewenfeld","3.3.9","1","y","0","left","left","left","NA","left","537","41045","11066","NA","537","2","legacy","2","1024","2","48000","-16","experiment","4","even","2","150159","153455","114186","2040","121553","43086","NA","2032","132619","151251","155457","155994","152253","155457","151248","Sternberg task","12","17138","16","yes","1024"
"76.47058823529412","76.47058823529412","1041.1176470588234","1041.1176470588234","black","experiment","legacy","legacy","legacy","0","uniform","1","undefined","1","right","16","16","16","0","0","0","0","0","0","16","16","16","16","16","16","Sun Oct 24 19:57:34 2021","The main experiment item","yes","Sternbergtask.osexp","C:/Users/User/Desktop/School/Research Methods","no","mono","no","18","no","white","no","yes","768","legacy","4","11","C:/Users/User/Desktop/School/Research Methods/LW-Subject-4-Stern.csv","legacy","4 8 1 2","Lentiform Loewenfeld","3.3.9","0","n","0","right","left","left","NA","right","561","41045","11066","NA","561","2","legacy","4","1024","2","48000","-16","experiment","4","even","7","155998","159293","114186","2040","121553","43086","NA","2032","132619","157089","161295","161857","158091","161295","157087","Sternberg task","13","17699","17","yes","1024"
"77.77777777777777","77.77777777777777","1032","1032","black","experiment","legacy","legacy","legacy","0","uniform","1","undefined","1","right","17","17","17","0","0","0","0","0","0","17","17","17","17","17","17","Sun Oct 24 19:57:34 2021","The main experiment item","yes","Sternbergtask.osexp","C:/Users/User/Desktop/School/Research Methods","no","mono","no","18","no","white","no","yes","768","legacy","5","11","C:/Users/User/Desktop/School/Research Methods/LW-Subject-4-Stern.csv","legacy","9 5 3 2 8 6","Lentiform Loewenfeld","3.3.9","0","n","0","right","left","left","NA","right","877","41045","11066","NA","877","2","legacy","6","1024","2","48000","-16","experiment","4","even","7","161861","165156","114186","2040","121553","43086","NA","2032","132619","162952","167158","168036","163954","167158","162950","Sternberg task","14","18576","18","yes","1024"
"78.94736842105263","78.94736842105263","1014.2631578947369","1014.2631578947369","black","experiment","legacy","legacy","legacy","0","uniform","1","undefined","1","left","18","18","18","0","0","0","0","0","0","18","18","18","18","18","18","Sun Oct 24 19:57:34 2021","The main experiment item","yes","Sternbergtask.osexp","C:/Users/User/Desktop/School/Research Methods","no","mono","no","18","no","white","no","yes","768","legacy","6","11","C:/Users/User/Desktop/School/Research Methods/LW-Subject-4-Stern.csv","legacy","4 9 7 8 5 3","Lentiform Loewenfeld","3.3.9","4","y","0","left","left","left","NA","left","695","41045","11066","NA","695","2","legacy","6","1024","2","48000","-16","experiment","4","even","8","168040","171337","114186","2040","121553","43086","NA","2032","132619","169133","173339","174034","170135","173339","169131","Sternberg task","15","19271","19","yes","1024"
"80","80","997.2","997.2","black","experiment","legacy","legacy","legacy","0","uniform","1","undefined","1","right","19","19","19","0","0","0","0","0","0","19","19","19","19","19","19","Sun Oct 24 19:57:34 2021","The main experiment item","yes","Sternbergtask.osexp","C:/Users/User/Desktop/School/Research Methods","no","mono","no","18","no","white","no","yes","768","legacy","7","11","C:/Users/User/Desktop/School/Research Methods/LW-Subject-4-Stern.csv","legacy","7 9 1 6","Lentiform Loewenfeld","3.3.9","0","n","0","right","left","left","NA","right","673","41045","11066","NA","673","2","legacy","4","1024","2","48000","-16","experiment","4","even","4","174038","177332","114186","2040","121553","43086","NA","2032","132619","175128","179334","180008","176130","179334","175126","Sternberg task","16","19944","20","yes","1024"
"80.95238095238095","80.95238095238095","986.8571428571429","986.8571428571429","black","experiment","legacy","legacy","legacy","0","uniform","1","undefined","1","left","20","20","20","0","0","0","0","0","0","20","20","20","20","20","20","Sun Oct 24 19:57:34 2021","The main experiment item","yes","Sternbergtask.osexp","C:/Users/User/Desktop/School/Research Methods","no","mono","no","18","no","white","no","yes","768","legacy","8","11","C:/Users/User/Desktop/School/Research Methods/LW-Subject-4-Stern.csv","legacy","9 3 8 2 1 4","Lentiform Loewenfeld","3.3.9","3","y","0","left","left","left","NA","left","780","41045","11066","NA","780","2","legacy","6","1024","2","48000","-16","experiment","4","even","8","180013","183308","114186","2040","121553","43086","NA","2032","132619","181104","185310","186091","182106","185310","181102","Sternberg task","17","20724","21","yes","1024"
"81.81818181818181","81.81818181818181","963.5909090909091","963.5909090909091","black","experiment","legacy","legacy","legacy","0","uniform","1","undefined","1","right","21","21","21","0","0","0","0","0","0","21","21","21","21","21","21","Sun Oct 24 19:57:34 2021","The main experiment item","yes","Sternbergtask.osexp","C:/Users/User/Desktop/School/Research Methods","no","mono","no","18","no","white","no","yes","768","legacy","9","11","C:/Users/User/Desktop/School/Research Methods/LW-Subject-4-Stern.csv","legacy","8 4 3 9","Lentiform Loewenfeld","3.3.9","0","n","0","right","left","left","NA","right","475","41045","11066","NA","475","2","legacy","4","1024","2","48000","-16","experiment","4","even","5","186095","189395","114186","2040","121553","43086","NA","2032","132619","187191","191397","191873","188193","191397","187188","Sternberg task","18","21199","22","yes","1024"
"82.6086956521739","82.6086956521739","948","948","black","experiment","legacy","legacy","legacy","0","uniform","1","undefined","1","right","22","22","22","0","0","0","0","0","0","22","22","22","22","22","22","Sun Oct 24 19:57:34 2021","The main experiment item","yes","Sternbergtask.osexp","C:/Users/User/Desktop/School/Research Methods","no","mono","no","18","no","white","no","yes","768","legacy","10","11","C:/Users/User/Desktop/School/Research Methods/LW-Subject-4-Stern.csv","legacy","3 4 2","Lentiform Loewenfeld","3.3.9","0","n","0","right","left","left","NA","right","605","41045","11066","NA","605","2","legacy","3","1024","2","48000","-16","experiment","4","even","5","191877","195173","114186","2040","121553","43086","NA","2032","132619","192969","197175","197780","193971","197175","192967","Sternberg task","19","21804","23","yes","1024"
"83.33333333333333","83.33333333333333","940.2916666666666","940.2916666666666","black","experiment","legacy","legacy","legacy","0","uniform","1","undefined","1","right","23","23","23","0","0","0","0","0","0","23","23","23","23","23","23","Sun Oct 24 19:57:34 2021","The main experiment item","yes","Sternbergtask.osexp","C:/Users/User/Desktop/School/Research Methods","no","mono","no","18","no","white","no","yes","768","legacy","11","11","C:/Users/User/Desktop/School/Research Methods/LW-Subject-4-Stern.csv","legacy","1 3 2 6 9","Lentiform Loewenfeld","3.3.9","0","n","0","right","left","left","NA","right","763","41045","11066","NA","763","2","legacy","5","1024","2","48000","-16","experiment","4","even","5","197784","201080","114186","2040","121553","43086","NA","2032","132619","198876","203082","203846","199878","203082","198874","Sternberg task","20","22567","24","yes","1024"
"80","80","933.88","933.88","black","experiment","legacy","legacy","legacy","0","uniform","0","undefined","0","left","24","24","24","0","0","0","0","0","0","24","24","24","24","24","24","Sun Oct 24 19:57:34 2021","The main experiment item","yes","Sternbergtask.osexp","C:/Users/User/Desktop/School/Research Methods","no","mono","no","18","no","white","no","yes","768","legacy","12","11","C:/Users/User/Desktop/School/Research Methods/LW-Subject-4-Stern.csv","legacy","3 9 6 2","Lentiform Loewenfeld","3.3.9","4","y","0","right","left","left","NA","right","780","41045","11066","NA","780","2","legacy","4","1024","2","48000","-16","experiment","4","even","2","203850","207151","114186","2040","121553","43086","NA","2032","132619","204947","209153","209934","205949","209153","204944","Sternberg task","20","23347","25","yes","1024"
"80.76923076923077","80.76923076923077","929.8076923076923","929.8076923076923","black","experiment","legacy","legacy","legacy","0","uniform","1","undefined","1","right","25","25","25","0","0","0","0","0","0","25","25","25","25","25","25","Sun Oct 24 19:57:34 2021","The main experiment item","yes","Sternbergtask.osexp","C:/Users/User/Desktop/School/Research Methods","no","mono","no","18","no","white","no","yes","768","legacy","13","11","C:/Users/User/Desktop/School/Research Methods/LW-Subject-4-Stern.csv","legacy","3 9 1","Lentiform Loewenfeld","3.3.9","0","n","0","right","left","left","NA","right","828","41045","11066","NA","828","2","legacy","3","1024","2","48000","-16","experiment","4","even","7","203850","213239","209938","2040","121553","43086","NA","2032","132619","211035","215241","216070","212037","215241","211033","Sternberg task","21","24175","26","yes","1024"
"81.48148148148148","81.48148148148148","946.8518518518518","946.8518518518518","black","experiment","legacy","legacy","legacy","0","uniform","1","undefined","1","right","26","26","26","0","0","0","0","0","0","26","26","26","26","26","26","Sun Oct 24 19:57:34 2021","The main experiment item","yes","Sternbergtask.osexp","C:/Users/User/Desktop/School/Research Methods","no","mono","no","18","no","white","no","yes","768","legacy","14","11","C:/Users/User/Desktop/School/Research Methods/LW-Subject-4-Stern.csv","legacy","7 6 4 8 1 2","Lentiform Loewenfeld","3.3.9","0","n","0","right","left","left","NA","right","1390","41045","11066","NA","1390","2","legacy","6","1024","2","48000","-16","experiment","4","even","9","216074","219371","209938","2040","121553","43086","NA","2032","132619","217167","221373","222764","218169","221373","217165","Sternberg task","22","25565","27","yes","1024"
"82.14285714285714","82.14285714285714","943.6428571428571","943.6428571428571","black","experiment","legacy","legacy","legacy","0","uniform","1","undefined","1","right","27","27","27","0","0","0","0","0","0","27","27","27","27","27","27","Sun Oct 24 19:57:34 2021","The main experiment item","yes","Sternbergtask.osexp","C:/Users/User/Desktop/School/Research Methods","no","mono","no","18","no","white","no","yes","768","legacy","15","11","C:/Users/User/Desktop/School/Research Methods/LW-Subject-4-Stern.csv","legacy","5 7 3","Lentiform Loewenfeld","3.3.9","0","n","0","right","left","left","NA","right","857","41045","11066","NA","857","2","legacy","3","1024","2","48000","-16","experiment","4","even","9","222768","226064","209938","2040","121553","43086","NA","2032","132619","223860","228066","228923","224862","228066","223858","Sternberg task","23","26422","28","yes","1024"
"82.75862068965517","82.75862068965517","973.6551724137931","973.6551724137931","black","experiment","legacy","legacy","legacy","0","uniform","1","undefined","1","left","28","28","28","0","0","0","0","0","0","28","28","28","28","28","28","Sun Oct 24 19:57:34 2021","The main experiment item","yes","Sternbergtask.osexp","C:/Users/User/Desktop/School/Research Methods","no","mono","no","18","no","white","no","yes","768","legacy","16","11","C:/Users/User/Desktop/School/Research Methods/LW-Subject-4-Stern.csv","legacy","4","Lentiform Loewenfeld","3.3.9","1","y","0","left","left","left","NA","left","1814","41045","11066","NA","1814","2","legacy","1","1024","2","48000","-16","experiment","4","even","4","228927","232226","209938","2040","121553","43086","NA","2032","132619","230022","234228","236043","231024","234228","230020","Sternberg task","24","28236","29","yes","1024"
"83.33333333333333","83.33333333333333","968.4333333333333","968.4333333333333","black","experiment","legacy","legacy","legacy","0","uniform","1","undefined","1","right","29","29","29","0","0","0","0","0","0","29","29","29","29","29","29","Sun Oct 24 19:57:34 2021","The main experiment item","yes","Sternbergtask.osexp","C:/Users/User/Desktop/School/Research Methods","no","mono","no","18","no","white","no","yes","768","legacy","17","11","C:/Users/User/Desktop/School/Research Methods/LW-Subject-4-Stern.csv","legacy","7 1","Lentiform Loewenfeld","3.3.9","0","n","0","right","left","left","NA","right","817","41045","11066","NA","817","2","legacy","2","1024","2","48000","-16","experiment","4","even","8","236047","239342","209938","2040","121553","43086","NA","2032","132619","237138","241344","242162","238140","241344","237136","Sternberg task","25","29053","30","yes","1024"
"83.87096774193549","83.87096774193549","983.9354838709677","983.9354838709677","black","experiment","legacy","legacy","legacy","0","uniform","1","undefined","1","right","30","30","30","0","0","0","0","0","0","30","30","30","30","30","30","Sun Oct 24 19:57:34 2021","The main experiment item","yes","Sternbergtask.osexp","C:/Users/User/Desktop/School/Research Methods","no","mono","no","18","no","white","no","yes","768","legacy","18","11","C:/Users/User/Desktop/School/Research Methods/LW-Subject-4-Stern.csv","legacy","5 3 2 6 9 8","Lentiform Loewenfeld","3.3.9","0","n","0","right","left","left","NA","right","1449","41045","11066","NA","1449","2","legacy","6","1024","2","48000","-16","experiment","4","even","4","242166","245464","209938","2040","121553","43086","NA","2032","132619","243260","247466","248916","244262","247466","243258","Sternberg task","26","30502","31","yes","1024"
"84.375","84.375","977.28125","977.28125","black","experiment","legacy","legacy","legacy","0","uniform","1","undefined","1","left","31","31","31","0","0","0","0","0","0","31","31","31","31","31","31","Sun Oct 24 19:57:34 2021","The main experiment item","yes","Sternbergtask.osexp","C:/Users/User/Desktop/School/Research Methods","no","mono","no","18","no","white","no","yes","768","legacy","19","11","C:/Users/User/Desktop/School/Research Methods/LW-Subject-4-Stern.csv","legacy","8 7 3","Lentiform Loewenfeld","3.3.9","1","y","0","left","left","left","NA","left","771","41045","11066","NA","771","2","legacy","3","1024","2","48000","-16","experiment","4","even","8","248920","252213","209938","2040","121553","43086","NA","2032","132619","250009","254215","254987","251011","254215","250007","Sternberg task","27","31273","32","yes","1024"
"84.84848484848484","84.84848484848484","970.5151515151515","970.5151515151515","black","experiment","legacy","legacy","legacy","0","uniform","1","undefined","1","right","32","32","32","0","0","0","0","0","0","32","32","32","32","32","32","Sun Oct 24 19:57:34 2021","The main experiment item","yes","Sternbergtask.osexp","C:/Users/User/Desktop/School/Research Methods","no","mono","no","18","no","white","no","yes","768","legacy","20","11","C:/Users/User/Desktop/School/Research Methods/LW-Subject-4-Stern.csv","legacy","8 5 4 2 9 6","Lentiform Loewenfeld","3.3.9","0","n","0","right","left","left","NA","right","754","41045","11066","NA","754","2","legacy","6","1024","2","48000","-16","experiment","4","even","3","254991","258285","209938","2040","121553","43086","NA","2032","132619","256081","260287","261042","257083","260287","256078","Sternberg task","28","32027","33","yes","1024"
"85.29411764705883","85.29411764705883","962.3235294117648","962.3235294117648","black","experiment","legacy","legacy","legacy","0","uniform","1","undefined","1","right","33","33","33","0","0","0","0","0","0","33","33","33","33","33","33","Sun Oct 24 19:57:34 2021","The main experiment item","yes","Sternbergtask.osexp","C:/Users/User/Desktop/School/Research Methods","no","mono","no","18","no","white","no","yes","768","legacy","21","11","C:/Users/User/Desktop/School/Research Methods/LW-Subject-4-Stern.csv","legacy","8 6 3 4 7","Lentiform Loewenfeld","3.3.9","0","n","0","right","left","left","NA","right","692","41045","11066","NA","692","2","legacy","5","1024","2","48000","-16","experiment","4","even","1","261046","264341","209938","2040","121553","43086","NA","2032","132619","262137","266343","267036","263139","266343","262134","Sternberg task","29","32719","34","yes","1024"
"85.71428571428571","85.71428571428571","956.2571428571429","956.2571428571429","black","experiment","legacy","legacy","legacy","0","uniform","1","undefined","1","right","34","34","34","0","0","0","0","0","0","34","34","34","34","34","34","Sun Oct 24 19:57:34 2021","The main experiment item","yes","Sternbergtask.osexp","C:/Users/User/Desktop/School/Research Methods","no","mono","no","18","no","white","no","yes","768","legacy","22","11","C:/Users/User/Desktop/School/Research Methods/LW-Subject-4-Stern.csv","legacy","1 5 3 2 8","Lentiform Loewenfeld","3.3.9","0","n","0","right","left","left","NA","right","750","41045","11066","NA","750","2","legacy","5","1024","2","48000","-16","experiment","4","even","4","267040","270334","209938","2040","121553","43086","NA","2032","132619","268130","272336","273087","269132","272336","268128","Sternberg task","30","33469","35","yes","1024"
"86.11111111111111","86.11111111111111","949.1111111111111","949.1111111111111","black","experiment","legacy","legacy","legacy","0","uniform","1","undefined","1","left","35","35","35","0","0","0","0","0","0","35","35","35","35","35","35","Sun Oct 24 19:57:34 2021","The main experiment item","yes","Sternbergtask.osexp","C:/Users/User/Desktop/School/Research Methods","no","mono","no","18","no","white","no","yes","768","legacy","23","11","C:/Users/User/Desktop/School/Research Methods/LW-Subject-4-Stern.csv","legacy","3 2 1 4 7","Lentiform Loewenfeld","3.3.9","2","y","0","left","left","left","NA","left","699","41045","11066","NA","699","2","legacy","5","1024","2","48000","-16","experiment","4","even","2","273091","276385","209938","2040","121553","43086","NA","2032","132619","274181","278387","279087","275183","278387","274179","Sternberg task","31","34168","36","yes","1024"
"86.48648648648648","86.48648648648648","938.5405405405405","938.5405405405405","black","experiment","legacy","legacy","legacy","0","uniform","1","undefined","1","right","36","36","36","0","0","0","0","0","0","36","36","36","36","36","36","Sun Oct 24 19:57:34 2021","The main experiment item","yes","Sternbergtask.osexp","C:/Users/User/Desktop/School/Research Methods","no","mono","no","18","no","white","no","yes","768","legacy","24","11","C:/Users/User/Desktop/School/Research Methods/LW-Subject-4-Stern.csv","legacy","5 9 2 3","Lentiform Loewenfeld","3.3.9","0","n","0","right","left","left","NA","right","558","41045","11066","NA","558","2","legacy","4","1024","2","48000","-16","experiment","4","even","8","279091","282385","209938","2040","121553","43086","NA","2032","132619","280181","284387","284946","281183","284387","280179","Sternberg task","32","34726","37","yes","1024"
"86.84210526315789","86.84210526315789","930.2105263157895","930.2105263157895","black","experiment","legacy","legacy","legacy","0","uniform","1","undefined","1","left","37","37","37","0","0","0","0","0","0","37","37","37","37","37","37","Sun Oct 24 19:57:34 2021","The main experiment item","yes","Sternbergtask.osexp","C:/Users/User/Desktop/School/Research Methods","no","mono","no","18","no","white","no","yes","768","legacy","25","11","C:/Users/User/Desktop/School/Research Methods/LW-Subject-4-Stern.csv","legacy","9 1 7 2","Lentiform Loewenfeld","3.3.9","2","y","0","left","left","left","NA","left","622","41045","11066","NA","622","2","legacy","4","1024","2","48000","-16","experiment","4","even","1","284951","288246","209938","2040","121553","43086","NA","2032","132619","286042","290248","290871","287044","290248","286040","Sternberg task","33","35348","38","yes","1024"
"87.17948717948718","87.17948717948718","935.0512820512821","935.0512820512821","black","experiment","legacy","legacy","legacy","0","uniform","1","undefined","1","right","38","38","38","0","0","0","0","0","0","38","38","38","38","38","38","Sun Oct 24 19:57:34 2021","The main experiment item","yes","Sternbergtask.osexp","C:/Users/User/Desktop/School/Research Methods","no","mono","no","18","no","white","no","yes","768","legacy","26","11","C:/Users/User/Desktop/School/Research Methods/LW-Subject-4-Stern.csv","legacy","1 4 9 2 5","Lentiform Loewenfeld","3.3.9","0","n","0","right","left","left","NA","right","1119","41045","11066","NA","1119","2","legacy","5","1024","2","48000","-16","experiment","4","even","7","290875","294171","209938","2040","121553","43086","NA","2032","132619","291967","296173","297293","292969","296173","291965","Sternberg task","34","36467","39","yes","1024"
"87.5","87.5","938.775","938.775","black","experiment","legacy","legacy","legacy","0","uniform","1","undefined","1","right","39","39","39","0","0","0","0","0","0","39","39","39","39","39","39","Sun Oct 24 19:57:34 2021","The main experiment item","yes","Sternbergtask.osexp","C:/Users/User/Desktop/School/Research Methods","no","mono","no","18","no","white","no","yes","768","legacy","27","11","C:/Users/User/Desktop/School/Research Methods/LW-Subject-4-Stern.csv","legacy","7 9","Lentiform Loewenfeld","3.3.9","0","n","0","right","left","left","NA","right","1084","41045","11066","NA","1084","2","legacy","2","1024","2","48000","-16","experiment","4","even","1","297297","300591","209938","2040","121553","43086","NA","2032","132619","298387","302593","303678","299389","302593","298385","Sternberg task","35","37551","40","yes","1024"
"87.8048780487805","87.8048780487805","934.0487804878048","934.0487804878048","black","experiment","legacy","legacy","legacy","0","uniform","1","undefined","1","left","40","40","40","0","0","0","0","0","0","40","40","40","40","40","40","Sun Oct 24 19:57:34 2021","The main experiment item","yes","Sternbergtask.osexp","C:/Users/User/Desktop/School/Research Methods","no","mono","no","18","no","white","no","yes","768","legacy","28","11","C:/Users/User/Desktop/School/Research Methods/LW-Subject-4-Stern.csv","legacy","9 5 8 1","Lentiform Loewenfeld","3.3.9","2","y","0","left","left","left","NA","left","745","41045","11066","NA","745","2","legacy","4","1024","2","48000","-16","experiment","4","even","5","303682","306977","209938","2040","121553","43086","NA","2032","132619","304773","308979","309725","305775","308979","304771","Sternberg task","36","38296","41","yes","1024"
"88.0952380952381","88.0952380952381","926.9761904761905","926.9761904761905","black","experiment","legacy","legacy","legacy","0","uniform","1","undefined","1","left","41","41","41","0","0","0","0","0","0","41","41","41","41","41","41","Sun Oct 24 19:57:34 2021","The main experiment item","yes","Sternbergtask.osexp","C:/Users/User/Desktop/School/Research Methods","no","mono","no","18","no","white","no","yes","768","legacy","29","11","C:/Users/User/Desktop/School/Research Methods/LW-Subject-4-Stern.csv","legacy","2 4 6 9","Lentiform Loewenfeld","3.3.9","3","y","0","left","left","left","NA","left","637","41045","11066","NA","637","2","legacy","4","1024","2","48000","-16","experiment","4","even","6","309729","313024","209938","2040","121553","43086","NA","2032","132619","310819","315026","315664","311822","315026","310817","Sternberg task","37","38933","42","yes","1024"
"88.37209302325581","88.37209302325581","918.8604651162791","918.8604651162791","black","experiment","legacy","legacy","legacy","0","uniform","1","undefined","1","right","42","42","42","0","0","0","0","0","0","42","42","42","42","42","42","Sun Oct 24 19:57:34 2021","The main experiment item","yes","Sternbergtask.osexp","C:/Users/User/Desktop/School/Research Methods","no","mono","no","18","no","white","no","yes","768","legacy","30","11","C:/Users/User/Desktop/School/Research Methods/LW-Subject-4-Stern.csv","legacy","6 7 5 9","Lentiform Loewenfeld","3.3.9","0","n","0","right","left","left","NA","right","578","41045","11066","NA","578","2","legacy","4","1024","2","48000","-16","experiment","4","even","2","315668","318965","209938","2040","121553","43086","NA","2032","132619","316761","320967","321546","317763","320967","316759","Sternberg task","38","39511","43","yes","1024"
"88.63636363636364","88.63636363636364","912.0681818181819","912.0681818181819","black","experiment","legacy","legacy","legacy","0","uniform","1","undefined","1","left","43","43","43","0","0","0","0","0","0","43","43","43","43","43","43","Sun Oct 24 19:57:34 2021","The main experiment item","yes","Sternbergtask.osexp","C:/Users/User/Desktop/School/Research Methods","no","mono","no","18","no","white","no","yes","768","legacy","31","11","C:/Users/User/Desktop/School/Research Methods/LW-Subject-4-Stern.csv","legacy","5 2 6","Lentiform Loewenfeld","3.3.9","2","y","0","left","left","left","NA","left","620","41045","11066","NA","620","2","legacy","3","1024","2","48000","-16","experiment","4","even","2","321550","324847","209938","2040","121553","43086","NA","2032","132619","322643","326849","327470","323645","326849","322641","Sternberg task","39","40131","44","yes","1024"
"88.88888888888889","88.88888888888889","901.3555555555556","901.3555555555556","black","experiment","legacy","legacy","legacy","0","uniform","1","undefined","1","right","44","44","44","0","0","0","0","0","0","44","44","44","44","44","44","Sun Oct 24 19:57:34 2021","The main experiment item","yes","Sternbergtask.osexp","C:/Users/User/Desktop/School/Research Methods","no","mono","no","18","no","white","no","yes","768","legacy","32","11","C:/Users/User/Desktop/School/Research Methods/LW-Subject-4-Stern.csv","legacy","1 8 7","Lentiform Loewenfeld","3.3.9","0","n","0","right","left","left","NA","right","430","41045","11066","NA","430","2","legacy","3","1024","2","48000","-16","experiment","4","even","4","327474","330774","209938","2040","121553","43086","NA","2032","132619","328569","332776","333207","329571","332776","328567","Sternberg task","40","40561","45","yes","1024"
"89.1304347826087","89.1304347826087","899.2173913043479","899.2173913043479","black","experiment","legacy","legacy","legacy","0","uniform","1","undefined","1","left","45","45","45","0","0","0","0","0","0","45","45","45","45","45","45","Sun Oct 24 19:57:34 2021","The main experiment item","yes","Sternbergtask.osexp","C:/Users/User/Desktop/School/Research Methods","no","mono","no","18","no","white","no","yes","768","legacy","33","11","C:/Users/User/Desktop/School/Research Methods/LW-Subject-4-Stern.csv","legacy","8 5 3 7 4 6","Lentiform Loewenfeld","3.3.9","6","y","0","left","left","left","NA","left","803","41045","11066","NA","803","2","legacy","6","1024","2","48000","-16","experiment","4","even","6","333211","336515","209938","2040","121553","43086","NA","2032","132619","334311","338517","339321","335313","338517","334309","Sternberg task","41","41364","46","yes","1024"
"89.36170212765957","89.36170212765957","890.7021276595744","890.7021276595744","black","experiment","legacy","legacy","legacy","0","uniform","1","undefined","1","left","46","46","46","0","0","0","0","0","0","46","46","46","46","46","46","Sun Oct 24 19:57:34 2021","The main experiment item","yes","Sternbergtask.osexp","C:/Users/User/Desktop/School/Research Methods","no","mono","no","18","no","white","no","yes","768","legacy","34","11","C:/Users/User/Desktop/School/Research Methods/LW-Subject-4-Stern.csv","legacy","4 3 2 5 8","Lentiform Loewenfeld","3.3.9","2","y","0","left","left","left","NA","left","499","41045","11066","NA","499","2","legacy","5","1024","2","48000","-16","experiment","4","even","3","339325","342621","209938","2040","121553","43086","NA","2032","132619","340417","344623","345124","341419","344623","340415","Sternberg task","42","41863","47","yes","1024"
"89.58333333333333","89.58333333333333","880.1666666666666","880.1666666666666","black","experiment","legacy","legacy","legacy","0","uniform","1","undefined","1","right","47","47","47","0","0","0","0","0","0","47","47","47","47","47","47","Sun Oct 24 19:57:34 2021","The main experiment item","yes","Sternbergtask.osexp","C:/Users/User/Desktop/School/Research Methods","no","mono","no","18","no","white","no","yes","768","legacy","35","11","C:/Users/User/Desktop/School/Research Methods/LW-Subject-4-Stern.csv","legacy","6 9 5","Lentiform Loewenfeld","3.3.9","0","n","0","right","left","left","NA","right","385","41045","11066","NA","385","2","legacy","3","1024","2","48000","-16","experiment","4","even","8","345128","348424","209938","2040","121553","43086","NA","2032","132619","346220","350426","350812","347222","350426","346218","Sternberg task","43","42248","48","yes","1024"
"89.79591836734694","89.79591836734694","873.6326530612245","873.6326530612245","black","experiment","legacy","legacy","legacy","0","uniform","1","undefined","1","right","48","48","48","0","0","0","0","0","0","48","48","48","48","48","48","Sun Oct 24 19:57:34 2021","The main experiment item","yes","Sternbergtask.osexp","C:/Users/User/Desktop/School/Research Methods","no","mono","no","18","no","white","no","yes","768","legacy","36","11","C:/Users/User/Desktop/School/Research Methods/LW-Subject-4-Stern.csv","legacy","6 9 7 3 8 2","Lentiform Loewenfeld","3.3.9","0","n","0","right","left","left","NA","right","560","41045","11066","NA","560","2","legacy","6","1024","2","48000","-16","experiment","4","even","5","350816","354122","209938","2040","121553","43086","NA","2032","132619","351918","356124","356686","352920","356124","351916","Sternberg task","44","42808","49","yes","1024"
"90","90","867.9","867.9","black","experiment","legacy","legacy","legacy","0","uniform","1","undefined","1","left","49","49","49","0","0","0","0","0","0","49","49","49","49","49","49","Sun Oct 24 19:57:34 2021","The main experiment item","yes","Sternbergtask.osexp","C:/Users/User/Desktop/School/Research Methods","no","mono","no","18","no","white","no","yes","768","legacy","37","11","C:/Users/User/Desktop/School/Research Methods/LW-Subject-4-Stern.csv","legacy","8 1 6","Lentiform Loewenfeld","3.3.9","3","y","0","left","left","left","NA","left","587","41045","11066","NA","587","2","legacy","3","1024","2","48000","-16","experiment","4","even","6","356689","359987","209938","2040","121553","43086","NA","2032","132619","357783","361989","362577","358785","361989","357781","Sternberg task","45","43395","50","yes","1024"
"90.19607843137256","90.19607843137256","863.1960784313726","863.1960784313726","black","experiment","legacy","legacy","legacy","0","uniform","1","undefined","1","left","50","50","50","0","0","0","0","0","0","50","50","50","50","50","50","Sun Oct 24 19:57:34 2021","The main experiment item","yes","Sternbergtask.osexp","C:/Users/User/Desktop/School/Research Methods","no","mono","no","18","no","white","no","yes","768","legacy","38","11","C:/Users/User/Desktop/School/Research Methods/LW-Subject-4-Stern.csv","legacy","8 9 5 6 7","Lentiform Loewenfeld","3.3.9","1","y","0","left","left","left","NA","left","628","41045","11066","NA","628","2","legacy","5","1024","2","48000","-16","experiment","4","even","8","362581","365877","209938","2040","121553","43086","NA","2032","132619","363673","367879","368508","364675","367879","363671","Sternberg task","46","44023","51","yes","1024"
"90.38461538461539","90.38461538461539","858.5961538461538","858.5961538461538","black","experiment","legacy","legacy","legacy","0","uniform","1","undefined","1","right","51","51","51","0","0","0","0","0","0","51","51","51","51","51","51","Sun Oct 24 19:57:34 2021","The main experiment item","yes","Sternbergtask.osexp","C:/Users/User/Desktop/School/Research Methods","no","mono","no","18","no","white","no","yes","768","legacy","39","11","C:/Users/User/Desktop/School/Research Methods/LW-Subject-4-Stern.csv","legacy","6 9 4 5 3 2","Lentiform Loewenfeld","3.3.9","0","n","0","right","left","left","NA","right","624","41045","11066","NA","624","2","legacy","6","1024","2","48000","-16","experiment","4","even","8","368512","371809","209938","2040","121553","43086","NA","2032","132619","369605","373811","374436","370607","373811","369603","Sternberg task","47","44647","52","yes","1024"
"90.56603773584905","90.56603773584905","851.9811320754717","851.9811320754717","black","experiment","legacy","legacy","legacy","0","uniform","1","undefined","1","right","52","52","52","0","0","0","0","0","0","52","52","52","52","52","52","Sun Oct 24 19:57:34 2021","The main experiment item","yes","Sternbergtask.osexp","C:/Users/User/Desktop/School/Research Methods","no","mono","no","18","no","white","no","yes","768","legacy","40","11","C:/Users/User/Desktop/School/Research Methods/LW-Subject-4-Stern.csv","legacy","1 6 4","Lentiform Loewenfeld","3.3.9","0","n","0","right","left","left","NA","right","508","41045","11066","NA","508","2","legacy","3","1024","2","48000","-16","experiment","4","even","7","374440","377735","209938","2040","121553","43086","NA","2032","132619","375531","379737","380247","376533","379737","375529","Sternberg task","48","45155","53","yes","1024"
"90.74074074074075","90.74074074074075","843.0555555555555","843.0555555555555","black","experiment","legacy","legacy","legacy","0","uniform","1","undefined","1","right","53","53","53","0","0","0","0","0","0","53","53","53","53","53","53","Sun Oct 24 19:57:34 2021","The main experiment item","yes","Sternbergtask.osexp","C:/Users/User/Desktop/School/Research Methods","no","mono","no","18","no","white","no","yes","768","legacy","41","11","C:/Users/User/Desktop/School/Research Methods/LW-Subject-4-Stern.csv","legacy","8 9","Lentiform Loewenfeld","3.3.9","0","n","0","right","left","left","NA","right","370","41045","11066","NA","370","2","legacy","2","1024","2","48000","-16","experiment","4","even","5","380250","383548","209938","2040","121553","43086","NA","2032","132619","381344","385550","385921","382346","385550","381342","Sternberg task","49","45525","54","yes","1024"
"90.9090909090909","90.9090909090909","836.5818181818182","836.5818181818182","black","experiment","legacy","legacy","legacy","0","uniform","1","undefined","1","left","54","54","54","0","0","0","0","0","0","54","54","54","54","54","54","Sun Oct 24 19:57:34 2021","The main experiment item","yes","Sternbergtask.osexp","C:/Users/User/Desktop/School/Research Methods","no","mono","no","18","no","white","no","yes","768","legacy","42","11","C:/Users/User/Desktop/School/Research Methods/LW-Subject-4-Stern.csv","legacy","6 2","Lentiform Loewenfeld","3.3.9","1","y","0","left","left","left","NA","left","487","41045","11066","NA","487","2","legacy","2","1024","2","48000","-16","experiment","4","even","6","385925","389221","209938","2040","121553","43086","NA","2032","132619","387017","391223","391711","388019","391223","387015","Sternberg task","50","46012","55","yes","1024"
"91.07142857142857","91.07142857142857","830.8928571428571","830.8928571428571","black","experiment","legacy","legacy","legacy","0","uniform","1","undefined","1","right","55","55","55","0","0","0","0","0","0","55","55","55","55","55","55","Sun Oct 24 19:57:34 2021","The main experiment item","yes","Sternbergtask.osexp","C:/Users/User/Desktop/School/Research Methods","no","mono","no","18","no","white","no","yes","768","legacy","43","11","C:/Users/User/Desktop/School/Research Methods/LW-Subject-4-Stern.csv","legacy","2 8 6 3 1","Lentiform Loewenfeld","3.3.9","0","n","0","right","left","left","NA","right","518","41045","11066","NA","518","2","legacy","5","1024","2","48000","-16","experiment","4","even","7","391715","395012","209938","2040","121553","43086","NA","2032","132619","392808","397014","397533","393810","397014","392806","Sternberg task","51","46530","56","yes","1024"
"91.2280701754386","91.2280701754386","825.6666666666666","825.6666666666666","black","experiment","legacy","legacy","legacy","0","uniform","1","undefined","1","right","56","56","56","0","0","0","0","0","0","56","56","56","56","56","56","Sun Oct 24 19:57:34 2021","The main experiment item","yes","Sternbergtask.osexp","C:/Users/User/Desktop/School/Research Methods","no","mono","no","18","no","white","no","yes","768","legacy","44","11","C:/Users/User/Desktop/School/Research Methods/LW-Subject-4-Stern.csv","legacy","9 8 2 7 4","Lentiform Loewenfeld","3.3.9","0","n","0","right","left","left","NA","right","533","41045","11066","NA","533","2","legacy","5","1024","2","48000","-16","experiment","4","even","5","397537","400831","209938","2040","121553","43086","NA","2032","132619","398627","402833","403367","399629","402833","398624","Sternberg task","52","47063","57","yes","1024"
"91.37931034482759","91.37931034482759","818.6379310344828","818.6379310344828","black","experiment","legacy","legacy","legacy","0","uniform","1","undefined","1","right","57","57","57","0","0","0","0","0","0","57","57","57","57","57","57","Sun Oct 24 19:57:34 2021","The main experiment item","yes","Sternbergtask.osexp","C:/Users/User/Desktop/School/Research Methods","no","mono","no","18","no","white","no","yes","768","legacy","45","11","C:/Users/User/Desktop/School/Research Methods/LW-Subject-4-Stern.csv","legacy","1 7 5 2","Lentiform Loewenfeld","3.3.9","0","n","0","right","left","left","NA","right","418","41045","11066","NA","418","2","legacy","4","1024","2","48000","-16","experiment","4","even","3","403371","406665","209938","2040","121553","43086","NA","2032","132619","404461","408667","409086","405463","408667","404459","Sternberg task","53","47481","58","yes","1024"
"91.52542372881356","91.52542372881356","816.457627118644","816.457627118644","black","experiment","legacy","legacy","legacy","0","uniform","1","undefined","1","left","58","58","58","0","0","0","0","0","0","58","58","58","58","58","58","Sun Oct 24 19:57:34 2021","The main experiment item","yes","Sternbergtask.osexp","C:/Users/User/Desktop/School/Research Methods","no","mono","no","18","no","white","no","yes","768","legacy","46","11","C:/Users/User/Desktop/School/Research Methods/LW-Subject-4-Stern.csv","legacy","3 4 9 6 2 9","Lentiform Loewenfeld","3.3.9","5","y","0","left","left","left","NA","left","690","41045","11066","NA","690","2","legacy","6","1024","2","48000","-16","experiment","4","even","2","409090","412389","209938","2040","121553","43086","NA","2032","132619","410185","414391","415082","411187","414391","410183","Sternberg task","54","48171","59","yes","1024"
"91.66666666666667","91.66666666666667","811.9","811.9","black","experiment","legacy","legacy","legacy","0","uniform","1","undefined","1","left","59","59","59","0","0","0","0","0","0","59","59","59","59","59","59","Sun Oct 24 19:57:34 2021","The main experiment item","yes","Sternbergtask.osexp","C:/Users/User/Desktop/School/Research Methods","no","mono","no","18","no","white","no","yes","768","legacy","47","11","C:/Users/User/Desktop/School/Research Methods/LW-Subject-4-Stern.csv","legacy","8","Lentiform Loewenfeld","3.3.9","1","y","0","left","left","left","NA","left","543","41045","11066","NA","543","2","legacy","1","1024","2","48000","-16","experiment","4","even","8","415086","418379","209938","2040","121553","43086","NA","2032","132619","416175","420381","420926","417177","420381","416173","Sternberg task","55","48714","60","yes","1024"
"91.80327868852459","91.80327868852459","805.4426229508197","805.4426229508197","black","experiment","legacy","legacy","legacy","0","uniform","1","undefined","1","right","60","60","60","0","0","0","0","0","0","60","60","60","60","60","60","Sun Oct 24 19:57:34 2021","The main experiment item","yes","Sternbergtask.osexp","C:/Users/User/Desktop/School/Research Methods","no","mono","no","18","no","white","no","yes","768","legacy","48","11","C:/Users/User/Desktop/School/Research Methods/LW-Subject-4-Stern.csv","legacy","1 4 9 3","Lentiform Loewenfeld","3.3.9","0","n","0","right","left","left","NA","right","418","41045","11066","NA","418","2","legacy","4","1024","2","48000","-16","experiment","4","even","5","420929","424224","209938","2040","121553","43086","NA","2032","132619","422020","426226","426645","423022","426226","422018","Sternberg task","56","49132","61","yes","1024"
"90.3225806451613","90.3225806451613","798","798","black","experiment","legacy","legacy","legacy","0","uniform","0","undefined","0","left","61","61","61","0","0","0","0","0","0","61","61","61","61","61","61","Sun Oct 24 19:57:34 2021","The main experiment item","yes","Sternbergtask.osexp","C:/Users/User/Desktop/School/Research Methods","no","mono","no","18","no","white","no","yes","768","legacy","49","11","C:/Users/User/Desktop/School/Research Methods/LW-Subject-4-Stern.csv","legacy","7 2 3","Lentiform Loewenfeld","3.3.9","3","y","0","right","left","left","NA","right","344","41045","11066","NA","344","2","legacy","3","1024","2","48000","-16","experiment","4","even","3","426649","429943","209938","2040","121553","43086","NA","2032","132619","427739","431945","432290","428741","431945","427737","Sternberg task","56","49476","62","yes","1024"
"90.47619047619048","90.47619047619048","798.2698412698413","798.2698412698413","black","experiment","legacy","legacy","legacy","0","uniform","1","undefined","1","left","62","62","62","0","0","0","0","0","0","62","62","62","62","62","62","Sun Oct 24 19:57:34 2021","The main experiment item","yes","Sternbergtask.osexp","C:/Users/User/Desktop/School/Research Methods","no","mono","no","18","no","white","no","yes","768","legacy","50","11","C:/Users/User/Desktop/School/Research Methods/LW-Subject-4-Stern.csv","legacy","2 3 7 4","Lentiform Loewenfeld","3.3.9","1","y","0","left","left","left","NA","left","815","41045","11066","NA","815","2","legacy","4","1024","2","48000","-16","experiment","4","even","2","426649","435589","432294","2040","121553","43086","NA","2032","132619","433385","437591","438408","434387","437591","433382","Sternberg task","57","50291","63","yes","1024"
"90.625","90.625","791.90625","791.90625","black","experiment","legacy","legacy","legacy","0","uniform","1","undefined","1","left","63","63","63","0","0","0","0","0","0","63","63","63","63","63","63","Sun Oct 24 19:57:34 2021","The main experiment item","yes","Sternbergtask.osexp","C:/Users/User/Desktop/School/Research Methods","no","mono","no","18","no","white","no","yes","768","legacy","51","11","C:/Users/User/Desktop/School/Research Methods/LW-Subject-4-Stern.csv","legacy","7","Lentiform Loewenfeld","3.3.9","1","y","0","left","left","left","NA","left","391","41045","11066","NA","391","2","legacy","1","1024","2","48000","-16","experiment","4","even","7","438411","441705","432294","2040","121553","43086","NA","2032","132619","439501","443707","444099","440503","443707","439498","Sternberg task","58","50682","64","yes","1024"
"90.76923076923077","90.76923076923077","787.2615384615384","787.2615384615384","black","experiment","legacy","legacy","legacy","0","uniform","1","undefined","1","right","64","64","64","0","0","0","0","0","0","64","64","64","64","64","64","Sun Oct 24 19:57:34 2021","The main experiment item","yes","Sternbergtask.osexp","C:/Users/User/Desktop/School/Research Methods","no","mono","no","18","no","white","no","yes","768","legacy","52","11","C:/Users/User/Desktop/School/Research Methods/LW-Subject-4-Stern.csv","legacy","9","Lentiform Loewenfeld","3.3.9","0","n","0","right","left","left","NA","right","490","41045","11066","NA","490","2","legacy","1","1024","2","48000","-16","experiment","4","even","6","444103","447397","432294","2040","121553","43086","NA","2032","132619","445193","449399","449890","446195","449399","445191","Sternberg task","59","51172","65","yes","1024"
"90.9090909090909","90.9090909090909","787.969696969697","787.969696969697","black","experiment","legacy","legacy","legacy","0","uniform","1","undefined","1","right","65","65","65","0","0","0","0","0","0","65","65","65","65","65","65","Sun Oct 24 19:57:34 2021","The main experiment item","yes","Sternbergtask.osexp","C:/Users/User/Desktop/School/Research Methods","no","mono","no","18","no","white","no","yes","768","legacy","53","11","C:/Users/User/Desktop/School/Research Methods/LW-Subject-4-Stern.csv","legacy","4 2 6 9","Lentiform Loewenfeld","3.3.9","0","n","0","right","left","left","NA","right","834","41045","11066","NA","834","2","legacy","4","1024","2","48000","-16","experiment","4","even","7","449894","453188","432294","2040","121553","43086","NA","2032","132619","450984","455190","456025","451986","455190","450982","Sternberg task","60","52006","66","yes","1024"
"91.04477611940298","91.04477611940298","786.8955223880597","786.8955223880597","black","experiment","legacy","legacy","legacy","0","uniform","1","undefined","1","right","66","66","66","0","0","0","0","0","0","66","66","66","66","66","66","Sun Oct 24 19:57:34 2021","The main experiment item","yes","Sternbergtask.osexp","C:/Users/User/Desktop/School/Research Methods","no","mono","no","18","no","white","no","yes","768","legacy","54","11","C:/Users/User/Desktop/School/Research Methods/LW-Subject-4-Stern.csv","legacy","7 1 5 6 3","Lentiform Loewenfeld","3.3.9","0","n","0","right","left","left","NA","right","716","41045","11066","NA","716","2","legacy","5","1024","2","48000","-16","experiment","4","even","8","456029","459325","432294","2040","121553","43086","NA","2032","132619","457121","461327","462044","458123","461327","457119","Sternberg task","61","52722","67","yes","1024"
"91.17647058823529","91.17647058823529","784.5441176470588","784.5441176470588","black","experiment","legacy","legacy","legacy","0","uniform","1","undefined","1","right","67","67","67","0","0","0","0","0","0","67","67","67","67","67","67","Sun Oct 24 19:57:34 2021","The main experiment item","yes","Sternbergtask.osexp","C:/Users/User/Desktop/School/Research Methods","no","mono","no","18","no","white","no","yes","768","legacy","55","11","C:/Users/User/Desktop/School/Research Methods/LW-Subject-4-Stern.csv","legacy","8 4 3 5","Lentiform Loewenfeld","3.3.9","0","n","0","right","left","left","NA","right","627","41045","11066","NA","627","2","legacy","4","1024","2","48000","-16","experiment","4","even","6","462048","465342","432294","2040","121553","43086","NA","2032","132619","463138","467344","467972","464140","467344","463136","Sternberg task","62","53349","68","yes","1024"
"91.30434782608695","91.30434782608695","781.4347826086956","781.4347826086956","black","experiment","legacy","legacy","legacy","0","uniform","1","undefined","1","right","68","68","68","0","0","0","0","0","0","68","68","68","68","68","68","Sun Oct 24 19:57:34 2021","The main experiment item","yes","Sternbergtask.osexp","C:/Users/User/Desktop/School/Research Methods","no","mono","no","18","no","white","no","yes","768","legacy","56","11","C:/Users/User/Desktop/School/Research Methods/LW-Subject-4-Stern.csv","legacy","5 3 8 7 2 4","Lentiform Loewenfeld","3.3.9","0","n","0","right","left","left","NA","right","570","41045","11066","NA","570","2","legacy","6","1024","2","48000","-16","experiment","4","even","9","467976","471272","432294","2040","121553","43086","NA","2032","132619","469068","473274","473846","470070","473274","469066","Sternberg task","63","53919","69","yes","1024"
"91.42857142857143","91.42857142857143","779.3285714285714","779.3285714285714","black","experiment","legacy","legacy","legacy","0","uniform","1","undefined","1","right","69","69","69","0","0","0","0","0","0","69","69","69","69","69","69","Sun Oct 24 19:57:34 2021","The main experiment item","yes","Sternbergtask.osexp","C:/Users/User/Desktop/School/Research Methods","no","mono","no","18","no","white","no","yes","768","legacy","57","11","C:/Users/User/Desktop/School/Research Methods/LW-Subject-4-Stern.csv","legacy","9 7 4 5 8","Lentiform Loewenfeld","3.3.9","0","n","0","right","left","left","NA","right","634","41045","11066","NA","634","2","legacy","5","1024","2","48000","-16","experiment","4","even","6","473850","477146","432294","2040","121553","43086","NA","2032","132619","474942","479148","479784","475944","479148","474940","Sternberg task","64","54553","70","yes","1024"
"91.54929577464789","91.54929577464789","778.0704225352113","778.0704225352113","black","experiment","legacy","legacy","legacy","0","uniform","1","undefined","1","left","70","70","70","0","0","0","0","0","0","70","70","70","70","70","70","Sun Oct 24 19:57:34 2021","The main experiment item","yes","Sternbergtask.osexp","C:/Users/User/Desktop/School/Research Methods","no","mono","no","18","no","white","no","yes","768","legacy","58","11","C:/Users/User/Desktop/School/Research Methods/LW-Subject-4-Stern.csv","legacy","9 1 6 7 8","Lentiform Loewenfeld","3.3.9","1","y","0","left","left","left","NA","left","690","41045","11066","NA","690","2","legacy","5","1024","2","48000","-16","experiment","4","even","9","479788","483088","432294","2040","121553","43086","NA","2032","132619","480884","485090","485781","481886","485090","480881","Sternberg task","65","55243","71","yes","1024"
"91.66666666666667","91.66666666666667","774.4166666666666","774.4166666666666","black","experiment","legacy","legacy","legacy","0","uniform","1","undefined","1","right","71","71","71","0","0","0","0","0","0","71","71","71","71","71","71","Sun Oct 24 19:57:34 2021","The main experiment item","yes","Sternbergtask.osexp","C:/Users/User/Desktop/School/Research Methods","no","mono","no","18","no","white","no","yes","768","legacy","59","11","C:/Users/User/Desktop/School/Research Methods/LW-Subject-4-Stern.csv","legacy","7 8 6 1","Lentiform Loewenfeld","3.3.9","0","n","0","right","left","left","NA","right","515","41045","11066","NA","515","2","legacy","4","1024","2","48000","-16","experiment","4","even","3","485785","489083","432294","2040","121553","43086","NA","2032","132619","486879","491085","491601","487881","491085","486877","Sternberg task","66","55758","72","yes","1024"
"91.78082191780823","91.78082191780823","776.972602739726","776.972602739726","black","experiment","legacy","legacy","legacy","0","uniform","1","undefined","1","right","72","72","72","0","0","0","0","0","0","72","72","72","72","72","72","Sun Oct 24 19:57:34 2021","The main experiment item","yes","Sternbergtask.osexp","C:/Users/User/Desktop/School/Research Methods","no","mono","no","18","no","white","no","yes","768","legacy","60","11","C:/Users/User/Desktop/School/Research Methods/LW-Subject-4-Stern.csv","legacy","8 2 1 4 5 9","Lentiform Loewenfeld","3.3.9","0","n","0","right","left","left","NA","right","961","41045","11066","NA","961","2","legacy","6","1024","2","48000","-16","experiment","4","even","7","491605","494902","432294","2040","121553","43086","NA","2032","132619","492697","496904","497867","493700","496904","492695","Sternberg task","67","56719","73","yes","1024"
"91.89189189189189","91.89189189189189","774.4864864864865","774.4864864864865","black","experiment","legacy","legacy","legacy","0","uniform","1","undefined","1","left","73","73","73","0","0","0","0","0","0","73","73","73","73","73","73","Sun Oct 24 19:57:34 2021","The main experiment item","yes","Sternbergtask.osexp","C:/Users/User/Desktop/School/Research Methods","no","mono","no","18","no","white","no","yes","768","legacy","61","11","C:/Users/User/Desktop/School/Research Methods/LW-Subject-4-Stern.csv","legacy","9 8 4","Lentiform Loewenfeld","3.3.9","1","y","0","left","left","left","NA","left","593","41045","11066","NA","593","2","legacy","3","1024","2","48000","-16","experiment","4","even","9","497871","501167","432294","2040","121553","43086","NA","2032","132619","498963","503169","503763","499965","503169","498961","Sternberg task","68","57312","74","yes","1024"
"90.66666666666667","90.66666666666667","773.7866666666666","773.7866666666666","black","experiment","legacy","legacy","legacy","0","uniform","0","undefined","0","left","74","74","74","0","0","0","0","0","0","74","74","74","74","74","74","Sun Oct 24 19:57:34 2021","The main experiment item","yes","Sternbergtask.osexp","C:/Users/User/Desktop/School/Research Methods","no","mono","no","18","no","white","no","yes","768","legacy","62","11","C:/Users/User/Desktop/School/Research Methods/LW-Subject-4-Stern.csv","legacy","6 8 9 3 4 9","Lentiform Loewenfeld","3.3.9","5","y","0","right","left","left","NA","right","722","41045","11066","NA","722","2","legacy","6","1024","2","48000","-16","experiment","4","even","4","503768","507065","432294","2040","121553","43086","NA","2032","132619","504861","509067","509790","505863","509067","504859","Sternberg task","68","58034","75","yes","1024"
"90.78947368421052","90.78947368421052","771.9605263157895","771.9605263157895","black","experiment","legacy","legacy","legacy","0","uniform","1","undefined","1","right","75","75","75","0","0","0","0","0","0","75","75","75","75","75","75","Sun Oct 24 19:57:34 2021","The main experiment item","yes","Sternbergtask.osexp","C:/Users/User/Desktop/School/Research Methods","no","mono","no","18","no","white","no","yes","768","legacy","63","11","C:/Users/User/Desktop/School/Research Methods/LW-Subject-4-Stern.csv","legacy","6 9 4 5 2","Lentiform Loewenfeld","3.3.9","0","n","0","right","left","left","NA","right","635","41045","11066","NA","635","2","legacy","5","1024","2","48000","-16","experiment","4","even","1","503768","513090","509794","2040","121553","43086","NA","2032","132619","510886","515092","515728","511888","515092","510884","Sternberg task","69","58669","76","yes","1024"
"90.9090909090909","90.9090909090909","773.8441558441558","773.8441558441558","black","experiment","legacy","legacy","legacy","0","uniform","1","undefined","1","left","76","76","76","0","0","0","0","0","0","76","76","76","76","76","76","Sun Oct 24 19:57:34 2021","The main experiment item","yes","Sternbergtask.osexp","C:/Users/User/Desktop/School/Research Methods","no","mono","no","18","no","white","no","yes","768","legacy","64","11","C:/Users/User/Desktop/School/Research Methods/LW-Subject-4-Stern.csv","legacy","7 4 2 6 3 5","Lentiform Loewenfeld","3.3.9","6","y","0","left","left","left","NA","left","917","41045","11066","NA","917","2","legacy","6","1024","2","48000","-16","experiment","4","even","5","515732","519028","509794","2040","121553","43086","NA","2032","132619","516824","521030","521948","517826","521030","516822","Sternberg task","70","59586","77","yes","1024"
"91.02564102564102","91.02564102564102","771.8076923076923","771.8076923076923","black","experiment","legacy","legacy","legacy","0","uniform","1","undefined","1","left","77","77","77","0","0","0","0","0","0","77","77","77","77","77","77","Sun Oct 24 19:57:34 2021","The main experiment item","yes","Sternbergtask.osexp","C:/Users/User/Desktop/School/Research Methods","no","mono","no","18","no","white","no","yes","768","legacy","65","11","C:/Users/User/Desktop/School/Research Methods/LW-Subject-4-Stern.csv","legacy","6 9 3 1","Lentiform Loewenfeld","3.3.9","4","y","0","left","left","left","NA","left","615","41045","11066","NA","615","2","legacy","4","1024","2","48000","-16","experiment","4","even","1","521952","525249","509794","2040","121553","43086","NA","2032","132619","523045","527251","527868","524047","527251","523043","Sternberg task","71","60201","78","yes","1024"
"91.13924050632912","91.13924050632912","772.3164556962025","772.3164556962025","black","experiment","legacy","legacy","legacy","0","uniform","1","undefined","1","right","78","78","78","0","0","0","0","0","0","78","78","78","78","78","78","Sun Oct 24 19:57:34 2021","The main experiment item","yes","Sternbergtask.osexp","C:/Users/User/Desktop/School/Research Methods","no","mono","no","18","no","white","no","yes","768","legacy","66","11","C:/Users/User/Desktop/School/Research Methods/LW-Subject-4-Stern.csv","legacy","1 7 5 2 9","Lentiform Loewenfeld","3.3.9","0","n","0","right","left","left","NA","right","812","41045","11066","NA","812","2","legacy","5","1024","2","48000","-16","experiment","4","even","3","527872","531169","509794","2040","121553","43086","NA","2032","132619","528965","533171","533984","529967","533171","528962","Sternberg task","72","61013","79","yes","1024"
"91.25","91.25","772.125","772.125","black","experiment","legacy","legacy","legacy","0","uniform","1","undefined","1","right","79","79","79","0","0","0","0","0","0","79","79","79","79","79","79","Sun Oct 24 19:57:34 2021","The main experiment item","yes","Sternbergtask.osexp","C:/Users/User/Desktop/School/Research Methods","no","mono","no","18","no","white","no","yes","768","legacy","67","11","C:/Users/User/Desktop/School/Research Methods/LW-Subject-4-Stern.csv","legacy","4 2 7 6 1 3","Lentiform Loewenfeld","3.3.9","0","n","0","right","left","left","NA","right","757","41045","11066","NA","757","2","legacy","6","1024","2","48000","-16","experiment","4","even","8","533988","537285","509794","2040","121553","43086","NA","2032","132619","535080","539287","540045","536083","539287","535078","Sternberg task","73","61770","80","yes","1024"
"91.35802469135803","91.35802469135803","769.4691358024692","769.4691358024692","black","experiment","legacy","legacy","legacy","0","uniform","1","undefined","1","left","80","80","80","0","0","0","0","0","0","80","80","80","80","80","80","Sun Oct 24 19:57:34 2021","The main experiment item","yes","Sternbergtask.osexp","C:/Users/User/Desktop/School/Research Methods","no","mono","no","18","no","white","no","yes","768","legacy","68","11","C:/Users/User/Desktop/School/Research Methods/LW-Subject-4-Stern.csv","legacy","2 8 5 1","Lentiform Loewenfeld","3.3.9","4","y","0","left","left","left","NA","left","557","41045","11066","NA","557","2","legacy","4","1024","2","48000","-16","experiment","4","even","1","540049","543345","509794","2040","121553","43086","NA","2032","132619","541141","545347","545905","542143","545347","541139","Sternberg task","74","62327","81","yes","1024"
"91.46341463414635","91.46341463414635","767.3658536585366","767.3658536585366","black","experiment","legacy","legacy","legacy","0","uniform","1","undefined","1","left","81","81","81","0","0","0","0","0","0","81","81","81","81","81","81","Sun Oct 24 19:57:34 2021","The main experiment item","yes","Sternbergtask.osexp","C:/Users/User/Desktop/School/Research Methods","no","mono","no","18","no","white","no","yes","768","legacy","69","11","C:/Users/User/Desktop/School/Research Methods/LW-Subject-4-Stern.csv","legacy","7 1 3","Lentiform Loewenfeld","3.3.9","2","y","0","left","left","left","NA","left","597","41045","11066","NA","597","2","legacy","3","1024","2","48000","-16","experiment","4","even","1","545909","549203","509794","2040","121553","43086","NA","2032","132619","546999","551205","551803","548001","551205","546997","Sternberg task","75","62924","82","yes","1024"
"91.56626506024097","91.56626506024097","764.722891566265","764.722891566265","black","experiment","legacy","legacy","legacy","0","uniform","1","undefined","1","left","82","82","82","0","0","0","0","0","0","82","82","82","82","82","82","Sun Oct 24 19:57:34 2021","The main experiment item","yes","Sternbergtask.osexp","C:/Users/User/Desktop/School/Research Methods","no","mono","no","18","no","white","no","yes","768","legacy","70","11","C:/Users/User/Desktop/School/Research Methods/LW-Subject-4-Stern.csv","legacy","6 7 9 3 1 2","Lentiform Loewenfeld","3.3.9","1","y","0","left","left","left","NA","left","548","41045","11066","NA","548","2","legacy","6","1024","2","48000","-16","experiment","4","even","6","551807","555107","509794","2040","121553","43086","NA","2032","132619","552903","557109","557659","553905","557109","552901","Sternberg task","76","63472","83","yes","1024"
"91.66666666666667","91.66666666666667","760.952380952381","760.952380952381","black","experiment","legacy","legacy","legacy","0","uniform","1","undefined","1","left","83","83","83","0","0","0","0","0","0","83","83","83","83","83","83","Sun Oct 24 19:57:34 2021","The main experiment item","yes","Sternbergtask.osexp","C:/Users/User/Desktop/School/Research Methods","no","mono","no","18","no","white","no","yes","768","legacy","71","11","C:/Users/User/Desktop/School/Research Methods/LW-Subject-4-Stern.csv","legacy","3 5 4 7","Lentiform Loewenfeld","3.3.9","1","y","0","left","left","left","NA","left","448","41045","11066","NA","448","2","legacy","4","1024","2","48000","-16","experiment","4","even","3","557662","560960","509794","2040","121553","43086","NA","2032","132619","558756","562962","563411","559758","562962","558754","Sternberg task","77","63920","84","yes","1024"
"91.76470588235294","91.76470588235294","756.8941176470588","756.8941176470588","black","experiment","legacy","legacy","legacy","0","uniform","1","undefined","1","left","84","84","84","0","0","0","0","0","0","84","84","84","84","84","84","Sun Oct 24 19:57:34 2021","The main experiment item","yes","Sternbergtask.osexp","C:/Users/User/Desktop/School/Research Methods","no","mono","no","18","no","white","no","yes","768","legacy","72","11","C:/Users/User/Desktop/School/Research Methods/LW-Subject-4-Stern.csv","legacy","5 7 3 6 2","Lentiform Loewenfeld","3.3.9","5","y","0","left","left","left","NA","left","416","41045","11066","NA","416","2","legacy","5","1024","2","48000","-16","experiment","4","even","2","563415","566717","509794","2040","121553","43086","NA","2032","132619","564513","568719","569137","565515","568719","564511","Sternberg task","78","64336","85","yes","1024"
"91.86046511627907","91.86046511627907","755.2674418604652","755.2674418604652","black","experiment","legacy","legacy","legacy","0","uniform","1","undefined","1","right","85","85","85","0","0","0","0","0","0","85","85","85","85","85","85","Sun Oct 24 19:57:34 2021","The main experiment item","yes","Sternbergtask.osexp","C:/Users/User/Desktop/School/Research Methods","no","mono","no","18","no","white","no","yes","768","legacy","73","11","C:/Users/User/Desktop/School/Research Methods/LW-Subject-4-Stern.csv","legacy","1 7 8 3 9","Lentiform Loewenfeld","3.3.9","0","n","0","right","left","left","NA","right","617","41045","11066","NA","617","2","legacy","5","1024","2","48000","-16","experiment","4","even","2","569141","572434","509794","2040","121553","43086","NA","2032","132619","570230","574436","575054","571232","574436","570228","Sternberg task","79","64953","86","yes","1024"
"91.95402298850574","91.95402298850574","752.7816091954023","752.7816091954023","black","experiment","legacy","legacy","legacy","0","uniform","1","undefined","1","left","86","86","86","0","0","0","0","0","0","86","86","86","86","86","86","Sun Oct 24 19:57:34 2021","The main experiment item","yes","Sternbergtask.osexp","C:/Users/User/Desktop/School/Research Methods","no","mono","no","18","no","white","no","yes","768","legacy","74","11","C:/Users/User/Desktop/School/Research Methods/LW-Subject-4-Stern.csv","legacy","4 6 2 5 1","Lentiform Loewenfeld","3.3.9","5","y","0","left","left","left","NA","left","539","41045","11066","NA","539","2","legacy","5","1024","2","48000","-16","experiment","4","even","1","575058","578352","509794","2040","121553","43086","NA","2032","132619","576148","580354","580895","577150","580354","576146","Sternberg task","80","65492","87","yes","1024"
"92.04545454545455","92.04545454545455","753.2613636363636","753.2613636363636","black","experiment","legacy","legacy","legacy","0","uniform","1","undefined","1","left","87","87","87","0","0","0","0","0","0","87","87","87","87","87","87","Sun Oct 24 19:57:34 2021","The main experiment item","yes","Sternbergtask.osexp","C:/Users/User/Desktop/School/Research Methods","no","mono","no","18","no","white","no","yes","768","legacy","75","11","C:/Users/User/Desktop/School/Research Methods/LW-Subject-4-Stern.csv","legacy","3 9 7 6 4","Lentiform Loewenfeld","3.3.9","3","y","0","left","left","left","NA","left","795","41045","11066","NA","795","2","legacy","5","1024","2","48000","-16","experiment","4","even","7","580899","584195","509794","2040","121553","43086","NA","2032","132619","581991","586197","586994","582993","586197","581989","Sternberg task","81","66287","88","yes","1024"
"92.13483146067416","92.13483146067416","751.7752808988764","751.7752808988764","black","experiment","legacy","legacy","legacy","0","uniform","1","undefined","1","right","88","88","88","0","0","0","0","0","0","88","88","88","88","88","88","Sun Oct 24 19:57:34 2021","The main experiment item","yes","Sternbergtask.osexp","C:/Users/User/Desktop/School/Research Methods","no","mono","no","18","no","white","no","yes","768","legacy","76","11","C:/Users/User/Desktop/School/Research Methods/LW-Subject-4-Stern.csv","legacy","2 8 9 4 1","Lentiform Loewenfeld","3.3.9","0","n","0","right","left","left","NA","right","621","41045","11066","NA","621","2","legacy","5","1024","2","48000","-16","experiment","4","even","5","586997","590293","509794","2040","121553","43086","NA","2032","132619","588089","592295","592917","589091","592295","588087","Sternberg task","82","66908","89","yes","1024"
"92.22222222222223","92.22222222222223","751.8222222222222","751.8222222222222","black","experiment","legacy","legacy","legacy","0","uniform","1","undefined","1","left","89","89","89","0","0","0","0","0","0","89","89","89","89","89","89","Sun Oct 24 19:57:34 2021","The main experiment item","yes","Sternbergtask.osexp","C:/Users/User/Desktop/School/Research Methods","no","mono","no","18","no","white","no","yes","768","legacy","77","11","C:/Users/User/Desktop/School/Research Methods/LW-Subject-4-Stern.csv","legacy","6 7 8 5","Lentiform Loewenfeld","3.3.9","3","y","0","left","left","left","NA","left","756","41045","11066","NA","756","2","legacy","4","1024","2","48000","-16","experiment","4","even","8","592921","596215","509794","2040","121553","43086","NA","2032","132619","594011","598217","598975","595013","598217","594009","Sternberg task","83","67664","90","yes","1024"
"92.3076923076923","92.3076923076923","748.1868131868132","748.1868131868132","black","experiment","legacy","legacy","legacy","0","uniform","1","undefined","1","right","90","90","90","0","0","0","0","0","0","90","90","90","90","90","90","Sun Oct 24 19:57:34 2021","The main experiment item","yes","Sternbergtask.osexp","C:/Users/User/Desktop/School/Research Methods","no","mono","no","18","no","white","no","yes","768","legacy","78","11","C:/Users/User/Desktop/School/Research Methods/LW-Subject-4-Stern.csv","legacy","6 8 4","Lentiform Loewenfeld","3.3.9","0","n","0","right","left","left","NA","right","421","41045","11066","NA","421","2","legacy","3","1024","2","48000","-16","experiment","4","even","1","598978","602274","509794","2040","121553","43086","NA","2032","132619","600070","604276","604698","601072","604276","600068","Sternberg task","84","68085","91","yes","1024"
"92.3913043478261","92.3913043478261","745.5108695652174","745.5108695652174","black","experiment","legacy","legacy","legacy","0","uniform","1","undefined","1","right","91","91","91","0","0","0","0","0","0","91","91","91","91","91","91","Sun Oct 24 19:57:34 2021","The main experiment item","yes","Sternbergtask.osexp","C:/Users/User/Desktop/School/Research Methods","no","mono","no","18","no","white","no","yes","768","legacy","79","11","C:/Users/User/Desktop/School/Research Methods/LW-Subject-4-Stern.csv","legacy","2 7 5","Lentiform Loewenfeld","3.3.9","0","n","0","right","left","left","NA","right","502","41045","11066","NA","502","2","legacy","3","1024","2","48000","-16","experiment","4","even","8","604702","608003","509794","2040","121553","43086","NA","2032","132619","605799","610005","610509","606801","610005","605797","Sternberg task","85","68587","92","yes","1024"
"92.47311827956989","92.47311827956989","745.505376344086","745.505376344086","black","experiment","legacy","legacy","legacy","0","uniform","1","undefined","1","right","92","92","92","0","0","0","0","0","0","92","92","92","92","92","92","Sun Oct 24 19:57:34 2021","The main experiment item","yes","Sternbergtask.osexp","C:/Users/User/Desktop/School/Research Methods","no","mono","no","18","no","white","no","yes","768","legacy","80","11","C:/Users/User/Desktop/School/Research Methods/LW-Subject-4-Stern.csv","legacy","6 2 9 3 8 4","Lentiform Loewenfeld","3.3.9","0","n","0","right","left","left","NA","right","745","41045","11066","NA","745","2","legacy","6","1024","2","48000","-16","experiment","4","even","1","610513","613807","509794","2040","121553","43086","NA","2032","132619","611603","615809","616555","612605","615809","611601","Sternberg task","86","69332","93","yes","1024"
"92.55319148936171","92.55319148936171","744.6702127659574","744.6702127659574","black","experiment","legacy","legacy","legacy","0","uniform","1","undefined","1","right","93","93","93","0","0","0","0","0","0","93","93","93","93","93","93","Sun Oct 24 19:57:34 2021","The main experiment item","yes","Sternbergtask.osexp","C:/Users/User/Desktop/School/Research Methods","no","mono","no","18","no","white","no","yes","768","legacy","81","11","C:/Users/User/Desktop/School/Research Methods/LW-Subject-4-Stern.csv","legacy","5","Lentiform Loewenfeld","3.3.9","0","n","0","right","left","left","NA","right","667","41045","11066","NA","667","2","legacy","1","1024","2","48000","-16","experiment","4","even","8","616559","619859","509794","2040","121553","43086","NA","2032","132619","617655","621861","622530","618657","621861","617652","Sternberg task","87","69999","94","yes","1024"
"92.63157894736842","92.63157894736842","743.1368421052632","743.1368421052632","black","experiment","legacy","legacy","legacy","0","uniform","1","undefined","1","right","94","94","94","0","0","0","0","0","0","94","94","94","94","94","94","Sun Oct 24 19:57:34 2021","The main experiment item","yes","Sternbergtask.osexp","C:/Users/User/Desktop/School/Research Methods","no","mono","no","18","no","white","no","yes","768","legacy","82","11","C:/Users/User/Desktop/School/Research Methods/LW-Subject-4-Stern.csv","legacy","3 9 8 1 6 4","Lentiform Loewenfeld","3.3.9","0","n","0","right","left","left","NA","right","599","41045","11066","NA","599","2","legacy","6","1024","2","48000","-16","experiment","4","even","7","622533","625828","509794","2040","121553","43086","NA","2032","132619","623624","627830","628431","624626","627830","623621","Sternberg task","88","70598","95","yes","1024"
"92.70833333333333","92.70833333333333","742.2604166666666","742.2604166666666","black","experiment","legacy","legacy","legacy","0","uniform","1","undefined","1","right","95","95","95","0","0","0","0","0","0","95","95","95","95","95","95","Sun Oct 24 19:57:34 2021","The main experiment item","yes","Sternbergtask.osexp","C:/Users/User/Desktop/School/Research Methods","no","mono","no","18","no","white","no","yes","768","legacy","83","11","C:/Users/User/Desktop/School/Research Methods/LW-Subject-4-Stern.csv","legacy","2 8 7 9 5 3","Lentiform Loewenfeld","3.3.9","0","n","0","right","left","left","NA","right","659","41045","11066","NA","659","2","legacy","6","1024","2","48000","-16","experiment","4","even","6","628435","631737","509794","2040","121553","43086","NA","2032","132619","629533","633739","634400","630535","633739","629531","Sternberg task","89","71257","96","yes","1024"
"92.78350515463917","92.78350515463917","740.9690721649484","740.9690721649484","black","experiment","legacy","legacy","legacy","0","uniform","1","undefined","1","left","96","96","96","0","0","0","0","0","0","96","96","96","96","96","96","Sun Oct 24 19:57:34 2021","The main experiment item","yes","Sternbergtask.osexp","C:/Users/User/Desktop/School/Research Methods","no","mono","no","18","no","white","no","yes","768","legacy","84","11","C:/Users/User/Desktop/School/Research Methods/LW-Subject-4-Stern.csv","legacy","3 5 7 1","Lentiform Loewenfeld","3.3.9","3","y","0","left","left","left","NA","left","617","41045","11066","NA","617","2","legacy","4","1024","2","48000","-16","experiment","4","even","7","634404","637700","509794","2040","121553","43086","NA","2032","132619","635496","639702","640321","636498","639702","635494","Sternberg task","90","71874","97","yes","1024"
"92.85714285714286","92.85714285714286","739.2551020408164","739.2551020408164","black","experiment","legacy","legacy","legacy","0","uniform","1","undefined","1","left","97","97","97","0","0","0","0","0","0","97","97","97","97","97","97","Sun Oct 24 19:57:34 2021","The main experiment item","yes","Sternbergtask.osexp","C:/Users/User/Desktop/School/Research Methods","no","mono","no","18","no","white","no","yes","768","legacy","85","11","C:/Users/User/Desktop/School/Research Methods/LW-Subject-4-Stern.csv","legacy","5 7 8 2 3 8","Lentiform Loewenfeld","3.3.9","5","y","0","left","left","left","NA","left","573","41045","11066","NA","573","2","legacy","6","1024","2","48000","-16","experiment","4","even","3","640325","643619","509794","2040","121553","43086","NA","2032","132619","641415","645621","646195","642417","645621","641413","Sternberg task","91","72447","98","yes","1024"
"92.92929292929293","92.92929292929293","737.3232323232323","737.3232323232323","black","experiment","legacy","legacy","legacy","0","uniform","1","undefined","1","right","98","98","98","0","0","0","0","0","0","98","98","98","98","98","98","Sun Oct 24 19:57:34 2021","The main experiment item","yes","Sternbergtask.osexp","C:/Users/User/Desktop/School/Research Methods","no","mono","no","18","no","white","no","yes","768","legacy","86","11","C:/Users/User/Desktop/School/Research Methods/LW-Subject-4-Stern.csv","legacy","8 5 7 3 6","Lentiform Loewenfeld","3.3.9","0","n","0","right","left","left","NA","right","548","41045","11066","NA","548","2","legacy","5","1024","2","48000","-16","experiment","4","even","9","646199","649496","509794","2040","121553","43086","NA","2032","132619","647292","651498","652047","648294","651498","647290","Sternberg task","92","72995","99","yes","1024"
"93","93","737.38","737.38","black","experiment","legacy","legacy","legacy","0","uniform","1","undefined","1","left","99","99","99","0","0","0","0","0","0","99","99","99","99","99","99","Sun Oct 24 19:57:34 2021","The main experiment item","yes","Sternbergtask.osexp","C:/Users/User/Desktop/School/Research Methods","no","mono","no","18","no","white","no","yes","768","legacy","87","11","C:/Users/User/Desktop/School/Research Methods/LW-Subject-4-Stern.csv","legacy","1 4 9 3 2 5","Lentiform Loewenfeld","3.3.9","3","y","0","left","left","left","NA","left","743","41045","11066","NA","743","2","legacy","6","1024","2","48000","-16","experiment","4","even","9","652051","655348","509794","2040","121553","43086","NA","2032","132619","653144","657350","658095","654146","657350","653142","Sternberg task","93","73738","100","yes","1024"
"93.06930693069307","93.06930693069307","735.2277227722773","735.2277227722773","black","experiment","legacy","legacy","legacy","0","uniform","1","undefined","1","left","100","100","100","0","0","0","0","0","0","100","100","100","100","100","100","Sun Oct 24 19:57:34 2021","The main experiment item","yes","Sternbergtask.osexp","C:/Users/User/Desktop/School/Research Methods","no","mono","no","18","no","white","no","yes","768","legacy","88","11","C:/Users/User/Desktop/School/Research Methods/LW-Subject-4-Stern.csv","legacy","9 4 2","Lentiform Loewenfeld","3.3.9","1","y","0","left","left","left","NA","left","520","41045","11066","NA","520","2","legacy","3","1024","2","48000","-16","experiment","4","even","9","658099","661397","509794","2040","121553","43086","NA","2032","132619","659193","663399","663921","660195","663399","659190","Sternberg task","94","74258","101","yes","1024"
"93.13725490196079","93.13725490196079","736.9411764705883","736.9411764705883","black","experiment","legacy","legacy","legacy","0","uniform","1","undefined","1","left","101","101","101","0","0","0","0","0","0","101","101","101","101","101","101","Sun Oct 24 19:57:34 2021","The main experiment item","yes","Sternbergtask.osexp","C:/Users/User/Desktop/School/Research Methods","no","mono","no","18","no","white","no","yes","768","legacy","89","11","C:/Users/User/Desktop/School/Research Methods/LW-Subject-4-Stern.csv","legacy","8 5 4 7 3 1","Lentiform Loewenfeld","3.3.9","2","y","0","left","left","left","NA","left","910","41045","11066","NA","910","2","legacy","6","1024","2","48000","-16","experiment","4","even","5","663924","667221","509794","2040","121553","43086","NA","2032","132619","665017","669223","670134","666019","669223","665015","Sternberg task","95","75168","102","yes","1024"
"93.20388349514563","93.20388349514563","736.757281553398","736.757281553398","black","experiment","legacy","legacy","legacy","0","uniform","1","undefined","1","right","102","102","102","0","0","0","0","0","0","102","102","102","102","102","102","Sun Oct 24 19:57:34 2021","The main experiment item","yes","Sternbergtask.osexp","C:/Users/User/Desktop/School/Research Methods","no","mono","no","18","no","white","no","yes","768","legacy","90","11","C:/Users/User/Desktop/School/Research Methods/LW-Subject-4-Stern.csv","legacy","6 8","Lentiform Loewenfeld","3.3.9","0","n","0","right","left","left","NA","right","718","41045","11066","NA","718","2","legacy","2","1024","2","48000","-16","experiment","4","even","9","670138","673434","509794","2040","121553","43086","NA","2032","132619","671230","675436","676156","672232","675436","671228","Sternberg task","96","75886","103","yes","1024"
"93.26923076923077","93.26923076923077","738.6826923076923","738.6826923076923","black","experiment","legacy","legacy","legacy","0","uniform","1","undefined","1","left","103","103","103","0","0","0","0","0","0","103","103","103","103","103","103","Sun Oct 24 19:57:34 2021","The main experiment item","yes","Sternbergtask.osexp","C:/Users/User/Desktop/School/Research Methods","no","mono","no","18","no","white","no","yes","768","legacy","91","11","C:/Users/User/Desktop/School/Research Methods/LW-Subject-4-Stern.csv","legacy","7 8 6 3 1","Lentiform Loewenfeld","3.3.9","5","y","0","left","left","left","NA","left","937","41045","11066","NA","937","2","legacy","5","1024","2","48000","-16","experiment","4","even","1","676159","679457","509794","2040","121553","43086","NA","2032","132619","677253","681459","682398","678255","681459","677251","Sternberg task","97","76823","104","yes","1024"
"93.33333333333333","93.33333333333333","737.8095238095239","737.8095238095239","black","experiment","legacy","legacy","legacy","0","uniform","1","undefined","1","left","104","104","104","0","0","0","0","0","0","104","104","104","104","104","104","Sun Oct 24 19:57:34 2021","The main experiment item","yes","Sternbergtask.osexp","C:/Users/User/Desktop/School/Research Methods","no","mono","no","18","no","white","no","yes","768","legacy","92","11","C:/Users/User/Desktop/School/Research Methods/LW-Subject-4-Stern.csv","legacy","2 5 4 8 7","Lentiform Loewenfeld","3.3.9","3","y","0","left","left","left","NA","left","647","41045","11066","NA","647","2","legacy","5","1024","2","48000","-16","experiment","4","even","4","682402","685699","509794","2040","121553","43086","NA","2032","132619","683494","687701","688350","684497","687701","683492","Sternberg task","98","77470","105","yes","1024"
"93.39622641509433","93.39622641509433","735.877358490566","735.877358490566","black","experiment","legacy","legacy","legacy","0","uniform","1","undefined","1","left","105","105","105","0","0","0","0","0","0","105","105","105","105","105","105","Sun Oct 24 19:57:34 2021","The main experiment item","yes","Sternbergtask.osexp","C:/Users/User/Desktop/School/Research Methods","no","mono","no","18","no","white","no","yes","768","legacy","93","11","C:/Users/User/Desktop/School/Research Methods/LW-Subject-4-Stern.csv","legacy","6 5","Lentiform Loewenfeld","3.3.9","2","y","0","left","left","left","NA","left","533","41045","11066","NA","533","2","legacy","2","1024","2","48000","-16","experiment","4","even","5","688354","691649","509794","2040","121553","43086","NA","2032","132619","689445","693651","694186","690447","693651","689443","Sternberg task","99","78003","106","yes","1024"
"93.45794392523365","93.45794392523365","733.6355140186915","733.6355140186915","black","experiment","legacy","legacy","legacy","0","uniform","1","undefined","1","left","106","106","106","0","0","0","0","0","0","106","106","106","106","106","106","Sun Oct 24 19:57:34 2021","The main experiment item","yes","Sternbergtask.osexp","C:/Users/User/Desktop/School/Research Methods","no","mono","no","18","no","white","no","yes","768","legacy","94","11","C:/Users/User/Desktop/School/Research Methods/LW-Subject-4-Stern.csv","legacy","3 4","Lentiform Loewenfeld","3.3.9","1","y","0","left","left","left","NA","left","496","41045","11066","NA","496","2","legacy","2","1024","2","48000","-16","experiment","4","even","3","694190","697485","509794","2040","121553","43086","NA","2032","132619","695281","699487","699984","696283","699487","695279","Sternberg task","100","78499","107","yes","1024"
"93.51851851851852","93.51851851851852","732.175925925926","732.175925925926","black","experiment","legacy","legacy","legacy","0","uniform","1","undefined","1","left","107","107","107","0","0","0","0","0","0","107","107","107","107","107","107","Sun Oct 24 19:57:34 2021","The main experiment item","yes","Sternbergtask.osexp","C:/Users/User/Desktop/School/Research Methods","no","mono","no","18","no","white","no","yes","768","legacy","95","11","C:/Users/User/Desktop/School/Research Methods/LW-Subject-4-Stern.csv","legacy","2 6 1 7 4","Lentiform Loewenfeld","3.3.9","2","y","0","left","left","left","NA","left","576","41045","11066","NA","576","2","legacy","5","1024","2","48000","-16","experiment","4","even","6","699988","703282","509794","2040","121553","43086","NA","2032","132619","701078","705284","705861","702080","705284","701076","Sternberg task","101","79075","108","yes","1024"
"93.57798165137615","93.57798165137615","734.3669724770642","734.3669724770642","black","experiment","legacy","legacy","legacy","0","uniform","1","undefined","1","left","108","108","108","0","0","0","0","0","0","108","108","108","108","108","108","Sun Oct 24 19:57:34 2021","The main experiment item","yes","Sternbergtask.osexp","C:/Users/User/Desktop/School/Research Methods","no","mono","no","18","no","white","no","yes","768","legacy","96","11","C:/Users/User/Desktop/School/Research Methods/LW-Subject-4-Stern.csv","legacy","6 9 7 4 5 1","Lentiform Loewenfeld","3.3.9","2","y","0","left","left","left","NA","left","971","41045","11066","NA","971","2","legacy","6","1024","2","48000","-16","experiment","4","even","9","705865","709159","509794","2040","121553","43086","NA","2032","132619","706955","711161","712134","707957","711161","706953","Sternberg task","102","80046","109","yes","1024"
"93.63636363636364","93.63636363636364","732.2818181818182","732.2818181818182","black","experiment","legacy","legacy","legacy","0","uniform","1","undefined","1","left","109","109","109","0","0","0","0","0","0","109","109","109","109","109","109","Sun Oct 24 19:57:34 2021","The main experiment item","yes","Sternbergtask.osexp","C:/Users/User/Desktop/School/Research Methods","no","mono","no","18","no","white","no","yes","768","legacy","97","11","C:/Users/User/Desktop/School/Research Methods/LW-Subject-4-Stern.csv","legacy","9 6 2 4 1","Lentiform Loewenfeld","3.3.9","4","y","0","left","left","left","NA","left","505","41045","11066","NA","505","2","legacy","5","1024","2","48000","-16","experiment","4","even","4","712138","715431","509794","2040","121553","43086","NA","2032","132619","713227","717433","717940","714229","717433","713225","Sternberg task","103","80551","110","yes","1024"
"93.69369369369369","93.69369369369369","731.009009009009","731.009009009009","black","experiment","legacy","legacy","legacy","0","uniform","1","undefined","1","left","110","110","110","0","0","0","0","0","0","110","110","110","110","110","110","Sun Oct 24 19:57:34 2021","The main experiment item","yes","Sternbergtask.osexp","C:/Users/User/Desktop/School/Research Methods","no","mono","no","18","no","white","no","yes","768","legacy","98","11","C:/Users/User/Desktop/School/Research Methods/LW-Subject-4-Stern.csv","legacy","7 1 8 5 6 2","Lentiform Loewenfeld","3.3.9","2","y","0","left","left","left","NA","left","591","41045","11066","NA","591","2","legacy","6","1024","2","48000","-16","experiment","4","even","1","717944","721238","509794","2040","121553","43086","NA","2032","132619","719034","723240","723833","720036","723240","719032","Sternberg task","104","81142","111","yes","1024"
"93.75","93.75","728.8392857142857","728.8392857142857","black","experiment","legacy","legacy","legacy","0","uniform","1","undefined","1","left","111","111","111","0","0","0","0","0","0","111","111","111","111","111","111","Sun Oct 24 19:57:34 2021","The main experiment item","yes","Sternbergtask.osexp","C:/Users/User/Desktop/School/Research Methods","no","mono","no","18","no","white","no","yes","768","legacy","99","11","C:/Users/User/Desktop/School/Research Methods/LW-Subject-4-Stern.csv","legacy","5 2 9 6 1 7","Lentiform Loewenfeld","3.3.9","3","y","0","left","left","left","NA","left","488","41045","11066","NA","488","2","legacy","6","1024","2","48000","-16","experiment","4","even","9","723836","727131","509794","2040","121553","43086","NA","2032","132619","724927","729133","729623","725929","729133","724924","Sternberg task","105","81630","112","yes","1024"
