"acc","accuracy","average_response_time","avg_rt","background","block","canvas_backend","clock_backend","color_backend","compensation","coordinates","correct","correct_instruction1","correct_keyboard_response","correct_response","count_Fixation","count_IncorrectFeedback","count_Instructions2","count_MemSet","count_ThankYou","count_correctfeedback","count_expLoop","count_expSequence","count_experiment","count_instruction1","count_isi","count_keyboard_response","count_logger","count_practiceLoop","count_probe","datetime","description","disable_garbage_collection","experiment_file","experiment_path","font_bold","font_family","font_italic","font_size","font_underline","foreground","form_clicks","fullscreen","height","keyboard_backend","live_row","live_row_practiceLoop","logfile","mouse_backend","numberSet","opensesame_codename","opensesame_version","posInSet","present","repeat_cycle","response","response_Instructions2","response_ThankYou","response_instruction1","response_keyboard_response","response_time","response_time_Instructions2","response_time_ThankYou","response_time_instruction1","response_time_keyboard_response","round_decimals","sampler_backend","setSize","sound_buf_size","sound_channels","sound_freq","sound_sample_size","start","subject_nr","subject_parity","target","time_Fixation","time_IncorrectFeedback","time_Instructions2","time_MemSet","time_ThankYou","time_correctfeedback","time_expLoop","time_expSequence","time_experiment","time_instruction1","time_isi","time_keyboard_response","time_logger","time_practiceLoop","time_probe","title","total_correct","total_response_time","total_responses","uniform_coordinates","width"
"0","0","946","946","black","practice","legacy","legacy","legacy","0","uniform","0","undefined","0","left","0","0","0","0","0","0","0","0","0","0","0","0","0","0","0","Tue Oct 20 12:59:17 2020","The main experiment item","yes","Sternbergtask.osexp","C:\Users\chris\OneDrive\Desktop","no","mono","no","18","no","white","no","yes","768","legacy","0","0","C:/Users/chris/OneDrive/Desktop/CM-subject-3.csv","legacy","2 9 4","Lentiform Loewenfeld","3.3.3","3","y","0","right","NA","NA","right","right","946","NA","NA","5111","946","2","legacy","3","1024","2","48000","-16","experiment","3","odd","4","8786","NA","NA","9791","NA","NA","NA","8784","3162","3166","10996","13001","13948","8278","13001","Sternberg task","0","946","1","yes","1024"
"0","0","983","983","black","practice","legacy","legacy","legacy","0","uniform","0","undefined","0","right","1","1","0","1","0","1","0","1","0","0","1","1","1","0","1","Tue Oct 20 12:59:17 2020","The main experiment item","yes","Sternbergtask.osexp","C:\Users\chris\OneDrive\Desktop","no","mono","no","18","no","white","no","yes","768","legacy","1","1","C:/Users/chris/OneDrive/Desktop/CM-subject-3.csv","legacy","9 6 7 4 5","Lentiform Loewenfeld","3.3.3","0","n","0","left","NA","NA","right","left","1020","NA","NA","5111","1020","2","legacy","5","1024","2","48000","-16","experiment","3","odd","3","15149","13992","NA","16154","NA","NA","NA","15147","3162","3166","17358","19363","20384","8278","19363","Sternberg task","0","1966","2","yes","1024"
"33.333333333333336","33.333333333333336","830.6666666666666","830.6666666666666","black","practice","legacy","legacy","legacy","0","uniform","1","undefined","1","right","2","2","0","2","0","2","0","2","0","0","2","2","2","0","2","Tue Oct 20 12:59:17 2020","The main experiment item","yes","Sternbergtask.osexp","C:\Users\chris\OneDrive\Desktop","no","mono","no","18","no","white","no","yes","768","legacy","2","2","C:/Users/chris/OneDrive/Desktop/CM-subject-3.csv","legacy","5","Lentiform Loewenfeld","3.3.3","0","n","0","right","NA","NA","right","right","526","NA","NA","5111","526","2","legacy","1","1024","2","48000","-16","experiment","3","odd","3","21526","20393","NA","22531","NA","NA","NA","21524","3162","3166","23736","25741","26268","8278","25741","Sternberg task","1","2492","3","yes","1024"
"50","50","772.25","772.25","black","practice","legacy","legacy","legacy","0","uniform","1","undefined","1","left","3","3","0","3","0","3","0","3","0","0","3","3","3","0","3","Tue Oct 20 12:59:17 2020","The main experiment item","yes","Sternbergtask.osexp","C:\Users\chris\OneDrive\Desktop","no","mono","no","18","no","white","no","yes","768","legacy","3","3","C:/Users/chris/OneDrive/Desktop/CM-subject-3.csv","legacy","6","Lentiform Loewenfeld","3.3.3","1","y","0","left","NA","NA","right","left","597","NA","NA","5111","597","2","legacy","1","1024","2","48000","-16","experiment","3","odd","6","27421","20393","NA","28426","NA","26276","NA","27419","3162","3166","29631","31636","32234","8278","31636","Sternberg task","2","3089","4","yes","1024"
"40","40","748.8","748.8","black","practice","legacy","legacy","legacy","0","uniform","0","undefined","0","left","4","4","0","4","0","4","0","4","0","0","4","4","4","0","4","Tue Oct 20 12:59:17 2020","The main experiment item","yes","Sternbergtask.osexp","C:\Users\chris\OneDrive\Desktop","no","mono","no","18","no","white","no","yes","768","legacy","4","4","C:/Users/chris/OneDrive/Desktop/CM-subject-3.csv","legacy","1 7 9 8 5","Lentiform Loewenfeld","3.3.3","4","y","0","right","NA","NA","right","right","655","NA","NA","5111","655","2","legacy","5","1024","2","48000","-16","experiment","3","odd","8","33377","20393","NA","34382","NA","32243","NA","33375","3162","3166","35587","37592","38247","8278","37592","Sternberg task","2","3744","5","yes","1024"
"50","50","762.3333333333334","762.3333333333334","black","practice","legacy","legacy","legacy","0","uniform","1","undefined","1","right","5","5","0","5","0","5","0","5","0","0","5","5","5","0","5","Tue Oct 20 12:59:17 2020","The main experiment item","yes","Sternbergtask.osexp","C:\Users\chris\OneDrive\Desktop","no","mono","no","18","no","white","no","yes","768","legacy","5","5","C:/Users/chris/OneDrive/Desktop/CM-subject-3.csv","legacy","3 1 9 4","Lentiform Loewenfeld","3.3.3","0","n","0","right","NA","NA","right","right","830","NA","NA","5111","830","2","legacy","4","1024","2","48000","-16","experiment","3","odd","6","39399","38257","NA","40404","NA","32243","NA","39397","3162","3166","41608","43614","44445","8278","43614","Sternberg task","3","4574","6","yes","1024"
"57.142857142857146","57.142857142857146","728.1428571428571","728.1428571428571","black","practice","legacy","legacy","legacy","0","uniform","1","undefined","1","left","6","6","0","6","0","6","0","6","0","0","6","6","6","0","6","Tue Oct 20 12:59:17 2020","The main experiment item","yes","Sternbergtask.osexp","C:\Users\chris\OneDrive\Desktop","no","mono","no","18","no","white","no","yes","768","legacy","6","6","C:/Users/chris/OneDrive/Desktop/CM-subject-3.csv","legacy","4 3 1 7 9 8","Lentiform Loewenfeld","3.3.3","1","y","0","left","NA","NA","right","left","523","NA","NA","5111","523","2","legacy","6","1024","2","48000","-16","experiment","3","odd","4","45603","38257","NA","46608","NA","44454","NA","45601","3162","3166","47813","49818","50341","8278","49818","Sternberg task","4","5097","7","yes","1024"
"62.5","62.5","706.5","706.5","black","practice","legacy","legacy","legacy","0","uniform","1","undefined","1","left","7","7","0","7","0","7","0","7","0","0","7","7","7","0","7","Tue Oct 20 12:59:17 2020","The main experiment item","yes","Sternbergtask.osexp","C:\Users\chris\OneDrive\Desktop","no","mono","no","18","no","white","no","yes","768","legacy","7","7","C:/Users/chris/OneDrive/Desktop/CM-subject-3.csv","legacy","1 5 2 9","Lentiform Loewenfeld","3.3.3","2","y","0","left","NA","NA","right","left","555","NA","NA","5111","555","2","legacy","4","1024","2","48000","-16","experiment","3","odd","5","51491","38257","NA","52496","NA","50351","NA","51489","3162","3166","53700","55705","56260","8278","55705","Sternberg task","5","5652","8","yes","1024"
"55.55555555555556","55.55555555555556","807.1111111111111","807.1111111111111","black","practice","legacy","legacy","legacy","0","uniform","0","undefined","0","right","8","8","0","8","0","8","0","8","0","0","8","8","8","0","8","Tue Oct 20 12:59:17 2020","The main experiment item","yes","Sternbergtask.osexp","C:\Users\chris\OneDrive\Desktop","no","mono","no","18","no","white","no","yes","768","legacy","8","8","C:/Users/chris/OneDrive/Desktop/CM-subject-3.csv","legacy","4 1 5","Lentiform Loewenfeld","3.3.3","0","n","0","left","NA","NA","right","left","1612","NA","NA","5111","1612","2","legacy","3","1024","2","48000","-16","experiment","3","odd","2","57420","38257","NA","58425","NA","56270","NA","57418","3162","3166","59630","61635","63248","8278","61635","Sternberg task","5","7264","9","yes","1024"
"60","60","791.5","791.5","black","practice","legacy","legacy","legacy","0","uniform","1","undefined","1","left","9","9","0","9","0","9","0","9","0","0","9","9","9","0","9","Tue Oct 20 12:59:17 2020","The main experiment item","yes","Sternbergtask.osexp","C:\Users\chris\OneDrive\Desktop","no","mono","no","18","no","white","no","yes","768","legacy","9","9","C:/Users/chris/OneDrive/Desktop/CM-subject-3.csv","legacy","4 8","Lentiform Loewenfeld","3.3.3","1","y","0","left","NA","NA","right","left","651","NA","NA","5111","651","2","legacy","2","1024","2","48000","-16","experiment","3","odd","4","64395","63256","NA","65401","NA","56270","NA","64393","3162","3166","66606","68611","69262","8278","68611","Sternberg task","6","7915","10","yes","1024"
"63.63636363636363","63.63636363636363","802.5454545454545","802.5454545454545","black","practice","legacy","legacy","legacy","0","uniform","1","undefined","1","right","10","10","0","10","0","10","0","10","0","0","10","10","10","0","10","Tue Oct 20 12:59:17 2020","The main experiment item","yes","Sternbergtask.osexp","C:\Users\chris\OneDrive\Desktop","no","mono","no","18","no","white","no","yes","768","legacy","10","10","C:/Users/chris/OneDrive/Desktop/CM-subject-3.csv","legacy","5 7 8 4 1 2","Lentiform Loewenfeld","3.3.3","0","n","0","right","NA","NA","right","right","913","NA","NA","5111","913","2","legacy","6","1024","2","48000","-16","experiment","3","odd","6","70415","63256","NA","71420","NA","69271","NA","70413","3162","3166","72625","74631","75545","8278","74631","Sternberg task","7","8828","11","yes","1024"
"66.66666666666667","66.66666666666667","782.5833333333334","782.5833333333334","black","practice","legacy","legacy","legacy","0","uniform","1","undefined","1","right","11","11","0","11","0","11","0","11","0","0","11","11","11","0","11","Tue Oct 20 12:59:17 2020","The main experiment item","yes","Sternbergtask.osexp","C:\Users\chris\OneDrive\Desktop","no","mono","no","18","no","white","no","yes","768","legacy","11","11","C:/Users/chris/OneDrive/Desktop/CM-subject-3.csv","legacy","2 1","Lentiform Loewenfeld","3.3.3","0","n","0","right","NA","NA","right","right","563","NA","NA","5111","563","2","legacy","2","1024","2","48000","-16","experiment","3","odd","5","76692","63256","NA","77698","NA","75553","NA","76690","3162","3166","78903","80908","81471","8278","80908","Sternberg task","8","9391","12","yes","1024"
"61.53846153846154","61.53846153846154","793.9230769230769","793.9230769230769","black","experiment","legacy","legacy","legacy","0","uniform","0","undefined","0","left","12","12","0","12","0","12","0","12","0","0","12","12","12","0","12","Tue Oct 20 12:59:17 2020","The main experiment item","yes","Sternbergtask.osexp","C:\Users\chris\OneDrive\Desktop","no","mono","no","18","no","white","no","yes","768","legacy","0","11","C:/Users/chris/OneDrive/Desktop/CM-subject-3.csv","legacy","8 5 4 7 3 1","Lentiform Loewenfeld","3.3.3","2","y","0","right","right","NA","right","right","930","1933","NA","5111","930","2","legacy","6","1024","2","48000","-16","experiment","3","odd","5","84569","63256","82540","85574","NA","81480","84474","84567","3162","3166","86778","88784","89715","8278","88784","Sternberg task","8","10321","13","yes","1024"
"57.142857142857146","57.142857142857146","826.5714285714286","826.5714285714286","black","experiment","legacy","legacy","legacy","0","uniform","0","undefined","0","left","13","13","0","13","0","13","0","13","0","0","13","13","13","0","13","Tue Oct 20 12:59:17 2020","The main experiment item","yes","Sternbergtask.osexp","C:\Users\chris\OneDrive\Desktop","no","mono","no","18","no","white","no","yes","768","legacy","1","11","C:/Users/chris/OneDrive/Desktop/CM-subject-3.csv","legacy","8 5 3 7 4 6","Lentiform Loewenfeld","3.3.3","6","y","0","right","right","NA","right","right","1251","1933","NA","5111","1251","2","legacy","6","1024","2","48000","-16","experiment","3","odd","6","90858","89723","82540","91864","NA","81480","84474","90856","3162","3166","93069","95074","96326","8278","95074","Sternberg task","8","11572","14","yes","1024"
"60","60","824","824","black","experiment","legacy","legacy","legacy","0","uniform","1","undefined","1","right","14","14","0","14","0","14","0","14","0","0","14","14","14","0","14","Tue Oct 20 12:59:17 2020","The main experiment item","yes","Sternbergtask.osexp","C:\Users\chris\OneDrive\Desktop","no","mono","no","18","no","white","no","yes","768","legacy","2","11","C:/Users/chris/OneDrive/Desktop/CM-subject-3.csv","legacy","6 7 5 9","Lentiform Loewenfeld","3.3.3","0","n","0","right","right","NA","right","right","788","1933","NA","5111","788","2","legacy","4","1024","2","48000","-16","experiment","3","odd","2","97479","96338","82540","98484","NA","81480","84474","97477","3162","3166","99690","101695","102484","8278","101695","Sternberg task","9","12360","15","yes","1024"
"56.25","56.25","826.1875","826.1875","black","experiment","legacy","legacy","legacy","0","uniform","0","undefined","0","left","15","15","0","15","0","15","0","15","0","0","15","15","15","0","15","Tue Oct 20 12:59:17 2020","The main experiment item","yes","Sternbergtask.osexp","C:\Users\chris\OneDrive\Desktop","no","mono","no","18","no","white","no","yes","768","legacy","3","11","C:/Users/chris/OneDrive/Desktop/CM-subject-3.csv","legacy","7 4 2 6 3 5","Lentiform Loewenfeld","3.3.3","6","y","0","right","right","NA","right","right","859","1933","NA","5111","859","2","legacy","6","1024","2","48000","-16","experiment","3","odd","5","103669","96338","82540","104674","NA","102495","84474","103667","3162","3166","105879","107884","108744","8278","107884","Sternberg task","9","13219","16","yes","1024"
"58.8235294117647","58.8235294117647","818.0588235294117","818.0588235294117","black","experiment","legacy","legacy","legacy","0","uniform","1","undefined","1","left","16","16","0","16","0","16","0","16","0","0","16","16","16","0","16","Tue Oct 20 12:59:17 2020","The main experiment item","yes","Sternbergtask.osexp","C:\Users\chris\OneDrive\Desktop","no","mono","no","18","no","white","no","yes","768","legacy","4","11","C:/Users/chris/OneDrive/Desktop/CM-subject-3.csv","legacy","1 4 9 3 2 5","Lentiform Loewenfeld","3.3.3","3","y","0","left","right","NA","right","left","688","1933","NA","5111","688","2","legacy","6","1024","2","48000","-16","experiment","3","odd","9","109896","108753","82540","110901","NA","102495","84474","109894","3162","3166","112106","114111","114800","8278","114111","Sternberg task","10","13907","17","yes","1024"
"55.55555555555556","55.55555555555556","821.2222222222222","821.2222222222222","black","experiment","legacy","legacy","legacy","0","uniform","0","undefined","0","left","17","17","0","17","0","17","0","17","0","0","17","17","17","0","17","Tue Oct 20 12:59:17 2020","The main experiment item","yes","Sternbergtask.osexp","C:\Users\chris\OneDrive\Desktop","no","mono","no","18","no","white","no","yes","768","legacy","5","11","C:/Users/chris/OneDrive/Desktop/CM-subject-3.csv","legacy","8 5 1 3 9","Lentiform Loewenfeld","3.3.3","4","y","0","right","right","NA","right","right","875","1933","NA","5111","875","2","legacy","5","1024","2","48000","-16","experiment","3","odd","3","115952","108753","82540","116957","NA","114808","84474","115950","3162","3166","118162","120167","121043","8278","120167","Sternberg task","10","14782","18","yes","1024"
"57.89473684210526","57.89473684210526","813.421052631579","813.421052631579","black","experiment","legacy","legacy","legacy","0","uniform","1","undefined","1","left","18","18","0","18","0","18","0","18","0","0","18","18","18","0","18","Tue Oct 20 12:59:17 2020","The main experiment item","yes","Sternbergtask.osexp","C:\Users\chris\OneDrive\Desktop","no","mono","no","18","no","white","no","yes","768","legacy","6","11","C:/Users/chris/OneDrive/Desktop/CM-subject-3.csv","legacy","3 2 1 4 7","Lentiform Loewenfeld","3.3.3","2","y","0","left","right","NA","right","left","673","1933","NA","5111","673","2","legacy","5","1024","2","48000","-16","experiment","3","odd","2","122210","121054","82540","123215","NA","114808","84474","122208","3162","3166","124420","126425","127098","8278","126425","Sternberg task","11","15455","19","yes","1024"
"60","60","802.2","802.2","black","experiment","legacy","legacy","legacy","0","uniform","1","undefined","1","right","19","19","0","19","0","19","0","19","0","0","19","19","19","0","19","Tue Oct 20 12:59:17 2020","The main experiment item","yes","Sternbergtask.osexp","C:\Users\chris\OneDrive\Desktop","no","mono","no","18","no","white","no","yes","768","legacy","7","11","C:/Users/chris/OneDrive/Desktop/CM-subject-3.csv","legacy","3 9 8 1 6 4","Lentiform Loewenfeld","3.3.3","0","n","0","right","right","NA","right","right","589","1933","NA","5111","589","2","legacy","6","1024","2","48000","-16","experiment","3","odd","7","128251","121054","82540","129256","NA","127107","84474","128249","3162","3166","130460","132466","133056","8278","132466","Sternberg task","12","16044","20","yes","1024"
"61.904761904761905","61.904761904761905","816.3333333333334","816.3333333333334","black","experiment","legacy","legacy","legacy","0","uniform","1","undefined","1","left","20","20","0","20","0","20","0","20","0","0","20","20","20","0","20","Tue Oct 20 12:59:17 2020","The main experiment item","yes","Sternbergtask.osexp","C:\Users\chris\OneDrive\Desktop","no","mono","no","18","no","white","no","yes","768","legacy","8","11","C:/Users/chris/OneDrive/Desktop/CM-subject-3.csv","legacy","4 9 7 8 5 3","Lentiform Loewenfeld","3.3.3","4","y","0","left","right","NA","right","left","1099","1933","NA","5111","1099","2","legacy","6","1024","2","48000","-16","experiment","3","odd","8","134204","121054","82540","135209","NA","133065","84474","134202","3162","3166","136413","138418","139518","8278","138418","Sternberg task","13","17143","21","yes","1024"
"59.09090909090909","59.09090909090909","812.9090909090909","812.9090909090909","black","experiment","legacy","legacy","legacy","0","uniform","0","undefined","0","left","21","21","0","21","0","21","0","21","0","0","21","21","21","0","21","Tue Oct 20 12:59:17 2020","The main experiment item","yes","Sternbergtask.osexp","C:\Users\chris\OneDrive\Desktop","no","mono","no","18","no","white","no","yes","768","legacy","9","11","C:/Users/chris/OneDrive/Desktop/CM-subject-3.csv","legacy","8 1 6","Lentiform Loewenfeld","3.3.3","3","y","0","right","right","NA","right","right","741","1933","NA","5111","741","2","legacy","3","1024","2","48000","-16","experiment","3","odd","6","140670","121054","82540","141675","NA","139527","84474","140668","3162","3166","142880","144885","145626","8278","144885","Sternberg task","13","17884","22","yes","1024"
"60.869565217391305","60.869565217391305","810.0869565217391","810.0869565217391","black","experiment","legacy","legacy","legacy","0","uniform","1","undefined","1","right","22","22","0","22","0","22","0","22","0","0","22","22","22","0","22","Tue Oct 20 12:59:17 2020","The main experiment item","yes","Sternbergtask.osexp","C:\Users\chris\OneDrive\Desktop","no","mono","no","18","no","white","no","yes","768","legacy","10","11","C:/Users/chris/OneDrive/Desktop/CM-subject-3.csv","legacy","9 7 4 5 8","Lentiform Loewenfeld","3.3.3","0","n","0","right","right","NA","right","right","748","1933","NA","5111","748","2","legacy","5","1024","2","48000","-16","experiment","3","odd","6","146774","145635","82540","147779","NA","139527","84474","146771","3162","3166","148984","150989","151738","8278","150989","Sternberg task","14","18632","23","yes","1024"
"58.333333333333336","58.333333333333336","818.375","818.375","black","experiment","legacy","legacy","legacy","0","uniform","0","undefined","0","right","23","23","0","23","0","23","0","23","0","0","23","23","23","0","23","Tue Oct 20 12:59:17 2020","The main experiment item","yes","Sternbergtask.osexp","C:\Users\chris\OneDrive\Desktop","no","mono","no","18","no","white","no","yes","768","legacy","11","11","C:/Users/chris/OneDrive/Desktop/CM-subject-3.csv","legacy","3 9 1","Lentiform Loewenfeld","3.3.3","0","n","0","left","right","NA","right","left","1009","1933","NA","5111","1009","2","legacy","3","1024","2","48000","-16","experiment","3","odd","7","152887","145635","82540","153893","NA","151747","84474","152885","3162","3166","155098","157104","158113","8278","157104","Sternberg task","14","19641","24","yes","1024"
"60","60","812.48","812.48","black","experiment","legacy","legacy","legacy","0","uniform","1","undefined","1","left","24","24","0","24","0","24","0","24","0","0","24","24","24","0","24","Tue Oct 20 12:59:17 2020","The main experiment item","yes","Sternbergtask.osexp","C:\Users\chris\OneDrive\Desktop","no","mono","no","18","no","white","no","yes","768","legacy","12","11","C:/Users/chris/OneDrive/Desktop/CM-subject-3.csv","legacy","7 8 4 6 9 5","Lentiform Loewenfeld","3.3.3","4","y","0","left","right","NA","right","left","671","1933","NA","5111","671","2","legacy","6","1024","2","48000","-16","experiment","3","odd","6","159257","158122","82540","160262","NA","151747","84474","159255","3162","3166","161467","163472","164143","8278","163472","Sternberg task","15","20312","25","yes","1024"
"61.53846153846154","61.53846153846154","803.9230769230769","803.9230769230769","black","experiment","legacy","legacy","legacy","0","uniform","1","undefined","1","right","25","25","0","25","0","25","0","25","0","0","25","25","25","0","25","Tue Oct 20 12:59:17 2020","The main experiment item","yes","Sternbergtask.osexp","C:\Users\chris\OneDrive\Desktop","no","mono","no","18","no","white","no","yes","768","legacy","13","11","C:/Users/chris/OneDrive/Desktop/CM-subject-3.csv","legacy","5 3 2 6 9 8","Lentiform Loewenfeld","3.3.3","0","n","0","right","right","NA","right","right","590","1933","NA","5111","590","2","legacy","6","1024","2","48000","-16","experiment","3","odd","4","165286","158122","82540","166291","NA","164152","84474","165284","3162","3166","167496","169501","170092","8278","169501","Sternberg task","16","20902","26","yes","1024"
"62.96296296296296","62.96296296296296","801.2222222222222","801.2222222222222","black","experiment","legacy","legacy","legacy","0","uniform","1","undefined","1","left","26","26","0","26","0","26","0","26","0","0","26","26","26","0","26","Tue Oct 20 12:59:17 2020","The main experiment item","yes","Sternbergtask.osexp","C:\Users\chris\OneDrive\Desktop","no","mono","no","18","no","white","no","yes","768","legacy","14","11","C:/Users/chris/OneDrive/Desktop/CM-subject-3.csv","legacy","8 9 5 6 7","Lentiform Loewenfeld","3.3.3","1","y","0","left","right","NA","right","left","731","1933","NA","5111","731","2","legacy","5","1024","2","48000","-16","experiment","3","odd","8","171241","158122","82540","172246","NA","170096","84474","171239","3162","3166","173451","175456","176188","8278","175456","Sternberg task","17","21633","27","yes","1024"
"60.714285714285715","60.714285714285715","844.0357142857143","844.0357142857143","black","experiment","legacy","legacy","legacy","0","uniform","0","undefined","0","left","27","27","0","27","0","27","0","27","0","0","27","27","27","0","27","Tue Oct 20 12:59:17 2020","The main experiment item","yes","Sternbergtask.osexp","C:\Users\chris\OneDrive\Desktop","no","mono","no","18","no","white","no","yes","768","legacy","15","11","C:/Users/chris/OneDrive/Desktop/CM-subject-3.csv","legacy","8 9 6 1","Lentiform Loewenfeld","3.3.3","2","y","0","None","right","NA","right","None","2000","1933","NA","5111","2000","2","legacy","4","1024","2","48000","-16","experiment","3","odd","9","177339","158122","82540","178344","NA","176197","84474","177337","3162","3166","179549","181554","183554","8278","181554","Sternberg task","17","23633","28","yes","1024"
"62.06896551724138","62.06896551724138","832.6896551724138","832.6896551724138","black","experiment","legacy","legacy","legacy","0","uniform","1","undefined","1","left","28","28","0","28","0","28","0","28","0","0","28","28","28","0","28","Tue Oct 20 12:59:17 2020","The main experiment item","yes","Sternbergtask.osexp","C:\Users\chris\OneDrive\Desktop","no","mono","no","18","no","white","no","yes","768","legacy","16","11","C:/Users/chris/OneDrive/Desktop/CM-subject-3.csv","legacy","9 4 2","Lentiform Loewenfeld","3.3.3","1","y","0","left","right","NA","right","left","515","1933","NA","5111","515","2","legacy","3","1024","2","48000","-16","experiment","3","odd","9","184696","183563","82540","185702","NA","176197","84474","184694","3162","3166","186907","188912","189428","8278","188912","Sternberg task","18","24148","29","yes","1024"
"63.333333333333336","63.333333333333336","827.7","827.7","black","experiment","legacy","legacy","legacy","0","uniform","1","undefined","1","right","29","29","0","29","0","29","0","29","0","0","29","29","29","0","29","Tue Oct 20 12:59:17 2020","The main experiment item","yes","Sternbergtask.osexp","C:\Users\chris\OneDrive\Desktop","no","mono","no","18","no","white","no","yes","768","legacy","17","11","C:/Users/chris/OneDrive/Desktop/CM-subject-3.csv","legacy","1 7 5 2","Lentiform Loewenfeld","3.3.3","0","n","0","right","right","NA","right","right","683","1933","NA","5111","683","2","legacy","4","1024","2","48000","-16","experiment","3","odd","3","190575","183563","82540","191580","NA","189436","84474","190572","3162","3166","192785","194790","195473","8278","194790","Sternberg task","19","24831","30","yes","1024"
"61.29032258064516","61.29032258064516","820.0322580645161","820.0322580645161","black","experiment","legacy","legacy","legacy","0","uniform","0","undefined","0","left","30","30","0","30","0","30","0","30","0","0","30","30","30","0","30","Tue Oct 20 12:59:17 2020","The main experiment item","yes","Sternbergtask.osexp","C:\Users\chris\OneDrive\Desktop","no","mono","no","18","no","white","no","yes","768","legacy","18","11","C:/Users/chris/OneDrive/Desktop/CM-subject-3.csv","legacy","9 5 8 1","Lentiform Loewenfeld","3.3.3","2","y","0","right","right","NA","right","right","590","1933","NA","5111","590","2","legacy","4","1024","2","48000","-16","experiment","3","odd","5","196624","183563","82540","197629","NA","195482","84474","196622","3162","3166","198834","200840","201431","8278","200840","Sternberg task","19","25421","31","yes","1024"
"62.5","62.5","820.625","820.625","black","experiment","legacy","legacy","legacy","0","uniform","1","undefined","1","left","31","31","0","31","0","31","0","31","0","0","31","31","31","0","31","Tue Oct 20 12:59:17 2020","The main experiment item","yes","Sternbergtask.osexp","C:\Users\chris\OneDrive\Desktop","no","mono","no","18","no","white","no","yes","768","legacy","19","11","C:/Users/chris/OneDrive/Desktop/CM-subject-3.csv","legacy","4 6 2 5 1","Lentiform Loewenfeld","3.3.3","5","y","0","left","right","NA","right","left","839","1933","NA","5111","839","2","legacy","5","1024","2","48000","-16","experiment","3","odd","1","202575","201440","82540","203580","NA","195482","84474","202573","3162","3166","204785","206791","207631","8278","206790","Sternberg task","20","26260","32","yes","1024"
"63.63636363636363","63.63636363636363","832.7272727272727","832.7272727272727","black","experiment","legacy","legacy","legacy","0","uniform","1","undefined","1","right","32","32","0","32","0","32","0","32","0","0","32","32","32","0","32","Tue Oct 20 12:59:17 2020","The main experiment item","yes","Sternbergtask.osexp","C:\Users\chris\OneDrive\Desktop","no","mono","no","18","no","white","no","yes","768","legacy","20","11","C:/Users/chris/OneDrive/Desktop/CM-subject-3.csv","legacy","6 9 5","Lentiform Loewenfeld","3.3.3","0","n","0","right","right","NA","right","right","1220","1933","NA","5111","1220","2","legacy","3","1024","2","48000","-16","experiment","3","odd","8","208797","201440","82540","209802","NA","207640","84474","208795","3162","3166","211007","213013","214234","8278","213013","Sternberg task","21","27480","33","yes","1024"
"64.70588235294117","64.70588235294117","834.8235294117648","834.8235294117648","black","experiment","legacy","legacy","legacy","0","uniform","1","undefined","1","right","33","33","0","33","0","33","0","33","0","0","33","33","33","0","33","Tue Oct 20 12:59:17 2020","The main experiment item","yes","Sternbergtask.osexp","C:\Users\chris\OneDrive\Desktop","no","mono","no","18","no","white","no","yes","768","legacy","21","11","C:/Users/chris/OneDrive/Desktop/CM-subject-3.csv","legacy","2 5 1 4","Lentiform Loewenfeld","3.3.3","0","n","0","right","right","NA","right","right","904","1933","NA","5111","904","2","legacy","4","1024","2","48000","-16","experiment","3","odd","6","215383","201440","82540","216388","NA","214243","84474","215381","3162","3166","217593","219598","220503","8278","219598","Sternberg task","22","28384","34","yes","1024"
"65.71428571428571","65.71428571428571","832.9428571428572","832.9428571428572","black","experiment","legacy","legacy","legacy","0","uniform","1","undefined","1","right","34","34","0","34","0","34","0","34","0","0","34","34","34","0","34","Tue Oct 20 12:59:17 2020","The main experiment item","yes","Sternbergtask.osexp","C:\Users\chris\OneDrive\Desktop","no","mono","no","18","no","white","no","yes","768","legacy","22","11","C:/Users/chris/OneDrive/Desktop/CM-subject-3.csv","legacy","3 4 9 6 7 8","Lentiform Loewenfeld","3.3.3","0","n","0","right","right","NA","right","right","769","1933","NA","5111","769","2","legacy","6","1024","2","48000","-16","experiment","3","odd","2","221651","201440","82540","222656","NA","220512","84474","221649","3162","3166","223861","225866","226636","8278","225866","Sternberg task","23","29153","35","yes","1024"
"66.66666666666667","66.66666666666667","827.7777777777778","827.7777777777778","black","experiment","legacy","legacy","legacy","0","uniform","1","undefined","1","right","35","35","0","35","0","35","0","35","0","0","35","35","35","0","35","Tue Oct 20 12:59:17 2020","The main experiment item","yes","Sternbergtask.osexp","C:\Users\chris\OneDrive\Desktop","no","mono","no","18","no","white","no","yes","768","legacy","23","11","C:/Users/chris/OneDrive/Desktop/CM-subject-3.csv","legacy","2 3 8 5 6 7","Lentiform Loewenfeld","3.3.3","0","n","0","right","right","NA","right","right","647","1933","NA","5111","647","2","legacy","6","1024","2","48000","-16","experiment","3","odd","1","227779","201440","82540","228784","NA","226645","84474","227777","3162","3166","229989","231994","232642","8278","231994","Sternberg task","24","29800","36","yes","1024"
"64.86486486486487","64.86486486486487","824.918918918919","824.918918918919","black","experiment","legacy","legacy","legacy","0","uniform","0","undefined","0","right","36","36","0","36","0","36","0","36","0","0","36","36","36","0","36","Tue Oct 20 12:59:17 2020","The main experiment item","yes","Sternbergtask.osexp","C:\Users\chris\OneDrive\Desktop","no","mono","no","18","no","white","no","yes","768","legacy","24","11","C:/Users/chris/OneDrive/Desktop/CM-subject-3.csv","legacy","7 6 4 8 1 2","Lentiform Loewenfeld","3.3.3","0","n","0","left","right","NA","right","left","722","1933","NA","5111","722","2","legacy","6","1024","2","48000","-16","experiment","3","odd","9","233797","201440","82540","234802","NA","232650","84474","233795","3162","3166","236008","238013","238736","8278","238013","Sternberg task","24","30522","37","yes","1024"
"65.78947368421052","65.78947368421052","825.8947368421053","825.8947368421053","black","experiment","legacy","legacy","legacy","0","uniform","1","undefined","1","left","37","37","0","37","0","37","0","37","0","0","37","37","37","0","37","Tue Oct 20 12:59:17 2020","The main experiment item","yes","Sternbergtask.osexp","C:\Users\chris\OneDrive\Desktop","no","mono","no","18","no","white","no","yes","768","legacy","25","11","C:/Users/chris/OneDrive/Desktop/CM-subject-3.csv","legacy","7 2 3","Lentiform Loewenfeld","3.3.3","3","y","0","left","right","NA","right","left","862","1933","NA","5111","862","2","legacy","3","1024","2","48000","-16","experiment","3","odd","3","239887","238745","82540","240892","NA","232650","84474","239885","3162","3166","242097","244102","244966","8278","244102","Sternberg task","25","31384","38","yes","1024"
"66.66666666666667","66.66666666666667","817.8717948717949","817.8717948717949","black","experiment","legacy","legacy","legacy","0","uniform","1","undefined","1","left","38","38","0","38","0","38","0","38","0","0","38","38","38","0","38","Tue Oct 20 12:59:17 2020","The main experiment item","yes","Sternbergtask.osexp","C:\Users\chris\OneDrive\Desktop","no","mono","no","18","no","white","no","yes","768","legacy","26","11","C:/Users/chris/OneDrive/Desktop/CM-subject-3.csv","legacy","7 1 3","Lentiform Loewenfeld","3.3.3","2","y","0","left","right","NA","right","left","513","1933","NA","5111","513","2","legacy","3","1024","2","48000","-16","experiment","3","odd","1","246122","238745","82540","247127","NA","244977","84474","246120","3162","3166","248332","250337","250851","8278","250337","Sternberg task","26","31897","39","yes","1024"
"67.5","67.5","821.925","821.925","black","experiment","legacy","legacy","legacy","0","uniform","1","undefined","1","left","39","39","0","39","0","39","0","39","0","0","39","39","39","0","39","Tue Oct 20 12:59:17 2020","The main experiment item","yes","Sternbergtask.osexp","C:\Users\chris\OneDrive\Desktop","no","mono","no","18","no","white","no","yes","768","legacy","27","11","C:/Users/chris/OneDrive/Desktop/CM-subject-3.csv","legacy","6 9 7 4 5 1","Lentiform Loewenfeld","3.3.3","2","y","0","left","right","NA","right","left","980","1933","NA","5111","980","2","legacy","6","1024","2","48000","-16","experiment","3","odd","9","252005","238745","82540","253010","NA","250860","84474","252003","3162","3166","254215","256220","257200","8278","256220","Sternberg task","27","32877","40","yes","1024"
"68.29268292682927","68.29268292682927","818.439024390244","818.439024390244","black","experiment","legacy","legacy","legacy","0","uniform","1","undefined","1","right","40","40","0","40","0","40","0","40","0","0","40","40","40","0","40","Tue Oct 20 12:59:17 2020","The main experiment item","yes","Sternbergtask.osexp","C:\Users\chris\OneDrive\Desktop","no","mono","no","18","no","white","no","yes","768","legacy","28","11","C:/Users/chris/OneDrive/Desktop/CM-subject-3.csv","legacy","5 7 3","Lentiform Loewenfeld","3.3.3","0","n","0","right","right","NA","right","right","679","1933","NA","5111","679","2","legacy","3","1024","2","48000","-16","experiment","3","odd","9","258367","238745","82540","259372","NA","257210","84474","258365","3162","3166","260577","262582","263262","8278","262582","Sternberg task","28","33556","41","yes","1024"
"69.04761904761905","69.04761904761905","819.7619047619048","819.7619047619048","black","experiment","legacy","legacy","legacy","0","uniform","1","undefined","1","left","41","41","0","41","0","41","0","41","0","0","41","41","41","0","41","Tue Oct 20 12:59:17 2020","The main experiment item","yes","Sternbergtask.osexp","C:\Users\chris\OneDrive\Desktop","no","mono","no","18","no","white","no","yes","768","legacy","29","11","C:/Users/chris/OneDrive/Desktop/CM-subject-3.csv","legacy","6 9 3 1","Lentiform Loewenfeld","3.3.3","4","y","0","left","right","NA","right","left","874","1933","NA","5111","874","2","legacy","4","1024","2","48000","-16","experiment","3","odd","1","264420","238745","82540","265425","NA","263270","84474","264418","3162","3166","266629","268634","269509","8278","268634","Sternberg task","29","34430","42","yes","1024"
"69.76744186046511","69.76744186046511","823.3953488372093","823.3953488372093","black","experiment","legacy","legacy","legacy","0","uniform","1","undefined","1","right","42","42","0","42","0","42","0","42","0","0","42","42","42","0","42","Tue Oct 20 12:59:17 2020","The main experiment item","yes","Sternbergtask.osexp","C:\Users\chris\OneDrive\Desktop","no","mono","no","18","no","white","no","yes","768","legacy","30","11","C:/Users/chris/OneDrive/Desktop/CM-subject-3.csv","legacy","4 2 7 6 1 3","Lentiform Loewenfeld","3.3.3","0","n","0","right","right","NA","right","right","976","1933","NA","5111","976","2","legacy","6","1024","2","48000","-16","experiment","3","odd","8","270705","238745","82540","271710","NA","269518","84474","270703","3162","3166","272915","274920","275896","8278","274920","Sternberg task","30","35406","43","yes","1024"
"68.18181818181819","68.18181818181819","850.1363636363636","850.1363636363636","black","experiment","legacy","legacy","legacy","0","uniform","0","undefined","0","left","43","43","0","43","0","43","0","43","0","0","43","43","43","0","43","Tue Oct 20 12:59:17 2020","The main experiment item","yes","Sternbergtask.osexp","C:\Users\chris\OneDrive\Desktop","no","mono","no","18","no","white","no","yes","768","legacy","31","11","C:/Users/chris/OneDrive/Desktop/CM-subject-3.csv","legacy","2 6 1 7 4","Lentiform Loewenfeld","3.3.3","2","y","0","None","right","NA","right","None","2000","1933","NA","5111","2000","2","legacy","5","1024","2","48000","-16","experiment","3","odd","6","277037","238745","82540","278042","NA","275905","84474","277035","3162","3166","279247","281252","283252","8278","281252","Sternberg task","30","37406","44","yes","1024"
"68.88888888888889","68.88888888888889","843.5333333333333","843.5333333333333","black","experiment","legacy","legacy","legacy","0","uniform","1","undefined","1","left","44","44","0","44","0","44","0","44","0","0","44","44","44","0","44","Tue Oct 20 12:59:17 2020","The main experiment item","yes","Sternbergtask.osexp","C:\Users\chris\OneDrive\Desktop","no","mono","no","18","no","white","no","yes","768","legacy","32","11","C:/Users/chris/OneDrive/Desktop/CM-subject-3.csv","legacy","2 3 7 4","Lentiform Loewenfeld","3.3.3","1","y","0","left","right","NA","right","left","553","1933","NA","5111","553","2","legacy","4","1024","2","48000","-16","experiment","3","odd","2","284410","283261","82540","285415","NA","275905","84474","284408","3162","3166","286620","288625","289179","8278","288625","Sternberg task","31","37959","45","yes","1024"
"69.56521739130434","69.56521739130434","841.6521739130435","841.6521739130435","black","experiment","legacy","legacy","legacy","0","uniform","1","undefined","1","left","45","45","0","45","0","45","0","45","0","0","45","45","45","0","45","Tue Oct 20 12:59:17 2020","The main experiment item","yes","Sternbergtask.osexp","C:\Users\chris\OneDrive\Desktop","no","mono","no","18","no","white","no","yes","768","legacy","33","11","C:/Users/chris/OneDrive/Desktop/CM-subject-3.csv","legacy","9 1 7 2","Lentiform Loewenfeld","3.3.3","2","y","0","left","right","NA","right","left","757","1933","NA","5111","757","2","legacy","4","1024","2","48000","-16","experiment","3","odd","1","290325","283261","82540","291330","NA","289188","84474","290323","3162","3166","292535","294540","295298","8278","294540","Sternberg task","32","38716","46","yes","1024"
"70.2127659574468","70.2127659574468","834.5531914893617","834.5531914893617","black","experiment","legacy","legacy","legacy","0","uniform","1","undefined","1","left","46","46","0","46","0","46","0","46","0","0","46","46","46","0","46","Tue Oct 20 12:59:17 2020","The main experiment item","yes","Sternbergtask.osexp","C:\Users\chris\OneDrive\Desktop","no","mono","no","18","no","white","no","yes","768","legacy","34","11","C:/Users/chris/OneDrive/Desktop/CM-subject-3.csv","legacy","2 8 5 1","Lentiform Loewenfeld","3.3.3","4","y","0","left","right","NA","right","left","508","1933","NA","5111","508","2","legacy","4","1024","2","48000","-16","experiment","3","odd","1","296445","283261","82540","297450","NA","295307","84474","296443","3162","3166","298655","300660","301169","8278","300660","Sternberg task","33","39224","47","yes","1024"
"68.75","68.75","831.625","831.625","black","experiment","legacy","legacy","legacy","0","uniform","0","undefined","0","right","47","47","0","47","0","47","0","47","0","0","47","47","47","0","47","Tue Oct 20 12:59:17 2020","The main experiment item","yes","Sternbergtask.osexp","C:\Users\chris\OneDrive\Desktop","no","mono","no","18","no","white","no","yes","768","legacy","35","11","C:/Users/chris/OneDrive/Desktop/CM-subject-3.csv","legacy","6 9 4 5 2","Lentiform Loewenfeld","3.3.3","0","n","0","left","right","NA","right","left","694","1933","NA","5111","694","2","legacy","5","1024","2","48000","-16","experiment","3","odd","1","302323","283261","82540","303328","NA","301180","84474","302321","3162","3166","304532","306537","307231","8278","306537","Sternberg task","33","39918","48","yes","1024"
"69.38775510204081","69.38775510204081","827.4081632653061","827.4081632653061","black","experiment","legacy","legacy","legacy","0","uniform","1","undefined","1","left","48","48","0","48","0","48","0","48","0","0","48","48","48","0","48","Tue Oct 20 12:59:17 2020","The main experiment item","yes","Sternbergtask.osexp","C:\Users\chris\OneDrive\Desktop","no","mono","no","18","no","white","no","yes","768","legacy","36","11","C:/Users/chris/OneDrive/Desktop/CM-subject-3.csv","legacy","8 7 3","Lentiform Loewenfeld","3.3.3","1","y","0","left","right","NA","right","left","625","1933","NA","5111","625","2","legacy","3","1024","2","48000","-16","experiment","3","odd","8","308381","307241","82540","309386","NA","301180","84474","308379","3162","3166","310591","312596","313222","8278","312596","Sternberg task","34","40543","49","yes","1024"
"70","70","825.12","825.12","black","experiment","legacy","legacy","legacy","0","uniform","1","undefined","1","left","49","49","0","49","0","49","0","49","0","0","49","49","49","0","49","Tue Oct 20 12:59:17 2020","The main experiment item","yes","Sternbergtask.osexp","C:\Users\chris\OneDrive\Desktop","no","mono","no","18","no","white","no","yes","768","legacy","37","11","C:/Users/chris/OneDrive/Desktop/CM-subject-3.csv","legacy","7 1 8 5 6 2","Lentiform Loewenfeld","3.3.3","2","y","0","left","right","NA","right","left","713","1933","NA","5111","713","2","legacy","6","1024","2","48000","-16","experiment","3","odd","1","314380","307241","82540","315385","NA","313231","84474","314376","3162","3166","316589","318594","319308","8278","318594","Sternberg task","35","41256","50","yes","1024"
"68.62745098039215","68.62745098039215","819.9411764705883","819.9411764705883","black","experiment","legacy","legacy","legacy","0","uniform","0","undefined","0","left","50","50","0","50","0","50","0","50","0","0","50","50","50","0","50","Tue Oct 20 12:59:17 2020","The main experiment item","yes","Sternbergtask.osexp","C:\Users\chris\OneDrive\Desktop","no","mono","no","18","no","white","no","yes","768","legacy","38","11","C:/Users/chris/OneDrive/Desktop/CM-subject-3.csv","legacy","6 8 9 3 4 9","Lentiform Loewenfeld","3.3.3","5","y","0","right","right","NA","right","right","561","1933","NA","5111","561","2","legacy","6","1024","2","48000","-16","experiment","3","odd","4","320463","307241","82540","321468","NA","319317","84474","320461","3162","3166","322672","324678","325240","8278","324678","Sternberg task","35","41817","51","yes","1024"
"69.23076923076923","69.23076923076923","823.0384615384615","823.0384615384615","black","experiment","legacy","legacy","legacy","0","uniform","1","undefined","1","right","51","51","0","51","0","51","0","51","0","0","51","51","51","0","51","Tue Oct 20 12:59:17 2020","The main experiment item","yes","Sternbergtask.osexp","C:\Users\chris\OneDrive\Desktop","no","mono","no","18","no","white","no","yes","768","legacy","39","11","C:/Users/chris/OneDrive/Desktop/CM-subject-3.csv","legacy","4 2 6 9","Lentiform Loewenfeld","3.3.3","0","n","0","right","right","NA","right","right","981","1933","NA","5111","981","2","legacy","4","1024","2","48000","-16","experiment","3","odd","7","326400","325249","82540","327405","NA","319317","84474","326398","3162","3166","328610","330615","331597","8278","330615","Sternberg task","36","42798","52","yes","1024"
"69.81132075471699","69.81132075471699","822.2641509433962","822.2641509433962","black","experiment","legacy","legacy","legacy","0","uniform","1","undefined","1","left","52","52","0","52","0","52","0","52","0","0","52","52","52","0","52","Tue Oct 20 12:59:17 2020","The main experiment item","yes","Sternbergtask.osexp","C:\Users\chris\OneDrive\Desktop","no","mono","no","18","no","white","no","yes","768","legacy","40","11","C:/Users/chris/OneDrive/Desktop/CM-subject-3.csv","legacy","3 9 7 6 4","Lentiform Loewenfeld","3.3.3","3","y","0","left","right","NA","right","left","782","1933","NA","5111","782","2","legacy","5","1024","2","48000","-16","experiment","3","odd","7","332745","325249","82540","333750","NA","331606","84474","332743","3162","3166","334955","336960","337743","8278","336960","Sternberg task","37","43580","53","yes","1024"
"70.37037037037037","70.37037037037037","823.2037037037037","823.2037037037037","black","experiment","legacy","legacy","legacy","0","uniform","1","undefined","1","right","53","53","0","53","0","53","0","53","0","0","53","53","53","0","53","Tue Oct 20 12:59:17 2020","The main experiment item","yes","Sternbergtask.osexp","C:\Users\chris\OneDrive\Desktop","no","mono","no","18","no","white","no","yes","768","legacy","41","11","C:/Users/chris/OneDrive/Desktop/CM-subject-3.csv","legacy","7 3 2 8","Lentiform Loewenfeld","3.3.3","0","n","0","right","right","NA","right","right","873","1933","NA","5111","873","2","legacy","4","1024","2","48000","-16","experiment","3","odd","4","338891","325249","82540","339896","NA","337752","84474","338889","3162","3166","341101","343107","343981","8278","343106","Sternberg task","38","44453","54","yes","1024"
"70.9090909090909","70.9090909090909","820.0363636363636","820.0363636363636","black","experiment","legacy","legacy","legacy","0","uniform","1","undefined","1","right","54","54","0","54","0","54","0","54","0","0","54","54","54","0","54","Tue Oct 20 12:59:17 2020","The main experiment item","yes","Sternbergtask.osexp","C:\Users\chris\OneDrive\Desktop","no","mono","no","18","no","white","no","yes","768","legacy","42","11","C:/Users/chris/OneDrive/Desktop/CM-subject-3.csv","legacy","9 5 3 2 8 6","Lentiform Loewenfeld","3.3.3","0","n","0","right","right","NA","right","right","649","1933","NA","5111","649","2","legacy","6","1024","2","48000","-16","experiment","3","odd","7","345132","325249","82540","346137","NA","343989","84474","345130","3162","3166","347342","349347","349996","8278","349347","Sternberg task","39","45102","55","yes","1024"
"71.42857142857143","71.42857142857143","818.5357142857143","818.5357142857143","black","experiment","legacy","legacy","legacy","0","uniform","1","undefined","1","right","55","55","0","55","0","55","0","55","0","0","55","55","55","0","55","Tue Oct 20 12:59:17 2020","The main experiment item","yes","Sternbergtask.osexp","C:\Users\chris\OneDrive\Desktop","no","mono","no","18","no","white","no","yes","768","legacy","43","11","C:/Users/chris/OneDrive/Desktop/CM-subject-3.csv","legacy","4 8 1 2","Lentiform Loewenfeld","3.3.3","0","n","0","right","right","NA","right","right","736","1933","NA","5111","736","2","legacy","4","1024","2","48000","-16","experiment","3","odd","7","351194","325249","82540","352199","NA","350005","84474","351192","3162","3166","353404","355409","356146","8278","355409","Sternberg task","40","45838","56","yes","1024"
"70.17543859649123","70.17543859649123","818.2105263157895","818.2105263157895","black","experiment","legacy","legacy","legacy","0","uniform","0","undefined","0","right","56","56","0","56","0","56","0","56","0","0","56","56","56","0","56","Tue Oct 20 12:59:17 2020","The main experiment item","yes","Sternbergtask.osexp","C:\Users\chris\OneDrive\Desktop","no","mono","no","18","no","white","no","yes","768","legacy","44","11","C:/Users/chris/OneDrive/Desktop/CM-subject-3.csv","legacy","1 7 5 2 9","Lentiform Loewenfeld","3.3.3","0","n","0","left","right","NA","right","left","800","1933","NA","5111","800","2","legacy","5","1024","2","48000","-16","experiment","3","odd","3","357289","325249","82540","358294","NA","356158","84474","357287","3162","3166","359499","361504","362305","8278","361504","Sternberg task","40","46638","57","yes","1024"
"70.6896551724138","70.6896551724138","812.948275862069","812.948275862069","black","experiment","legacy","legacy","legacy","0","uniform","1","undefined","1","left","57","57","0","57","0","57","0","57","0","0","57","57","57","0","57","Tue Oct 20 12:59:17 2020","The main experiment item","yes","Sternbergtask.osexp","C:\Users\chris\OneDrive\Desktop","no","mono","no","18","no","white","no","yes","768","legacy","45","11","C:/Users/chris/OneDrive/Desktop/CM-subject-3.csv","legacy","3 4","Lentiform Loewenfeld","3.3.3","1","y","0","left","right","NA","right","left","513","1933","NA","5111","513","2","legacy","2","1024","2","48000","-16","experiment","3","odd","3","363455","362315","82540","364460","NA","356158","84474","363453","3162","3166","365665","367670","368184","8278","367670","Sternberg task","41","47151","58","yes","1024"
"71.1864406779661","71.1864406779661","809.7966101694915","809.7966101694915","black","experiment","legacy","legacy","legacy","0","uniform","1","undefined","1","left","58","58","0","58","0","58","0","58","0","0","58","58","58","0","58","Tue Oct 20 12:59:17 2020","The main experiment item","yes","Sternbergtask.osexp","C:\Users\chris\OneDrive\Desktop","no","mono","no","18","no","white","no","yes","768","legacy","46","11","C:/Users/chris/OneDrive/Desktop/CM-subject-3.csv","legacy","2 3","Lentiform Loewenfeld","3.3.3","1","y","0","left","right","NA","right","left","627","1933","NA","5111","627","2","legacy","2","1024","2","48000","-16","experiment","3","odd","2","369350","362315","82540","370354","NA","368196","84474","369348","3162","3166","371559","373564","374192","8278","373564","Sternberg task","42","47778","59","yes","1024"
"71.66666666666667","71.66666666666667","805.2833333333333","805.2833333333333","black","experiment","legacy","legacy","legacy","0","uniform","1","undefined","1","left","59","59","0","59","0","59","0","59","0","0","59","59","59","0","59","Tue Oct 20 12:59:17 2020","The main experiment item","yes","Sternbergtask.osexp","C:\Users\chris\OneDrive\Desktop","no","mono","no","18","no","white","no","yes","768","legacy","47","11","C:/Users/chris/OneDrive/Desktop/CM-subject-3.csv","legacy","3 5 9 6 2 4","Lentiform Loewenfeld","3.3.3","1","y","0","left","right","NA","right","left","539","1933","NA","5111","539","2","legacy","6","1024","2","48000","-16","experiment","3","odd","3","375340","362315","82540","376345","NA","374198","84474","375338","3162","3166","377549","379554","380094","8278","379554","Sternberg task","43","48317","60","yes","1024"
"70.49180327868852","70.49180327868852","806.8360655737705","806.8360655737705","black","experiment","legacy","legacy","legacy","0","uniform","0","undefined","0","right","60","60","0","60","0","60","0","60","0","0","60","60","60","0","60","Tue Oct 20 12:59:17 2020","The main experiment item","yes","Sternbergtask.osexp","C:\Users\chris\OneDrive\Desktop","no","mono","no","18","no","white","no","yes","768","legacy","48","11","C:/Users/chris/OneDrive/Desktop/CM-subject-3.csv","legacy","1 4 9 3","Lentiform Loewenfeld","3.3.3","0","n","0","left","right","NA","right","left","900","1933","NA","5111","900","2","legacy","4","1024","2","48000","-16","experiment","3","odd","5","381249","362315","82540","382254","NA","380108","84474","381247","3162","3166","383458","385463","386364","8278","385463","Sternberg task","43","49217","61","yes","1024"
"70.96774193548387","70.96774193548387","802.9677419354839","802.9677419354839","black","experiment","legacy","legacy","legacy","0","uniform","1","undefined","1","left","61","61","0","61","0","61","0","61","0","0","61","61","61","0","61","Tue Oct 20 12:59:17 2020","The main experiment item","yes","Sternbergtask.osexp","C:\Users\chris\OneDrive\Desktop","no","mono","no","18","no","white","no","yes","768","legacy","49","11","C:/Users/chris/OneDrive/Desktop/CM-subject-3.csv","legacy","9 3 8 2 1 4","Lentiform Loewenfeld","3.3.3","3","y","0","left","right","NA","right","left","567","1933","NA","5111","567","2","legacy","6","1024","2","48000","-16","experiment","3","odd","8","387517","386375","82540","388522","NA","380108","84474","387515","3162","3166","389727","391732","392300","8278","391732","Sternberg task","44","49784","62","yes","1024"
"71.42857142857143","71.42857142857143","799.6825396825396","799.6825396825396","black","experiment","legacy","legacy","legacy","0","uniform","1","undefined","1","left","62","62","0","62","0","62","0","62","0","0","62","62","62","0","62","Tue Oct 20 12:59:17 2020","The main experiment item","yes","Sternbergtask.osexp","C:\Users\chris\OneDrive\Desktop","no","mono","no","18","no","white","no","yes","768","legacy","50","11","C:/Users/chris/OneDrive/Desktop/CM-subject-3.csv","legacy","4 3 2 5 8","Lentiform Loewenfeld","3.3.3","2","y","0","left","right","NA","right","left","596","1933","NA","5111","596","2","legacy","5","1024","2","48000","-16","experiment","3","odd","3","393439","386375","82540","394444","NA","392309","84474","393437","3162","3166","395649","397654","398252","8278","397654","Sternberg task","45","50380","63","yes","1024"
"71.875","71.875","798.0625","798.0625","black","experiment","legacy","legacy","legacy","0","uniform","1","undefined","1","left","63","63","0","63","0","63","0","63","0","0","63","63","63","0","63","Tue Oct 20 12:59:17 2020","The main experiment item","yes","Sternbergtask.osexp","C:\Users\chris\OneDrive\Desktop","no","mono","no","18","no","white","no","yes","768","legacy","51","11","C:/Users/chris/OneDrive/Desktop/CM-subject-3.csv","legacy","3 4 9 6 2 9","Lentiform Loewenfeld","3.3.3","5","y","0","left","right","NA","right","left","696","1933","NA","5111","696","2","legacy","6","1024","2","48000","-16","experiment","3","odd","2","399402","386375","82540","400407","NA","398261","84474","399400","3162","3166","401612","403617","404314","8278","403617","Sternberg task","46","51076","64","yes","1024"
"72.3076923076923","72.3076923076923","794.0615384615385","794.0615384615385","black","experiment","legacy","legacy","legacy","0","uniform","1","undefined","1","left","64","64","0","64","0","64","0","64","0","0","64","64","64","0","64","Tue Oct 20 12:59:17 2020","The main experiment item","yes","Sternbergtask.osexp","C:\Users\chris\OneDrive\Desktop","no","mono","no","18","no","white","no","yes","768","legacy","52","11","C:/Users/chris/OneDrive/Desktop/CM-subject-3.csv","legacy","6 2","Lentiform Loewenfeld","3.3.3","1","y","0","left","right","NA","right","left","538","1933","NA","5111","538","2","legacy","2","1024","2","48000","-16","experiment","3","odd","6","405463","386375","82540","406468","NA","404322","84474","405461","3162","3166","407673","409678","410217","8278","409678","Sternberg task","47","51614","65","yes","1024"
"72.72727272727273","72.72727272727273","795.3636363636364","795.3636363636364","black","experiment","legacy","legacy","legacy","0","uniform","1","undefined","1","right","65","65","0","65","0","65","0","65","0","0","65","65","65","0","65","Tue Oct 20 12:59:17 2020","The main experiment item","yes","Sternbergtask.osexp","C:\Users\chris\OneDrive\Desktop","no","mono","no","18","no","white","no","yes","768","legacy","53","11","C:/Users/chris/OneDrive/Desktop/CM-subject-3.csv","legacy","2 8 6 3 1","Lentiform Loewenfeld","3.3.3","0","n","0","right","right","NA","right","right","880","1933","NA","5111","880","2","legacy","5","1024","2","48000","-16","experiment","3","odd","7","411373","386375","82540","412378","NA","410227","84474","411371","3162","3166","413583","415588","416470","8278","415588","Sternberg task","48","52494","66","yes","1024"
"73.13432835820896","73.13432835820896","801.2388059701492","801.2388059701492","black","experiment","legacy","legacy","legacy","0","uniform","1","undefined","1","right","66","66","0","66","0","66","0","66","0","0","66","66","66","0","66","Tue Oct 20 12:59:17 2020","The main experiment item","yes","Sternbergtask.osexp","C:\Users\chris\OneDrive\Desktop","no","mono","no","18","no","white","no","yes","768","legacy","54","11","C:/Users/chris/OneDrive/Desktop/CM-subject-3.csv","legacy","8 4 3 9","Lentiform Loewenfeld","3.3.3","0","n","0","right","right","NA","right","right","1189","1933","NA","5111","1189","2","legacy","4","1024","2","48000","-16","experiment","3","odd","5","417645","386375","82540","418650","NA","416482","84474","417643","3162","3166","419855","421860","423049","8278","421860","Sternberg task","49","53683","67","yes","1024"
"73.52941176470588","73.52941176470588","800.3529411764706","800.3529411764706","black","experiment","legacy","legacy","legacy","0","uniform","1","undefined","1","right","67","67","0","67","0","67","0","67","0","0","67","67","67","0","67","Tue Oct 20 12:59:17 2020","The main experiment item","yes","Sternbergtask.osexp","C:\Users\chris\OneDrive\Desktop","no","mono","no","18","no","white","no","yes","768","legacy","55","11","C:/Users/chris/OneDrive/Desktop/CM-subject-3.csv","legacy","1 6 4","Lentiform Loewenfeld","3.3.3","0","n","0","right","right","NA","right","right","741","1933","NA","5111","741","2","legacy","3","1024","2","48000","-16","experiment","3","odd","7","424203","386375","82540","425208","NA","423059","84474","424201","3162","3166","426413","428418","429159","8278","428418","Sternberg task","50","54424","68","yes","1024"
"72.46376811594203","72.46376811594203","812.5652173913044","812.5652173913044","black","experiment","legacy","legacy","legacy","0","uniform","0","undefined","0","left","68","68","0","68","0","68","0","68","0","0","68","68","68","0","68","Tue Oct 20 12:59:17 2020","The main experiment item","yes","Sternbergtask.osexp","C:\Users\chris\OneDrive\Desktop","no","mono","no","18","no","white","no","yes","768","legacy","56","11","C:/Users/chris/OneDrive/Desktop/CM-subject-3.csv","legacy","9 5 3 8 4","Lentiform Loewenfeld","3.3.3","1","y","0","right","right","NA","right","right","1643","1933","NA","5111","1643","2","legacy","5","1024","2","48000","-16","experiment","3","odd","9","430304","386375","82540","431309","NA","429168","84474","430302","3162","3166","432514","434520","436164","8278","434520","Sternberg task","50","56067","69","yes","1024"
"72.85714285714286","72.85714285714286","821.9571428571429","821.9571428571429","black","experiment","legacy","legacy","legacy","0","uniform","1","undefined","1","left","69","69","0","69","0","69","0","69","0","0","69","69","69","0","69","Tue Oct 20 12:59:17 2020","The main experiment item","yes","Sternbergtask.osexp","C:\Users\chris\OneDrive\Desktop","no","mono","no","18","no","white","no","yes","768","legacy","57","11","C:/Users/chris/OneDrive/Desktop/CM-subject-3.csv","legacy","5 2 6","Lentiform Loewenfeld","3.3.3","2","y","0","left","right","NA","right","left","1470","1933","NA","5111","1470","2","legacy","3","1024","2","48000","-16","experiment","3","odd","2","437316","436173","82540","438321","NA","429168","84474","437314","3162","3166","439526","441531","443002","8278","441531","Sternberg task","51","57537","70","yes","1024"
"73.2394366197183","73.2394366197183","819.0140845070423","819.0140845070423","black","experiment","legacy","legacy","legacy","0","uniform","1","undefined","1","right","70","70","0","70","0","70","0","70","0","0","70","70","70","0","70","Tue Oct 20 12:59:17 2020","The main experiment item","yes","Sternbergtask.osexp","C:\Users\chris\OneDrive\Desktop","no","mono","no","18","no","white","no","yes","768","legacy","58","11","C:/Users/chris/OneDrive/Desktop/CM-subject-3.csv","legacy","2 6 4 3 9","Lentiform Loewenfeld","3.3.3","0","n","0","right","right","NA","right","right","613","1933","NA","5111","613","2","legacy","5","1024","2","48000","-16","experiment","3","odd","1","444154","436173","82540","445159","NA","443010","84474","444152","3162","3166","446364","448369","448983","8278","448369","Sternberg task","52","58150","71","yes","1024"
"73.61111111111111","73.61111111111111","821.8194444444445","821.8194444444445","black","experiment","legacy","legacy","legacy","0","uniform","1","undefined","1","left","71","71","0","71","0","71","0","71","0","0","71","71","71","0","71","Tue Oct 20 12:59:17 2020","The main experiment item","yes","Sternbergtask.osexp","C:\Users\chris\OneDrive\Desktop","no","mono","no","18","no","white","no","yes","768","legacy","59","11","C:/Users/chris/OneDrive/Desktop/CM-subject-3.csv","legacy","8","Lentiform Loewenfeld","3.3.3","1","y","0","left","right","NA","right","left","1021","1933","NA","5111","1021","2","legacy","1","1024","2","48000","-16","experiment","3","odd","8","450154","436173","82540","451159","NA","448992","84474","450151","3162","3166","452364","454369","455390","8278","454369","Sternberg task","53","59171","72","yes","1024"
"73.97260273972603","73.97260273972603","819.7397260273973","819.7397260273973","black","experiment","legacy","legacy","legacy","0","uniform","1","undefined","1","left","72","72","0","72","0","72","0","72","0","0","72","72","72","0","72","Tue Oct 20 12:59:17 2020","The main experiment item","yes","Sternbergtask.osexp","C:\Users\chris\OneDrive\Desktop","no","mono","no","18","no","white","no","yes","768","legacy","60","11","C:/Users/chris/OneDrive/Desktop/CM-subject-3.csv","legacy","4 1 8 7 5","Lentiform Loewenfeld","3.3.3","3","y","0","left","right","NA","right","left","670","1933","NA","5111","670","2","legacy","5","1024","2","48000","-16","experiment","3","odd","8","456543","436173","82540","457548","NA","455399","84474","456541","3162","3166","458753","460758","461429","8278","460758","Sternberg task","54","59841","73","yes","1024"
"72.97297297297297","72.97297297297297","819.2972972972973","819.2972972972973","black","experiment","legacy","legacy","legacy","0","uniform","0","undefined","0","left","73","73","0","73","0","73","0","73","0","0","73","73","73","0","73","Tue Oct 20 12:59:17 2020","The main experiment item","yes","Sternbergtask.osexp","C:\Users\chris\OneDrive\Desktop","no","mono","no","18","no","white","no","yes","768","legacy","61","11","C:/Users/chris/OneDrive/Desktop/CM-subject-3.csv","legacy","5 7 3 6 2","Lentiform Loewenfeld","3.3.3","5","y","0","right","right","NA","right","right","787","1933","NA","5111","787","2","legacy","5","1024","2","48000","-16","experiment","3","odd","2","462559","436173","82540","463564","NA","461438","84474","462557","3162","3166","464768","466775","467564","8278","466774","Sternberg task","54","60628","74","yes","1024"
"73.33333333333333","73.33333333333333","825.12","825.12","black","experiment","legacy","legacy","legacy","0","uniform","1","undefined","1","right","74","74","0","74","0","74","0","74","0","0","74","74","74","0","74","Tue Oct 20 12:59:17 2020","The main experiment item","yes","Sternbergtask.osexp","C:\Users\chris\OneDrive\Desktop","no","mono","no","18","no","white","no","yes","768","legacy","62","11","C:/Users/chris/OneDrive/Desktop/CM-subject-3.csv","legacy","1 7 8 3 9","Lentiform Loewenfeld","3.3.3","0","n","0","right","right","NA","right","right","1256","1933","NA","5111","1256","2","legacy","5","1024","2","48000","-16","experiment","3","odd","2","468720","467576","82540","469725","NA","461438","84474","468718","3162","3166","470930","472935","474192","8278","472935","Sternberg task","55","61884","75","yes","1024"
"72.36842105263158","72.36842105263158","826.8684210526316","826.8684210526316","black","experiment","legacy","legacy","legacy","0","uniform","0","undefined","0","right","75","75","0","75","0","75","0","75","0","0","75","75","75","0","75","Tue Oct 20 12:59:17 2020","The main experiment item","yes","Sternbergtask.osexp","C:\Users\chris\OneDrive\Desktop","no","mono","no","18","no","white","no","yes","768","legacy","63","11","C:/Users/chris/OneDrive/Desktop/CM-subject-3.csv","legacy","1 4 3 6 5","Lentiform Loewenfeld","3.3.3","0","n","0","left","right","NA","right","left","958","1933","NA","5111","958","2","legacy","5","1024","2","48000","-16","experiment","3","odd","8","475337","467576","82540","476342","NA","474200","84474","475335","3162","3166","477548","479553","480512","8278","479553","Sternberg task","55","62842","76","yes","1024"
"72.72727272727273","72.72727272727273","827.7532467532468","827.7532467532468","black","experiment","legacy","legacy","legacy","0","uniform","1","undefined","1","right","76","76","0","76","0","76","0","76","0","0","76","76","76","0","76","Tue Oct 20 12:59:17 2020","The main experiment item","yes","Sternbergtask.osexp","C:\Users\chris\OneDrive\Desktop","no","mono","no","18","no","white","no","yes","768","legacy","64","11","C:/Users/chris/OneDrive/Desktop/CM-subject-3.csv","legacy","2 8 7 9 5 3","Lentiform Loewenfeld","3.3.3","0","n","0","right","right","NA","right","right","895","1933","NA","5111","895","2","legacy","6","1024","2","48000","-16","experiment","3","odd","6","481662","480521","82540","482667","NA","474200","84474","481660","3162","3166","483872","485877","486773","8278","485877","Sternberg task","56","63737","77","yes","1024"
"73.07692307692308","73.07692307692308","831.2820512820513","831.2820512820513","black","experiment","legacy","legacy","legacy","0","uniform","1","undefined","1","left","77","77","0","77","0","77","0","77","0","0","77","77","77","0","77","Tue Oct 20 12:59:17 2020","The main experiment item","yes","Sternbergtask.osexp","C:\Users\chris\OneDrive\Desktop","no","mono","no","18","no","white","no","yes","768","legacy","65","11","C:/Users/chris/OneDrive/Desktop/CM-subject-3.csv","legacy","3 5 4 7","Lentiform Loewenfeld","3.3.3","1","y","0","left","right","NA","right","left","1103","1933","NA","5111","1103","2","legacy","4","1024","2","48000","-16","experiment","3","odd","3","487956","480521","82540","488961","NA","486781","84474","487954","3162","3166","490166","492172","493275","8278","492171","Sternberg task","57","64840","78","yes","1024"
"73.41772151898734","73.41772151898734","829.5949367088608","829.5949367088608","black","experiment","legacy","legacy","legacy","0","uniform","1","undefined","1","right","78","78","0","78","0","78","0","78","0","0","78","78","78","0","78","Tue Oct 20 12:59:17 2020","The main experiment item","yes","Sternbergtask.osexp","C:\Users\chris\OneDrive\Desktop","no","mono","no","18","no","white","no","yes","768","legacy","66","11","C:/Users/chris/OneDrive/Desktop/CM-subject-3.csv","legacy","7 1 8 4 9 3","Lentiform Loewenfeld","3.3.3","0","n","0","right","right","NA","right","right","698","1933","NA","5111","698","2","legacy","6","1024","2","48000","-16","experiment","3","odd","6","494439","480521","82540","495444","NA","493284","84474","494437","3162","3166","496649","498654","499353","8278","498654","Sternberg task","58","65538","79","yes","1024"
"72.5","72.5","828.5625","828.5625","black","experiment","legacy","legacy","legacy","0","uniform","0","undefined","0","right","79","79","0","79","0","79","0","79","0","0","79","79","79","0","79","Tue Oct 20 12:59:17 2020","The main experiment item","yes","Sternbergtask.osexp","C:\Users\chris\OneDrive\Desktop","no","mono","no","18","no","white","no","yes","768","legacy","67","11","C:/Users/chris/OneDrive/Desktop/CM-subject-3.csv","legacy","6 2 9 3 8 4","Lentiform Loewenfeld","3.3.3","0","n","0","left","right","NA","right","left","747","1933","NA","5111","747","2","legacy","6","1024","2","48000","-16","experiment","3","odd","1","500518","480521","82540","501523","NA","499361","84474","500515","3162","3166","502728","504733","505481","8278","504733","Sternberg task","58","66285","80","yes","1024"
"72.8395061728395","72.8395061728395","826.5432098765432","826.5432098765432","black","experiment","legacy","legacy","legacy","0","uniform","1","undefined","1","left","80","80","0","80","0","80","0","80","0","0","80","80","80","0","80","Tue Oct 20 12:59:17 2020","The main experiment item","yes","Sternbergtask.osexp","C:\Users\chris\OneDrive\Desktop","no","mono","no","18","no","white","no","yes","768","legacy","68","11","C:/Users/chris/OneDrive/Desktop/CM-subject-3.csv","legacy","7 6","Lentiform Loewenfeld","3.3.3","2","y","0","left","right","NA","right","left","665","1933","NA","5111","665","2","legacy","2","1024","2","48000","-16","experiment","3","odd","6","506639","505490","82540","507644","NA","499361","84474","506637","3162","3166","508849","510854","511521","8278","510854","Sternberg task","59","66950","81","yes","1024"
"73.17073170731707","73.17073170731707","823.9146341463414","823.9146341463414","black","experiment","legacy","legacy","legacy","0","uniform","1","undefined","1","right","81","81","0","81","0","81","0","81","0","0","81","81","81","0","81","Tue Oct 20 12:59:17 2020","The main experiment item","yes","Sternbergtask.osexp","C:\Users\chris\OneDrive\Desktop","no","mono","no","18","no","white","no","yes","768","legacy","69","11","C:/Users/chris/OneDrive/Desktop/CM-subject-3.csv","legacy","7 9","Lentiform Loewenfeld","3.3.3","0","n","0","right","right","NA","right","right","611","1933","NA","5111","611","2","legacy","2","1024","2","48000","-16","experiment","3","odd","1","512674","505490","82540","513679","NA","511532","84474","512672","3162","3166","514884","516889","517501","8278","516889","Sternberg task","60","67561","82","yes","1024"
"73.49397590361446","73.49397590361446","820.6385542168674","820.6385542168674","black","experiment","legacy","legacy","legacy","0","uniform","1","undefined","1","right","82","82","0","82","0","82","0","82","0","0","82","82","82","0","82","Tue Oct 20 12:59:17 2020","The main experiment item","yes","Sternbergtask.osexp","C:\Users\chris\OneDrive\Desktop","no","mono","no","18","no","white","no","yes","768","legacy","70","11","C:/Users/chris/OneDrive/Desktop/CM-subject-3.csv","legacy","9","Lentiform Loewenfeld","3.3.3","0","n","0","right","right","NA","right","right","552","1933","NA","5111","552","2","legacy","1","1024","2","48000","-16","experiment","3","odd","6","518667","505490","82540","519672","NA","517509","84474","518665","3162","3166","520877","522882","523435","8278","522882","Sternberg task","61","68113","83","yes","1024"
"73.80952380952381","73.80952380952381","816.6666666666666","816.6666666666666","black","experiment","legacy","legacy","legacy","0","uniform","1","undefined","1","left","83","83","0","83","0","83","0","83","0","0","83","83","83","0","83","Tue Oct 20 12:59:17 2020","The main experiment item","yes","Sternbergtask.osexp","C:\Users\chris\OneDrive\Desktop","no","mono","no","18","no","white","no","yes","768","legacy","71","11","C:/Users/chris/OneDrive/Desktop/CM-subject-3.csv","legacy","6 1 2","Lentiform Loewenfeld","3.3.3","3","y","0","left","right","NA","right","left","487","1933","NA","5111","487","2","legacy","3","1024","2","48000","-16","experiment","3","odd","2","524604","505490","82540","525610","NA","523444","84474","524602","3162","3166","526815","528820","529308","8278","528820","Sternberg task","62","68600","84","yes","1024"
"74.11764705882354","74.11764705882354","818.7176470588236","818.7176470588236","black","experiment","legacy","legacy","legacy","0","uniform","1","undefined","1","right","84","84","0","84","0","84","0","84","0","0","84","84","84","0","84","Tue Oct 20 12:59:17 2020","The main experiment item","yes","Sternbergtask.osexp","C:\Users\chris\OneDrive\Desktop","no","mono","no","18","no","white","no","yes","768","legacy","72","11","C:/Users/chris/OneDrive/Desktop/CM-subject-3.csv","legacy","1 5 3 2 8","Lentiform Loewenfeld","3.3.3","0","n","0","right","right","NA","right","right","991","1933","NA","5111","991","2","legacy","5","1024","2","48000","-16","experiment","3","odd","4","530462","505490","82540","531467","NA","529316","84474","530459","3162","3166","532672","534678","535672","8278","534678","Sternberg task","63","69591","85","yes","1024"
"74.4186046511628","74.4186046511628","817.0232558139535","817.0232558139535","black","experiment","legacy","legacy","legacy","0","uniform","1","undefined","1","right","85","85","0","85","0","85","0","85","0","0","85","85","85","0","85","Tue Oct 20 12:59:17 2020","The main experiment item","yes","Sternbergtask.osexp","C:\Users\chris\OneDrive\Desktop","no","mono","no","18","no","white","no","yes","768","legacy","73","11","C:/Users/chris/OneDrive/Desktop/CM-subject-3.csv","legacy","2 8 9","Lentiform Loewenfeld","3.3.3","0","n","0","right","right","NA","right","right","673","1933","NA","5111","673","2","legacy","3","1024","2","48000","-16","experiment","3","odd","6","536825","505490","82540","537830","NA","535683","84474","536823","3162","3166","539035","541040","541714","8278","541040","Sternberg task","64","70264","86","yes","1024"
"74.71264367816092","74.71264367816092","816.9540229885057","816.9540229885057","black","experiment","legacy","legacy","legacy","0","uniform","1","undefined","1","left","86","86","0","86","0","86","0","86","0","0","86","86","86","0","86","Tue Oct 20 12:59:17 2020","The main experiment item","yes","Sternbergtask.osexp","C:\Users\chris\OneDrive\Desktop","no","mono","no","18","no","white","no","yes","768","legacy","74","11","C:/Users/chris/OneDrive/Desktop/CM-subject-3.csv","legacy","4 1 5","Lentiform Loewenfeld","3.3.3","2","y","0","left","right","NA","right","left","811","1933","NA","5111","811","2","legacy","3","1024","2","48000","-16","experiment","3","odd","1","542862","505490","82540","543867","NA","541722","84474","542860","3162","3166","545072","547077","547889","8278","547077","Sternberg task","65","71075","87","yes","1024"
"75","75","815.9772727272727","815.9772727272727","black","experiment","legacy","legacy","legacy","0","uniform","1","undefined","1","right","87","87","0","87","0","87","0","87","0","0","87","87","87","0","87","Tue Oct 20 12:59:17 2020","The main experiment item","yes","Sternbergtask.osexp","C:\Users\chris\OneDrive\Desktop","no","mono","no","18","no","white","no","yes","768","legacy","75","11","C:/Users/chris/OneDrive/Desktop/CM-subject-3.csv","legacy","8 5 7 3 6","Lentiform Loewenfeld","3.3.3","0","n","0","right","right","NA","right","right","731","1933","NA","5111","731","2","legacy","5","1024","2","48000","-16","experiment","3","odd","9","549042","505490","82540","550047","NA","547900","84474","549039","3162","3166","551252","553257","553989","8278","553257","Sternberg task","66","71806","88","yes","1024"
"75.28089887640449","75.28089887640449","816.0224719101124","816.0224719101124","black","experiment","legacy","legacy","legacy","0","uniform","1","undefined","1","right","88","88","0","88","0","88","0","88","0","0","88","88","88","0","88","Tue Oct 20 12:59:17 2020","The main experiment item","yes","Sternbergtask.osexp","C:\Users\chris\OneDrive\Desktop","no","mono","no","18","no","white","no","yes","768","legacy","76","11","C:/Users/chris/OneDrive/Desktop/CM-subject-3.csv","legacy","8 6 3 4 7","Lentiform Loewenfeld","3.3.3","0","n","0","right","right","NA","right","right","820","1933","NA","5111","820","2","legacy","5","1024","2","48000","-16","experiment","3","odd","1","555153","505490","82540","556158","NA","553999","84474","555151","3162","3166","557362","559367","560188","8278","559367","Sternberg task","67","72626","89","yes","1024"
"75.55555555555556","75.55555555555556","813.1777777777778","813.1777777777778","black","experiment","legacy","legacy","legacy","0","uniform","1","undefined","1","right","89","89","0","89","0","89","0","89","0","0","89","89","89","0","89","Tue Oct 20 12:59:17 2020","The main experiment item","yes","Sternbergtask.osexp","C:\Users\chris\OneDrive\Desktop","no","mono","no","18","no","white","no","yes","768","legacy","77","11","C:/Users/chris/OneDrive/Desktop/CM-subject-3.csv","legacy","5 3 8 7 2 4","Lentiform Loewenfeld","3.3.3","0","n","0","right","right","NA","right","right","560","1933","NA","5111","560","2","legacy","6","1024","2","48000","-16","experiment","3","odd","9","561338","505490","82540","562343","NA","560197","84474","561336","3162","3166","563548","565554","566115","8278","565553","Sternberg task","68","73186","90","yes","1024"
"75.82417582417582","75.82417582417582","815.4945054945055","815.4945054945055","black","experiment","legacy","legacy","legacy","0","uniform","1","undefined","1","left","90","90","0","90","0","90","0","90","0","0","90","90","90","0","90","Tue Oct 20 12:59:17 2020","The main experiment item","yes","Sternbergtask.osexp","C:\Users\chris\OneDrive\Desktop","no","mono","no","18","no","white","no","yes","768","legacy","78","11","C:/Users/chris/OneDrive/Desktop/CM-subject-3.csv","legacy","3 5 7 1","Lentiform Loewenfeld","3.3.3","3","y","0","left","right","NA","right","left","1024","1933","NA","5111","1024","2","legacy","4","1024","2","48000","-16","experiment","3","odd","7","567257","505490","82540","568262","NA","566124","84474","567255","3162","3166","569467","571473","572498","8278","571472","Sternberg task","69","74210","91","yes","1024"
"75","75","812.0326086956521","812.0326086956521","black","experiment","legacy","legacy","legacy","0","uniform","0","undefined","0","left","91","91","0","91","0","91","0","91","0","0","91","91","91","0","91","Tue Oct 20 12:59:17 2020","The main experiment item","yes","Sternbergtask.osexp","C:\Users\chris\OneDrive\Desktop","no","mono","no","18","no","white","no","yes","768","legacy","79","11","C:/Users/chris/OneDrive/Desktop/CM-subject-3.csv","legacy","8 3","Lentiform Loewenfeld","3.3.3","2","y","0","right","right","NA","right","right","497","1933","NA","5111","497","2","legacy","2","1024","2","48000","-16","experiment","3","odd","3","573655","505490","82540","574660","NA","572507","84474","573653","3162","3166","575865","577870","578368","8278","577870","Sternberg task","69","74707","92","yes","1024"
"75.26881720430107","75.26881720430107","810.8924731182796","810.8924731182796","black","experiment","legacy","legacy","legacy","0","uniform","1","undefined","1","left","92","92","0","92","0","92","0","92","0","0","92","92","92","0","92","Tue Oct 20 12:59:17 2020","The main experiment item","yes","Sternbergtask.osexp","C:\Users\chris\OneDrive\Desktop","no","mono","no","18","no","white","no","yes","768","legacy","80","11","C:/Users/chris/OneDrive/Desktop/CM-subject-3.csv","legacy","9 8 4","Lentiform Loewenfeld","3.3.3","1","y","0","left","right","NA","right","left","706","1933","NA","5111","706","2","legacy","3","1024","2","48000","-16","experiment","3","odd","9","579518","578377","82540","580523","NA","572507","84474","579516","3162","3166","581728","583733","584440","8278","583733","Sternberg task","70","75413","93","yes","1024"
"75.53191489361703","75.53191489361703","811.1276595744681","811.1276595744681","black","experiment","legacy","legacy","legacy","0","uniform","1","undefined","1","left","93","93","0","93","0","93","0","93","0","0","93","93","93","0","93","Tue Oct 20 12:59:17 2020","The main experiment item","yes","Sternbergtask.osexp","C:\Users\chris\OneDrive\Desktop","no","mono","no","18","no","white","no","yes","768","legacy","81","11","C:/Users/chris/OneDrive/Desktop/CM-subject-3.csv","legacy","8 9 5 7 1 6","Lentiform Loewenfeld","3.3.3","4","y","0","left","right","NA","right","left","833","1933","NA","5111","833","2","legacy","6","1024","2","48000","-16","experiment","3","odd","7","585599","578377","82540","586604","NA","584449","84474","585596","3162","3166","587809","589814","590648","8278","589814","Sternberg task","71","76246","94","yes","1024"
"75.78947368421052","75.78947368421052","808.021052631579","808.021052631579","black","experiment","legacy","legacy","legacy","0","uniform","1","undefined","1","right","94","94","0","94","0","94","0","94","0","0","94","94","94","0","94","Tue Oct 20 12:59:17 2020","The main experiment item","yes","Sternbergtask.osexp","C:\Users\chris\OneDrive\Desktop","no","mono","no","18","no","white","no","yes","768","legacy","82","11","C:/Users/chris/OneDrive/Desktop/CM-subject-3.csv","legacy","1 8 7","Lentiform Loewenfeld","3.3.3","0","n","0","right","right","NA","right","right","516","1933","NA","5111","516","2","legacy","3","1024","2","48000","-16","experiment","3","odd","4","591795","578377","82540","592800","NA","590657","84474","591793","3162","3166","594005","596010","596527","8278","596010","Sternberg task","72","76762","95","yes","1024"
"76.04166666666667","76.04166666666667","808.65625","808.65625","black","experiment","legacy","legacy","legacy","0","uniform","1","undefined","1","right","95","95","0","95","0","95","0","95","0","0","95","95","95","0","95","Tue Oct 20 12:59:17 2020","The main experiment item","yes","Sternbergtask.osexp","C:\Users\chris\OneDrive\Desktop","no","mono","no","18","no","white","no","yes","768","legacy","83","11","C:/Users/chris/OneDrive/Desktop/CM-subject-3.csv","legacy","6 9 4 5 3 2","Lentiform Loewenfeld","3.3.3","0","n","0","right","right","NA","right","right","869","1933","NA","5111","869","2","legacy","6","1024","2","48000","-16","experiment","3","odd","8","597673","578377","82540","598678","NA","596536","84474","597671","3162","3166","599883","601888","602758","8278","601888","Sternberg task","73","77631","96","yes","1024"
"76.28865979381443","76.28865979381443","810.7319587628866","810.7319587628866","black","experiment","legacy","legacy","legacy","0","uniform","1","undefined","1","left","96","96","0","96","0","96","0","96","0","0","96","96","96","0","96","Tue Oct 20 12:59:17 2020","The main experiment item","yes","Sternbergtask.osexp","C:\Users\chris\OneDrive\Desktop","no","mono","no","18","no","white","no","yes","768","legacy","84","11","C:/Users/chris/OneDrive/Desktop/CM-subject-3.csv","legacy","2 4 6 9","Lentiform Loewenfeld","3.3.3","3","y","0","left","right","NA","right","left","1010","1933","NA","5111","1010","2","legacy","4","1024","2","48000","-16","experiment","3","odd","6","603909","578377","82540","604914","NA","602767","84474","603907","3162","3166","606119","608124","609135","8278","608124","Sternberg task","74","78641","97","yes","1024"
"76.53061224489795","76.53061224489795","810.8061224489796","810.8061224489796","black","experiment","legacy","legacy","legacy","0","uniform","1","undefined","1","right","97","97","0","97","0","97","0","97","0","0","97","97","97","0","97","Tue Oct 20 12:59:17 2020","The main experiment item","yes","Sternbergtask.osexp","C:\Users\chris\OneDrive\Desktop","no","mono","no","18","no","white","no","yes","768","legacy","85","11","C:/Users/chris/OneDrive/Desktop/CM-subject-3.csv","legacy","8 2 1 4 5 9","Lentiform Loewenfeld","3.3.3","0","n","0","right","right","NA","right","right","818","1933","NA","5111","818","2","legacy","6","1024","2","48000","-16","experiment","3","odd","7","610291","578377","82540","611296","NA","609144","84474","610289","3162","3166","612501","614506","615325","8278","614506","Sternberg task","75","79459","98","yes","1024"
"76.76767676767676","76.76767676767676","808.7777777777778","808.7777777777778","black","experiment","legacy","legacy","legacy","0","uniform","1","undefined","1","left","98","98","0","98","0","98","0","98","0","0","98","98","98","0","98","Tue Oct 20 12:59:17 2020","The main experiment item","yes","Sternbergtask.osexp","C:\Users\chris\OneDrive\Desktop","no","mono","no","18","no","white","no","yes","768","legacy","86","11","C:/Users/chris/OneDrive/Desktop/CM-subject-3.csv","legacy","2 5 4 8 7","Lentiform Loewenfeld","3.3.3","3","y","0","left","right","NA","right","left","610","1933","NA","5111","610","2","legacy","5","1024","2","48000","-16","experiment","3","odd","4","616491","578377","82540","617496","NA","615333","84474","616489","3162","3166","618701","620707","621318","8278","620707","Sternberg task","76","80069","99","yes","1024"
"77","77","808.79","808.79","black","experiment","legacy","legacy","legacy","0","uniform","1","undefined","1","right","99","99","0","99","0","99","0","99","0","0","99","99","99","0","99","Tue Oct 20 12:59:17 2020","The main experiment item","yes","Sternbergtask.osexp","C:\Users\chris\OneDrive\Desktop","no","mono","no","18","no","white","no","yes","768","legacy","87","11","C:/Users/chris/OneDrive/Desktop/CM-subject-3.csv","legacy","1 4 9 2 5","Lentiform Loewenfeld","3.3.3","0","n","0","right","right","NA","right","right","810","1933","NA","5111","810","2","legacy","5","1024","2","48000","-16","experiment","3","odd","7","622456","578377","82540","623461","NA","621322","84474","622454","3162","3166","624666","626671","627482","8278","626671","Sternberg task","77","80879","100","yes","1024"
"77.22772277227723","77.22772277227723","812.049504950495","812.049504950495","black","experiment","legacy","legacy","legacy","0","uniform","1","undefined","1","left","100","100","0","100","0","100","0","100","0","0","100","100","100","0","100","Tue Oct 20 12:59:17 2020","The main experiment item","yes","Sternbergtask.osexp","C:\Users\chris\OneDrive\Desktop","no","mono","no","18","no","white","no","yes","768","legacy","88","11","C:/Users/chris/OneDrive/Desktop/CM-subject-3.csv","legacy","7 8 6 3 1","Lentiform Loewenfeld","3.3.3","5","y","0","left","right","NA","right","left","1138","1933","NA","5111","1138","2","legacy","5","1024","2","48000","-16","experiment","3","odd","1","628670","578377","82540","629675","NA","627491","84474","628668","3162","3166","630880","632885","634024","8278","632885","Sternberg task","78","82017","101","yes","1024"
"76.47058823529412","76.47058823529412","812.2941176470588","812.2941176470588","black","experiment","legacy","legacy","legacy","0","uniform","0","undefined","0","left","101","101","0","101","0","101","0","101","0","0","101","101","101","0","101","Tue Oct 20 12:59:17 2020","The main experiment item","yes","Sternbergtask.osexp","C:\Users\chris\OneDrive\Desktop","no","mono","no","18","no","white","no","yes","768","legacy","89","11","C:/Users/chris/OneDrive/Desktop/CM-subject-3.csv","legacy","5 7 8 2 3 8","Lentiform Loewenfeld","3.3.3","5","y","0","right","right","NA","right","right","837","1933","NA","5111","837","2","legacy","6","1024","2","48000","-16","experiment","3","odd","3","635184","578377","82540","636189","NA","634033","84474","635182","3162","3166","637394","639399","640238","8278","639399","Sternberg task","78","82854","102","yes","1024"
"76.69902912621359","76.69902912621359","813.0194174757281","813.0194174757281","black","experiment","legacy","legacy","legacy","0","uniform","1","undefined","1","right","102","102","0","102","0","102","0","102","0","0","102","102","102","0","102","Tue Oct 20 12:59:17 2020","The main experiment item","yes","Sternbergtask.osexp","C:\Users\chris\OneDrive\Desktop","no","mono","no","18","no","white","no","yes","768","legacy","90","11","C:/Users/chris/OneDrive/Desktop/CM-subject-3.csv","legacy","7 9 1 6","Lentiform Loewenfeld","3.3.3","0","n","0","right","right","NA","right","right","887","1933","NA","5111","887","2","legacy","4","1024","2","48000","-16","experiment","3","odd","4","641387","640250","82540","642392","NA","634033","84474","641385","3162","3166","643597","645602","646490","8278","645602","Sternberg task","79","83741","103","yes","1024"
"76.92307692307692","76.92307692307692","811.9326923076923","811.9326923076923","black","experiment","legacy","legacy","legacy","0","uniform","1","undefined","1","right","103","103","0","103","0","103","0","103","0","0","103","103","103","0","103","Tue Oct 20 12:59:17 2020","The main experiment item","yes","Sternbergtask.osexp","C:\Users\chris\OneDrive\Desktop","no","mono","no","18","no","white","no","yes","768","legacy","91","11","C:/Users/chris/OneDrive/Desktop/CM-subject-3.csv","legacy","2 7 5","Lentiform Loewenfeld","3.3.3","0","n","0","right","right","NA","right","right","700","1933","NA","5111","700","2","legacy","3","1024","2","48000","-16","experiment","3","odd","8","647642","640250","82540","648647","NA","646499","84474","647640","3162","3166","649852","651858","652559","8278","651858","Sternberg task","80","84441","104","yes","1024"
"77.14285714285714","77.14285714285714","809.9238095238095","809.9238095238095","black","experiment","legacy","legacy","legacy","0","uniform","1","undefined","1","right","104","104","0","104","0","104","0","104","0","0","104","104","104","0","104","Tue Oct 20 12:59:17 2020","The main experiment item","yes","Sternbergtask.osexp","C:\Users\chris\OneDrive\Desktop","no","mono","no","18","no","white","no","yes","768","legacy","92","11","C:/Users/chris/OneDrive/Desktop/CM-subject-3.csv","legacy","2 8 9 4 1","Lentiform Loewenfeld","3.3.3","0","n","0","right","right","NA","right","right","601","1933","NA","5111","601","2","legacy","5","1024","2","48000","-16","experiment","3","odd","5","653710","640250","82540","654715","NA","652568","84474","653708","3162","3166","655920","657925","658527","8278","657925","Sternberg task","81","85042","105","yes","1024"
"77.35849056603773","77.35849056603773","807.5094339622641","807.5094339622641","black","experiment","legacy","legacy","legacy","0","uniform","1","undefined","1","right","105","105","0","105","0","105","0","105","0","0","105","105","105","0","105","Tue Oct 20 12:59:17 2020","The main experiment item","yes","Sternbergtask.osexp","C:\Users\chris\OneDrive\Desktop","no","mono","no","18","no","white","no","yes","768","legacy","93","11","C:/Users/chris/OneDrive/Desktop/CM-subject-3.csv","legacy","6 8 4","Lentiform Loewenfeld","3.3.3","0","n","0","right","right","NA","right","right","554","1933","NA","5111","554","2","legacy","3","1024","2","48000","-16","experiment","3","odd","1","659678","640250","82540","660683","NA","658536","84474","659676","3162","3166","661888","663893","664448","8278","663893","Sternberg task","82","85596","106","yes","1024"
"77.57009345794393","77.57009345794393","805.1775700934579","805.1775700934579","black","experiment","legacy","legacy","legacy","0","uniform","1","undefined","1","left","106","106","0","106","0","106","0","106","0","0","106","106","106","0","106","Tue Oct 20 12:59:17 2020","The main experiment item","yes","Sternbergtask.osexp","C:\Users\chris\OneDrive\Desktop","no","mono","no","18","no","white","no","yes","768","legacy","94","11","C:/Users/chris/OneDrive/Desktop/CM-subject-3.csv","legacy","6 5","Lentiform Loewenfeld","3.3.3","2","y","0","left","right","NA","right","left","558","1933","NA","5111","558","2","legacy","2","1024","2","48000","-16","experiment","3","odd","5","665595","640250","82540","666600","NA","664456","84474","665593","3162","3166","667805","669810","670370","8278","669810","Sternberg task","83","86154","107","yes","1024"
"77.77777777777777","77.77777777777777","804.3981481481482","804.3981481481482","black","experiment","legacy","legacy","legacy","0","uniform","1","undefined","1","right","107","107","0","107","0","107","0","107","0","0","107","107","107","0","107","Tue Oct 20 12:59:17 2020","The main experiment item","yes","Sternbergtask.osexp","C:\Users\chris\OneDrive\Desktop","no","mono","no","18","no","white","no","yes","768","legacy","95","11","C:/Users/chris/OneDrive/Desktop/CM-subject-3.csv","legacy","9 8 2 7 4","Lentiform Loewenfeld","3.3.3","0","n","0","right","right","NA","right","right","721","1933","NA","5111","721","2","legacy","5","1024","2","48000","-16","experiment","3","odd","5","671525","640250","82540","672530","NA","670381","84474","671523","3162","3166","673735","675740","676462","8278","675740","Sternberg task","84","86875","108","yes","1024"
"77.98165137614679","77.98165137614679","804.9266055045872","804.9266055045872","black","experiment","legacy","legacy","legacy","0","uniform","1","undefined","1","left","108","108","0","108","0","108","0","108","0","0","108","108","108","0","108","Tue Oct 20 12:59:17 2020","The main experiment item","yes","Sternbergtask.osexp","C:\Users\chris\OneDrive\Desktop","no","mono","no","18","no","white","no","yes","768","legacy","96","11","C:/Users/chris/OneDrive/Desktop/CM-subject-3.csv","legacy","5 2 9 6 1 7","Lentiform Loewenfeld","3.3.3","3","y","0","left","right","NA","right","left","862","1933","NA","5111","862","2","legacy","6","1024","2","48000","-16","experiment","3","odd","9","677599","640250","82540","678604","NA","676466","84474","677597","3162","3166","679809","681814","682677","8278","681814","Sternberg task","85","87737","109","yes","1024"
"78.18181818181819","78.18181818181819","802.9818181818182","802.9818181818182","black","experiment","legacy","legacy","legacy","0","uniform","1","undefined","1","right","109","109","0","109","0","109","0","109","0","0","109","109","109","0","109","Tue Oct 20 12:59:17 2020","The main experiment item","yes","Sternbergtask.osexp","C:\Users\chris\OneDrive\Desktop","no","mono","no","18","no","white","no","yes","768","legacy","97","11","C:/Users/chris/OneDrive/Desktop/CM-subject-3.csv","legacy","8 4 3 5","Lentiform Loewenfeld","3.3.3","0","n","0","right","right","NA","right","right","591","1933","NA","5111","591","2","legacy","4","1024","2","48000","-16","experiment","3","odd","6","683828","640250","82540","684833","NA","682686","84474","683826","3162","3166","686038","688043","688635","8278","688043","Sternberg task","86","88328","110","yes","1024"
"78.37837837837837","78.37837837837837","801.8738738738739","801.8738738738739","black","experiment","legacy","legacy","legacy","0","uniform","1","undefined","1","right","110","110","0","110","0","110","0","110","0","0","110","110","110","0","110","Tue Oct 20 12:59:17 2020","The main experiment item","yes","Sternbergtask.osexp","C:\Users\chris\OneDrive\Desktop","no","mono","no","18","no","white","no","yes","768","legacy","98","11","C:/Users/chris/OneDrive/Desktop/CM-subject-3.csv","legacy","5 2","Lentiform Loewenfeld","3.3.3","0","n","0","right","right","NA","right","right","680","1933","NA","5111","680","2","legacy","2","1024","2","48000","-16","experiment","3","odd","7","689777","640250","82540","690782","NA","688644","84474","689775","3162","3166","691987","693992","694673","8278","693992","Sternberg task","87","89008","111","yes","1024"
"77.67857142857143","77.67857142857143","803.7232142857143","803.7232142857143","black","experiment","legacy","legacy","legacy","0","uniform","0","undefined","0","left","111","111","0","111","0","111","0","111","0","0","111","111","111","0","111","Tue Oct 20 12:59:17 2020","The main experiment item","yes","Sternbergtask.osexp","C:\Users\chris\OneDrive\Desktop","no","mono","no","18","no","white","no","yes","768","legacy","99","11","C:/Users/chris/OneDrive/Desktop/CM-subject-3.csv","legacy","4 7 6 8 2 3","Lentiform Loewenfeld","3.3.3","6","y","0","right","right","NA","right","right","1009","1933","NA","5111","1009","2","legacy","6","1024","2","48000","-16","experiment","3","odd","3","695828","640250","82540","696833","NA","694682","84474","695826","3162","3166","698038","700043","701053","8278","700043","Sternberg task","87","90017","112","yes","1024"
"76.99115044247787","76.99115044247787","802.8318584070796","802.8318584070796","black","experiment","legacy","legacy","legacy","0","uniform","0","undefined","0","right","112","112","0","112","0","112","0","112","0","0","112","112","112","0","112","Tue Oct 20 12:59:17 2020","The main experiment item","yes","Sternbergtask.osexp","C:\Users\chris\OneDrive\Desktop","no","mono","no","18","no","white","no","yes","768","legacy","100","11","C:/Users/chris/OneDrive/Desktop/CM-subject-3.csv","legacy","5 9 2 3","Lentiform Loewenfeld","3.3.3","0","n","0","left","right","NA","right","left","703","1933","NA","5111","703","2","legacy","4","1024","2","48000","-16","experiment","3","odd","8","702212","701062","82540","703217","NA","694682","84474","702210","3162","3166","704422","706428","707132","8278","706428","Sternberg task","87","90720","113","yes","1024"
"77.19298245614036","77.19298245614036","801.2017543859649","801.2017543859649","black","experiment","legacy","legacy","legacy","0","uniform","1","undefined","1","left","113","113","0","113","0","113","0","113","0","0","113","113","113","0","113","Tue Oct 20 12:59:17 2020","The main experiment item","yes","Sternbergtask.osexp","C:\Users\chris\OneDrive\Desktop","no","mono","no","18","no","white","no","yes","768","legacy","101","11","C:/Users/chris/OneDrive/Desktop/CM-subject-3.csv","legacy","2 4 8 5 1 3","Lentiform Loewenfeld","3.3.3","1","y","0","left","right","NA","right","left","617","1933","NA","5111","617","2","legacy","6","1024","2","48000","-16","experiment","3","odd","2","708281","707140","82540","709285","NA","694682","84474","708279","3162","3166","710490","712495","713114","8278","712495","Sternberg task","88","91337","114","yes","1024"
"76.52173913043478","76.52173913043478","799.304347826087","799.304347826087","black","experiment","legacy","legacy","legacy","0","uniform","0","undefined","0","right","114","114","0","114","0","114","0","114","0","0","114","114","114","0","114","Tue Oct 20 12:59:17 2020","The main experiment item","yes","Sternbergtask.osexp","C:\Users\chris\OneDrive\Desktop","no","mono","no","18","no","white","no","yes","768","legacy","102","11","C:/Users/chris/OneDrive/Desktop/CM-subject-3.csv","legacy","7 4 2 8 1 9","Lentiform Loewenfeld","3.3.3","0","n","0","left","right","NA","right","left","583","1933","NA","5111","583","2","legacy","6","1024","2","48000","-16","experiment","3","odd","5","714257","707140","82540","715262","NA","713123","84474","714255","3162","3166","716467","718472","719056","8278","718472","Sternberg task","88","91920","115","yes","1024"
"75.86206896551724","75.86206896551724","809.6551724137931","809.6551724137931","black","experiment","legacy","legacy","legacy","0","uniform","0","undefined","0","right","115","115","0","115","0","115","0","115","0","0","115","115","115","0","115","Tue Oct 20 12:59:17 2020","The main experiment item","yes","Sternbergtask.osexp","C:\Users\chris\OneDrive\Desktop","no","mono","no","18","no","white","no","yes","768","legacy","103","11","C:/Users/chris/OneDrive/Desktop/CM-subject-3.csv","legacy","1 3 2 6 9","Lentiform Loewenfeld","3.3.3","0","n","0","None","right","NA","right","None","2000","1933","NA","5111","2000","2","legacy","5","1024","2","48000","-16","experiment","3","odd","5","720226","719065","82540","721233","NA","713123","84474","720224","3162","3166","722438","724443","726443","8278","724443","Sternberg task","88","93920","116","yes","1024"
"76.06837606837607","76.06837606837607","807.5811965811965","807.5811965811965","black","experiment","legacy","legacy","legacy","0","uniform","1","undefined","1","right","116","116","0","116","0","116","0","116","0","0","116","116","116","0","116","Tue Oct 20 12:59:17 2020","The main experiment item","yes","Sternbergtask.osexp","C:\Users\chris\OneDrive\Desktop","no","mono","no","18","no","white","no","yes","768","legacy","104","11","C:/Users/chris/OneDrive/Desktop/CM-subject-3.csv","legacy","7 1 5 6 3","Lentiform Loewenfeld","3.3.3","0","n","0","right","right","NA","right","right","567","1933","NA","5111","567","2","legacy","5","1024","2","48000","-16","experiment","3","odd","8","727595","726452","82540","728600","NA","713123","84474","727593","3162","3166","729805","731811","732379","8278","731810","Sternberg task","89","94487","117","yes","1024"
