acc,accuracy,average_response_time,avg_rt,background,block,canvas_backend,clock_backend,color_backend,compensation,coordinates,correct,correct_instruction1,correct_keyboard_response,correct_response,count_ISI,count_correctFeedback,count_expSequence,count_experiment,count_experimentLoop,count_fixation,count_incorrectFeedback,count_instruction1,count_instructions2,count_keyboard_response,count_memorySet,count_new_logger,count_new_sketchpad,count_practiceLoop,count_probe,count_thankYou,datetime,description,disable_garbage_collection,experiment_file,experiment_path,font_bold,font_family,font_italic,font_size,font_underline,foreground,form_clicks,fullscreen,height,keyboard_backend,live_row,live_row_practiceLoop,logfile,mouse_backend,numberSet,opensesame_codename,opensesame_version,posInSet,present,repeat_cycle,response,response_instruction1,response_instructions2,response_keyboard_response,response_new_sketchpad,response_thankYou,response_time,response_time_instruction1,response_time_instructions2,response_time_keyboard_response,response_time_new_sketchpad,response_time_thankYou,round_decimals,sampler_backend,setSize,sound_buf_size,sound_channels,sound_freq,sound_sample_size,start,subject_nr,subject_parity,target,time_ISI,time_correctFeedback,time_expSequence,time_experiment,time_experimentLoop,time_fixation,time_incorrectFeedback,time_instruction1,time_instructions2,time_keyboard_response,time_memorySet,time_new_logger,time_new_sketchpad,time_practiceLoop,time_probe,time_thankYou,title,total_correct,total_response_time,total_responses,uniform_coordinates,width
100,100,766,766,black,practice,legacy,legacy,legacy,0,uniform,1,undefined,1,right,0,0,0,0,0,0,0,0,0,0,0,0,NA,0,0,0,10/27/19 12:50,The main experiment item,yes,SternbergTask.osexp,C:\Users\Jeanette\Desktop\Jeanette Master's\AQM&ED,no,mono,no,18,no,white,no,yes,768,legacy,0,0,C:/Users/Jeanette/Desktop/Jeanette Master's/AQM&ED/Sternberg task subjects/jh-subject-4.csv,legacy,5,Kafkaesque Koffka,3.2.8,0,n,0,right,left,NA,right,NA,NA,766,5460,NA,766,NA,NA,2,legacy,1,1024,2,48000,-16,experiment,4,even,3,18018,NA,15804,3947,NA,15808,NA,3953,NA,20024,16813,20790,NA,9414,20023,NA,Sternberg Task,1,766,1,yes,1024
100,100,824,824,black,practice,legacy,legacy,legacy,0,uniform,1,undefined,1,left,1,1,1,0,0,1,1,0,0,1,1,1,NA,0,1,0,10/27/19 12:50,The main experiment item,yes,SternbergTask.osexp,C:\Users\Jeanette\Desktop\Jeanette Master's\AQM&ED,no,mono,no,18,no,white,no,yes,768,legacy,1,1,C:/Users/Jeanette/Desktop/Jeanette Master's/AQM&ED/Sternberg task subjects/jh-subject-4.csv,legacy,1 7 9 8 5,Kafkaesque Koffka,3.2.8,4,y,0,left,left,NA,left,NA,NA,882,5460,NA,882,NA,NA,2,legacy,5,1024,2,48000,-16,experiment,4,even,8,24325,20989,22111,3947,NA,22114,NA,3953,NA,26331,23119,27213,NA,9414,26330,NA,Sternberg Task,2,1648,2,yes,1024
100,100,816,816,black,practice,legacy,legacy,legacy,0,uniform,1,undefined,1,left,2,2,2,0,0,2,2,0,0,2,2,2,NA,0,2,0,10/27/19 12:50,The main experiment item,yes,SternbergTask.osexp,C:\Users\Jeanette\Desktop\Jeanette Master's\AQM&ED,no,mono,no,18,no,white,no,yes,768,legacy,2,2,C:/Users/Jeanette/Desktop/Jeanette Master's/AQM&ED/Sternberg task subjects/jh-subject-4.csv,legacy,1 5 2 9,Kafkaesque Koffka,3.2.8,2,y,0,left,left,NA,left,NA,NA,800,5460,NA,800,NA,NA,2,legacy,4,1024,2,48000,-16,experiment,4,even,5,30615,27272,28401,3947,NA,28404,NA,3953,NA,32621,29409,33421,NA,9414,32620,NA,Sternberg Task,3,2448,3,yes,1024
100,100,791,791,black,practice,legacy,legacy,legacy,0,uniform,1,undefined,1,left,3,3,3,0,0,3,3,0,0,3,3,3,NA,0,3,0,10/27/19 12:50,The main experiment item,yes,SternbergTask.osexp,C:\Users\Jeanette\Desktop\Jeanette Master's\AQM&ED,no,mono,no,18,no,white,no,yes,768,legacy,3,3,C:/Users/Jeanette/Desktop/Jeanette Master's/AQM&ED/Sternberg task subjects/jh-subject-4.csv,legacy,6,Kafkaesque Koffka,3.2.8,1,y,0,left,left,NA,left,NA,NA,716,5460,NA,716,NA,NA,2,legacy,1,1024,2,48000,-16,experiment,4,even,6,36826,33499,34613,3947,NA,34616,NA,3953,NA,38833,35621,39550,NA,9414,38832,NA,Sternberg Task,4,3164,4,yes,1024
100,100,785,785,black,practice,legacy,legacy,legacy,0,uniform,1,undefined,1,right,4,4,4,0,0,4,4,0,0,4,4,4,NA,0,4,0,10/27/19 12:50,The main experiment item,yes,SternbergTask.osexp,C:\Users\Jeanette\Desktop\Jeanette Master's\AQM&ED,no,mono,no,18,no,white,no,yes,768,legacy,4,4,C:/Users/Jeanette/Desktop/Jeanette Master's/AQM&ED/Sternberg task subjects/jh-subject-4.csv,legacy,4 1 5,Kafkaesque Koffka,3.2.8,0,n,0,right,left,NA,right,NA,NA,761,5460,NA,761,NA,NA,2,legacy,3,1024,2,48000,-16,experiment,4,even,2,42926,39604,40710,3947,NA,40712,NA,3953,NA,44932,41719,45694,NA,9414,44931,NA,Sternberg Task,5,3925,5,yes,1024
100,100,784.6666667,784.6666667,black,practice,legacy,legacy,legacy,0,uniform,1,undefined,1,left,5,5,5,0,0,5,5,0,0,5,5,5,NA,0,5,0,10/27/19 12:50,The main experiment item,yes,SternbergTask.osexp,C:\Users\Jeanette\Desktop\Jeanette Master's\AQM&ED,no,mono,no,18,no,white,no,yes,768,legacy,5,5,C:/Users/Jeanette/Desktop/Jeanette Master's/AQM&ED/Sternberg task subjects/jh-subject-4.csv,legacy,4 3 1 7 9 8,Kafkaesque Koffka,3.2.8,1,y,0,left,left,NA,left,NA,NA,783,5460,NA,783,NA,NA,2,legacy,6,1024,2,48000,-16,experiment,4,even,4,49088,45748,46876,3947,NA,46878,NA,3953,NA,51094,47883,51878,NA,9414,51093,NA,Sternberg Task,6,4708,6,yes,1024
100,100,823.5714286,823.5714286,black,practice,legacy,legacy,legacy,0,uniform,1,undefined,1,right,6,6,6,0,0,6,6,0,0,6,6,6,NA,0,6,0,10/27/19 12:50,The main experiment item,yes,SternbergTask.osexp,C:\Users\Jeanette\Desktop\Jeanette Master's\AQM&ED,no,mono,no,18,no,white,no,yes,768,legacy,6,6,C:/Users/Jeanette/Desktop/Jeanette Master's/AQM&ED/Sternberg task subjects/jh-subject-4.csv,legacy,9 6 7 4 5,Kafkaesque Koffka,3.2.8,0,n,0,right,left,NA,right,NA,NA,1057,5460,NA,1057,NA,NA,2,legacy,5,1024,2,48000,-16,experiment,4,even,3,55254,51932,53041,3947,NA,53044,NA,3953,NA,57260,54048,58317,NA,9414,57259,NA,Sternberg Task,7,5765,7,yes,1024
100,100,798.875,798.875,black,practice,legacy,legacy,legacy,0,uniform,1,undefined,1,left,7,7,7,0,0,7,7,0,0,7,7,7,NA,0,7,0,10/27/19 12:50,The main experiment item,yes,SternbergTask.osexp,C:\Users\Jeanette\Desktop\Jeanette Master's\AQM&ED,no,mono,no,18,no,white,no,yes,768,legacy,7,7,C:/Users/Jeanette/Desktop/Jeanette Master's/AQM&ED/Sternberg task subjects/jh-subject-4.csv,legacy,4 8,Kafkaesque Koffka,3.2.8,1,y,0,left,left,NA,left,NA,NA,626,5460,NA,626,NA,NA,2,legacy,2,1024,2,48000,-16,experiment,4,even,4,61740,58389,59528,3947,NA,59530,NA,3953,NA,63747,60535,64374,NA,9414,63747,NA,Sternberg Task,8,6391,8,yes,1024
100,100,825.7777778,825.7777778,black,practice,legacy,legacy,legacy,0,uniform,1,undefined,1,right,8,8,8,0,0,8,8,0,0,8,8,8,NA,0,8,0,10/27/19 12:50,The main experiment item,yes,SternbergTask.osexp,C:\Users\Jeanette\Desktop\Jeanette Master's\AQM&ED,no,mono,no,18,no,white,no,yes,768,legacy,8,8,C:/Users/Jeanette/Desktop/Jeanette Master's/AQM&ED/Sternberg task subjects/jh-subject-4.csv,legacy,2 1,Kafkaesque Koffka,3.2.8,0,n,0,right,left,NA,right,NA,NA,1041,5460,NA,1041,NA,NA,2,legacy,2,1024,2,48000,-16,experiment,4,even,5,67774,64436,65560,3947,NA,65563,NA,3953,NA,69780,66569,70822,NA,9414,69780,NA,Sternberg Task,9,7432,9,yes,1024
100,100,898.2,898.2,black,practice,legacy,legacy,legacy,0,uniform,1,undefined,1,left,9,9,9,0,0,9,9,0,0,9,9,9,NA,0,9,0,10/27/19 12:50,The main experiment item,yes,SternbergTask.osexp,C:\Users\Jeanette\Desktop\Jeanette Master's\AQM&ED,no,mono,no,18,no,white,no,yes,768,legacy,9,9,C:/Users/Jeanette/Desktop/Jeanette Master's/AQM&ED/Sternberg task subjects/jh-subject-4.csv,legacy,2 9 4,Kafkaesque Koffka,3.2.8,3,y,0,left,left,NA,left,NA,NA,1550,5460,NA,1550,NA,NA,2,legacy,3,1024,2,48000,-16,experiment,4,even,4,74217,70878,72003,3947,NA,72006,NA,3953,NA,76223,73011,77773,NA,9414,76223,NA,Sternberg Task,10,8982,10,yes,1024
100,100,893.6363636,893.6363636,black,practice,legacy,legacy,legacy,0,uniform,1,undefined,1,right,10,10,10,0,0,10,10,0,0,10,10,10,NA,0,10,0,10/27/19 12:50,The main experiment item,yes,SternbergTask.osexp,C:\Users\Jeanette\Desktop\Jeanette Master's\AQM&ED,no,mono,no,18,no,white,no,yes,768,legacy,10,10,C:/Users/Jeanette/Desktop/Jeanette Master's/AQM&ED/Sternberg task subjects/jh-subject-4.csv,legacy,3 1 9 4,Kafkaesque Koffka,3.2.8,0,n,0,right,left,NA,right,NA,NA,848,5460,NA,848,NA,NA,2,legacy,4,1024,2,48000,-16,experiment,4,even,6,81186,77851,78972,3947,NA,78975,NA,3953,NA,83189,79980,84038,NA,9414,83189,NA,Sternberg Task,11,9830,11,yes,1024
100,100,896.4166667,896.4166667,black,practice,legacy,legacy,legacy,0,uniform,1,undefined,1,right,11,11,11,0,0,11,11,0,0,11,11,11,NA,0,11,0,10/27/19 12:50,The main experiment item,yes,SternbergTask.osexp,C:\Users\Jeanette\Desktop\Jeanette Master's\AQM&ED,no,mono,no,18,no,white,no,yes,768,legacy,11,11,C:/Users/Jeanette/Desktop/Jeanette Master's/AQM&ED/Sternberg task subjects/jh-subject-4.csv,legacy,5 7 8 4 1 2,Kafkaesque Koffka,3.2.8,0,n,0,right,left,NA,right,NA,NA,927,5460,NA,927,NA,NA,2,legacy,6,1024,2,48000,-16,experiment,4,even,6,87432,84115,85219,3947,NA,85221,NA,3953,NA,89438,86227,90366,NA,9414,89438,NA,Sternberg Task,12,10757,12,yes,1024
100,100,883.8461538,883.8461538,black,experiment,legacy,legacy,legacy,0,uniform,1,undefined,1,right,12,12,12,0,0,12,12,0,0,12,12,12,NA,0,12,0,10/27/19 12:50,The main experiment item,yes,SternbergTask.osexp,C:\Users\Jeanette\Desktop\Jeanette Master's\AQM&ED,no,mono,no,18,no,white,no,yes,768,legacy,0,11,C:/Users/Jeanette/Desktop/Jeanette Master's/AQM&ED/Sternberg task subjects/jh-subject-4.csv,legacy,6 9 5,Kafkaesque Koffka,3.2.8,0,n,0,right,left,left,right,NA,NA,733,5460,8197,733,NA,NA,2,legacy,3,1024,2,48000,-16,experiment,4,even,8,101986,90421,99771,3947,99670,99773,NA,3953,91472,103992,100779,104725,NA,9414,103991,NA,Sternberg Task,13,11490,13,yes,1024
100,100,882.0714286,882.0714286,black,experiment,legacy,legacy,legacy,0,uniform,1,undefined,1,left,13,13,13,0,0,13,13,0,0,13,13,13,NA,0,13,0,10/27/19 12:50,The main experiment item,yes,SternbergTask.osexp,C:\Users\Jeanette\Desktop\Jeanette Master's\AQM&ED,no,mono,no,18,no,white,no,yes,768,legacy,1,11,C:/Users/Jeanette/Desktop/Jeanette Master's/AQM&ED/Sternberg task subjects/jh-subject-4.csv,legacy,3 5 9 6 2 4,Kafkaesque Koffka,3.2.8,1,y,0,left,left,left,left,NA,NA,859,5460,8197,859,NA,NA,2,legacy,6,1024,2,48000,-16,experiment,4,even,3,108163,104805,105950,3947,99670,105952,NA,3953,91472,110170,106958,111030,NA,9414,110169,NA,Sternberg Task,14,12349,14,yes,1024
100,100,883.3333333,883.3333333,black,experiment,legacy,legacy,legacy,0,uniform,1,undefined,1,right,14,14,14,0,0,14,14,0,0,14,14,14,NA,0,14,0,10/27/19 12:50,The main experiment item,yes,SternbergTask.osexp,C:\Users\Jeanette\Desktop\Jeanette Master's\AQM&ED,no,mono,no,18,no,white,no,yes,768,legacy,2,11,C:/Users/Jeanette/Desktop/Jeanette Master's/AQM&ED/Sternberg task subjects/jh-subject-4.csv,legacy,3 9 1,Kafkaesque Koffka,3.2.8,0,n,0,right,left,left,right,NA,NA,901,5460,8197,901,NA,NA,2,legacy,3,1024,2,48000,-16,experiment,4,even,7,114930,111588,112717,3947,99670,112720,NA,3953,91472,116936,113725,117837,NA,9414,116936,NA,Sternberg Task,15,13250,15,yes,1024
100,100,883.0625,883.0625,black,experiment,legacy,legacy,legacy,0,uniform,1,undefined,1,left,15,15,15,0,0,15,15,0,0,15,15,15,NA,0,15,0,10/27/19 12:50,The main experiment item,yes,SternbergTask.osexp,C:\Users\Jeanette\Desktop\Jeanette Master's\AQM&ED,no,mono,no,18,no,white,no,yes,768,legacy,3,11,C:/Users/Jeanette/Desktop/Jeanette Master's/AQM&ED/Sternberg task subjects/jh-subject-4.csv,legacy,9 6 2 4 1,Kafkaesque Koffka,3.2.8,4,y,0,left,left,left,left,NA,NA,879,5460,8197,879,NA,NA,2,legacy,5,1024,2,48000,-16,experiment,4,even,4,121225,117900,119011,3947,99670,119014,NA,3953,91472,123230,120019,124109,NA,9414,123230,NA,Sternberg Task,16,14129,16,yes,1024
100,100,892.1764706,892.1764706,black,experiment,legacy,legacy,legacy,0,uniform,1,undefined,1,left,16,16,16,0,0,16,16,0,0,16,16,16,NA,0,16,0,10/27/19 12:50,The main experiment item,yes,SternbergTask.osexp,C:\Users\Jeanette\Desktop\Jeanette Master's\AQM&ED,no,mono,no,18,no,white,no,yes,768,legacy,4,11,C:/Users/Jeanette/Desktop/Jeanette Master's/AQM&ED/Sternberg task subjects/jh-subject-4.csv,legacy,7 8 4 6 9 5,Kafkaesque Koffka,3.2.8,4,y,0,left,left,left,left,NA,NA,1038,5460,8197,1038,NA,NA,2,legacy,6,1024,2,48000,-16,experiment,4,even,6,127514,124189,125301,3947,99670,125304,NA,3953,91472,129519,126309,130558,NA,9414,129519,NA,Sternberg Task,17,15167,17,yes,1024
100,100,888.9444444,888.9444444,black,experiment,legacy,legacy,legacy,0,uniform,1,undefined,1,left,17,17,17,0,0,17,17,0,0,17,17,17,NA,0,17,0,10/27/19 12:50,The main experiment item,yes,SternbergTask.osexp,C:\Users\Jeanette\Desktop\Jeanette Master's\AQM&ED,no,mono,no,18,no,white,no,yes,768,legacy,5,11,C:/Users/Jeanette/Desktop/Jeanette Master's/AQM&ED/Sternberg task subjects/jh-subject-4.csv,legacy,9 5 3 8 4,Kafkaesque Koffka,3.2.8,1,y,0,left,left,left,left,NA,NA,834,5460,8197,834,NA,NA,2,legacy,5,1024,2,48000,-16,experiment,4,even,9,133974,130642,131760,3947,99670,131763,NA,3953,91472,135979,132768,136814,NA,9414,135979,NA,Sternberg Task,18,16001,18,yes,1024
100,100,886.5263158,886.5263158,black,experiment,legacy,legacy,legacy,0,uniform,1,undefined,1,right,18,18,18,0,0,18,18,0,0,18,18,18,NA,0,18,0,10/27/19 12:50,The main experiment item,yes,SternbergTask.osexp,C:\Users\Jeanette\Desktop\Jeanette Master's\AQM&ED,no,mono,no,18,no,white,no,yes,768,legacy,6,11,C:/Users/Jeanette/Desktop/Jeanette Master's/AQM&ED/Sternberg task subjects/jh-subject-4.csv,legacy,7 9,Kafkaesque Koffka,3.2.8,0,n,0,right,left,left,right,NA,NA,843,5460,8197,843,NA,NA,2,legacy,2,1024,2,48000,-16,experiment,4,even,1,140228,136890,138015,3947,99670,138017,NA,3953,91472,142234,139022,143078,NA,9414,142233,NA,Sternberg Task,19,16844,19,yes,1024
100,100,899.25,899.25,black,experiment,legacy,legacy,legacy,0,uniform,1,undefined,1,left,19,19,19,0,0,19,19,0,0,19,19,19,NA,0,19,0,10/27/19 12:50,The main experiment item,yes,SternbergTask.osexp,C:\Users\Jeanette\Desktop\Jeanette Master's\AQM&ED,no,mono,no,18,no,white,no,yes,768,legacy,7,11,C:/Users/Jeanette/Desktop/Jeanette Master's/AQM&ED/Sternberg task subjects/jh-subject-4.csv,legacy,8 9 6 1,Kafkaesque Koffka,3.2.8,2,y,0,left,left,left,left,NA,NA,1141,5460,8197,1141,NA,NA,2,legacy,4,1024,2,48000,-16,experiment,4,even,9,146450,143136,144236,3947,99670,144238,NA,3953,91472,148456,145243,149598,NA,9414,148455,NA,Sternberg Task,20,17985,20,yes,1024
100,100,924.6666667,924.6666667,black,experiment,legacy,legacy,legacy,0,uniform,1,undefined,1,right,20,20,20,0,0,20,20,0,0,20,20,20,NA,0,20,0,10/27/19 12:50,The main experiment item,yes,SternbergTask.osexp,C:\Users\Jeanette\Desktop\Jeanette Master's\AQM&ED,no,mono,no,18,no,white,no,yes,768,legacy,8,11,C:/Users/Jeanette/Desktop/Jeanette Master's/AQM&ED/Sternberg task subjects/jh-subject-4.csv,legacy,1 8 7,Kafkaesque Koffka,3.2.8,0,n,0,right,left,left,right,NA,NA,1433,5460,8197,1433,NA,NA,2,legacy,3,1024,2,48000,-16,experiment,4,even,4,152983,149650,150770,3947,99670,150772,NA,3953,91472,154989,151777,156422,NA,9414,154989,NA,Sternberg Task,21,19418,21,yes,1024
100,100,923.6363636,923.6363636,black,experiment,legacy,legacy,legacy,0,uniform,1,undefined,1,right,21,21,21,0,0,21,21,0,0,21,21,21,NA,0,21,0,10/27/19 12:50,The main experiment item,yes,SternbergTask.osexp,C:\Users\Jeanette\Desktop\Jeanette Master's\AQM&ED,no,mono,no,18,no,white,no,yes,768,legacy,9,11,C:/Users/Jeanette/Desktop/Jeanette Master's/AQM&ED/Sternberg task subjects/jh-subject-4.csv,legacy,5 7 3,Kafkaesque Koffka,3.2.8,0,n,0,right,left,left,right,NA,NA,902,5460,8197,902,NA,NA,2,legacy,3,1024,2,48000,-16,experiment,4,even,9,159824,156501,157612,3947,99670,157614,NA,3953,91472,161831,158619,162733,NA,9414,161830,NA,Sternberg Task,22,20320,22,yes,1024
100,100,939.1304348,939.1304348,black,experiment,legacy,legacy,legacy,0,uniform,1,undefined,1,left,22,22,22,0,0,22,22,0,0,22,22,22,NA,0,22,0,10/27/19 12:50,The main experiment item,yes,SternbergTask.osexp,C:\Users\Jeanette\Desktop\Jeanette Master's\AQM&ED,no,mono,no,18,no,white,no,yes,768,legacy,10,11,C:/Users/Jeanette/Desktop/Jeanette Master's/AQM&ED/Sternberg task subjects/jh-subject-4.csv,legacy,4 6 5 8,Kafkaesque Koffka,3.2.8,1,y,0,left,left,left,left,NA,NA,1280,5460,8197,1280,NA,NA,2,legacy,4,1024,2,48000,-16,experiment,4,even,4,166127,162796,163914,3947,99670,163916,NA,3953,91472,168133,164921,169413,NA,9414,168133,NA,Sternberg Task,23,21600,23,yes,1024
100,100,938.1666667,938.1666667,black,experiment,legacy,legacy,legacy,0,uniform,1,undefined,1,left,23,23,23,0,0,23,23,0,0,23,23,23,NA,0,23,0,10/27/19 12:50,The main experiment item,yes,SternbergTask.osexp,C:\Users\Jeanette\Desktop\Jeanette Master's\AQM&ED,no,mono,no,18,no,white,no,yes,768,legacy,11,11,C:/Users/Jeanette/Desktop/Jeanette Master's/AQM&ED/Sternberg task subjects/jh-subject-4.csv,legacy,7 6,Kafkaesque Koffka,3.2.8,2,y,0,left,left,left,left,NA,NA,916,5460,8197,916,NA,NA,2,legacy,2,1024,2,48000,-16,experiment,4,even,6,172819,169486,170607,3947,99670,170609,NA,3953,91472,174825,171614,175742,NA,9414,174824,NA,Sternberg Task,24,22516,24,yes,1024
100,100,936.2,936.2,black,experiment,legacy,legacy,legacy,0,uniform,1,undefined,1,left,24,24,24,0,0,24,24,0,0,24,24,24,NA,0,24,0,10/27/19 12:50,The main experiment item,yes,SternbergTask.osexp,C:\Users\Jeanette\Desktop\Jeanette Master's\AQM&ED,no,mono,no,18,no,white,no,yes,768,legacy,12,11,C:/Users/Jeanette/Desktop/Jeanette Master's/AQM&ED/Sternberg task subjects/jh-subject-4.csv,legacy,4 6 2 5 1,Kafkaesque Koffka,3.2.8,5,y,0,left,left,left,left,NA,NA,889,5460,8197,889,NA,NA,2,legacy,5,1024,2,48000,-16,experiment,4,even,1,179126,175798,176912,3947,99670,176915,NA,3953,91472,181132,177920,182022,NA,9414,181131,NA,Sternberg Task,25,23405,25,yes,1024
100,100,930.9615385,930.9615385,black,experiment,legacy,legacy,legacy,0,uniform,1,undefined,1,left,25,25,25,0,0,25,25,0,0,25,25,25,NA,0,25,0,10/27/19 12:50,The main experiment item,yes,SternbergTask.osexp,C:\Users\Jeanette\Desktop\Jeanette Master's\AQM&ED,no,mono,no,18,no,white,no,yes,768,legacy,13,11,C:/Users/Jeanette/Desktop/Jeanette Master's/AQM&ED/Sternberg task subjects/jh-subject-4.csv,legacy,9 1 7 2,Kafkaesque Koffka,3.2.8,2,y,0,left,left,left,left,NA,NA,800,5460,8197,800,NA,NA,2,legacy,4,1024,2,48000,-16,experiment,4,even,1,185429,182087,183217,3947,99670,183219,NA,3953,91472,187437,184224,188238,NA,9414,187437,NA,Sternberg Task,26,24205,26,yes,1024
100,100,928.4444444,928.4444444,black,experiment,legacy,legacy,legacy,0,uniform,1,undefined,1,right,26,26,26,0,0,26,26,0,0,26,26,26,NA,0,26,0,10/27/19 12:50,The main experiment item,yes,SternbergTask.osexp,C:\Users\Jeanette\Desktop\Jeanette Master's\AQM&ED,no,mono,no,18,no,white,no,yes,768,legacy,14,11,C:/Users/Jeanette/Desktop/Jeanette Master's/AQM&ED/Sternberg task subjects/jh-subject-4.csv,legacy,8 4 3 5,Kafkaesque Koffka,3.2.8,0,n,0,right,left,left,right,NA,NA,863,5460,8197,863,NA,NA,2,legacy,4,1024,2,48000,-16,experiment,4,even,6,191625,188298,189411,3947,99670,189414,NA,3953,91472,193630,190419,194493,NA,9414,193630,NA,Sternberg Task,27,25068,27,yes,1024
100,100,938.5714286,938.5714286,black,experiment,legacy,legacy,legacy,0,uniform,1,undefined,1,left,27,27,27,0,0,27,27,0,0,27,27,27,NA,0,27,0,10/27/19 12:50,The main experiment item,yes,SternbergTask.osexp,C:\Users\Jeanette\Desktop\Jeanette Master's\AQM&ED,no,mono,no,18,no,white,no,yes,768,legacy,15,11,C:/Users/Jeanette/Desktop/Jeanette Master's/AQM&ED/Sternberg task subjects/jh-subject-4.csv,legacy,5 2 9 6 1 7,Kafkaesque Koffka,3.2.8,3,y,0,left,left,left,left,NA,NA,1212,5460,8197,1212,NA,NA,2,legacy,6,1024,2,48000,-16,experiment,4,even,9,197884,194546,195670,3947,99670,195672,NA,3953,91472,199889,196677,201102,NA,9414,199889,NA,Sternberg Task,28,26280,28,yes,1024
100,100,939.3448276,939.3448276,black,experiment,legacy,legacy,legacy,0,uniform,1,undefined,1,right,28,28,28,0,0,28,28,0,0,28,28,28,NA,0,28,0,10/27/19 12:50,The main experiment item,yes,SternbergTask.osexp,C:\Users\Jeanette\Desktop\Jeanette Master's\AQM&ED,no,mono,no,18,no,white,no,yes,768,legacy,16,11,C:/Users/Jeanette/Desktop/Jeanette Master's/AQM&ED/Sternberg task subjects/jh-subject-4.csv,legacy,5 2,Kafkaesque Koffka,3.2.8,0,n,0,right,left,left,right,NA,NA,961,5460,8197,961,NA,NA,2,legacy,2,1024,2,48000,-16,experiment,4,even,7,204470,201158,202257,3947,99670,202260,NA,3953,91472,206476,203265,207438,NA,9414,206476,NA,Sternberg Task,29,27241,29,yes,1024
100,100,931.7666667,931.7666667,black,experiment,legacy,legacy,legacy,0,uniform,1,undefined,1,left,29,29,29,0,0,29,29,0,0,29,29,29,NA,0,29,0,10/27/19 12:50,The main experiment item,yes,SternbergTask.osexp,C:\Users\Jeanette\Desktop\Jeanette Master's\AQM&ED,no,mono,no,18,no,white,no,yes,768,legacy,17,11,C:/Users/Jeanette/Desktop/Jeanette Master's/AQM&ED/Sternberg task subjects/jh-subject-4.csv,legacy,3 9 7 6 4,Kafkaesque Koffka,3.2.8,3,y,0,left,left,left,left,NA,NA,712,5460,8197,712,NA,NA,2,legacy,5,1024,2,48000,-16,experiment,4,even,7,210854,207501,208641,3947,99670,208643,NA,3953,91472,212861,209649,213574,NA,9414,212861,NA,Sternberg Task,30,27953,30,yes,1024
100,100,928.6774194,928.6774194,black,experiment,legacy,legacy,legacy,0,uniform,1,undefined,1,right,30,30,30,0,0,30,30,0,0,30,30,30,NA,0,30,0,10/27/19 12:50,The main experiment item,yes,SternbergTask.osexp,C:\Users\Jeanette\Desktop\Jeanette Master's\AQM&ED,no,mono,no,18,no,white,no,yes,768,legacy,18,11,C:/Users/Jeanette/Desktop/Jeanette Master's/AQM&ED/Sternberg task subjects/jh-subject-4.csv,legacy,4 8 1 2,Kafkaesque Koffka,3.2.8,0,n,0,right,left,left,right,NA,NA,836,5460,8197,836,NA,NA,2,legacy,4,1024,2,48000,-16,experiment,4,even,7,216948,213633,214735,3947,99670,214737,NA,3953,91472,218953,215742,219789,NA,9414,218953,NA,Sternberg Task,31,28789,31,yes,1024
100,100,922.09375,922.09375,black,experiment,legacy,legacy,legacy,0,uniform,1,undefined,1,right,31,31,31,0,0,31,31,0,0,31,31,31,NA,0,31,0,10/27/19 12:50,The main experiment item,yes,SternbergTask.osexp,C:\Users\Jeanette\Desktop\Jeanette Master's\AQM&ED,no,mono,no,18,no,white,no,yes,768,legacy,19,11,C:/Users/Jeanette/Desktop/Jeanette Master's/AQM&ED/Sternberg task subjects/jh-subject-4.csv,legacy,8 5 7 3 6,Kafkaesque Koffka,3.2.8,0,n,0,right,left,left,right,NA,NA,718,5460,8197,718,NA,NA,2,legacy,5,1024,2,48000,-16,experiment,4,even,9,223200,219852,220988,3947,99670,220990,NA,3953,91472,225207,221995,225926,NA,9414,225207,NA,Sternberg Task,32,29507,32,yes,1024
100,100,914.030303,914.030303,black,experiment,legacy,legacy,legacy,0,uniform,1,undefined,1,left,32,32,32,0,0,32,32,0,0,32,32,32,NA,0,32,0,10/27/19 12:50,The main experiment item,yes,SternbergTask.osexp,C:\Users\Jeanette\Desktop\Jeanette Master's\AQM&ED,no,mono,no,18,no,white,no,yes,768,legacy,20,11,C:/Users/Jeanette/Desktop/Jeanette Master's/AQM&ED/Sternberg task subjects/jh-subject-4.csv,legacy,9 3 8 2 1 4,Kafkaesque Koffka,3.2.8,3,y,0,left,left,left,left,NA,NA,656,5460,8197,656,NA,NA,2,legacy,6,1024,2,48000,-16,experiment,4,even,8,229351,226016,227140,3947,99670,227142,NA,3953,91472,231357,228145,232014,NA,9414,231357,NA,Sternberg Task,33,30163,33,yes,1024
100,100,908.4705882,908.4705882,black,experiment,legacy,legacy,legacy,0,uniform,1,undefined,1,right,33,33,33,0,0,33,33,0,0,33,33,33,NA,0,33,0,10/27/19 12:50,The main experiment item,yes,SternbergTask.osexp,C:\Users\Jeanette\Desktop\Jeanette Master's\AQM&ED,no,mono,no,18,no,white,no,yes,768,legacy,21,11,C:/Users/Jeanette/Desktop/Jeanette Master's/AQM&ED/Sternberg task subjects/jh-subject-4.csv,legacy,2 8 6 3 1,Kafkaesque Koffka,3.2.8,0,n,0,right,left,left,right,NA,NA,725,5460,8197,725,NA,NA,2,legacy,5,1024,2,48000,-16,experiment,4,even,7,235394,232070,233181,3947,99670,233183,NA,3953,91472,237400,234188,238125,NA,9414,237400,NA,Sternberg Task,34,30888,34,yes,1024
100,100,915.0857143,915.0857143,black,experiment,legacy,legacy,legacy,0,uniform,1,undefined,1,left,34,34,34,0,0,34,34,0,0,34,34,34,NA,0,34,0,10/27/19 12:50,The main experiment item,yes,SternbergTask.osexp,C:\Users\Jeanette\Desktop\Jeanette Master's\AQM&ED,no,mono,no,18,no,white,no,yes,768,legacy,22,11,C:/Users/Jeanette/Desktop/Jeanette Master's/AQM&ED/Sternberg task subjects/jh-subject-4.csv,legacy,7 4 2 6 3 5,Kafkaesque Koffka,3.2.8,6,y,0,left,left,left,left,NA,NA,1140,5460,8197,1140,NA,NA,2,legacy,6,1024,2,48000,-16,experiment,4,even,5,241499,238187,239290,3947,99670,239292,NA,3953,91472,243505,240294,244645,NA,9414,243505,NA,Sternberg Task,35,32028,35,yes,1024
100,100,905.3333333,905.3333333,black,experiment,legacy,legacy,legacy,0,uniform,1,undefined,1,right,35,35,35,0,0,35,35,0,0,35,35,35,NA,0,35,0,10/27/19 12:50,The main experiment item,yes,SternbergTask.osexp,C:\Users\Jeanette\Desktop\Jeanette Master's\AQM&ED,no,mono,no,18,no,white,no,yes,768,legacy,23,11,C:/Users/Jeanette/Desktop/Jeanette Master's/AQM&ED/Sternberg task subjects/jh-subject-4.csv,legacy,5,Kafkaesque Koffka,3.2.8,0,n,0,right,left,left,right,NA,NA,564,5460,8197,564,NA,NA,2,legacy,1,1024,2,48000,-16,experiment,4,even,8,247998,244673,245786,3947,99670,245788,NA,3953,91472,250001,246793,250566,NA,9414,250001,NA,Sternberg Task,36,32592,36,yes,1024
100,100,903.4594595,903.4594595,black,experiment,legacy,legacy,legacy,0,uniform,1,undefined,1,right,36,36,36,0,0,36,36,0,0,36,36,36,NA,0,36,0,10/27/19 12:50,The main experiment item,yes,SternbergTask.osexp,C:\Users\Jeanette\Desktop\Jeanette Master's\AQM&ED,no,mono,no,18,no,white,no,yes,768,legacy,24,11,C:/Users/Jeanette/Desktop/Jeanette Master's/AQM&ED/Sternberg task subjects/jh-subject-4.csv,legacy,5 3 2 6 9 8,Kafkaesque Koffka,3.2.8,0,n,0,right,left,left,right,NA,NA,836,5460,8197,836,NA,NA,2,legacy,6,1024,2,48000,-16,experiment,4,even,4,253931,250602,251718,3947,99670,251721,NA,3953,91472,255937,252726,256774,NA,9414,255937,NA,Sternberg Task,37,33428,37,yes,1024
100,100,896.9473684,896.9473684,black,experiment,legacy,legacy,legacy,0,uniform,1,undefined,1,left,37,37,37,0,0,37,37,0,0,37,37,37,NA,0,37,0,10/27/19 12:50,The main experiment item,yes,SternbergTask.osexp,C:\Users\Jeanette\Desktop\Jeanette Master's\AQM&ED,no,mono,no,18,no,white,no,yes,768,legacy,25,11,C:/Users/Jeanette/Desktop/Jeanette Master's/AQM&ED/Sternberg task subjects/jh-subject-4.csv,legacy,8,Kafkaesque Koffka,3.2.8,1,y,0,left,left,left,left,NA,NA,656,5460,8197,656,NA,NA,2,legacy,1,1024,2,48000,-16,experiment,4,even,8,260167,256808,257954,3947,99670,257957,NA,3953,91472,262173,258962,262830,NA,9414,262173,NA,Sternberg Task,38,34084,38,yes,1024
100,100,895.4102564,895.4102564,black,experiment,legacy,legacy,legacy,0,uniform,1,undefined,1,left,38,38,38,0,0,38,38,0,0,38,38,38,NA,0,38,0,10/27/19 12:50,The main experiment item,yes,SternbergTask.osexp,C:\Users\Jeanette\Desktop\Jeanette Master's\AQM&ED,no,mono,no,18,no,white,no,yes,768,legacy,26,11,C:/Users/Jeanette/Desktop/Jeanette Master's/AQM&ED/Sternberg task subjects/jh-subject-4.csv,legacy,9 5 8 1,Kafkaesque Koffka,3.2.8,2,y,0,left,left,left,left,NA,NA,837,5460,8197,837,NA,NA,2,legacy,4,1024,2,48000,-16,experiment,4,even,5,266202,262859,263990,3947,99670,263992,NA,3953,91472,268208,264997,269046,NA,9414,268207,NA,Sternberg Task,39,34921,39,yes,1024
100,100,897.5,897.5,black,experiment,legacy,legacy,legacy,0,uniform,1,undefined,1,left,39,39,39,0,0,39,39,0,0,39,39,39,NA,0,39,0,10/27/19 12:50,The main experiment item,yes,SternbergTask.osexp,C:\Users\Jeanette\Desktop\Jeanette Master's\AQM&ED,no,mono,no,18,no,white,no,yes,768,legacy,27,11,C:/Users/Jeanette/Desktop/Jeanette Master's/AQM&ED/Sternberg task subjects/jh-subject-4.csv,legacy,2 4 6 9,Kafkaesque Koffka,3.2.8,3,y,0,left,left,left,left,NA,NA,979,5460,8197,979,NA,NA,2,legacy,4,1024,2,48000,-16,experiment,4,even,6,272411,269074,270197,3947,99670,270200,NA,3953,91472,274418,271206,275398,NA,9414,274417,NA,Sternberg Task,40,35900,40,yes,1024
100,100,900.6341463,900.6341463,black,experiment,legacy,legacy,legacy,0,uniform,1,undefined,1,left,40,40,40,0,0,40,40,0,0,40,40,40,NA,0,40,0,10/27/19 12:50,The main experiment item,yes,SternbergTask.osexp,C:\Users\Jeanette\Desktop\Jeanette Master's\AQM&ED,no,mono,no,18,no,white,no,yes,768,legacy,28,11,C:/Users/Jeanette/Desktop/Jeanette Master's/AQM&ED/Sternberg task subjects/jh-subject-4.csv,legacy,5 7 8 2 3 8,Kafkaesque Koffka,3.2.8,5,y,0,left,left,left,left,NA,NA,1026,5460,8197,1026,NA,NA,2,legacy,6,1024,2,48000,-16,experiment,4,even,3,278773,275439,276561,3947,99670,276563,NA,3953,91472,280779,277568,281806,NA,9414,280779,NA,Sternberg Task,41,36926,41,yes,1024
97.61904762,97.61904762,926.8095238,926.8095238,black,experiment,legacy,legacy,legacy,0,uniform,0,undefined,0,right,41,41,41,0,0,41,41,0,0,41,41,41,NA,0,41,0,10/27/19 12:50,The main experiment item,yes,SternbergTask.osexp,C:\Users\Jeanette\Desktop\Jeanette Master's\AQM&ED,no,mono,no,18,no,white,no,yes,768,legacy,29,11,C:/Users/Jeanette/Desktop/Jeanette Master's/AQM&ED/Sternberg task subjects/jh-subject-4.csv,legacy,7 8 6 1,Kafkaesque Koffka,3.2.8,0,n,0,None,left,left,None,NA,NA,2000,5460,8197,2000,NA,NA,2,legacy,4,1024,2,48000,-16,experiment,4,even,3,285153,281832,282940,3947,99670,282943,NA,3953,91472,287160,283948,289160,NA,9414,287159,NA,Sternberg Task,41,38926,42,yes,1024
97.6744186,97.6744186,933.5348837,933.5348837,black,experiment,legacy,legacy,legacy,0,uniform,1,undefined,1,left,42,42,42,0,0,42,42,0,0,42,42,42,NA,0,42,0,10/27/19 12:50,The main experiment item,yes,SternbergTask.osexp,C:\Users\Jeanette\Desktop\Jeanette Master's\AQM&ED,no,mono,no,18,no,white,no,yes,768,legacy,30,11,C:/Users/Jeanette/Desktop/Jeanette Master's/AQM&ED/Sternberg task subjects/jh-subject-4.csv,legacy,6 9 3 1,Kafkaesque Koffka,3.2.8,4,y,0,left,left,left,left,NA,NA,1216,5460,8197,1216,NA,NA,2,legacy,4,1024,2,48000,-16,experiment,4,even,1,292518,281832,290306,3947,99670,290308,289191,3953,91472,294525,291313,295742,NA,9414,294524,NA,Sternberg Task,42,40142,43,yes,1024
97.72727273,97.72727273,923.8636364,923.8636364,black,experiment,legacy,legacy,legacy,0,uniform,1,undefined,1,left,43,43,43,0,0,43,43,0,0,43,43,43,NA,0,43,0,10/27/19 12:50,The main experiment item,yes,SternbergTask.osexp,C:\Users\Jeanette\Desktop\Jeanette Master's\AQM&ED,no,mono,no,18,no,white,no,yes,768,legacy,31,11,C:/Users/Jeanette/Desktop/Jeanette Master's/AQM&ED/Sternberg task subjects/jh-subject-4.csv,legacy,9 1 6 7 8,Kafkaesque Koffka,3.2.8,1,y,0,left,left,left,left,NA,NA,508,5460,8197,508,NA,NA,2,legacy,5,1024,2,48000,-16,experiment,4,even,9,299091,295767,296876,3947,99670,296878,289191,3953,91472,301097,297884,301606,NA,9414,301096,NA,Sternberg Task,43,40650,44,yes,1024
97.77777778,97.77777778,932.5555556,932.5555556,black,experiment,legacy,legacy,legacy,0,uniform,1,undefined,1,right,44,44,44,0,0,44,44,0,0,44,44,44,NA,0,44,0,10/27/19 12:50,The main experiment item,yes,SternbergTask.osexp,C:\Users\Jeanette\Desktop\Jeanette Master's\AQM&ED,no,mono,no,18,no,white,no,yes,768,legacy,32,11,C:/Users/Jeanette/Desktop/Jeanette Master's/AQM&ED/Sternberg task subjects/jh-subject-4.csv,legacy,7 9 1 6,Kafkaesque Koffka,3.2.8,0,n,0,right,left,left,right,NA,NA,1315,5460,8197,1315,NA,NA,2,legacy,4,1024,2,48000,-16,experiment,4,even,4,304941,301627,302726,3947,99670,302729,289191,3953,91472,306946,303734,308262,NA,9414,306946,NA,Sternberg Task,44,41965,45,yes,1024
97.82608696,97.82608696,927.326087,927.326087,black,experiment,legacy,legacy,legacy,0,uniform,1,undefined,1,right,45,45,45,0,0,45,45,0,0,45,45,45,NA,0,45,0,10/27/19 12:50,The main experiment item,yes,SternbergTask.osexp,C:\Users\Jeanette\Desktop\Jeanette Master's\AQM&ED,no,mono,no,18,no,white,no,yes,768,legacy,33,11,C:/Users/Jeanette/Desktop/Jeanette Master's/AQM&ED/Sternberg task subjects/jh-subject-4.csv,legacy,4 2 7 6 1 3,Kafkaesque Koffka,3.2.8,0,n,0,right,left,left,right,NA,NA,692,5460,8197,692,NA,NA,2,legacy,6,1024,2,48000,-16,experiment,4,even,8,311627,308294,309416,3947,99670,309418,289191,3953,91472,313633,310425,314326,NA,9414,313633,NA,Sternberg Task,45,42657,46,yes,1024
97.87234043,97.87234043,928.8297872,928.8297872,black,experiment,legacy,legacy,legacy,0,uniform,1,undefined,1,right,46,46,46,0,0,46,46,0,0,46,46,46,NA,0,46,0,10/27/19 12:50,The main experiment item,yes,SternbergTask.osexp,C:\Users\Jeanette\Desktop\Jeanette Master's\AQM&ED,no,mono,no,18,no,white,no,yes,768,legacy,34,11,C:/Users/Jeanette/Desktop/Jeanette Master's/AQM&ED/Sternberg task subjects/jh-subject-4.csv,legacy,6 3 1 7 9 8,Kafkaesque Koffka,3.2.8,0,n,0,right,left,left,right,NA,NA,998,5460,8197,998,NA,NA,2,legacy,6,1024,2,48000,-16,experiment,4,even,4,317667,314348,315454,3947,99670,315456,289191,3953,91472,319672,316461,320670,NA,9414,319672,NA,Sternberg Task,46,43655,47,yes,1024
95.83333333,95.83333333,920.5625,920.5625,black,experiment,legacy,legacy,legacy,0,uniform,0,undefined,0,right,47,47,47,0,0,47,47,0,0,47,47,47,NA,0,47,0,10/27/19 12:50,The main experiment item,yes,SternbergTask.osexp,C:\Users\Jeanette\Desktop\Jeanette Master's\AQM&ED,no,mono,no,18,no,white,no,yes,768,legacy,35,11,C:/Users/Jeanette/Desktop/Jeanette Master's/AQM&ED/Sternberg task subjects/jh-subject-4.csv,legacy,9 8 2 7 4,Kafkaesque Koffka,3.2.8,0,n,0,left,left,left,left,NA,NA,532,5460,8197,532,NA,NA,2,legacy,5,1024,2,48000,-16,experiment,4,even,5,324042,320699,321830,3947,99670,321832,289191,3953,91472,326049,322837,326582,NA,9414,326049,NA,Sternberg Task,46,44187,48,yes,1024
95.91836735,95.91836735,925.755102,925.755102,black,experiment,legacy,legacy,legacy,0,uniform,1,undefined,1,left,48,48,48,0,0,48,48,0,0,48,48,48,NA,0,48,0,10/27/19 12:50,The main experiment item,yes,SternbergTask.osexp,C:\Users\Jeanette\Desktop\Jeanette Master's\AQM&ED,no,mono,no,18,no,white,no,yes,768,legacy,36,11,C:/Users/Jeanette/Desktop/Jeanette Master's/AQM&ED/Sternberg task subjects/jh-subject-4.csv,legacy,8 1 6,Kafkaesque Koffka,3.2.8,3,y,0,left,left,left,left,NA,NA,1175,5460,8197,1175,NA,NA,2,legacy,3,1024,2,48000,-16,experiment,4,even,6,329929,320699,327714,3947,99670,327717,326604,3953,91472,331935,328722,333110,NA,9414,331935,NA,Sternberg Task,47,45362,49,yes,1024
96,96,925.64,925.64,black,experiment,legacy,legacy,legacy,0,uniform,1,undefined,1,left,49,49,49,0,0,49,49,0,0,49,49,49,NA,0,49,0,10/27/19 12:50,The main experiment item,yes,SternbergTask.osexp,C:\Users\Jeanette\Desktop\Jeanette Master's\AQM&ED,no,mono,no,18,no,white,no,yes,768,legacy,37,11,C:/Users/Jeanette/Desktop/Jeanette Master's/AQM&ED/Sternberg task subjects/jh-subject-4.csv,legacy,7 1 8 5 6 2,Kafkaesque Koffka,3.2.8,2,y,0,left,left,left,left,NA,NA,920,5460,8197,920,NA,NA,2,legacy,6,1024,2,48000,-16,experiment,4,even,1,336440,333129,334226,3947,99670,334228,326604,3953,91472,338445,335233,339366,NA,9414,338445,NA,Sternberg Task,48,46282,50,yes,1024
96.07843137,96.07843137,926.7647059,926.7647059,black,experiment,legacy,legacy,legacy,0,uniform,1,undefined,1,left,50,50,50,0,0,50,50,0,0,50,50,50,NA,0,50,0,10/27/19 12:50,The main experiment item,yes,SternbergTask.osexp,C:\Users\Jeanette\Desktop\Jeanette Master's\AQM&ED,no,mono,no,18,no,white,no,yes,768,legacy,38,11,C:/Users/Jeanette/Desktop/Jeanette Master's/AQM&ED/Sternberg task subjects/jh-subject-4.csv,legacy,6 9 7 4 5 1,Kafkaesque Koffka,3.2.8,2,y,0,left,left,left,left,NA,NA,983,5460,8197,983,NA,NA,2,legacy,6,1024,2,48000,-16,experiment,4,even,9,342720,339401,340506,3947,99670,340509,326604,3953,91472,344726,341514,345709,NA,9414,344726,NA,Sternberg Task,49,47265,51,yes,1024
96.15384615,96.15384615,920.6153846,920.6153846,black,experiment,legacy,legacy,legacy,0,uniform,1,undefined,1,left,51,51,51,0,0,51,51,0,0,51,51,51,NA,0,51,0,10/27/19 12:50,The main experiment item,yes,SternbergTask.osexp,C:\Users\Jeanette\Desktop\Jeanette Master's\AQM&ED,no,mono,no,18,no,white,no,yes,768,legacy,39,11,C:/Users/Jeanette/Desktop/Jeanette Master's/AQM&ED/Sternberg task subjects/jh-subject-4.csv,legacy,7,Kafkaesque Koffka,3.2.8,1,y,0,left,left,left,left,NA,NA,607,5460,8197,607,NA,NA,2,legacy,1,1024,2,48000,-16,experiment,4,even,7,349041,345734,346827,3947,99670,346829,326604,3953,91472,351046,347834,351653,NA,9414,351046,NA,Sternberg Task,50,47872,52,yes,1024
96.22641509,96.22641509,920.3962264,920.3962264,black,experiment,legacy,legacy,legacy,0,uniform,1,undefined,1,left,52,52,52,0,0,52,52,0,0,52,52,52,NA,0,52,0,10/27/19 12:50,The main experiment item,yes,SternbergTask.osexp,C:\Users\Jeanette\Desktop\Jeanette Master's\AQM&ED,no,mono,no,18,no,white,no,yes,768,legacy,40,11,C:/Users/Jeanette/Desktop/Jeanette Master's/AQM&ED/Sternberg task subjects/jh-subject-4.csv,legacy,2 5 4 8 7,Kafkaesque Koffka,3.2.8,3,y,0,left,left,left,left,NA,NA,909,5460,8197,909,NA,NA,2,legacy,5,1024,2,48000,-16,experiment,4,even,4,354986,351673,352773,3947,99670,352776,326604,3953,91472,356992,353781,357902,NA,9414,356991,NA,Sternberg Task,51,48781,53,yes,1024
94.44444444,94.44444444,938.1666667,938.1666667,black,experiment,legacy,legacy,legacy,0,uniform,0,undefined,0,right,53,53,53,0,0,53,53,0,0,53,53,53,NA,0,53,0,10/27/19 12:50,The main experiment item,yes,SternbergTask.osexp,C:\Users\Jeanette\Desktop\Jeanette Master's\AQM&ED,no,mono,no,18,no,white,no,yes,768,legacy,41,11,C:/Users/Jeanette/Desktop/Jeanette Master's/AQM&ED/Sternberg task subjects/jh-subject-4.csv,legacy,2 6 4 3 9,Kafkaesque Koffka,3.2.8,0,n,0,left,left,left,left,NA,NA,1880,5460,8197,1880,NA,NA,2,legacy,5,1024,2,48000,-16,experiment,4,even,1,361248,357927,359034,3947,99670,359036,326604,3953,91472,363253,360042,365134,NA,9414,363253,NA,Sternberg Task,51,50661,54,yes,1024
94.54545455,94.54545455,940.7636364,940.7636364,black,experiment,legacy,legacy,legacy,0,uniform,1,undefined,1,right,54,54,54,0,0,54,54,0,0,54,54,54,NA,0,54,0,10/27/19 12:50,The main experiment item,yes,SternbergTask.osexp,C:\Users\Jeanette\Desktop\Jeanette Master's\AQM&ED,no,mono,no,18,no,white,no,yes,768,legacy,42,11,C:/Users/Jeanette/Desktop/Jeanette Master's/AQM&ED/Sternberg task subjects/jh-subject-4.csv,legacy,1 5 3 2 8,Kafkaesque Koffka,3.2.8,0,n,0,right,left,left,right,NA,NA,1081,5460,8197,1081,NA,NA,2,legacy,5,1024,2,48000,-16,experiment,4,even,4,368474,357927,366261,3947,99670,366263,365152,3953,91472,370476,367269,371558,NA,9414,370476,NA,Sternberg Task,52,51742,55,yes,1024
94.64285714,94.64285714,933.625,933.625,black,experiment,legacy,legacy,legacy,0,uniform,1,undefined,1,left,55,55,55,0,0,55,55,0,0,55,55,55,NA,0,55,0,10/27/19 12:50,The main experiment item,yes,SternbergTask.osexp,C:\Users\Jeanette\Desktop\Jeanette Master's\AQM&ED,no,mono,no,18,no,white,no,yes,768,legacy,43,11,C:/Users/Jeanette/Desktop/Jeanette Master's/AQM&ED/Sternberg task subjects/jh-subject-4.csv,legacy,4 9 7 8 5 3,Kafkaesque Koffka,3.2.8,4,y,0,left,left,left,left,NA,NA,541,5460,8197,541,NA,NA,2,legacy,6,1024,2,48000,-16,experiment,4,even,8,374907,371601,372692,3947,99670,372695,365152,3953,91472,376912,373701,377454,NA,9414,376912,NA,Sternberg Task,53,52283,56,yes,1024
94.73684211,94.73684211,928.1754386,928.1754386,black,experiment,legacy,legacy,legacy,0,uniform,1,undefined,1,left,56,56,56,0,0,56,56,0,0,56,56,56,NA,0,56,0,10/27/19 12:50,The main experiment item,yes,SternbergTask.osexp,C:\Users\Jeanette\Desktop\Jeanette Master's\AQM&ED,no,mono,no,18,no,white,no,yes,768,legacy,44,11,C:/Users/Jeanette/Desktop/Jeanette Master's/AQM&ED/Sternberg task subjects/jh-subject-4.csv,legacy,3 4,Kafkaesque Koffka,3.2.8,1,y,0,left,left,left,left,NA,NA,623,5460,8197,623,NA,NA,2,legacy,2,1024,2,48000,-16,experiment,4,even,3,380808,377479,378596,3947,99670,378598,365152,3953,91472,382814,379603,383438,NA,9414,382814,NA,Sternberg Task,54,52906,57,yes,1024
94.82758621,94.82758621,925.8965517,925.8965517,black,experiment,legacy,legacy,legacy,0,uniform,1,undefined,1,right,57,57,57,0,0,57,57,0,0,57,57,57,NA,0,57,0,10/27/19 12:50,The main experiment item,yes,SternbergTask.osexp,C:\Users\Jeanette\Desktop\Jeanette Master's\AQM&ED,no,mono,no,18,no,white,no,yes,768,legacy,45,11,C:/Users/Jeanette/Desktop/Jeanette Master's/AQM&ED/Sternberg task subjects/jh-subject-4.csv,legacy,1 7 5 2 9,Kafkaesque Koffka,3.2.8,0,n,0,right,left,left,right,NA,NA,796,5460,8197,796,NA,NA,2,legacy,5,1024,2,48000,-16,experiment,4,even,3,386803,383460,384591,3947,99670,384593,365152,3953,91472,388809,385598,389605,NA,9414,388809,NA,Sternberg Task,55,53702,58,yes,1024
94.91525424,94.91525424,923.6271186,923.6271186,black,experiment,legacy,legacy,legacy,0,uniform,1,undefined,1,right,58,58,58,0,0,58,58,0,0,58,58,58,NA,0,58,0,10/27/19 12:50,The main experiment item,yes,SternbergTask.osexp,C:\Users\Jeanette\Desktop\Jeanette Master's\AQM&ED,no,mono,no,18,no,white,no,yes,768,legacy,46,11,C:/Users/Jeanette/Desktop/Jeanette Master's/AQM&ED/Sternberg task subjects/jh-subject-4.csv,legacy,6 8 4,Kafkaesque Koffka,3.2.8,0,n,0,right,left,left,right,NA,NA,792,5460,8197,792,NA,NA,2,legacy,3,1024,2,48000,-16,experiment,4,even,1,392935,389630,390722,3947,99670,390725,365152,3953,91472,394941,391730,395734,NA,9414,394941,NA,Sternberg Task,56,54494,59,yes,1024
95,95,920.9333333,920.9333333,black,experiment,legacy,legacy,legacy,0,uniform,1,undefined,1,right,59,59,59,0,0,59,59,0,0,59,59,59,NA,0,59,0,10/27/19 12:50,The main experiment item,yes,SternbergTask.osexp,C:\Users\Jeanette\Desktop\Jeanette Master's\AQM&ED,no,mono,no,18,no,white,no,yes,768,legacy,47,11,C:/Users/Jeanette/Desktop/Jeanette Master's/AQM&ED/Sternberg task subjects/jh-subject-4.csv,legacy,4 2 6 9,Kafkaesque Koffka,3.2.8,0,n,0,right,left,left,right,NA,NA,762,5460,8197,762,NA,NA,2,legacy,4,1024,2,48000,-16,experiment,4,even,7,399084,395756,396870,3947,99670,396873,365152,3953,91472,401091,397878,401854,NA,9414,401091,NA,Sternberg Task,57,55256,60,yes,1024
95.08196721,95.08196721,919.1967213,919.1967213,black,experiment,legacy,legacy,legacy,0,uniform,1,undefined,1,right,60,60,60,0,0,60,60,0,0,60,60,60,NA,0,60,0,10/27/19 12:50,The main experiment item,yes,SternbergTask.osexp,C:\Users\Jeanette\Desktop\Jeanette Master's\AQM&ED,no,mono,no,18,no,white,no,yes,768,legacy,48,11,C:/Users/Jeanette/Desktop/Jeanette Master's/AQM&ED/Sternberg task subjects/jh-subject-4.csv,legacy,8 2 1 4 5 9,Kafkaesque Koffka,3.2.8,0,n,0,right,left,left,right,NA,NA,815,5460,8197,815,NA,NA,2,legacy,6,1024,2,48000,-16,experiment,4,even,7,405240,401878,403027,3947,99670,403030,365152,3953,91472,407246,404035,408062,NA,9414,407246,NA,Sternberg Task,58,56071,61,yes,1024
95.16129032,95.16129032,914.9032258,914.9032258,black,experiment,legacy,legacy,legacy,0,uniform,1,undefined,1,left,61,61,61,0,0,61,61,0,0,61,61,61,NA,0,61,0,10/27/19 12:50,The main experiment item,yes,SternbergTask.osexp,C:\Users\Jeanette\Desktop\Jeanette Master's\AQM&ED,no,mono,no,18,no,white,no,yes,768,legacy,49,11,C:/Users/Jeanette/Desktop/Jeanette Master's/AQM&ED/Sternberg task subjects/jh-subject-4.csv,legacy,8 5 4 7 3 1,Kafkaesque Koffka,3.2.8,2,y,0,left,left,left,left,NA,NA,653,5460,8197,653,NA,NA,2,legacy,6,1024,2,48000,-16,experiment,4,even,5,411426,408088,409214,3947,99670,409216,365152,3953,91472,413432,410221,414086,NA,9414,413431,NA,Sternberg Task,59,56724,62,yes,1024
95.23809524,95.23809524,915.0793651,915.0793651,black,experiment,legacy,legacy,legacy,0,uniform,1,undefined,1,left,62,62,62,0,0,62,62,0,0,62,62,62,NA,0,62,0,10/27/19 12:50,The main experiment item,yes,SternbergTask.osexp,C:\Users\Jeanette\Desktop\Jeanette Master's\AQM&ED,no,mono,no,18,no,white,no,yes,768,legacy,50,11,C:/Users/Jeanette/Desktop/Jeanette Master's/AQM&ED/Sternberg task subjects/jh-subject-4.csv,legacy,9 3 1 2 5,Kafkaesque Koffka,3.2.8,4,y,0,left,left,left,left,NA,NA,926,5460,8197,926,NA,NA,2,legacy,5,1024,2,48000,-16,experiment,4,even,2,417432,414113,415220,3947,99670,415222,365152,3953,91472,419439,416227,420366,NA,9414,419438,NA,Sternberg Task,60,57650,63,yes,1024
95.3125,95.3125,911.515625,911.515625,black,experiment,legacy,legacy,legacy,0,uniform,1,undefined,1,left,63,63,63,0,0,63,63,0,0,63,63,63,NA,0,63,0,10/27/19 12:50,The main experiment item,yes,SternbergTask.osexp,C:\Users\Jeanette\Desktop\Jeanette Master's\AQM&ED,no,mono,no,18,no,white,no,yes,768,legacy,51,11,C:/Users/Jeanette/Desktop/Jeanette Master's/AQM&ED/Sternberg task subjects/jh-subject-4.csv,legacy,7 8 6 3 1,Kafkaesque Koffka,3.2.8,5,y,0,left,left,left,left,NA,NA,687,5460,8197,687,NA,NA,2,legacy,5,1024,2,48000,-16,experiment,4,even,1,423728,420393,421516,3947,99670,421518,365152,3953,91472,425734,422523,426421,NA,9414,425734,NA,Sternberg Task,61,58337,64,yes,1024
95.38461538,95.38461538,910.6,910.6,black,experiment,legacy,legacy,legacy,0,uniform,1,undefined,1,right,64,64,64,0,0,64,64,0,0,64,64,64,NA,0,64,0,10/27/19 12:50,The main experiment item,yes,SternbergTask.osexp,C:\Users\Jeanette\Desktop\Jeanette Master's\AQM&ED,no,mono,no,18,no,white,no,yes,768,legacy,52,11,C:/Users/Jeanette/Desktop/Jeanette Master's/AQM&ED/Sternberg task subjects/jh-subject-4.csv,legacy,1 4 3 6 5,Kafkaesque Koffka,3.2.8,0,n,0,right,left,left,right,NA,NA,852,5460,8197,852,NA,NA,2,legacy,5,1024,2,48000,-16,experiment,4,even,8,429801,426448,427588,3947,99670,427590,365152,3953,91472,431809,428596,432662,NA,9414,431808,NA,Sternberg Task,62,59189,65,yes,1024
95.45454545,95.45454545,907.9242424,907.9242424,black,experiment,legacy,legacy,legacy,0,uniform,1,undefined,1,left,65,65,65,0,0,65,65,0,0,65,65,65,NA,0,65,0,10/27/19 12:50,The main experiment item,yes,SternbergTask.osexp,C:\Users\Jeanette\Desktop\Jeanette Master's\AQM&ED,no,mono,no,18,no,white,no,yes,768,legacy,53,11,C:/Users/Jeanette/Desktop/Jeanette Master's/AQM&ED/Sternberg task subjects/jh-subject-4.csv,legacy,6 7 9 3 1 2,Kafkaesque Koffka,3.2.8,1,y,0,left,left,left,left,NA,NA,734,5460,8197,734,NA,NA,2,legacy,6,1024,2,48000,-16,experiment,4,even,6,436008,432685,433795,3947,99670,433797,365152,3953,91472,438015,434802,438750,NA,9414,438014,NA,Sternberg Task,63,59923,66,yes,1024
95.52238806,95.52238806,903.7462687,903.7462687,black,experiment,legacy,legacy,legacy,0,uniform,1,undefined,1,left,66,66,66,0,0,66,66,0,0,66,66,66,NA,0,66,0,10/27/19 12:50,The main experiment item,yes,SternbergTask.osexp,C:\Users\Jeanette\Desktop\Jeanette Master's\AQM&ED,no,mono,no,18,no,white,no,yes,768,legacy,54,11,C:/Users/Jeanette/Desktop/Jeanette Master's/AQM&ED/Sternberg task subjects/jh-subject-4.csv,legacy,8 9 5 6 7,Kafkaesque Koffka,3.2.8,1,y,0,left,left,left,left,NA,NA,628,5460,8197,628,NA,NA,2,legacy,5,1024,2,48000,-16,experiment,4,even,8,442100,438774,439885,3947,99670,439888,365152,3953,91472,444105,440893,444733,NA,9414,444104,NA,Sternberg Task,64,60551,67,yes,1024
95.58823529,95.58823529,900.2352941,900.2352941,black,experiment,legacy,legacy,legacy,0,uniform,1,undefined,1,right,67,67,67,0,0,67,67,0,0,67,67,67,NA,0,67,0,10/27/19 12:50,The main experiment item,yes,SternbergTask.osexp,C:\Users\Jeanette\Desktop\Jeanette Master's\AQM&ED,no,mono,no,18,no,white,no,yes,768,legacy,55,11,C:/Users/Jeanette/Desktop/Jeanette Master's/AQM&ED/Sternberg task subjects/jh-subject-4.csv,legacy,3 9 8 1 6 4,Kafkaesque Koffka,3.2.8,0,n,0,right,left,left,right,NA,NA,665,5460,8197,665,NA,NA,2,legacy,6,1024,2,48000,-16,experiment,4,even,7,448103,444759,445890,3947,99670,445893,365152,3953,91472,450108,446898,450774,NA,9414,450108,NA,Sternberg Task,65,61216,68,yes,1024
95.65217391,95.65217391,898.8985507,898.8985507,black,experiment,legacy,legacy,legacy,0,uniform,1,undefined,1,left,68,68,68,0,0,68,68,0,0,68,68,68,NA,0,68,0,10/27/19 12:50,The main experiment item,yes,SternbergTask.osexp,C:\Users\Jeanette\Desktop\Jeanette Master's\AQM&ED,no,mono,no,18,no,white,no,yes,768,legacy,56,11,C:/Users/Jeanette/Desktop/Jeanette Master's/AQM&ED/Sternberg task subjects/jh-subject-4.csv,legacy,4 3 2 5 8,Kafkaesque Koffka,3.2.8,2,y,0,left,left,left,left,NA,NA,808,5460,8197,808,NA,NA,2,legacy,5,1024,2,48000,-16,experiment,4,even,3,454120,450804,451907,3947,99670,451909,365152,3953,91472,456125,452915,456934,NA,9414,456125,NA,Sternberg Task,66,62024,69,yes,1024
95.71428571,95.71428571,894.0857143,894.0857143,black,experiment,legacy,legacy,legacy,0,uniform,1,undefined,1,left,69,69,69,0,0,69,69,0,0,69,69,69,NA,0,69,0,10/27/19 12:50,The main experiment item,yes,SternbergTask.osexp,C:\Users\Jeanette\Desktop\Jeanette Master's\AQM&ED,no,mono,no,18,no,white,no,yes,768,legacy,57,11,C:/Users/Jeanette/Desktop/Jeanette Master's/AQM&ED/Sternberg task subjects/jh-subject-4.csv,legacy,6 5,Kafkaesque Koffka,3.2.8,2,y,0,left,left,left,left,NA,NA,562,5460,8197,562,NA,NA,2,legacy,2,1024,2,48000,-16,experiment,4,even,5,460310,456971,458096,3947,99670,458099,365152,3953,91472,462315,459105,462878,NA,9414,462315,NA,Sternberg Task,67,62586,70,yes,1024
95.77464789,95.77464789,896.1126761,896.1126761,black,experiment,legacy,legacy,legacy,0,uniform,1,undefined,1,left,70,70,70,0,0,70,70,0,0,70,70,70,NA,0,70,0,10/27/19 12:50,The main experiment item,yes,SternbergTask.osexp,C:\Users\Jeanette\Desktop\Jeanette Master's\AQM&ED,no,mono,no,18,no,white,no,yes,768,legacy,58,11,C:/Users/Jeanette/Desktop/Jeanette Master's/AQM&ED/Sternberg task subjects/jh-subject-4.csv,legacy,2 3,Kafkaesque Koffka,3.2.8,1,y,0,left,left,left,left,NA,NA,1038,5460,8197,1038,NA,NA,2,legacy,2,1024,2,48000,-16,experiment,4,even,2,466241,462902,464028,3947,99670,464031,365152,3953,91472,468247,465036,469286,NA,9414,468247,NA,Sternberg Task,68,63624,71,yes,1024
95.83333333,95.83333333,897.6111111,897.6111111,black,experiment,legacy,legacy,legacy,0,uniform,1,undefined,1,right,71,71,71,0,0,71,71,0,0,71,71,71,NA,0,71,0,10/27/19 12:50,The main experiment item,yes,SternbergTask.osexp,C:\Users\Jeanette\Desktop\Jeanette Master's\AQM&ED,no,mono,no,18,no,white,no,yes,768,legacy,59,11,C:/Users/Jeanette/Desktop/Jeanette Master's/AQM&ED/Sternberg task subjects/jh-subject-4.csv,legacy,5 3 8 7 2 4,Kafkaesque Koffka,3.2.8,0,n,0,right,left,left,right,NA,NA,1004,5460,8197,1004,NA,NA,2,legacy,6,1024,2,48000,-16,experiment,4,even,9,472668,469311,470454,3947,99670,470456,365152,3953,91472,474673,471461,475678,NA,9414,474673,NA,Sternberg Task,69,64628,72,yes,1024
95.89041096,95.89041096,898.2054795,898.2054795,black,experiment,legacy,legacy,legacy,0,uniform,1,undefined,1,left,72,72,72,0,0,72,72,0,0,72,72,72,NA,0,72,0,10/27/19 12:50,The main experiment item,yes,SternbergTask.osexp,C:\Users\Jeanette\Desktop\Jeanette Master's\AQM&ED,no,mono,no,18,no,white,no,yes,768,legacy,60,11,C:/Users/Jeanette/Desktop/Jeanette Master's/AQM&ED/Sternberg task subjects/jh-subject-4.csv,legacy,7 1 3,Kafkaesque Koffka,3.2.8,2,y,0,left,left,left,left,NA,NA,941,5460,8197,941,NA,NA,2,legacy,3,1024,2,48000,-16,experiment,4,even,1,479034,475703,476820,3947,99670,476822,365152,3953,91472,481040,477829,481982,NA,9414,481040,NA,Sternberg Task,70,65569,73,yes,1024
95.94594595,95.94594595,897.5,897.5,black,experiment,legacy,legacy,legacy,0,uniform,1,undefined,1,left,73,73,73,0,0,73,73,0,0,73,73,73,NA,0,73,0,10/27/19 12:50,The main experiment item,yes,SternbergTask.osexp,C:\Users\Jeanette\Desktop\Jeanette Master's\AQM&ED,no,mono,no,18,no,white,no,yes,768,legacy,61,11,C:/Users/Jeanette/Desktop/Jeanette Master's/AQM&ED/Sternberg task subjects/jh-subject-4.csv,legacy,4 1 5,Kafkaesque Koffka,3.2.8,2,y,0,left,left,left,left,NA,NA,846,5460,8197,846,NA,NA,2,legacy,3,1024,2,48000,-16,experiment,4,even,1,485346,482016,483135,3947,99670,483138,365152,3953,91472,487351,484141,488198,NA,9414,487351,NA,Sternberg Task,71,66415,74,yes,1024
96,96,898.08,898.08,black,experiment,legacy,legacy,legacy,0,uniform,1,undefined,1,left,74,74,74,0,0,74,74,0,0,74,74,74,NA,0,74,0,10/27/19 12:50,The main experiment item,yes,SternbergTask.osexp,C:\Users\Jeanette\Desktop\Jeanette Master's\AQM&ED,no,mono,no,18,no,white,no,yes,768,legacy,62,11,C:/Users/Jeanette/Desktop/Jeanette Master's/AQM&ED/Sternberg task subjects/jh-subject-4.csv,legacy,8 3,Kafkaesque Koffka,3.2.8,2,y,0,left,left,left,left,NA,NA,941,5460,8197,941,NA,NA,2,legacy,2,1024,2,48000,-16,experiment,4,even,3,491562,488220,489349,3947,99670,489351,365152,3953,91472,493568,490357,494510,NA,9414,493568,NA,Sternberg Task,72,67356,75,yes,1024
96.05263158,96.05263158,895.1052632,895.1052632,black,experiment,legacy,legacy,legacy,0,uniform,1,undefined,1,right,75,75,75,0,0,75,75,0,0,75,75,75,NA,0,75,0,10/27/19 12:50,The main experiment item,yes,SternbergTask.osexp,C:\Users\Jeanette\Desktop\Jeanette Master's\AQM&ED,no,mono,no,18,no,white,no,yes,768,legacy,63,11,C:/Users/Jeanette/Desktop/Jeanette Master's/AQM&ED/Sternberg task subjects/jh-subject-4.csv,legacy,1 6 4,Kafkaesque Koffka,3.2.8,0,n,0,right,left,left,right,NA,NA,672,5460,8197,672,NA,NA,2,legacy,3,1024,2,48000,-16,experiment,4,even,7,497830,494529,495616,3947,99670,495618,365152,3953,91472,499837,496625,500510,NA,9414,499836,NA,Sternberg Task,73,68028,76,yes,1024
96.1038961,96.1038961,901.1038961,901.1038961,black,experiment,legacy,legacy,legacy,0,uniform,1,undefined,1,right,76,76,76,0,0,76,76,0,0,76,76,76,NA,0,76,0,10/27/19 12:50,The main experiment item,yes,SternbergTask.osexp,C:\Users\Jeanette\Desktop\Jeanette Master's\AQM&ED,no,mono,no,18,no,white,no,yes,768,legacy,64,11,C:/Users/Jeanette/Desktop/Jeanette Master's/AQM&ED/Sternberg task subjects/jh-subject-4.csv,legacy,9 5 3 2 8 6,Kafkaesque Koffka,3.2.8,0,n,0,right,left,left,right,NA,NA,1357,5460,8197,1357,NA,NA,2,legacy,6,1024,2,48000,-16,experiment,4,even,7,503849,500530,501637,3947,99670,501639,365152,3953,91472,505856,502644,507215,NA,9414,505855,NA,Sternberg Task,74,69385,77,yes,1024
96.15384615,96.15384615,901.8076923,901.8076923,black,experiment,legacy,legacy,legacy,0,uniform,1,undefined,1,right,77,77,77,0,0,77,77,0,0,77,77,77,NA,0,77,0,10/27/19 12:50,The main experiment item,yes,SternbergTask.osexp,C:\Users\Jeanette\Desktop\Jeanette Master's\AQM&ED,no,mono,no,18,no,white,no,yes,768,legacy,65,11,C:/Users/Jeanette/Desktop/Jeanette Master's/AQM&ED/Sternberg task subjects/jh-subject-4.csv,legacy,1 3 2 6 9,Kafkaesque Koffka,3.2.8,0,n,0,right,left,left,right,NA,NA,956,5460,8197,956,NA,NA,2,legacy,5,1024,2,48000,-16,experiment,4,even,5,510587,507256,508373,3947,99670,508376,365152,3953,91472,512593,509381,513550,NA,9414,512593,NA,Sternberg Task,75,70341,78,yes,1024
96.20253165,96.20253165,899.2025316,899.2025316,black,experiment,legacy,legacy,legacy,0,uniform,1,undefined,1,right,78,78,78,0,0,78,78,0,0,78,78,78,NA,0,78,0,10/27/19 12:50,The main experiment item,yes,SternbergTask.osexp,C:\Users\Jeanette\Desktop\Jeanette Master's\AQM&ED,no,mono,no,18,no,white,no,yes,768,legacy,66,11,C:/Users/Jeanette/Desktop/Jeanette Master's/AQM&ED/Sternberg task subjects/jh-subject-4.csv,legacy,9,Kafkaesque Koffka,3.2.8,0,n,0,right,left,left,right,NA,NA,696,5460,8197,696,NA,NA,2,legacy,1,1024,2,48000,-16,experiment,4,even,6,516880,513578,514667,3947,99670,514669,365152,3953,91472,518885,515675,519582,NA,9414,518885,NA,Sternberg Task,76,71037,79,yes,1024
96.25,96.25,897.875,897.875,black,experiment,legacy,legacy,legacy,0,uniform,1,undefined,1,left,79,79,79,0,0,79,79,0,0,79,79,79,NA,0,79,0,10/27/19 12:50,The main experiment item,yes,SternbergTask.osexp,C:\Users\Jeanette\Desktop\Jeanette Master's\AQM&ED,no,mono,no,18,no,white,no,yes,768,legacy,67,11,C:/Users/Jeanette/Desktop/Jeanette Master's/AQM&ED/Sternberg task subjects/jh-subject-4.csv,legacy,7 2 3,Kafkaesque Koffka,3.2.8,3,y,0,left,left,left,left,NA,NA,793,5460,8197,793,NA,NA,2,legacy,3,1024,2,48000,-16,experiment,4,even,3,522951,519640,520741,3947,99670,520744,365152,3953,91472,524956,521749,525750,NA,9414,524956,NA,Sternberg Task,77,71830,80,yes,1024
96.2962963,96.2962963,903.6666667,903.6666667,black,experiment,legacy,legacy,legacy,0,uniform,1,undefined,1,left,80,80,80,0,0,80,80,0,0,80,80,80,NA,0,80,0,10/27/19 12:50,The main experiment item,yes,SternbergTask.osexp,C:\Users\Jeanette\Desktop\Jeanette Master's\AQM&ED,no,mono,no,18,no,white,no,yes,768,legacy,68,11,C:/Users/Jeanette/Desktop/Jeanette Master's/AQM&ED/Sternberg task subjects/jh-subject-4.csv,legacy,3 4 9 6 2 9,Kafkaesque Koffka,3.2.8,5,y,0,left,left,left,left,NA,NA,1367,5460,8197,1367,NA,NA,2,legacy,6,1024,2,48000,-16,experiment,4,even,2,529089,525791,526877,3947,99670,526879,365152,3953,91472,531094,527882,532462,NA,9414,531094,NA,Sternberg Task,78,73197,81,yes,1024
96.34146341,96.34146341,901.2560976,901.2560976,black,experiment,legacy,legacy,legacy,0,uniform,1,undefined,1,left,81,81,81,0,0,81,81,0,0,81,81,81,NA,0,81,0,10/27/19 12:50,The main experiment item,yes,SternbergTask.osexp,C:\Users\Jeanette\Desktop\Jeanette Master's\AQM&ED,no,mono,no,18,no,white,no,yes,768,legacy,69,11,C:/Users/Jeanette/Desktop/Jeanette Master's/AQM&ED/Sternberg task subjects/jh-subject-4.csv,legacy,8 7 3,Kafkaesque Koffka,3.2.8,1,y,0,left,left,left,left,NA,NA,706,5460,8197,706,NA,NA,2,legacy,3,1024,2,48000,-16,experiment,4,even,8,535798,532488,533586,3947,99670,533588,365152,3953,91472,537803,534593,538510,NA,9414,537803,NA,Sternberg Task,79,73903,82,yes,1024
96.38554217,96.38554217,900.0481928,900.0481928,black,experiment,legacy,legacy,legacy,0,uniform,1,undefined,1,right,82,82,82,0,0,82,82,0,0,82,82,82,NA,0,82,0,10/27/19 12:50,The main experiment item,yes,SternbergTask.osexp,C:\Users\Jeanette\Desktop\Jeanette Master's\AQM&ED,no,mono,no,18,no,white,no,yes,768,legacy,70,11,C:/Users/Jeanette/Desktop/Jeanette Master's/AQM&ED/Sternberg task subjects/jh-subject-4.csv,legacy,3 4 2,Kafkaesque Koffka,3.2.8,0,n,0,right,left,left,right,NA,NA,801,5460,8197,801,NA,NA,2,legacy,3,1024,2,48000,-16,experiment,4,even,5,541829,538534,539620,3947,99670,539622,365152,3953,91472,543836,540627,544638,NA,9414,543836,NA,Sternberg Task,80,74704,83,yes,1024
96.42857143,96.42857143,909.7261905,909.7261905,black,experiment,legacy,legacy,legacy,0,uniform,1,undefined,1,left,83,83,83,0,0,83,83,0,0,83,83,83,NA,0,83,0,10/27/19 12:50,The main experiment item,yes,SternbergTask.osexp,C:\Users\Jeanette\Desktop\Jeanette Master's\AQM&ED,no,mono,no,18,no,white,no,yes,768,legacy,71,11,C:/Users/Jeanette/Desktop/Jeanette Master's/AQM&ED/Sternberg task subjects/jh-subject-4.csv,legacy,5 2 6,Kafkaesque Koffka,3.2.8,2,y,0,left,left,left,left,NA,NA,1713,5460,8197,1713,NA,NA,2,legacy,3,1024,2,48000,-16,experiment,4,even,2,547995,544698,545788,3947,99670,545791,365152,3953,91472,549997,546793,551711,NA,9414,549997,NA,Sternberg Task,81,76417,84,yes,1024
96.47058824,96.47058824,910.5176471,910.5176471,black,experiment,legacy,legacy,legacy,0,uniform,1,undefined,1,left,84,84,84,0,0,84,84,0,0,84,84,84,NA,0,84,0,10/27/19 12:50,The main experiment item,yes,SternbergTask.osexp,C:\Users\Jeanette\Desktop\Jeanette Master's\AQM&ED,no,mono,no,18,no,white,no,yes,768,legacy,72,11,C:/Users/Jeanette/Desktop/Jeanette Master's/AQM&ED/Sternberg task subjects/jh-subject-4.csv,legacy,9 8 4,Kafkaesque Koffka,3.2.8,1,y,0,left,left,left,left,NA,NA,977,5460,8197,977,NA,NA,2,legacy,3,1024,2,48000,-16,experiment,4,even,9,555194,551887,552987,3947,99670,552990,365152,3953,91472,557196,553992,558174,NA,9414,557196,NA,Sternberg Task,82,77394,85,yes,1024
96.51162791,96.51162791,909.244186,909.244186,black,experiment,legacy,legacy,legacy,0,uniform,1,undefined,1,right,85,85,85,0,0,85,85,0,0,85,85,85,NA,0,85,0,10/27/19 12:50,The main experiment item,yes,SternbergTask.osexp,C:\Users\Jeanette\Desktop\Jeanette Master's\AQM&ED,no,mono,no,18,no,white,no,yes,768,legacy,73,11,C:/Users/Jeanette/Desktop/Jeanette Master's/AQM&ED/Sternberg task subjects/jh-subject-4.csv,legacy,1 7 5 2,Kafkaesque Koffka,3.2.8,0,n,0,right,left,left,right,NA,NA,801,5460,8197,801,NA,NA,2,legacy,4,1024,2,48000,-16,experiment,4,even,3,561518,558223,559310,3947,99670,559312,365152,3953,91472,563524,560316,564326,NA,9414,563523,NA,Sternberg Task,83,78195,86,yes,1024
96.55172414,96.55172414,907.1609195,907.1609195,black,experiment,legacy,legacy,legacy,0,uniform,1,undefined,1,right,86,86,86,0,0,86,86,0,0,86,86,86,NA,0,86,0,10/27/19 12:50,The main experiment item,yes,SternbergTask.osexp,C:\Users\Jeanette\Desktop\Jeanette Master's\AQM&ED,no,mono,no,18,no,white,no,yes,768,legacy,74,11,C:/Users/Jeanette/Desktop/Jeanette Master's/AQM&ED/Sternberg task subjects/jh-subject-4.csv,legacy,7 3 2 8,Kafkaesque Koffka,3.2.8,0,n,0,right,left,left,right,NA,NA,728,5460,8197,728,NA,NA,2,legacy,4,1024,2,48000,-16,experiment,4,even,4,567656,564354,565444,3947,99670,565447,365152,3953,91472,569661,566451,570390,NA,9414,569661,NA,Sternberg Task,84,78923,87,yes,1024
96.59090909,96.59090909,908.7386364,908.7386364,black,experiment,legacy,legacy,legacy,0,uniform,1,undefined,1,right,87,87,87,0,0,87,87,0,0,87,87,87,NA,0,87,0,10/27/19 12:50,The main experiment item,yes,SternbergTask.osexp,C:\Users\Jeanette\Desktop\Jeanette Master's\AQM&ED,no,mono,no,18,no,white,no,yes,768,legacy,75,11,C:/Users/Jeanette/Desktop/Jeanette Master's/AQM&ED/Sternberg task subjects/jh-subject-4.csv,legacy,3 4 9 6 7 8,Kafkaesque Koffka,3.2.8,0,n,0,right,left,left,right,NA,NA,1046,5460,8197,1046,NA,NA,2,legacy,6,1024,2,48000,-16,experiment,4,even,2,573965,570654,571755,3947,99670,571757,365152,3953,91472,575967,572760,577015,NA,9414,575967,NA,Sternberg Task,85,79969,88,yes,1024
96.62921348,96.62921348,908.8988764,908.8988764,black,experiment,legacy,legacy,legacy,0,uniform,1,undefined,1,right,88,88,88,0,0,88,88,0,0,88,88,88,NA,0,88,0,10/27/19 12:50,The main experiment item,yes,SternbergTask.osexp,C:\Users\Jeanette\Desktop\Jeanette Master's\AQM&ED,no,mono,no,18,no,white,no,yes,768,legacy,76,11,C:/Users/Jeanette/Desktop/Jeanette Master's/AQM&ED/Sternberg task subjects/jh-subject-4.csv,legacy,5 9 2 3,Kafkaesque Koffka,3.2.8,0,n,0,right,left,left,right,NA,NA,923,5460,8197,923,NA,NA,2,legacy,4,1024,2,48000,-16,experiment,4,even,8,580385,577092,578179,3947,99670,578181,365152,3953,91472,582387,579183,583311,NA,9414,582387,NA,Sternberg Task,86,80892,89,yes,1024
96.66666667,96.66666667,911.6444444,911.6444444,black,experiment,legacy,legacy,legacy,0,uniform,1,undefined,1,left,89,89,89,0,0,89,89,0,0,89,89,89,NA,0,89,0,10/27/19 12:50,The main experiment item,yes,SternbergTask.osexp,C:\Users\Jeanette\Desktop\Jeanette Master's\AQM&ED,no,mono,no,18,no,white,no,yes,768,legacy,77,11,C:/Users/Jeanette/Desktop/Jeanette Master's/AQM&ED/Sternberg task subjects/jh-subject-4.csv,legacy,5 7 3 6 2,Kafkaesque Koffka,3.2.8,5,y,0,left,left,left,left,NA,NA,1156,5460,8197,1156,NA,NA,2,legacy,5,1024,2,48000,-16,experiment,4,even,2,586635,583331,584424,3947,99670,584426,365152,3953,91472,588641,585433,589798,NA,9414,588641,NA,Sternberg Task,87,82048,90,yes,1024
96.7032967,96.7032967,911.8571429,911.8571429,black,experiment,legacy,legacy,legacy,0,uniform,1,undefined,1,left,90,90,90,0,0,90,90,0,0,90,90,90,NA,0,90,0,10/27/19 12:50,The main experiment item,yes,SternbergTask.osexp,C:\Users\Jeanette\Desktop\Jeanette Master's\AQM&ED,no,mono,no,18,no,white,no,yes,768,legacy,78,11,C:/Users/Jeanette/Desktop/Jeanette Master's/AQM&ED/Sternberg task subjects/jh-subject-4.csv,legacy,6 7 8 5,Kafkaesque Koffka,3.2.8,3,y,0,left,left,left,left,NA,NA,931,5460,8197,931,NA,NA,2,legacy,4,1024,2,48000,-16,experiment,4,even,8,593148,589823,590934,3947,99670,590937,365152,3953,91472,595154,591942,596086,NA,9414,595153,NA,Sternberg Task,88,82979,91,yes,1024
96.73913043,96.73913043,909.1630435,909.1630435,black,experiment,legacy,legacy,legacy,0,uniform,1,undefined,1,right,91,91,91,0,0,91,91,0,0,91,91,91,NA,0,91,0,10/27/19 12:50,The main experiment item,yes,SternbergTask.osexp,C:\Users\Jeanette\Desktop\Jeanette Master's\AQM&ED,no,mono,no,18,no,white,no,yes,768,legacy,79,11,C:/Users/Jeanette/Desktop/Jeanette Master's/AQM&ED/Sternberg task subjects/jh-subject-4.csv,legacy,7 6 4 8 1 2,Kafkaesque Koffka,3.2.8,0,n,0,right,left,left,right,NA,NA,664,5460,8197,664,NA,NA,2,legacy,6,1024,2,48000,-16,experiment,4,even,9,599440,596111,597228,3947,99670,597230,365152,3953,91472,601445,598235,602110,NA,9414,601445,NA,Sternberg Task,89,83643,92,yes,1024
96.77419355,96.77419355,908.8494624,908.8494624,black,experiment,legacy,legacy,legacy,0,uniform,1,undefined,1,left,92,92,92,0,0,92,92,0,0,92,92,92,NA,0,92,0,10/27/19 12:50,The main experiment item,yes,SternbergTask.osexp,C:\Users\Jeanette\Desktop\Jeanette Master's\AQM&ED,no,mono,no,18,no,white,no,yes,768,legacy,80,11,C:/Users/Jeanette/Desktop/Jeanette Master's/AQM&ED/Sternberg task subjects/jh-subject-4.csv,legacy,8 5 1 3 9,Kafkaesque Koffka,3.2.8,4,y,0,left,left,left,left,NA,NA,880,5460,8197,880,NA,NA,2,legacy,5,1024,2,48000,-16,experiment,4,even,3,605470,602137,603257,3947,99670,603259,365152,3953,91472,607477,604264,608358,NA,9414,607476,NA,Sternberg Task,90,84523,93,yes,1024
96.80851064,96.80851064,908.6170213,908.6170213,black,experiment,legacy,legacy,legacy,0,uniform,1,undefined,1,right,93,93,93,0,0,93,93,0,0,93,93,93,NA,0,93,0,10/27/19 12:50,The main experiment item,yes,SternbergTask.osexp,C:\Users\Jeanette\Desktop\Jeanette Master's\AQM&ED,no,mono,no,18,no,white,no,yes,768,legacy,81,11,C:/Users/Jeanette/Desktop/Jeanette Master's/AQM&ED/Sternberg task subjects/jh-subject-4.csv,legacy,1 4 9 3,Kafkaesque Koffka,3.2.8,0,n,0,right,left,left,right,NA,NA,887,5460,8197,887,NA,NA,2,legacy,4,1024,2,48000,-16,experiment,4,even,5,611710,608388,609501,3947,99670,609503,365152,3953,91472,613718,610505,614606,NA,9414,613717,NA,Sternberg Task,91,85410,94,yes,1024
96.84210526,96.84210526,911.1578947,911.1578947,black,experiment,legacy,legacy,legacy,0,uniform,1,undefined,1,left,94,94,94,0,0,94,94,0,0,94,94,94,NA,0,94,0,10/27/19 12:50,The main experiment item,yes,SternbergTask.osexp,C:\Users\Jeanette\Desktop\Jeanette Master's\AQM&ED,no,mono,no,18,no,white,no,yes,768,legacy,82,11,C:/Users/Jeanette/Desktop/Jeanette Master's/AQM&ED/Sternberg task subjects/jh-subject-4.csv,legacy,6 2,Kafkaesque Koffka,3.2.8,1,y,0,left,left,left,left,NA,NA,1150,5460,8197,1150,NA,NA,2,legacy,2,1024,2,48000,-16,experiment,4,even,6,617938,614626,615723,3947,99670,615726,365152,3953,91472,619943,616732,621094,NA,9414,619943,NA,Sternberg Task,92,86560,95,yes,1024
96.875,96.875,915.4270833,915.4270833,black,experiment,legacy,legacy,legacy,0,uniform,1,undefined,1,right,95,95,95,0,0,95,95,0,0,95,95,95,NA,0,95,0,10/27/19 12:50,The main experiment item,yes,SternbergTask.osexp,C:\Users\Jeanette\Desktop\Jeanette Master's\AQM&ED,no,mono,no,18,no,white,no,yes,768,legacy,83,11,C:/Users/Jeanette/Desktop/Jeanette Master's/AQM&ED/Sternberg task subjects/jh-subject-4.csv,legacy,7 4 2 8 1 9,Kafkaesque Koffka,3.2.8,0,n,0,right,left,left,right,NA,NA,1321,5460,8197,1321,NA,NA,2,legacy,6,1024,2,48000,-16,experiment,4,even,5,624460,621122,622245,3947,99670,622247,365152,3953,91472,626468,623253,627790,NA,9414,626467,NA,Sternberg Task,93,87881,96,yes,1024
96.90721649,96.90721649,915.3298969,915.3298969,black,experiment,legacy,legacy,legacy,0,uniform,1,undefined,1,right,96,96,96,0,0,96,96,0,0,96,96,96,NA,0,96,0,10/27/19 12:50,The main experiment item,yes,SternbergTask.osexp,C:\Users\Jeanette\Desktop\Jeanette Master's\AQM&ED,no,mono,no,18,no,white,no,yes,768,legacy,84,11,C:/Users/Jeanette/Desktop/Jeanette Master's/AQM&ED/Sternberg task subjects/jh-subject-4.csv,legacy,2 8 9 4 1,Kafkaesque Koffka,3.2.8,0,n,0,right,left,left,right,NA,NA,906,5460,8197,906,NA,NA,2,legacy,5,1024,2,48000,-16,experiment,4,even,5,631110,627810,628897,3947,99670,628899,365152,3953,91472,633115,629904,634023,NA,9414,633115,NA,Sternberg Task,94,88787,97,yes,1024
96.93877551,96.93877551,918.877551,918.877551,black,experiment,legacy,legacy,legacy,0,uniform,1,undefined,1,right,97,97,97,0,0,97,97,0,0,97,97,97,NA,0,97,0,10/27/19 12:50,The main experiment item,yes,SternbergTask.osexp,C:\Users\Jeanette\Desktop\Jeanette Master's\AQM&ED,no,mono,no,18,no,white,no,yes,768,legacy,85,11,C:/Users/Jeanette/Desktop/Jeanette Master's/AQM&ED/Sternberg task subjects/jh-subject-4.csv,legacy,1 6 4 3 9 7,Kafkaesque Koffka,3.2.8,0,n,0,right,left,left,right,NA,NA,1263,5460,8197,1263,NA,NA,2,legacy,6,1024,2,48000,-16,experiment,4,even,8,637369,634049,635157,3947,99670,635159,365152,3953,91472,639374,636164,640638,NA,9414,639374,NA,Sternberg Task,95,90050,98,yes,1024
95.95959596,95.95959596,915.5050505,915.5050505,black,experiment,legacy,legacy,legacy,0,uniform,0,undefined,0,left,98,98,98,0,0,98,98,0,0,98,98,98,NA,0,98,0,10/27/19 12:50,The main experiment item,yes,SternbergTask.osexp,C:\Users\Jeanette\Desktop\Jeanette Master's\AQM&ED,no,mono,no,18,no,white,no,yes,768,legacy,86,11,C:/Users/Jeanette/Desktop/Jeanette Master's/AQM&ED/Sternberg task subjects/jh-subject-4.csv,legacy,3 9 6 2,Kafkaesque Koffka,3.2.8,4,y,0,right,left,left,right,NA,NA,585,5460,8197,585,NA,NA,2,legacy,4,1024,2,48000,-16,experiment,4,even,2,643974,640662,641760,3947,99670,641762,365152,3953,91472,645980,642768,646566,NA,9414,645979,NA,Sternberg Task,95,90635,99,yes,1024
96,96,916.13,916.13,black,experiment,legacy,legacy,legacy,0,uniform,1,undefined,1,right,99,99,99,0,0,99,99,0,0,99,99,99,NA,0,99,0,10/27/19 12:50,The main experiment item,yes,SternbergTask.osexp,C:\Users\Jeanette\Desktop\Jeanette Master's\AQM&ED,no,mono,no,18,no,white,no,yes,768,legacy,87,11,C:/Users/Jeanette/Desktop/Jeanette Master's/AQM&ED/Sternberg task subjects/jh-subject-4.csv,legacy,9 7 4 5 8,Kafkaesque Koffka,3.2.8,0,n,0,right,left,left,right,NA,NA,978,5460,8197,978,NA,NA,2,legacy,5,1024,2,48000,-16,experiment,4,even,6,649909,640662,647702,3947,99670,647704,646587,3953,91472,651916,648707,652895,NA,9414,651914,NA,Sternberg Task,96,91613,100,yes,1024
96.03960396,96.03960396,916.4455446,916.4455446,black,experiment,legacy,legacy,legacy,0,uniform,1,undefined,1,left,100,100,100,0,0,100,100,0,0,100,100,100,NA,0,100,0,10/27/19 12:50,The main experiment item,yes,SternbergTask.osexp,C:\Users\Jeanette\Desktop\Jeanette Master's\AQM&ED,no,mono,no,18,no,white,no,yes,768,legacy,88,11,C:/Users/Jeanette/Desktop/Jeanette Master's/AQM&ED/Sternberg task subjects/jh-subject-4.csv,legacy,4 7 6 8 2 3,Kafkaesque Koffka,3.2.8,6,y,0,left,left,left,left,NA,NA,948,5460,8197,948,NA,NA,2,legacy,6,1024,2,48000,-16,experiment,4,even,3,656259,652921,654047,3947,99670,654049,646587,3953,91472,658265,655054,659215,NA,9414,658265,NA,Sternberg Task,97,92561,101,yes,1024
96.07843137,96.07843137,914.1960784,914.1960784,black,experiment,legacy,legacy,legacy,0,uniform,1,undefined,1,right,101,101,101,0,0,101,101,0,0,101,101,101,NA,0,101,0,10/27/19 12:50,The main experiment item,yes,SternbergTask.osexp,C:\Users\Jeanette\Desktop\Jeanette Master's\AQM&ED,no,mono,no,18,no,white,no,yes,768,legacy,89,11,C:/Users/Jeanette/Desktop/Jeanette Master's/AQM&ED/Sternberg task subjects/jh-subject-4.csv,legacy,2 7 5,Kafkaesque Koffka,3.2.8,0,n,0,right,left,left,right,NA,NA,687,5460,8197,687,NA,NA,2,legacy,3,1024,2,48000,-16,experiment,4,even,8,662567,659243,660355,3947,99670,660357,646587,3953,91472,664574,661362,665263,NA,9414,664573,NA,Sternberg Task,98,93248,102,yes,1024
96.11650485,96.11650485,919.8349515,919.8349515,black,experiment,legacy,legacy,legacy,0,uniform,1,undefined,1,right,102,102,102,0,0,102,102,0,0,102,102,102,NA,0,102,0,10/27/19 12:50,The main experiment item,yes,SternbergTask.osexp,C:\Users\Jeanette\Desktop\Jeanette Master's\AQM&ED,no,mono,no,18,no,white,no,yes,768,legacy,90,11,C:/Users/Jeanette/Desktop/Jeanette Master's/AQM&ED/Sternberg task subjects/jh-subject-4.csv,legacy,6 9 7 3 8 2,Kafkaesque Koffka,3.2.8,0,n,0,right,left,left,right,NA,NA,1495,5460,8197,1495,NA,NA,2,legacy,6,1024,2,48000,-16,experiment,4,even,5,668600,665282,666386,3947,99670,666388,646587,3953,91472,670606,667394,672103,NA,9414,670606,NA,Sternberg Task,99,94743,103,yes,1024
96.15384615,96.15384615,917.0192308,917.0192308,black,experiment,legacy,legacy,legacy,0,uniform,1,undefined,1,right,103,103,103,0,0,103,103,0,0,103,103,103,NA,0,103,0,10/27/19 12:50,The main experiment item,yes,SternbergTask.osexp,C:\Users\Jeanette\Desktop\Jeanette Master's\AQM&ED,no,mono,no,18,no,white,no,yes,768,legacy,91,11,C:/Users/Jeanette/Desktop/Jeanette Master's/AQM&ED/Sternberg task subjects/jh-subject-4.csv,legacy,1,Kafkaesque Koffka,3.2.8,0,n,0,right,left,left,right,NA,NA,627,5460,8197,627,NA,NA,2,legacy,1,1024,2,48000,-16,experiment,4,even,7,675460,672128,673248,3947,99670,673250,646587,3953,91472,677466,674255,678094,NA,9414,677466,NA,Sternberg Task,100,95370,104,yes,1024
96.19047619,96.19047619,919.3809524,919.3809524,black,experiment,legacy,legacy,legacy,0,uniform,1,undefined,1,right,104,104,104,0,0,104,104,0,0,104,104,104,NA,0,104,0,10/27/19 12:50,The main experiment item,yes,SternbergTask.osexp,C:\Users\Jeanette\Desktop\Jeanette Master's\AQM&ED,no,mono,no,18,no,white,no,yes,768,legacy,92,11,C:/Users/Jeanette/Desktop/Jeanette Master's/AQM&ED/Sternberg task subjects/jh-subject-4.csv,legacy,8 5 4 2 9 6,Kafkaesque Koffka,3.2.8,0,n,0,right,left,left,right,NA,NA,1165,5460,8197,1165,NA,NA,2,legacy,6,1024,2,48000,-16,experiment,4,even,3,681458,678120,679246,3947,99670,679248,646587,3953,91472,683464,680253,684630,NA,9414,683463,NA,Sternberg Task,101,96535,105,yes,1024
96.22641509,96.22641509,916.7264151,916.7264151,black,experiment,legacy,legacy,legacy,0,uniform,1,undefined,1,right,105,105,105,0,0,105,105,0,0,105,105,105,NA,0,105,0,10/27/19 12:50,The main experiment item,yes,SternbergTask.osexp,C:\Users\Jeanette\Desktop\Jeanette Master's\AQM&ED,no,mono,no,18,no,white,no,yes,768,legacy,93,11,C:/Users/Jeanette/Desktop/Jeanette Master's/AQM&ED/Sternberg task subjects/jh-subject-4.csv,legacy,7 1,Kafkaesque Koffka,3.2.8,0,n,0,right,left,left,right,NA,NA,638,5460,8197,638,NA,NA,2,legacy,2,1024,2,48000,-16,experiment,4,even,8,687977,684658,685764,3947,99670,685766,646587,3953,91472,689983,686771,690622,NA,9414,689982,NA,Sternberg Task,102,97173,106,yes,1024
96.26168224,96.26168224,917.6448598,917.6448598,black,experiment,legacy,legacy,legacy,0,uniform,1,undefined,1,right,106,106,106,0,0,106,106,0,0,106,106,106,NA,0,106,0,10/27/19 12:50,The main experiment item,yes,SternbergTask.osexp,C:\Users\Jeanette\Desktop\Jeanette Master's\AQM&ED,no,mono,no,18,no,white,no,yes,768,legacy,94,11,C:/Users/Jeanette/Desktop/Jeanette Master's/AQM&ED/Sternberg task subjects/jh-subject-4.csv,legacy,2 8 7 9 5 3,Kafkaesque Koffka,3.2.8,0,n,0,right,left,left,right,NA,NA,1015,5460,8197,1015,NA,NA,2,legacy,6,1024,2,48000,-16,experiment,4,even,6,693968,690642,691756,3947,99670,691758,646587,3953,91472,695974,692763,696991,NA,9414,695974,NA,Sternberg Task,103,98188,107,yes,1024
96.2962963,96.2962963,916.0833333,916.0833333,black,experiment,legacy,legacy,legacy,0,uniform,1,undefined,1,left,107,107,107,0,0,107,107,0,0,107,107,107,NA,0,107,0,10/27/19 12:50,The main experiment item,yes,SternbergTask.osexp,C:\Users\Jeanette\Desktop\Jeanette Master's\AQM&ED,no,mono,no,18,no,white,no,yes,768,legacy,95,11,C:/Users/Jeanette/Desktop/Jeanette Master's/AQM&ED/Sternberg task subjects/jh-subject-4.csv,legacy,9 4 2,Kafkaesque Koffka,3.2.8,1,y,0,left,left,left,left,NA,NA,749,5460,8197,749,NA,NA,2,legacy,3,1024,2,48000,-16,experiment,4,even,9,700362,697018,698149,3947,99670,698151,646587,3953,91472,702368,699157,703118,NA,9414,702367,NA,Sternberg Task,104,98937,108,yes,1024
96.33027523,96.33027523,914.9633028,914.9633028,black,experiment,legacy,legacy,legacy,0,uniform,1,undefined,1,left,108,108,108,0,0,108,108,0,0,108,108,108,NA,0,108,0,10/27/19 12:50,The main experiment item,yes,SternbergTask.osexp,C:\Users\Jeanette\Desktop\Jeanette Master's\AQM&ED,no,mono,no,18,no,white,no,yes,768,legacy,96,11,C:/Users/Jeanette/Desktop/Jeanette Master's/AQM&ED/Sternberg task subjects/jh-subject-4.csv,legacy,2 3 7 4,Kafkaesque Koffka,3.2.8,1,y,0,left,left,left,left,NA,NA,794,5460,8197,794,NA,NA,2,legacy,4,1024,2,48000,-16,experiment,4,even,2,706477,703147,704264,3947,99670,704266,646587,3953,91472,708483,705271,709278,NA,9414,708483,NA,Sternberg Task,105,99731,109,yes,1024
96.36363636,96.36363636,914.6636364,914.6636364,black,experiment,legacy,legacy,legacy,0,uniform,1,undefined,1,right,109,109,109,0,0,109,109,0,0,109,109,109,NA,0,109,0,10/27/19 12:50,The main experiment item,yes,SternbergTask.osexp,C:\Users\Jeanette\Desktop\Jeanette Master's\AQM&ED,no,mono,no,18,no,white,no,yes,768,legacy,97,11,C:/Users/Jeanette/Desktop/Jeanette Master's/AQM&ED/Sternberg task subjects/jh-subject-4.csv,legacy,8 9,Kafkaesque Koffka,3.2.8,0,n,0,right,left,left,right,NA,NA,882,5460,8197,882,NA,NA,2,legacy,2,1024,2,48000,-16,experiment,4,even,5,712652,709306,710438,3947,99670,710440,646587,3953,91472,714659,711446,715543,NA,9414,714659,NA,Sternberg Task,106,100613,110,yes,1024
96.3963964,96.3963964,912.6486486,912.6486486,black,experiment,legacy,legacy,legacy,0,uniform,1,undefined,1,left,110,110,110,0,0,110,110,0,0,110,110,110,NA,0,110,0,10/27/19 12:50,The main experiment item,yes,SternbergTask.osexp,C:\Users\Jeanette\Desktop\Jeanette Master's\AQM&ED,no,mono,no,18,no,white,no,yes,768,legacy,98,11,C:/Users/Jeanette/Desktop/Jeanette Master's/AQM&ED/Sternberg task subjects/jh-subject-4.csv,legacy,4,Kafkaesque Koffka,3.2.8,1,y,0,left,left,left,left,NA,NA,691,5460,8197,691,NA,NA,2,legacy,1,1024,2,48000,-16,experiment,4,even,4,718883,715562,716670,3947,99670,716672,646587,3953,91472,720890,717677,721582,NA,9414,720890,NA,Sternberg Task,107,101304,111,yes,1024
96.42857143,96.42857143,911.625,911.625,black,experiment,legacy,legacy,legacy,0,uniform,1,undefined,1,left,111,111,111,0,0,111,111,0,0,111,111,111,NA,0,111,0,10/27/19 12:50,The main experiment item,yes,SternbergTask.osexp,C:\Users\Jeanette\Desktop\Jeanette Master's\AQM&ED,no,mono,no,18,no,white,no,yes,768,legacy,99,11,C:/Users/Jeanette/Desktop/Jeanette Master's/AQM&ED/Sternberg task subjects/jh-subject-4.csv,legacy,2 4 8 5 1 3,Kafkaesque Koffka,3.2.8,1,y,0,left,left,left,left,NA,NA,798,5460,8197,798,NA,NA,2,legacy,6,1024,2,48000,-16,experiment,4,even,2,724936,721604,722723,3947,99670,722725,646587,3953,91472,726943,723730,727742,NA,9414,726943,NA,Sternberg Task,108,102102,112,yes,1024
96.46017699,96.46017699,909.7079646,909.7079646,black,experiment,legacy,legacy,legacy,0,uniform,1,undefined,1,right,112,112,112,0,0,112,112,0,0,112,112,112,NA,0,112,0,10/27/19 12:50,The main experiment item,yes,SternbergTask.osexp,C:\Users\Jeanette\Desktop\Jeanette Master's\AQM&ED,no,mono,no,18,no,white,no,yes,768,legacy,100,11,C:/Users/Jeanette/Desktop/Jeanette Master's/AQM&ED/Sternberg task subjects/jh-subject-4.csv,legacy,8 4 3 9,Kafkaesque Koffka,3.2.8,0,n,0,right,left,left,right,NA,NA,695,5460,8197,695,NA,NA,2,legacy,4,1024,2,48000,-16,experiment,4,even,5,731112,727774,728898,3947,99670,728901,646587,3953,91472,733118,729906,733814,NA,9414,733118,NA,Sternberg Task,109,102797,113,yes,1024
95.61403509,95.61403509,919.2719298,919.2719298,black,experiment,legacy,legacy,legacy,0,uniform,0,undefined,0,right,113,113,113,0,0,113,113,0,0,113,113,113,NA,0,113,0,10/27/19 12:50,The main experiment item,yes,SternbergTask.osexp,C:\Users\Jeanette\Desktop\Jeanette Master's\AQM&ED,no,mono,no,18,no,white,no,yes,768,legacy,101,11,C:/Users/Jeanette/Desktop/Jeanette Master's/AQM&ED/Sternberg task subjects/jh-subject-4.csv,legacy,6 9 4 5 2,Kafkaesque Koffka,3.2.8,0,n,0,None,left,left,None,NA,NA,2000,5460,8197,2000,NA,NA,2,legacy,5,1024,2,48000,-16,experiment,4,even,1,737177,733843,734964,3947,99670,734966,646587,3953,91472,739183,735971,741184,NA,9414,739183,NA,Sternberg Task,109,104797,114,yes,1024
95.65217391,95.65217391,916.8869565,916.8869565,black,experiment,legacy,legacy,legacy,0,uniform,1,undefined,1,right,114,114,114,0,0,114,114,0,0,114,114,114,NA,0,114,0,10/27/19 12:50,The main experiment item,yes,SternbergTask.osexp,C:\Users\Jeanette\Desktop\Jeanette Master's\AQM&ED,no,mono,no,18,no,white,no,yes,768,legacy,102,11,C:/Users/Jeanette/Desktop/Jeanette Master's/AQM&ED/Sternberg task subjects/jh-subject-4.csv,legacy,2 5 1 4,Kafkaesque Koffka,3.2.8,0,n,0,right,left,left,right,NA,NA,645,5460,8197,645,NA,NA,2,legacy,4,1024,2,48000,-16,experiment,4,even,6,744507,733843,742294,3947,99670,742296,741202,3953,91472,746512,743302,747158,NA,9414,746512,NA,Sternberg Task,110,105442,115,yes,1024
94.82758621,94.82758621,916.5603448,916.5603448,black,experiment,legacy,legacy,legacy,0,uniform,0,undefined,0,left,115,115,115,0,0,115,115,0,0,115,115,115,NA,0,115,0,10/27/19 12:50,The main experiment item,yes,SternbergTask.osexp,C:\Users\Jeanette\Desktop\Jeanette Master's\AQM&ED,no,mono,no,18,no,white,no,yes,768,legacy,103,11,C:/Users/Jeanette/Desktop/Jeanette Master's/AQM&ED/Sternberg task subjects/jh-subject-4.csv,legacy,3 5 4 7,Kafkaesque Koffka,3.2.8,1,y,0,right,left,left,right,NA,NA,879,5460,8197,879,NA,NA,2,legacy,4,1024,2,48000,-16,experiment,4,even,3,750496,747181,748283,3947,99670,748286,741202,3953,91472,752502,749291,753382,NA,9414,752502,NA,Sternberg Task,110,106321,116,yes,1024
94.87179487,94.87179487,916.3675214,916.3675214,black,experiment,legacy,legacy,legacy,0,uniform,1,undefined,1,left,116,116,116,0,0,116,116,0,0,116,116,116,NA,0,116,0,10/27/19 12:50,The main experiment item,yes,SternbergTask.osexp,C:\Users\Jeanette\Desktop\Jeanette Master's\AQM&ED,no,mono,no,18,no,white,no,yes,768,legacy,104,11,C:/Users/Jeanette/Desktop/Jeanette Master's/AQM&ED/Sternberg task subjects/jh-subject-4.csv,legacy,2 6 1 7 4,Kafkaesque Koffka,3.2.8,2,y,0,left,left,left,left,NA,NA,894,5460,8197,894,NA,NA,2,legacy,5,1024,2,48000,-16,experiment,4,even,6,756738,747181,754525,3947,99670,754527,753407,3953,91472,758743,755532,759639,NA,9414,758743,NA,Sternberg Task,111,107215,117,yes,1024
94.91525424,94.91525424,914.7542373,914.7542373,black,experiment,legacy,legacy,legacy,0,uniform,1,undefined,1,left,117,117,117,0,0,117,117,0,0,117,117,117,NA,0,117,0,10/27/19 12:50,The main experiment item,yes,SternbergTask.osexp,C:\Users\Jeanette\Desktop\Jeanette Master's\AQM&ED,no,mono,no,18,no,white,no,yes,768,legacy,105,11,C:/Users/Jeanette/Desktop/Jeanette Master's/AQM&ED/Sternberg task subjects/jh-subject-4.csv,legacy,4 1 8 7 5,Kafkaesque Koffka,3.2.8,3,y,0,left,left,left,left,NA,NA,726,5460,8197,726,NA,NA,2,legacy,5,1024,2,48000,-16,experiment,4,even,8,762977,759658,760765,3947,99670,760767,753407,3953,91472,764982,761772,765710,NA,9414,764982,NA,Sternberg Task,112,107941,118,yes,1024
94.11764706,94.11764706,914.2857143,914.2857143,black,experiment,legacy,legacy,legacy,0,uniform,0,undefined,0,right,118,118,118,0,0,118,118,0,0,118,118,118,NA,0,118,0,10/27/19 12:50,The main experiment item,yes,SternbergTask.osexp,C:\Users\Jeanette\Desktop\Jeanette Master's\AQM&ED,no,mono,no,18,no,white,no,yes,768,legacy,106,11,C:/Users/Jeanette/Desktop/Jeanette Master's/AQM&ED/Sternberg task subjects/jh-subject-4.csv,legacy,1 7 8 3 9,Kafkaesque Koffka,3.2.8,0,n,0,left,left,left,left,NA,NA,859,5460,8197,859,NA,NA,2,legacy,5,1024,2,48000,-16,experiment,4,even,2,769053,765733,766841,3947,99670,766843,753407,3953,91472,771058,767848,771918,NA,9414,771058,NA,Sternberg Task,112,108800,119,yes,1024
93.33333333,93.33333333,910.8916667,910.8916667,black,experiment,legacy,legacy,legacy,0,uniform,0,undefined,0,left,119,119,119,0,0,119,119,0,0,119,119,119,NA,0,119,0,10/27/19 12:50,The main experiment item,yes,SternbergTask.osexp,C:\Users\Jeanette\Desktop\Jeanette Master's\AQM&ED,no,mono,no,18,no,white,no,yes,768,legacy,107,11,C:/Users/Jeanette/Desktop/Jeanette Master's/AQM&ED/Sternberg task subjects/jh-subject-4.csv,legacy,8 5 3 7 4 6,Kafkaesque Koffka,3.2.8,6,y,0,right,left,left,right,NA,NA,507,5460,8197,507,NA,NA,2,legacy,6,1024,2,48000,-16,experiment,4,even,6,775291,765733,773078,3947,99670,773080,771943,3953,91472,777298,774086,777806,NA,9414,777297,NA,Sternberg Task,112,109307,120,yes,1024
93.38842975,93.38842975,909.9421488,909.9421488,black,experiment,legacy,legacy,legacy,0,uniform,1,undefined,1,right,120,120,120,0,0,120,120,0,0,120,120,120,NA,0,120,0,10/27/19 12:50,The main experiment item,yes,SternbergTask.osexp,C:\Users\Jeanette\Desktop\Jeanette Master's\AQM&ED,no,mono,no,18,no,white,no,yes,768,legacy,108,11,C:/Users/Jeanette/Desktop/Jeanette Master's/AQM&ED/Sternberg task subjects/jh-subject-4.csv,legacy,7 1 5 6 3,Kafkaesque Koffka,3.2.8,0,n,0,right,left,left,right,NA,NA,796,5460,8197,796,NA,NA,2,legacy,5,1024,2,48000,-16,experiment,4,even,8,781179,765733,778967,3947,99670,778969,777831,3953,91472,783185,779974,783982,NA,9414,783185,NA,Sternberg Task,113,110103,121,yes,1024
93.44262295,93.44262295,914.9754098,914.9754098,black,experiment,legacy,legacy,legacy,0,uniform,1,undefined,1,right,121,121,121,0,0,121,121,0,0,121,121,121,NA,0,121,0,10/27/19 12:50,The main experiment item,yes,SternbergTask.osexp,C:\Users\Jeanette\Desktop\Jeanette Master's\AQM&ED,no,mono,no,18,no,white,no,yes,768,legacy,109,11,C:/Users/Jeanette/Desktop/Jeanette Master's/AQM&ED/Sternberg task subjects/jh-subject-4.csv,legacy,1 4 9 2 5,Kafkaesque Koffka,3.2.8,0,n,0,right,left,left,right,NA,NA,1524,5460,8197,1524,NA,NA,2,legacy,5,1024,2,48000,-16,experiment,4,even,7,787331,784006,785118,3947,99670,785121,777831,3953,91472,789337,786126,790862,NA,9414,789337,NA,Sternberg Task,114,111627,122,yes,1024
93.49593496,93.49593496,917.6910569,917.6910569,black,experiment,legacy,legacy,legacy,0,uniform,1,undefined,1,left,122,122,122,0,0,122,122,0,0,122,122,122,NA,0,122,0,10/27/19 12:50,The main experiment item,yes,SternbergTask.osexp,C:\Users\Jeanette\Desktop\Jeanette Master's\AQM&ED,no,mono,no,18,no,white,no,yes,768,legacy,110,11,C:/Users/Jeanette/Desktop/Jeanette Master's/AQM&ED/Sternberg task subjects/jh-subject-4.csv,legacy,3 5 7 1,Kafkaesque Koffka,3.2.8,3,y,0,left,left,left,left,NA,NA,1249,5460,8197,1249,NA,NA,2,legacy,4,1024,2,48000,-16,experiment,4,even,7,794239,790905,792026,3947,99670,792028,777831,3953,91472,796245,793034,797495,NA,9414,796245,NA,Sternberg Task,115,112876,123,yes,1024
93.5483871,93.5483871,918.3467742,918.3467742,black,experiment,legacy,legacy,legacy,0,uniform,1,undefined,1,right,123,123,123,0,0,123,123,0,0,123,123,123,NA,0,123,0,10/27/19 12:50,The main experiment item,yes,SternbergTask.osexp,C:\Users\Jeanette\Desktop\Jeanette Master's\AQM&ED,no,mono,no,18,no,white,no,yes,768,legacy,111,11,C:/Users/Jeanette/Desktop/Jeanette Master's/AQM&ED/Sternberg task subjects/jh-subject-4.csv,legacy,2 3 8 5 6 7,Kafkaesque Koffka,3.2.8,0,n,0,right,left,left,right,NA,NA,999,5460,8197,999,NA,NA,2,legacy,6,1024,2,48000,-16,experiment,4,even,1,800859,797537,798649,3947,99670,798652,777831,3953,91472,802862,799657,803863,NA,9414,802862,NA,Sternberg Task,116,113875,124,yes,1024
93.6,93.6,919.464,919.464,black,experiment,legacy,legacy,legacy,0,uniform,1,undefined,1,right,124,124,124,0,0,124,124,0,0,124,124,124,NA,0,124,0,10/27/19 12:50,The main experiment item,yes,SternbergTask.osexp,C:\Users\Jeanette\Desktop\Jeanette Master's\AQM&ED,no,mono,no,18,no,white,no,yes,768,legacy,112,11,C:/Users/Jeanette/Desktop/Jeanette Master's/AQM&ED/Sternberg task subjects/jh-subject-4.csv,legacy,7 1 8 4 9 3,Kafkaesque Koffka,3.2.8,0,n,0,right,left,left,right,NA,NA,1058,5460,8197,1058,NA,NA,2,legacy,6,1024,2,48000,-16,experiment,4,even,6,807220,803883,805007,3947,99670,805010,777831,3953,91472,809227,806015,810286,NA,9414,809227,NA,Sternberg Task,117,114933,125,yes,1024
93.65079365,93.65079365,920.4761905,920.4761905,black,experiment,legacy,legacy,legacy,0,uniform,1,undefined,1,left,125,125,125,0,0,125,125,0,0,125,125,125,NA,0,125,0,10/27/19 12:50,The main experiment item,yes,SternbergTask.osexp,C:\Users\Jeanette\Desktop\Jeanette Master's\AQM&ED,no,mono,no,18,no,white,no,yes,768,legacy,113,11,C:/Users/Jeanette/Desktop/Jeanette Master's/AQM&ED/Sternberg task subjects/jh-subject-4.csv,legacy,6 8 9 3 4 9,Kafkaesque Koffka,3.2.8,5,y,0,left,left,left,left,NA,NA,1047,5460,8197,1047,NA,NA,2,legacy,6,1024,2,48000,-16,experiment,4,even,4,813663,810313,811449,3947,99670,811451,777831,3953,91472,815670,812458,816718,NA,9414,815670,NA,Sternberg Task,118,115980,126,yes,1024
92.91338583,92.91338583,921.5826772,921.5826772,black,experiment,legacy,legacy,legacy,0,uniform,0,undefined,0,left,126,126,126,0,0,126,126,0,0,126,126,126,NA,0,126,0,10/27/19 12:50,The main experiment item,yes,SternbergTask.osexp,C:\Users\Jeanette\Desktop\Jeanette Master's\AQM&ED,no,mono,no,18,no,white,no,yes,768,legacy,114,11,C:/Users/Jeanette/Desktop/Jeanette Master's/AQM&ED/Sternberg task subjects/jh-subject-4.csv,legacy,3 2 1 4 7,Kafkaesque Koffka,3.2.8,2,y,0,right,left,left,right,NA,NA,1061,5460,8197,1061,NA,NA,2,legacy,5,1024,2,48000,-16,experiment,4,even,2,820065,816744,817852,3947,99670,817854,777831,3953,91472,822072,818860,823134,NA,9414,822072,NA,Sternberg Task,118,117041,127,yes,1024
92.96875,92.96875,921.046875,921.046875,black,experiment,legacy,legacy,legacy,0,uniform,1,undefined,1,right,127,127,127,0,0,127,127,0,0,127,127,127,NA,0,127,0,10/27/19 12:50,The main experiment item,yes,SternbergTask.osexp,C:\Users\Jeanette\Desktop\Jeanette Master's\AQM&ED,no,mono,no,18,no,white,no,yes,768,legacy,115,11,C:/Users/Jeanette/Desktop/Jeanette Master's/AQM&ED/Sternberg task subjects/jh-subject-4.csv,legacy,6 7 5 9,Kafkaesque Koffka,3.2.8,0,n,0,right,left,left,right,NA,NA,853,5460,8197,853,NA,NA,2,legacy,4,1024,2,48000,-16,experiment,4,even,2,826482,816744,824269,3947,99670,824272,823161,3953,91472,828488,825277,829342,NA,9414,828488,NA,Sternberg Task,119,117894,128,yes,1024
93.02325581,93.02325581,920.5891473,920.5891473,black,experiment,legacy,legacy,legacy,0,uniform,1,undefined,1,right,128,128,128,0,0,128,128,0,0,128,128,128,NA,0,128,0,10/27/19 12:50,The main experiment item,yes,SternbergTask.osexp,C:\Users\Jeanette\Desktop\Jeanette Master's\AQM&ED,no,mono,no,18,no,white,no,yes,768,legacy,116,11,C:/Users/Jeanette/Desktop/Jeanette Master's/AQM&ED/Sternberg task subjects/jh-subject-4.csv,legacy,2 8 9,Kafkaesque Koffka,3.2.8,0,n,0,right,left,left,right,NA,NA,862,5460,8197,862,NA,NA,2,legacy,3,1024,2,48000,-16,experiment,4,even,6,832713,829369,830501,3947,99670,830503,823161,3953,91472,834719,831508,835582,NA,9414,834718,NA,Sternberg Task,120,118756,129,yes,1024
93.07692308,93.07692308,921.8230769,921.8230769,black,experiment,legacy,legacy,legacy,0,uniform,1,undefined,1,left,129,129,129,0,0,129,129,0,0,129,129,129,NA,0,129,0,10/27/19 12:50,The main experiment item,yes,SternbergTask.osexp,C:\Users\Jeanette\Desktop\Jeanette Master's\AQM&ED,no,mono,no,18,no,white,no,yes,768,legacy,117,11,C:/Users/Jeanette/Desktop/Jeanette Master's/AQM&ED/Sternberg task subjects/jh-subject-4.csv,legacy,2 8 5 1,Kafkaesque Koffka,3.2.8,4,y,0,left,left,left,left,NA,NA,1081,5460,8197,1081,NA,NA,2,legacy,4,1024,2,48000,-16,experiment,4,even,1,838935,835608,836722,3947,99670,836724,823161,3953,91472,840940,837729,842023,NA,9414,840940,NA,Sternberg Task,121,119837,130,yes,1024
93.12977099,93.12977099,918.870229,918.870229,black,experiment,legacy,legacy,legacy,0,uniform,1,undefined,1,right,130,130,130,0,0,130,130,0,0,130,130,130,NA,0,130,0,10/27/19 12:50,The main experiment item,yes,SternbergTask.osexp,C:\Users\Jeanette\Desktop\Jeanette Master's\AQM&ED,no,mono,no,18,no,white,no,yes,768,legacy,118,11,C:/Users/Jeanette/Desktop/Jeanette Master's/AQM&ED/Sternberg task subjects/jh-subject-4.csv,legacy,4 1,Kafkaesque Koffka,3.2.8,0,n,0,right,left,left,right,NA,NA,535,5460,8197,535,NA,NA,2,legacy,2,1024,2,48000,-16,experiment,4,even,6,845361,842042,843148,3947,99670,843150,823161,3953,91472,847366,844156,847902,NA,9414,847366,NA,Sternberg Task,122,120372,131,yes,1024
93.18181818,93.18181818,920.4166667,920.4166667,black,experiment,legacy,legacy,legacy,0,uniform,1,undefined,1,right,131,131,131,0,0,131,131,0,0,131,131,131,NA,0,131,0,10/27/19 12:50,The main experiment item,yes,SternbergTask.osexp,C:\Users\Jeanette\Desktop\Jeanette Master's\AQM&ED,no,mono,no,18,no,white,no,yes,768,legacy,119,11,C:/Users/Jeanette/Desktop/Jeanette Master's/AQM&ED/Sternberg task subjects/jh-subject-4.csv,legacy,8 6 3 4 7,Kafkaesque Koffka,3.2.8,0,n,0,right,left,left,right,NA,NA,1123,5460,8197,1123,NA,NA,2,legacy,5,1024,2,48000,-16,experiment,4,even,1,851261,847926,849051,3947,99670,849053,823161,3953,91472,853266,850055,854390,NA,9414,853266,NA,Sternberg Task,123,121495,132,yes,1024
93.23308271,93.23308271,921.406015,921.406015,black,experiment,legacy,legacy,legacy,0,uniform,1,undefined,1,left,132,132,132,0,0,132,132,0,0,132,132,132,NA,0,132,0,10/27/19 12:50,The main experiment item,yes,SternbergTask.osexp,C:\Users\Jeanette\Desktop\Jeanette Master's\AQM&ED,no,mono,no,18,no,white,no,yes,768,legacy,120,11,C:/Users/Jeanette/Desktop/Jeanette Master's/AQM&ED/Sternberg task subjects/jh-subject-4.csv,legacy,8 9 5 7 1 6,Kafkaesque Koffka,3.2.8,4,y,0,left,left,left,left,NA,NA,1052,5460,8197,1052,NA,NA,2,legacy,6,1024,2,48000,-16,experiment,4,even,7,857747,854418,855534,3947,99670,855536,823161,3953,91472,859753,856541,860806,NA,9414,859752,NA,Sternberg Task,124,122547,133,yes,1024
93.28358209,93.28358209,920.8731343,920.8731343,black,experiment,legacy,legacy,legacy,0,uniform,1,undefined,1,left,133,133,133,0,0,133,133,0,0,133,133,133,NA,0,133,0,10/27/19 12:50,The main experiment item,yes,SternbergTask.osexp,C:\Users\Jeanette\Desktop\Jeanette Master's\AQM&ED,no,mono,no,18,no,white,no,yes,768,legacy,121,11,C:/Users/Jeanette/Desktop/Jeanette Master's/AQM&ED/Sternberg task subjects/jh-subject-4.csv,legacy,1 4 9 3 2 5,Kafkaesque Koffka,3.2.8,3,y,0,left,left,left,left,NA,NA,850,5460,8197,850,NA,NA,2,legacy,6,1024,2,48000,-16,experiment,4,even,9,864164,860831,861952,3947,99670,861954,823161,3953,91472,866170,862959,867022,NA,9414,866170,NA,Sternberg Task,125,123397,134,yes,1024
93.33333333,93.33333333,919.4888889,919.4888889,black,experiment,legacy,legacy,legacy,0,uniform,1,undefined,1,right,134,134,134,0,0,134,134,0,0,134,134,134,NA,0,134,0,10/27/19 12:50,The main experiment item,yes,SternbergTask.osexp,C:\Users\Jeanette\Desktop\Jeanette Master's\AQM&ED,no,mono,no,18,no,white,no,yes,768,legacy,122,11,C:/Users/Jeanette/Desktop/Jeanette Master's/AQM&ED/Sternberg task subjects/jh-subject-4.csv,legacy,6 2 9 3 8 4,Kafkaesque Koffka,3.2.8,0,n,0,right,left,left,right,NA,NA,734,5460,8197,734,NA,NA,2,legacy,6,1024,2,48000,-16,experiment,4,even,1,870361,867044,868148,3947,99670,868151,823161,3953,91472,872367,869156,873102,NA,9414,872367,NA,Sternberg Task,126,124131,135,yes,1024
93.38235294,93.38235294,919.3897059,919.3897059,black,experiment,legacy,legacy,legacy,0,uniform,1,undefined,1,right,135,135,135,0,0,135,135,0,0,135,135,135,NA,0,135,0,10/27/19 12:50,The main experiment item,yes,SternbergTask.osexp,C:\Users\Jeanette\Desktop\Jeanette Master's\AQM&ED,no,mono,no,18,no,white,no,yes,768,legacy,123,11,C:/Users/Jeanette/Desktop/Jeanette Master's/AQM&ED/Sternberg task subjects/jh-subject-4.csv,legacy,6 8,Kafkaesque Koffka,3.2.8,0,n,0,right,left,left,right,NA,NA,906,5460,8197,906,NA,NA,2,legacy,2,1024,2,48000,-16,experiment,4,even,9,876445,873129,874233,3947,99670,874235,823161,3953,91472,878451,875240,879358,NA,9414,878451,NA,Sternberg Task,127,125037,136,yes,1024
93.43065693,93.43065693,920.5839416,920.5839416,black,experiment,legacy,legacy,legacy,0,uniform,1,undefined,1,left,136,136,136,0,0,136,136,0,0,136,136,136,NA,0,136,0,10/27/19 12:50,The main experiment item,yes,SternbergTask.osexp,C:\Users\Jeanette\Desktop\Jeanette Master's\AQM&ED,no,mono,no,18,no,white,no,yes,768,legacy,124,11,C:/Users/Jeanette/Desktop/Jeanette Master's/AQM&ED/Sternberg task subjects/jh-subject-4.csv,legacy,6 1 2,Kafkaesque Koffka,3.2.8,3,y,0,left,left,left,left,NA,NA,1083,5460,8197,1083,NA,NA,2,legacy,3,1024,2,48000,-16,experiment,4,even,2,882716,879387,880503,3947,99670,880506,823161,3953,91472,884722,881511,885806,NA,9414,884722,NA,Sternberg Task,128,126120,137,yes,1024
93.47826087,93.47826087,921.2463768,921.2463768,black,experiment,legacy,legacy,legacy,0,uniform,1,undefined,1,right,137,137,137,0,0,137,137,0,0,137,137,137,NA,0,137,0,10/27/19 12:50,The main experiment item,yes,SternbergTask.osexp,C:\Users\Jeanette\Desktop\Jeanette Master's\AQM&ED,no,mono,no,18,no,white,no,yes,768,legacy,125,11,C:/Users/Jeanette/Desktop/Jeanette Master's/AQM&ED/Sternberg task subjects/jh-subject-4.csv,legacy,6 9 4 5 3 2,Kafkaesque Koffka,3.2.8,0,n,0,right,left,left,right,NA,NA,1012,5460,8197,1012,NA,NA,2,legacy,6,1024,2,48000,-16,experiment,4,even,8,889190,885834,886976,3947,99670,886979,823161,3953,91472,891193,887984,892206,NA,9414,891193,NA,Sternberg Task,129,127132,138,yes,1024