"acc","accuracy","average_response_time","avg_rt","background","block","canvas_backend","clock_backend","color_backend","compensation","coordinates","correct","correct_instruction1","correct_keyboard_response","correct_response","count_ISI","count_correctFeedback","count_expSequence","count_experiment","count_experimentLoop","count_fixation","count_incorrectFeedback","count_instruction1","count_instructions2","count_keyboard_response","count_logger","count_memorySet","count_new_sketchpad","count_practiceLoop","count_probe","count_thankYou","datetime","description","disable_garbage_collection","experiment_file","experiment_path","font_bold","font_family","font_italic","font_size","font_underline","foreground","form_clicks","fullscreen","height","keyboard_backend","live_row","live_row_practiceLoop","logfile","mouse_backend","numberSet","opensesame_codename","opensesame_version","posInSet","present","repeat_cycle","response","response_instruction1","response_instructions2","response_keyboard_response","response_new_sketchpad","response_thankYou","response_time","response_time_instruction1","response_time_instructions2","response_time_keyboard_response","response_time_new_sketchpad","response_time_thankYou","round_decimals","sampler_backend","setSize","sound_buf_size","sound_channels","sound_freq","sound_sample_size","start","subject_nr","subject_parity","target","time_ISI","time_correctFeedback","time_expSequence","time_experiment","time_experimentLoop","time_fixation","time_incorrectFeedback","time_instruction1","time_instructions2","time_keyboard_response","time_logger","time_memorySet","time_new_sketchpad","time_practiceLoop","time_probe","time_thankYou","title","total_correct","total_response_time","total_responses","uniform_coordinates","width"
"0","0","2000","2000","black","practice","legacy","legacy","legacy","0","uniform","0","undefined","0","right","0","0","0","0","0","0","0","0","0","0","0","0","NA","0","0","0","Sun Oct 24 20:08:44 2021","The main experiment item","yes","Sternbergtask.osexp","/Users/mihailcodreanu/Desktop","no","mono","no","18","no","white","no","yes","768","legacy","0","0","/Users/mihailcodreanu/Desktop/MC-subject-4.csv","legacy","2 1","Lentiform Loewenfeld","3.3.9","0","n","0","None","right","NA","None","NA","NA","2000","135917","NA","2000","NA","NA","2","legacy","2","1024","2","48000","-16","experiment","4","even","5","141918","NA","139702","3360","NA","139706","NA","3367","NA","143925","145925","140711","NA","139296","143925","NA","Sternberg task","0","2000","1","yes","1024"
"0","0","2000","2000","black","practice","legacy","legacy","legacy","0","uniform","0","undefined","0","left","1","1","1","0","0","1","1","0","0","1","1","1","NA","0","1","0","Sun Oct 24 20:08:44 2021","The main experiment item","yes","Sternbergtask.osexp","/Users/mihailcodreanu/Desktop","no","mono","no","18","no","white","no","yes","768","legacy","1","1","/Users/mihailcodreanu/Desktop/MC-subject-4.csv","legacy","4 3 1 7 9 8","Lentiform Loewenfeld","3.3.9","1","y","0","None","right","NA","None","NA","NA","2000","135917","NA","2000","NA","NA","2","legacy","6","1024","2","48000","-16","experiment","4","even","4","149237","NA","147022","3360","NA","147027","145956","3367","NA","151241","153241","148031","NA","139296","151241","NA","Sternberg task","0","4000","2","yes","1024"
"0","0","2000","2000","black","practice","legacy","legacy","legacy","0","uniform","0","undefined","0","right","2","2","2","0","0","2","2","0","0","2","2","2","NA","0","2","0","Sun Oct 24 20:08:44 2021","The main experiment item","yes","Sternbergtask.osexp","/Users/mihailcodreanu/Desktop","no","mono","no","18","no","white","no","yes","768","legacy","2","2","/Users/mihailcodreanu/Desktop/MC-subject-4.csv","legacy","9 6 7 4 5","Lentiform Loewenfeld","3.3.9","0","n","0","None","right","NA","None","NA","NA","2000","135917","NA","2000","NA","NA","2","legacy","5","1024","2","48000","-16","experiment","4","even","3","156522","NA","154308","3360","NA","154312","153253","3367","NA","158526","160526","155316","NA","139296","158526","NA","Sternberg task","0","6000","3","yes","1024"
"0","0","1791.25","1791.25","black","practice","legacy","legacy","legacy","0","uniform","0","undefined","0","left","3","3","3","0","0","3","3","0","0","3","3","3","NA","0","3","0","Sun Oct 24 20:08:44 2021","The main experiment item","yes","Sternbergtask.osexp","/Users/mihailcodreanu/Desktop","no","mono","no","18","no","white","no","yes","768","legacy","3","3","/Users/mihailcodreanu/Desktop/MC-subject-4.csv","legacy","1 5 2 9","Lentiform Loewenfeld","3.3.9","2","y","0","right","right","NA","right","NA","NA","1165","135917","NA","1165","NA","NA","2","legacy","4","1024","2","48000","-16","experiment","4","even","5","163803","NA","161589","3360","NA","161593","160533","3367","NA","165807","166973","162597","NA","139296","165807","NA","Sternberg task","0","7165","4","yes","1024"
"0","0","1833","1833","black","practice","legacy","legacy","legacy","0","uniform","0","undefined","0","left","4","4","4","0","0","4","4","0","0","4","4","4","NA","0","4","0","Sun Oct 24 20:08:44 2021","The main experiment item","yes","Sternbergtask.osexp","/Users/mihailcodreanu/Desktop","no","mono","no","18","no","white","no","yes","768","legacy","4","4","/Users/mihailcodreanu/Desktop/MC-subject-4.csv","legacy","2 9 4","Lentiform Loewenfeld","3.3.9","3","y","0","None","right","NA","None","NA","NA","2000","135917","NA","2000","NA","NA","2","legacy","3","1024","2","48000","-16","experiment","4","even","4","170245","NA","168031","3360","NA","168035","166979","3367","NA","172249","174249","169039","NA","139296","172249","NA","Sternberg task","0","9165","5","yes","1024"
"0","0","1804.1666666666667","1804.1666666666667","black","practice","legacy","legacy","legacy","0","uniform","0","undefined","0","left","5","5","5","0","0","5","5","0","0","5","5","5","NA","0","5","0","Sun Oct 24 20:08:44 2021","The main experiment item","yes","Sternbergtask.osexp","/Users/mihailcodreanu/Desktop","no","mono","no","18","no","white","no","yes","768","legacy","5","5","/Users/mihailcodreanu/Desktop/MC-subject-4.csv","legacy","6","Lentiform Loewenfeld","3.3.9","1","y","0","right","right","NA","right","NA","NA","1660","135917","NA","1660","NA","NA","2","legacy","1","1024","2","48000","-16","experiment","4","even","6","177524","NA","175310","3360","NA","175314","174258","3367","NA","179528","181189","176318","NA","139296","179528","NA","Sternberg task","0","10825","6","yes","1024"
"0","0","1832.142857142857","1832.142857142857","black","practice","legacy","legacy","legacy","0","uniform","0","undefined","0","right","6","6","6","0","0","6","6","0","0","6","6","6","NA","0","6","0","Sun Oct 24 20:08:44 2021","The main experiment item","yes","Sternbergtask.osexp","/Users/mihailcodreanu/Desktop","no","mono","no","18","no","white","no","yes","768","legacy","6","6","/Users/mihailcodreanu/Desktop/MC-subject-4.csv","legacy","4 1 5","Lentiform Loewenfeld","3.3.9","0","n","0","None","right","NA","None","NA","NA","2000","135917","NA","2000","NA","NA","2","legacy","3","1024","2","48000","-16","experiment","4","even","2","184463","NA","182249","3360","NA","182253","181194","3367","NA","186467","188467","183257","NA","139296","186467","NA","Sternberg task","0","12825","7","yes","1024"
"0","0","1831.125","1831.125","black","practice","legacy","legacy","legacy","0","uniform","0","undefined","0","right","7","7","7","0","0","7","7","0","0","7","7","7","NA","0","7","0","Sun Oct 24 20:08:44 2021","The main experiment item","yes","Sternbergtask.osexp","/Users/mihailcodreanu/Desktop","no","mono","no","18","no","white","no","yes","768","legacy","7","7","/Users/mihailcodreanu/Desktop/MC-subject-4.csv","legacy","5","Lentiform Loewenfeld","3.3.9","0","n","0","left","right","NA","left","NA","NA","1824","135917","NA","1824","NA","NA","2","legacy","1","1024","2","48000","-16","experiment","4","even","3","191744","NA","189531","3360","NA","189534","188475","3367","NA","193748","195573","190538","NA","139296","193748","NA","Sternberg task","0","14649","8","yes","1024"
"11.11111111111111","11.11111111111111","1786.4444444444443","1786.4444444444443","black","practice","legacy","legacy","legacy","0","uniform","1","undefined","1","right","8","8","8","0","0","8","8","0","0","8","8","8","NA","0","8","0","Sun Oct 24 20:08:44 2021","The main experiment item","yes","Sternbergtask.osexp","/Users/mihailcodreanu/Desktop","no","mono","no","18","no","white","no","yes","768","legacy","8","8","/Users/mihailcodreanu/Desktop/MC-subject-4.csv","legacy","3 1 9 4","Lentiform Loewenfeld","3.3.9","0","n","0","right","right","NA","right","NA","NA","1429","135917","NA","1429","NA","NA","2","legacy","4","1024","2","48000","-16","experiment","4","even","6","198851","NA","196636","3360","NA","196640","195579","3367","NA","200855","202284","197644","NA","139296","200855","NA","Sternberg task","1","16078","9","yes","1024"
"20","20","1751.8","1751.8","black","practice","legacy","legacy","legacy","0","uniform","1","undefined","1","left","9","9","9","0","0","9","9","0","0","9","9","9","NA","0","9","0","Sun Oct 24 20:08:44 2021","The main experiment item","yes","Sternbergtask.osexp","/Users/mihailcodreanu/Desktop","no","mono","no","18","no","white","no","yes","768","legacy","9","9","/Users/mihailcodreanu/Desktop/MC-subject-4.csv","legacy","4 8","Lentiform Loewenfeld","3.3.9","1","y","0","left","right","NA","left","NA","NA","1440","135917","NA","1440","NA","NA","2","legacy","2","1024","2","48000","-16","experiment","4","even","4","205559","202291","203346","3360","NA","203350","195579","3367","NA","207564","209005","204354","NA","139296","207563","NA","Sternberg task","2","17518","10","yes","1024"
"18.181818181818183","18.181818181818183","1774.3636363636363","1774.3636363636363","black","practice","legacy","legacy","legacy","0","uniform","0","undefined","0","left","10","10","10","0","0","10","10","0","0","10","10","10","NA","0","10","0","Sun Oct 24 20:08:44 2021","The main experiment item","yes","Sternbergtask.osexp","/Users/mihailcodreanu/Desktop","no","mono","no","18","no","white","no","yes","768","legacy","10","10","/Users/mihailcodreanu/Desktop/MC-subject-4.csv","legacy","1 7 9 8 5","Lentiform Loewenfeld","3.3.9","4","y","0","None","right","NA","None","NA","NA","2000","135917","NA","2000","NA","NA","2","legacy","5","1024","2","48000","-16","experiment","4","even","8","212281","209011","210067","3360","NA","210071","195579","3367","NA","214285","216285","211075","NA","139296","214285","NA","Sternberg task","2","19518","11","yes","1024"
"25","25","1705.5","1705.5","black","practice","legacy","legacy","legacy","0","uniform","1","undefined","1","right","11","11","11","0","0","11","11","0","0","11","11","11","NA","0","11","0","Sun Oct 24 20:08:44 2021","The main experiment item","yes","Sternbergtask.osexp","/Users/mihailcodreanu/Desktop","no","mono","no","18","no","white","no","yes","768","legacy","11","11","/Users/mihailcodreanu/Desktop/MC-subject-4.csv","legacy","5 7 8 4 1 2","Lentiform Loewenfeld","3.3.9","0","n","0","right","right","NA","right","NA","NA","948","135917","NA","948","NA","NA","2","legacy","6","1024","2","48000","-16","experiment","4","even","6","219563","209011","217348","3360","NA","217351","216291","3367","NA","221568","222517","218357","NA","139296","221568","NA","Sternberg task","3","20466","12","yes","1024"
"30.76923076923077","30.76923076923077","1663.2307692307693","1663.2307692307693","black","experiment","legacy","legacy","legacy","0","uniform","1","undefined","1","left","12","12","12","0","0","12","12","0","0","12","12","12","NA","0","12","0","Sun Oct 24 20:08:44 2021","The main experiment item","yes","Sternbergtask.osexp","/Users/mihailcodreanu/Desktop","no","mono","no","18","no","white","no","yes","768","legacy","0","11","/Users/mihailcodreanu/Desktop/MC-subject-4.csv","legacy","6 8 9 3 4 9","Lentiform Loewenfeld","3.3.9","5","y","0","left","right","right","left","NA","NA","1156","135917","25812","1156","NA","NA","2","legacy","6","1024","2","48000","-16","experiment","4","even","4","251627","222523","249414","3360","249365","249417","216291","3367","223552","253632","254789","250422","NA","139296","253632","NA","Sternberg task","4","21622","13","yes","1024"
"35.714285714285715","35.714285714285715","1634.0714285714287","1634.0714285714287","black","experiment","legacy","legacy","legacy","0","uniform","1","undefined","1","right","13","13","13","0","0","13","13","0","0","13","13","13","NA","0","13","0","Sun Oct 24 20:08:44 2021","The main experiment item","yes","Sternbergtask.osexp","/Users/mihailcodreanu/Desktop","no","mono","no","18","no","white","no","yes","768","legacy","1","11","/Users/mihailcodreanu/Desktop/MC-subject-4.csv","legacy","7 1 8 4 9 3","Lentiform Loewenfeld","3.3.9","0","n","0","right","right","right","right","NA","NA","1255","135917","25812","1255","NA","NA","2","legacy","6","1024","2","48000","-16","experiment","4","even","6","258065","254795","255851","3360","249365","255855","216291","3367","223552","260069","261324","256859","NA","139296","260069","NA","Sternberg task","5","22877","14","yes","1024"
"40","40","1614.1333333333334","1614.1333333333334","black","experiment","legacy","legacy","legacy","0","uniform","1","undefined","1","left","14","14","14","0","0","14","14","0","0","14","14","14","NA","0","14","0","Sun Oct 24 20:08:44 2021","The main experiment item","yes","Sternbergtask.osexp","/Users/mihailcodreanu/Desktop","no","mono","no","18","no","white","no","yes","768","legacy","2","11","/Users/mihailcodreanu/Desktop/MC-subject-4.csv","legacy","2 6 1 7 4","Lentiform Loewenfeld","3.3.9","2","y","0","left","right","right","left","NA","NA","1335","135917","25812","1335","NA","NA","2","legacy","5","1024","2","48000","-16","experiment","4","even","6","264600","261331","262387","3360","249365","262391","216291","3367","223552","266605","267941","263395","NA","139296","266604","NA","Sternberg task","6","24212","15","yes","1024"
"43.75","43.75","1571.25","1571.25","black","experiment","legacy","legacy","legacy","0","uniform","1","undefined","1","left","15","15","15","0","0","15","15","0","0","15","15","15","NA","0","15","0","Sun Oct 24 20:08:44 2021","The main experiment item","yes","Sternbergtask.osexp","/Users/mihailcodreanu/Desktop","no","mono","no","18","no","white","no","yes","768","legacy","3","11","/Users/mihailcodreanu/Desktop/MC-subject-4.csv","legacy","9 1 6 7 8","Lentiform Loewenfeld","3.3.9","1","y","0","left","right","right","left","NA","NA","928","135917","25812","928","NA","NA","2","legacy","5","1024","2","48000","-16","experiment","4","even","9","271216","267947","269002","3360","249365","269006","216291","3367","223552","273220","274149","270010","NA","139296","273220","NA","Sternberg task","7","25140","16","yes","1024"
"47.05882352941177","47.05882352941177","1519.6470588235295","1519.6470588235295","black","experiment","legacy","legacy","legacy","0","uniform","1","undefined","1","right","16","16","16","0","0","16","16","0","0","16","16","16","NA","0","16","0","Sun Oct 24 20:08:44 2021","The main experiment item","yes","Sternbergtask.osexp","/Users/mihailcodreanu/Desktop","no","mono","no","18","no","white","no","yes","768","legacy","4","11","/Users/mihailcodreanu/Desktop/MC-subject-4.csv","legacy","1 4 9 3","Lentiform Loewenfeld","3.3.9","0","n","0","right","right","right","right","NA","NA","694","135917","25812","694","NA","NA","2","legacy","4","1024","2","48000","-16","experiment","4","even","5","277426","274155","275211","3360","249365","275215","216291","3367","223552","279430","280124","276219","NA","139296","279430","NA","Sternberg task","8","25834","17","yes","1024"
"50","50","1488.6666666666667","1488.6666666666667","black","experiment","legacy","legacy","legacy","0","uniform","1","undefined","1","left","17","17","17","0","0","17","17","0","0","17","17","17","NA","0","17","0","Sun Oct 24 20:08:44 2021","The main experiment item","yes","Sternbergtask.osexp","/Users/mihailcodreanu/Desktop","no","mono","no","18","no","white","no","yes","768","legacy","5","11","/Users/mihailcodreanu/Desktop/MC-subject-4.csv","legacy","8","Lentiform Loewenfeld","3.3.9","1","y","0","left","right","right","left","NA","NA","962","135917","25812","962","NA","NA","2","legacy","1","1024","2","48000","-16","experiment","4","even","8","283398","280131","281184","3360","249365","281188","216291","3367","223552","285402","286365","282192","NA","139296","285402","NA","Sternberg task","9","26796","18","yes","1024"
"52.63157894736842","52.63157894736842","1439.3684210526317","1439.3684210526317","black","experiment","legacy","legacy","legacy","0","uniform","1","undefined","1","right","18","18","18","0","0","18","18","0","0","18","18","18","NA","0","18","0","Sun Oct 24 20:08:44 2021","The main experiment item","yes","Sternbergtask.osexp","/Users/mihailcodreanu/Desktop","no","mono","no","18","no","white","no","yes","768","legacy","6","11","/Users/mihailcodreanu/Desktop/MC-subject-4.csv","legacy","8 9","Lentiform Loewenfeld","3.3.9","0","n","0","right","right","right","right","NA","NA","552","135917","25812","552","NA","NA","2","legacy","2","1024","2","48000","-16","experiment","4","even","5","289640","286371","287425","3360","249365","287429","216291","3367","223552","291644","292196","288434","NA","139296","291644","NA","Sternberg task","10","27348","19","yes","1024"
"55","55","1414.55","1414.55","black","experiment","legacy","legacy","legacy","0","uniform","1","undefined","1","left","19","19","19","0","0","19","19","0","0","19","19","19","NA","0","19","0","Sun Oct 24 20:08:44 2021","The main experiment item","yes","Sternbergtask.osexp","/Users/mihailcodreanu/Desktop","no","mono","no","18","no","white","no","yes","768","legacy","7","11","/Users/mihailcodreanu/Desktop/MC-subject-4.csv","legacy","4 1 5","Lentiform Loewenfeld","3.3.9","2","y","0","left","right","right","left","NA","NA","943","135917","25812","943","NA","NA","2","legacy","3","1024","2","48000","-16","experiment","4","even","1","295473","292203","293260","3360","249365","293264","216291","3367","223552","297477","298421","294268","NA","139296","297477","NA","Sternberg task","11","28291","20","yes","1024"
"57.142857142857146","57.142857142857146","1381.5238095238096","1381.5238095238096","black","experiment","legacy","legacy","legacy","0","uniform","1","undefined","1","right","20","20","20","0","0","20","20","0","0","20","20","20","NA","0","20","0","Sun Oct 24 20:08:44 2021","The main experiment item","yes","Sternbergtask.osexp","/Users/mihailcodreanu/Desktop","no","mono","no","18","no","white","no","yes","768","legacy","8","11","/Users/mihailcodreanu/Desktop/MC-subject-4.csv","legacy","6 9 5","Lentiform Loewenfeld","3.3.9","0","n","0","right","right","right","right","NA","NA","721","135917","25812","721","NA","NA","2","legacy","3","1024","2","48000","-16","experiment","4","even","8","301695","298427","299481","3360","249365","299484","216291","3367","223552","303699","304421","300489","NA","139296","303699","NA","Sternberg task","12","29012","21","yes","1024"
"59.09090909090909","59.09090909090909","1351.7727272727273","1351.7727272727273","black","experiment","legacy","legacy","legacy","0","uniform","1","undefined","1","left","21","21","21","0","0","21","21","0","0","21","21","21","NA","0","21","0","Sun Oct 24 20:08:44 2021","The main experiment item","yes","Sternbergtask.osexp","/Users/mihailcodreanu/Desktop","no","mono","no","18","no","white","no","yes","768","legacy","9","11","/Users/mihailcodreanu/Desktop/MC-subject-4.csv","legacy","8 9 5 6 7","Lentiform Loewenfeld","3.3.9","1","y","0","left","right","right","left","NA","NA","727","135917","25812","727","NA","NA","2","legacy","5","1024","2","48000","-16","experiment","4","even","8","307697","304427","305483","3360","249365","305487","216291","3367","223552","309701","310429","306491","NA","139296","309701","NA","Sternberg task","13","29739","22","yes","1024"
"60.869565217391305","60.869565217391305","1375.1739130434783","1375.1739130434783","black","experiment","legacy","legacy","legacy","0","uniform","1","undefined","1","right","22","22","22","0","0","22","22","0","0","22","22","22","NA","0","22","0","Sun Oct 24 20:08:44 2021","The main experiment item","yes","Sternbergtask.osexp","/Users/mihailcodreanu/Desktop","no","mono","no","18","no","white","no","yes","768","legacy","10","11","/Users/mihailcodreanu/Desktop/MC-subject-4.csv","legacy","8 4 3 9","Lentiform Loewenfeld","3.3.9","0","n","0","right","right","right","right","NA","NA","1890","135917","25812","1890","NA","NA","2","legacy","4","1024","2","48000","-16","experiment","4","even","5","313701","310435","311488","3360","249365","311492","216291","3367","223552","315706","317597","312496","NA","139296","315706","NA","Sternberg task","14","31629","23","yes","1024"
"62.5","62.5","1355.25","1355.25","black","experiment","legacy","legacy","legacy","0","uniform","1","undefined","1","left","23","23","23","0","0","23","23","0","0","23","23","23","NA","0","23","0","Sun Oct 24 20:08:44 2021","The main experiment item","yes","Sternbergtask.osexp","/Users/mihailcodreanu/Desktop","no","mono","no","18","no","white","no","yes","768","legacy","11","11","/Users/mihailcodreanu/Desktop/MC-subject-4.csv","legacy","6 2","Lentiform Loewenfeld","3.3.9","1","y","0","left","right","right","left","NA","NA","897","135917","25812","897","NA","NA","2","legacy","2","1024","2","48000","-16","experiment","4","even","6","320871","317603","318656","3360","249365","318660","216291","3367","223552","322875","323773","319665","NA","139296","322875","NA","Sternberg task","15","32526","24","yes","1024"
"64","64","1331.4","1331.4","black","experiment","legacy","legacy","legacy","0","uniform","1","undefined","1","right","24","24","24","0","0","24","24","0","0","24","24","24","NA","0","24","0","Sun Oct 24 20:08:44 2021","The main experiment item","yes","Sternbergtask.osexp","/Users/mihailcodreanu/Desktop","no","mono","no","18","no","white","no","yes","768","legacy","12","11","/Users/mihailcodreanu/Desktop/MC-subject-4.csv","legacy","6 3 1 7 9 8","Lentiform Loewenfeld","3.3.9","0","n","0","right","right","right","right","NA","NA","759","135917","25812","759","NA","NA","2","legacy","6","1024","2","48000","-16","experiment","4","even","4","327049","323778","324835","3360","249365","324838","216291","3367","223552","329053","329813","325843","NA","139296","329053","NA","Sternberg task","16","33285","25","yes","1024"
"65.38461538461539","65.38461538461539","1319.3461538461538","1319.3461538461538","black","experiment","legacy","legacy","legacy","0","uniform","1","undefined","1","right","25","25","25","0","0","25","25","0","0","25","25","25","NA","0","25","0","Sun Oct 24 20:08:44 2021","The main experiment item","yes","Sternbergtask.osexp","/Users/mihailcodreanu/Desktop","no","mono","no","18","no","white","no","yes","768","legacy","13","11","/Users/mihailcodreanu/Desktop/MC-subject-4.csv","legacy","1 4 3 6 5","Lentiform Loewenfeld","3.3.9","0","n","0","right","right","right","right","NA","NA","1018","135917","25812","1018","NA","NA","2","legacy","5","1024","2","48000","-16","experiment","4","even","8","333086","329819","330874","3360","249365","330878","216291","3367","223552","335090","336109","331882","NA","139296","335090","NA","Sternberg task","17","34303","26","yes","1024"
"66.66666666666667","66.66666666666667","1310.4814814814815","1310.4814814814815","black","experiment","legacy","legacy","legacy","0","uniform","1","undefined","1","right","26","26","26","0","0","26","26","0","0","26","26","26","NA","0","26","0","Sun Oct 24 20:08:44 2021","The main experiment item","yes","Sternbergtask.osexp","/Users/mihailcodreanu/Desktop","no","mono","no","18","no","white","no","yes","768","legacy","14","11","/Users/mihailcodreanu/Desktop/MC-subject-4.csv","legacy","8 5 4 2 9 6","Lentiform Loewenfeld","3.3.9","0","n","0","right","right","right","right","NA","NA","1080","135917","25812","1080","NA","NA","2","legacy","6","1024","2","48000","-16","experiment","4","even","3","339384","336115","337172","3360","249365","337175","216291","3367","223552","341388","342469","338179","NA","139296","341388","NA","Sternberg task","18","35383","27","yes","1024"
"67.85714285714286","67.85714285714286","1299.9642857142858","1299.9642857142858","black","experiment","legacy","legacy","legacy","0","uniform","1","undefined","1","left","27","27","27","0","0","27","27","0","0","27","27","27","NA","0","27","0","Sun Oct 24 20:08:44 2021","The main experiment item","yes","Sternbergtask.osexp","/Users/mihailcodreanu/Desktop","no","mono","no","18","no","white","no","yes","768","legacy","15","11","/Users/mihailcodreanu/Desktop/MC-subject-4.csv","legacy","9 1 7 2","Lentiform Loewenfeld","3.3.9","2","y","0","left","right","right","left","NA","NA","1016","135917","25812","1016","NA","NA","2","legacy","4","1024","2","48000","-16","experiment","4","even","1","345744","342475","343530","3360","249365","343533","216291","3367","223552","347748","348765","344538","NA","139296","347748","NA","Sternberg task","19","36399","28","yes","1024"
"68.96551724137932","68.96551724137932","1277.2758620689656","1277.2758620689656","black","experiment","legacy","legacy","legacy","0","uniform","1","undefined","1","left","28","28","28","0","0","28","28","0","0","28","28","28","NA","0","28","0","Sun Oct 24 20:08:44 2021","The main experiment item","yes","Sternbergtask.osexp","/Users/mihailcodreanu/Desktop","no","mono","no","18","no","white","no","yes","768","legacy","16","11","/Users/mihailcodreanu/Desktop/MC-subject-4.csv","legacy","6 7 9 3 1 2","Lentiform Loewenfeld","3.3.9","1","y","0","left","right","right","left","NA","NA","642","135917","25812","642","NA","NA","2","legacy","6","1024","2","48000","-16","experiment","4","even","6","352037","348770","349824","3360","249365","349828","216291","3367","223552","354042","354685","350832","NA","139296","354042","NA","Sternberg task","20","37041","29","yes","1024"
"66.66666666666667","66.66666666666667","1301.3666666666666","1301.3666666666666","black","experiment","legacy","legacy","legacy","0","uniform","0","undefined","0","right","29","29","29","0","0","29","29","0","0","29","29","29","NA","0","29","0","Sun Oct 24 20:08:44 2021","The main experiment item","yes","Sternbergtask.osexp","/Users/mihailcodreanu/Desktop","no","mono","no","18","no","white","no","yes","768","legacy","17","11","/Users/mihailcodreanu/Desktop/MC-subject-4.csv","legacy","2 7 5","Lentiform Loewenfeld","3.3.9","0","n","0","None","right","right","None","NA","NA","2000","135917","25812","2000","NA","NA","2","legacy","3","1024","2","48000","-16","experiment","4","even","8","357961","354691","355747","3360","249365","355751","216291","3367","223552","359965","361965","356755","NA","139296","359965","NA","Sternberg task","20","39041","30","yes","1024"
"67.74193548387096","67.74193548387096","1297.5483870967741","1297.5483870967741","black","experiment","legacy","legacy","legacy","0","uniform","1","undefined","1","right","30","30","30","0","0","30","30","0","0","30","30","30","NA","0","30","0","Sun Oct 24 20:08:44 2021","The main experiment item","yes","Sternbergtask.osexp","/Users/mihailcodreanu/Desktop","no","mono","no","18","no","white","no","yes","768","legacy","18","11","/Users/mihailcodreanu/Desktop/MC-subject-4.csv","legacy","7 6 4 8 1 2","Lentiform Loewenfeld","3.3.9","0","n","0","right","right","right","right","NA","NA","1183","135917","25812","1183","NA","NA","2","legacy","6","1024","2","48000","-16","experiment","4","even","9","365241","354691","363026","3360","249365","363031","361972","3367","223552","367245","368429","364035","NA","139296","367245","NA","Sternberg task","21","40224","31","yes","1024"
"68.75","68.75","1284.03125","1284.03125","black","experiment","legacy","legacy","legacy","0","uniform","1","undefined","1","left","31","31","31","0","0","31","31","0","0","31","31","31","NA","0","31","0","Sun Oct 24 20:08:44 2021","The main experiment item","yes","Sternbergtask.osexp","/Users/mihailcodreanu/Desktop","no","mono","no","18","no","white","no","yes","768","legacy","19","11","/Users/mihailcodreanu/Desktop/MC-subject-4.csv","legacy","4 6 5 8","Lentiform Loewenfeld","3.3.9","1","y","0","left","right","right","left","NA","NA","865","135917","25812","865","NA","NA","2","legacy","4","1024","2","48000","-16","experiment","4","even","4","371703","368435","369489","3360","249365","369493","361972","3367","223552","373707","374573","370497","NA","139296","373707","NA","Sternberg task","22","41089","32","yes","1024"
"69.6969696969697","69.6969696969697","1268.121212121212","1268.121212121212","black","experiment","legacy","legacy","legacy","0","uniform","1","undefined","1","left","32","32","32","0","0","32","32","0","0","32","32","32","NA","0","32","0","Sun Oct 24 20:08:44 2021","The main experiment item","yes","Sternbergtask.osexp","/Users/mihailcodreanu/Desktop","no","mono","no","18","no","white","no","yes","768","legacy","20","11","/Users/mihailcodreanu/Desktop/MC-subject-4.csv","legacy","5 2 6","Lentiform Loewenfeld","3.3.9","2","y","0","left","right","right","left","NA","NA","759","135917","25812","759","NA","NA","2","legacy","3","1024","2","48000","-16","experiment","4","even","2","377849","374579","375635","3360","249365","375639","361972","3367","223552","379853","380613","376643","NA","139296","379853","NA","Sternberg task","23","41848","33","yes","1024"
"70.58823529411765","70.58823529411765","1254.3529411764705","1254.3529411764705","black","experiment","legacy","legacy","legacy","0","uniform","1","undefined","1","right","33","33","33","0","0","33","33","0","0","33","33","33","NA","0","33","0","Sun Oct 24 20:08:44 2021","The main experiment item","yes","Sternbergtask.osexp","/Users/mihailcodreanu/Desktop","no","mono","no","18","no","white","no","yes","768","legacy","21","11","/Users/mihailcodreanu/Desktop/MC-subject-4.csv","legacy","9 5 3 2 8 6","Lentiform Loewenfeld","3.3.9","0","n","0","right","right","right","right","NA","NA","800","135917","25812","800","NA","NA","2","legacy","6","1024","2","48000","-16","experiment","4","even","7","383888","380619","381674","3360","249365","381678","361972","3367","223552","385892","386693","382682","NA","139296","385892","NA","Sternberg task","24","42648","34","yes","1024"
"71.42857142857143","71.42857142857143","1238.2","1238.2","black","experiment","legacy","legacy","legacy","0","uniform","1","undefined","1","left","34","34","34","0","0","34","34","0","0","34","34","34","NA","0","34","0","Sun Oct 24 20:08:44 2021","The main experiment item","yes","Sternbergtask.osexp","/Users/mihailcodreanu/Desktop","no","mono","no","18","no","white","no","yes","768","legacy","22","11","/Users/mihailcodreanu/Desktop/MC-subject-4.csv","legacy","3 4","Lentiform Loewenfeld","3.3.9","1","y","0","left","right","right","left","NA","NA","689","135917","25812","689","NA","NA","2","legacy","2","1024","2","48000","-16","experiment","4","even","3","389966","386699","387752","3360","249365","387756","361972","3367","223552","391971","392661","388760","NA","139296","391971","NA","Sternberg task","25","43337","35","yes","1024"
"72.22222222222223","72.22222222222223","1235.1944444444443","1235.1944444444443","black","experiment","legacy","legacy","legacy","0","uniform","1","undefined","1","left","35","35","35","0","0","35","35","0","0","35","35","35","NA","0","35","0","Sun Oct 24 20:08:44 2021","The main experiment item","yes","Sternbergtask.osexp","/Users/mihailcodreanu/Desktop","no","mono","no","18","no","white","no","yes","768","legacy","23","11","/Users/mihailcodreanu/Desktop/MC-subject-4.csv","legacy","4 9 7 8 5 3","Lentiform Loewenfeld","3.3.9","4","y","0","left","right","right","left","NA","NA","1130","135917","25812","1130","NA","NA","2","legacy","6","1024","2","48000","-16","experiment","4","even","8","395934","392665","393721","3360","249365","393725","361972","3367","223552","397938","399068","394729","NA","139296","397938","NA","Sternberg task","26","44467","36","yes","1024"
"72.97297297297297","72.97297297297297","1230.1891891891892","1230.1891891891892","black","experiment","legacy","legacy","legacy","0","uniform","1","undefined","1","right","36","36","36","0","0","36","36","0","0","36","36","36","NA","0","36","0","Sun Oct 24 20:08:44 2021","The main experiment item","yes","Sternbergtask.osexp","/Users/mihailcodreanu/Desktop","no","mono","no","18","no","white","no","yes","768","legacy","24","11","/Users/mihailcodreanu/Desktop/MC-subject-4.csv","legacy","4 2 6 9","Lentiform Loewenfeld","3.3.9","0","n","0","right","right","right","right","NA","NA","1050","135917","25812","1050","NA","NA","2","legacy","4","1024","2","48000","-16","experiment","4","even","7","402342","399075","400128","3360","249365","400132","361972","3367","223552","404346","405397","401136","NA","139296","404346","NA","Sternberg task","27","45517","37","yes","1024"
"73.6842105263158","73.6842105263158","1216.5263157894738","1216.5263157894738","black","experiment","legacy","legacy","legacy","0","uniform","1","undefined","1","left","37","37","37","0","0","37","37","0","0","37","37","37","NA","0","37","0","Sun Oct 24 20:08:44 2021","The main experiment item","yes","Sternbergtask.osexp","/Users/mihailcodreanu/Desktop","no","mono","no","18","no","white","no","yes","768","legacy","25","11","/Users/mihailcodreanu/Desktop/MC-subject-4.csv","legacy","8 7 3","Lentiform Loewenfeld","3.3.9","1","y","0","left","right","right","left","NA","NA","711","135917","25812","711","NA","NA","2","legacy","3","1024","2","48000","-16","experiment","4","even","8","408673","405404","406459","3360","249365","406463","361972","3367","223552","410677","411389","407467","NA","139296","410677","NA","Sternberg task","28","46228","38","yes","1024"
"74.35897435897436","74.35897435897436","1209.1025641025642","1209.1025641025642","black","experiment","legacy","legacy","legacy","0","uniform","1","undefined","1","right","38","38","38","0","0","38","38","0","0","38","38","38","NA","0","38","0","Sun Oct 24 20:08:44 2021","The main experiment item","yes","Sternbergtask.osexp","/Users/mihailcodreanu/Desktop","no","mono","no","18","no","white","no","yes","768","legacy","26","11","/Users/mihailcodreanu/Desktop/MC-subject-4.csv","legacy","8 5 7 3 6","Lentiform Loewenfeld","3.3.9","0","n","0","right","right","right","right","NA","NA","927","135917","25812","927","NA","NA","2","legacy","5","1024","2","48000","-16","experiment","4","even","9","414665","411395","412451","3360","249365","412455","361972","3367","223552","416669","417597","413459","NA","139296","416669","NA","Sternberg task","29","47155","39","yes","1024"
"75","75","1203.45","1203.45","black","experiment","legacy","legacy","legacy","0","uniform","1","undefined","1","right","39","39","39","0","0","39","39","0","0","39","39","39","NA","0","39","0","Sun Oct 24 20:08:44 2021","The main experiment item","yes","Sternbergtask.osexp","/Users/mihailcodreanu/Desktop","no","mono","no","18","no","white","no","yes","768","legacy","27","11","/Users/mihailcodreanu/Desktop/MC-subject-4.csv","legacy","7 3 2 8","Lentiform Loewenfeld","3.3.9","0","n","0","right","right","right","right","NA","NA","983","135917","25812","983","NA","NA","2","legacy","4","1024","2","48000","-16","experiment","4","even","4","420872","417603","418660","3360","249365","418664","361972","3367","223552","422877","423861","419668","NA","139296","422877","NA","Sternberg task","30","48138","40","yes","1024"
"75.60975609756098","75.60975609756098","1197.3170731707316","1197.3170731707316","black","experiment","legacy","legacy","legacy","0","uniform","1","undefined","1","left","40","40","40","0","0","40","40","0","0","40","40","40","NA","0","40","0","Sun Oct 24 20:08:44 2021","The main experiment item","yes","Sternbergtask.osexp","/Users/mihailcodreanu/Desktop","no","mono","no","18","no","white","no","yes","768","legacy","28","11","/Users/mihailcodreanu/Desktop/MC-subject-4.csv","legacy","4 1 8 7 5","Lentiform Loewenfeld","3.3.9","3","y","0","left","right","right","left","NA","NA","952","135917","25812","952","NA","NA","2","legacy","5","1024","2","48000","-16","experiment","4","even","8","427136","423867","424921","3360","249365","424925","361972","3367","223552","429140","430093","425930","NA","139296","429140","NA","Sternberg task","31","49090","41","yes","1024"
"76.19047619047619","76.19047619047619","1189.4285714285713","1189.4285714285713","black","experiment","legacy","legacy","legacy","0","uniform","1","undefined","1","left","41","41","41","0","0","41","41","0","0","41","41","41","NA","0","41","0","Sun Oct 24 20:08:44 2021","The main experiment item","yes","Sternbergtask.osexp","/Users/mihailcodreanu/Desktop","no","mono","no","18","no","white","no","yes","768","legacy","29","11","/Users/mihailcodreanu/Desktop/MC-subject-4.csv","legacy","4","Lentiform Loewenfeld","3.3.9","1","y","0","left","right","right","left","NA","NA","866","135917","25812","866","NA","NA","2","legacy","1","1024","2","48000","-16","experiment","4","even","4","433366","430099","431153","3360","249365","431157","361972","3367","223552","435370","436237","432161","NA","139296","435370","NA","Sternberg task","32","49956","42","yes","1024"
"76.74418604651163","76.74418604651163","1179.6279069767443","1179.6279069767443","black","experiment","legacy","legacy","legacy","0","uniform","1","undefined","1","right","42","42","42","0","0","42","42","0","0","42","42","42","NA","0","42","0","Sun Oct 24 20:08:44 2021","The main experiment item","yes","Sternbergtask.osexp","/Users/mihailcodreanu/Desktop","no","mono","no","18","no","white","no","yes","768","legacy","30","11","/Users/mihailcodreanu/Desktop/MC-subject-4.csv","legacy","1 6 4","Lentiform Loewenfeld","3.3.9","0","n","0","right","right","right","right","NA","NA","768","135917","25812","768","NA","NA","2","legacy","3","1024","2","48000","-16","experiment","4","even","7","439511","436243","437297","3360","249365","437301","361972","3367","223552","441516","442285","438305","NA","139296","441516","NA","Sternberg task","33","50724","43","yes","1024"
"77.27272727272727","77.27272727272727","1170.090909090909","1170.090909090909","black","experiment","legacy","legacy","legacy","0","uniform","1","undefined","1","left","43","43","43","0","0","43","43","0","0","43","43","43","NA","0","43","0","Sun Oct 24 20:08:44 2021","The main experiment item","yes","Sternbergtask.osexp","/Users/mihailcodreanu/Desktop","no","mono","no","18","no","white","no","yes","768","legacy","31","11","/Users/mihailcodreanu/Desktop/MC-subject-4.csv","legacy","7 1 8 5 6 2","Lentiform Loewenfeld","3.3.9","2","y","0","left","right","right","left","NA","NA","760","135917","25812","760","NA","NA","2","legacy","6","1024","2","48000","-16","experiment","4","even","1","445559","442291","443345","3360","249365","443349","361972","3367","223552","447564","448325","444353","NA","139296","447564","NA","Sternberg task","34","51484","44","yes","1024"
"77.77777777777777","77.77777777777777","1160.9777777777779","1160.9777777777779","black","experiment","legacy","legacy","legacy","0","uniform","1","undefined","1","left","44","44","44","0","0","44","44","0","0","44","44","44","NA","0","44","0","Sun Oct 24 20:08:44 2021","The main experiment item","yes","Sternbergtask.osexp","/Users/mihailcodreanu/Desktop","no","mono","no","18","no","white","no","yes","768","legacy","32","11","/Users/mihailcodreanu/Desktop/MC-subject-4.csv","legacy","6 9 3 1","Lentiform Loewenfeld","3.3.9","4","y","0","left","right","right","left","NA","NA","760","135917","25812","760","NA","NA","2","legacy","4","1024","2","48000","-16","experiment","4","even","1","451600","448332","449387","3360","249365","449390","361972","3367","223552","453604","454365","450394","NA","139296","453604","NA","Sternberg task","35","52244","45","yes","1024"
"78.26086956521739","78.26086956521739","1156.4130434782608","1156.4130434782608","black","experiment","legacy","legacy","legacy","0","uniform","1","undefined","1","right","45","45","45","0","0","45","45","0","0","45","45","45","NA","0","45","0","Sun Oct 24 20:08:44 2021","The main experiment item","yes","Sternbergtask.osexp","/Users/mihailcodreanu/Desktop","no","mono","no","18","no","white","no","yes","768","legacy","33","11","/Users/mihailcodreanu/Desktop/MC-subject-4.csv","legacy","4 2 7 6 1 3","Lentiform Loewenfeld","3.3.9","0","n","0","right","right","right","right","NA","NA","951","135917","25812","951","NA","NA","2","legacy","6","1024","2","48000","-16","experiment","4","even","8","457641","454372","455427","3360","249365","455431","361972","3367","223552","459645","460597","456435","NA","139296","459645","NA","Sternberg task","36","53195","46","yes","1024"
"78.72340425531915","78.72340425531915","1151.8936170212767","1151.8936170212767","black","experiment","legacy","legacy","legacy","0","uniform","1","undefined","1","right","46","46","46","0","0","46","46","0","0","46","46","46","NA","0","46","0","Sun Oct 24 20:08:44 2021","The main experiment item","yes","Sternbergtask.osexp","/Users/mihailcodreanu/Desktop","no","mono","no","18","no","white","no","yes","768","legacy","34","11","/Users/mihailcodreanu/Desktop/MC-subject-4.csv","legacy","9","Lentiform Loewenfeld","3.3.9","0","n","0","right","right","right","right","NA","NA","944","135917","25812","944","NA","NA","2","legacy","1","1024","2","48000","-16","experiment","4","even","6","463871","460604","461658","3360","249365","461661","361972","3367","223552","465876","466821","462666","NA","139296","465876","NA","Sternberg task","37","54139","47","yes","1024"
"79.16666666666667","79.16666666666667","1147.0208333333333","1147.0208333333333","black","experiment","legacy","legacy","legacy","0","uniform","1","undefined","1","right","47","47","47","0","0","47","47","0","0","47","47","47","NA","0","47","0","Sun Oct 24 20:08:44 2021","The main experiment item","yes","Sternbergtask.osexp","/Users/mihailcodreanu/Desktop","no","mono","no","18","no","white","no","yes","768","legacy","35","11","/Users/mihailcodreanu/Desktop/MC-subject-4.csv","legacy","1 7 8 3 9","Lentiform Loewenfeld","3.3.9","0","n","0","right","right","right","right","NA","NA","918","135917","25812","918","NA","NA","2","legacy","5","1024","2","48000","-16","experiment","4","even","2","470097","466828","467882","3360","249365","467886","361972","3367","223552","472102","473021","468890","NA","139296","472102","NA","Sternberg task","38","55057","48","yes","1024"
"79.59183673469387","79.59183673469387","1139.8979591836735","1139.8979591836735","black","experiment","legacy","legacy","legacy","0","uniform","1","undefined","1","left","48","48","48","0","0","48","48","0","0","48","48","48","NA","0","48","0","Sun Oct 24 20:08:44 2021","The main experiment item","yes","Sternbergtask.osexp","/Users/mihailcodreanu/Desktop","no","mono","no","18","no","white","no","yes","768","legacy","36","11","/Users/mihailcodreanu/Desktop/MC-subject-4.csv","legacy","2 4 6 9","Lentiform Loewenfeld","3.3.9","3","y","0","left","right","right","left","NA","NA","798","135917","25812","798","NA","NA","2","legacy","4","1024","2","48000","-16","experiment","4","even","6","476297","473027","474084","3360","249365","474088","361972","3367","223552","478302","479101","475092","NA","139296","478302","NA","Sternberg task","39","55855","49","yes","1024"
"80","80","1133.74","1133.74","black","experiment","legacy","legacy","legacy","0","uniform","1","undefined","1","right","49","49","49","0","0","49","49","0","0","49","49","49","NA","0","49","0","Sun Oct 24 20:08:44 2021","The main experiment item","yes","Sternbergtask.osexp","/Users/mihailcodreanu/Desktop","no","mono","no","18","no","white","no","yes","768","legacy","37","11","/Users/mihailcodreanu/Desktop/MC-subject-4.csv","legacy","6 9 4 5 2","Lentiform Loewenfeld","3.3.9","0","n","0","right","right","right","right","NA","NA","832","135917","25812","832","NA","NA","2","legacy","5","1024","2","48000","-16","experiment","4","even","1","482376","479107","480162","3360","249365","480165","361972","3367","223552","484380","485213","481169","NA","139296","484380","NA","Sternberg task","40","56687","50","yes","1024"
"78.43137254901961","78.43137254901961","1137.4313725490197","1137.4313725490197","black","experiment","legacy","legacy","legacy","0","uniform","0","undefined","0","left","50","50","50","0","0","50","50","0","0","50","50","50","NA","0","50","0","Sun Oct 24 20:08:44 2021","The main experiment item","yes","Sternbergtask.osexp","/Users/mihailcodreanu/Desktop","no","mono","no","18","no","white","no","yes","768","legacy","38","11","/Users/mihailcodreanu/Desktop/MC-subject-4.csv","legacy","8 9 5 7 1 6","Lentiform Loewenfeld","3.3.9","4","y","0","right","right","right","right","NA","NA","1322","135917","25812","1322","NA","NA","2","legacy","6","1024","2","48000","-16","experiment","4","even","7","488486","485219","486273","3360","249365","486276","361972","3367","223552","490490","491813","487280","NA","139296","490490","NA","Sternberg task","40","58009","51","yes","1024"
"78.84615384615384","78.84615384615384","1134.5576923076924","1134.5576923076924","black","experiment","legacy","legacy","legacy","0","uniform","1","undefined","1","left","51","51","51","0","0","51","51","0","0","51","51","51","NA","0","51","0","Sun Oct 24 20:08:44 2021","The main experiment item","yes","Sternbergtask.osexp","/Users/mihailcodreanu/Desktop","no","mono","no","18","no","white","no","yes","768","legacy","39","11","/Users/mihailcodreanu/Desktop/MC-subject-4.csv","legacy","1 4 9 3 2 5","Lentiform Loewenfeld","3.3.9","3","y","0","left","right","right","left","NA","NA","988","135917","25812","988","NA","NA","2","legacy","6","1024","2","48000","-16","experiment","4","even","9","495084","485219","492872","3360","249365","492876","491819","3367","223552","497088","498076","493880","NA","139296","497088","NA","Sternberg task","41","58997","52","yes","1024"
"79.24528301886792","79.24528301886792","1127.9622641509434","1127.9622641509434","black","experiment","legacy","legacy","legacy","0","uniform","1","undefined","1","right","52","52","52","0","0","52","52","0","0","52","52","52","NA","0","52","0","Sun Oct 24 20:08:44 2021","The main experiment item","yes","Sternbergtask.osexp","/Users/mihailcodreanu/Desktop","no","mono","no","18","no","white","no","yes","768","legacy","40","11","/Users/mihailcodreanu/Desktop/MC-subject-4.csv","legacy","1 3 2 6 9","Lentiform Loewenfeld","3.3.9","0","n","0","right","right","right","right","NA","NA","785","135917","25812","785","NA","NA","2","legacy","5","1024","2","48000","-16","experiment","4","even","5","501351","498084","499137","3360","249365","499141","491819","3367","223552","503355","504141","500145","NA","139296","503355","NA","Sternberg task","42","59782","53","yes","1024"
"77.77777777777777","77.77777777777777","1127.2592592592594","1127.2592592592594","black","experiment","legacy","legacy","legacy","0","uniform","0","undefined","0","left","53","53","53","0","0","53","53","0","0","53","53","53","NA","0","53","0","Sun Oct 24 20:08:44 2021","The main experiment item","yes","Sternbergtask.osexp","/Users/mihailcodreanu/Desktop","no","mono","no","18","no","white","no","yes","768","legacy","41","11","/Users/mihailcodreanu/Desktop/MC-subject-4.csv","legacy","9 3 1 2 5","Lentiform Loewenfeld","3.3.9","4","y","0","right","right","right","right","NA","NA","1090","135917","25812","1090","NA","NA","2","legacy","5","1024","2","48000","-16","experiment","4","even","2","507414","504147","505200","3360","249365","505204","491819","3367","223552","509418","510509","506208","NA","139296","509418","NA","Sternberg task","42","60872","54","yes","1024"
"78.18181818181819","78.18181818181819","1128.4363636363637","1128.4363636363637","black","experiment","legacy","legacy","legacy","0","uniform","1","undefined","1","left","54","54","54","0","0","54","54","0","0","54","54","54","NA","0","54","0","Sun Oct 24 20:08:44 2021","The main experiment item","yes","Sternbergtask.osexp","/Users/mihailcodreanu/Desktop","no","mono","no","18","no","white","no","yes","768","legacy","42","11","/Users/mihailcodreanu/Desktop/MC-subject-4.csv","legacy","8 5 1 3 9","Lentiform Loewenfeld","3.3.9","4","y","0","left","right","right","left","NA","NA","1192","135917","25812","1192","NA","NA","2","legacy","5","1024","2","48000","-16","experiment","4","even","3","513784","504147","511569","3360","249365","511573","510515","3367","223552","515788","516981","512577","NA","139296","515788","NA","Sternberg task","43","62064","55","yes","1024"
"76.78571428571429","76.78571428571429","1129.2857142857142","1129.2857142857142","black","experiment","legacy","legacy","legacy","0","uniform","0","undefined","0","right","55","55","55","0","0","55","55","0","0","55","55","55","NA","0","55","0","Sun Oct 24 20:08:44 2021","The main experiment item","yes","Sternbergtask.osexp","/Users/mihailcodreanu/Desktop","no","mono","no","18","no","white","no","yes","768","legacy","43","11","/Users/mihailcodreanu/Desktop/MC-subject-4.csv","legacy","1 6 4 3 9 7","Lentiform Loewenfeld","3.3.9","0","n","0","left","right","right","left","NA","NA","1176","135917","25812","1176","NA","NA","2","legacy","6","1024","2","48000","-16","experiment","4","even","8","520256","516988","518042","3360","249365","518046","510515","3367","223552","522260","523437","519050","NA","139296","522260","NA","Sternberg task","43","63240","56","yes","1024"
"77.19298245614036","77.19298245614036","1124.3157894736842","1124.3157894736842","black","experiment","legacy","legacy","legacy","0","uniform","1","undefined","1","right","56","56","56","0","0","56","56","0","0","56","56","56","NA","0","56","0","Sun Oct 24 20:08:44 2021","The main experiment item","yes","Sternbergtask.osexp","/Users/mihailcodreanu/Desktop","no","mono","no","18","no","white","no","yes","768","legacy","44","11","/Users/mihailcodreanu/Desktop/MC-subject-4.csv","legacy","2 5 1 4","Lentiform Loewenfeld","3.3.9","0","n","0","right","right","right","right","NA","NA","846","135917","25812","846","NA","NA","2","legacy","4","1024","2","48000","-16","experiment","4","even","6","526714","516988","524500","3360","249365","524504","523444","3367","223552","528718","529565","525508","NA","139296","528718","NA","Sternberg task","44","64086","57","yes","1024"
"77.58620689655173","77.58620689655173","1119.155172413793","1119.155172413793","black","experiment","legacy","legacy","legacy","0","uniform","1","undefined","1","right","57","57","57","0","0","57","57","0","0","57","57","57","NA","0","57","0","Sun Oct 24 20:08:44 2021","The main experiment item","yes","Sternbergtask.osexp","/Users/mihailcodreanu/Desktop","no","mono","no","18","no","white","no","yes","768","legacy","45","11","/Users/mihailcodreanu/Desktop/MC-subject-4.csv","legacy","7 4 2 8 1 9","Lentiform Loewenfeld","3.3.9","0","n","0","right","right","right","right","NA","NA","825","135917","25812","825","NA","NA","2","legacy","6","1024","2","48000","-16","experiment","4","even","5","532839","529572","530625","3360","249365","530629","523444","3367","223552","534843","535669","531633","NA","139296","534843","NA","Sternberg task","45","64911","58","yes","1024"
"77.96610169491525","77.96610169491525","1114.8474576271187","1114.8474576271187","black","experiment","legacy","legacy","legacy","0","uniform","1","undefined","1","right","58","58","58","0","0","58","58","0","0","58","58","58","NA","0","58","0","Sun Oct 24 20:08:44 2021","The main experiment item","yes","Sternbergtask.osexp","/Users/mihailcodreanu/Desktop","no","mono","no","18","no","white","no","yes","768","legacy","46","11","/Users/mihailcodreanu/Desktop/MC-subject-4.csv","legacy","2 6 4 3 9","Lentiform Loewenfeld","3.3.9","0","n","0","right","right","right","right","NA","NA","865","135917","25812","865","NA","NA","2","legacy","5","1024","2","48000","-16","experiment","4","even","1","538943","535675","536729","3360","249365","536733","523444","3367","223552","540947","541813","537737","NA","139296","540947","NA","Sternberg task","46","65776","59","yes","1024"
"78.33333333333333","78.33333333333333","1110.8166666666666","1110.8166666666666","black","experiment","legacy","legacy","legacy","0","uniform","1","undefined","1","left","59","59","59","0","0","59","59","0","0","59","59","59","NA","0","59","0","Sun Oct 24 20:08:44 2021","The main experiment item","yes","Sternbergtask.osexp","/Users/mihailcodreanu/Desktop","no","mono","no","18","no","white","no","yes","768","legacy","47","11","/Users/mihailcodreanu/Desktop/MC-subject-4.csv","legacy","6 9 7 4 5 1","Lentiform Loewenfeld","3.3.9","2","y","0","left","right","right","left","NA","NA","873","135917","25812","873","NA","NA","2","legacy","6","1024","2","48000","-16","experiment","4","even","9","545088","541820","542874","3360","249365","542877","523444","3367","223552","547091","547965","543882","NA","139296","547091","NA","Sternberg task","47","66649","60","yes","1024"
"78.68852459016394","78.68852459016394","1105.8196721311476","1105.8196721311476","black","experiment","legacy","legacy","legacy","0","uniform","1","undefined","1","left","60","60","60","0","0","60","60","0","0","60","60","60","NA","0","60","0","Sun Oct 24 20:08:44 2021","The main experiment item","yes","Sternbergtask.osexp","/Users/mihailcodreanu/Desktop","no","mono","no","18","no","white","no","yes","768","legacy","48","11","/Users/mihailcodreanu/Desktop/MC-subject-4.csv","legacy","7 1 3","Lentiform Loewenfeld","3.3.9","2","y","0","left","right","right","left","NA","NA","806","135917","25812","806","NA","NA","2","legacy","3","1024","2","48000","-16","experiment","4","even","1","551242","547971","549028","3360","249365","549032","523444","3367","223552","553246","554053","550036","NA","139296","553246","NA","Sternberg task","48","67455","61","yes","1024"
"79.03225806451613","79.03225806451613","1105.6935483870968","1105.6935483870968","black","experiment","legacy","legacy","legacy","0","uniform","1","undefined","1","right","61","61","61","0","0","61","61","0","0","61","61","61","NA","0","61","0","Sun Oct 24 20:08:44 2021","The main experiment item","yes","Sternbergtask.osexp","/Users/mihailcodreanu/Desktop","no","mono","no","18","no","white","no","yes","768","legacy","49","11","/Users/mihailcodreanu/Desktop/MC-subject-4.csv","legacy","2 3 8 5 6 7","Lentiform Loewenfeld","3.3.9","0","n","0","right","right","right","right","NA","NA","1098","135917","25812","1098","NA","NA","2","legacy","6","1024","2","48000","-16","experiment","4","even","1","557326","554059","555113","3360","249365","555117","523444","3367","223552","559330","560429","556121","NA","139296","559330","NA","Sternberg task","49","68553","62","yes","1024"
"79.36507936507937","79.36507936507937","1101.857142857143","1101.857142857143","black","experiment","legacy","legacy","legacy","0","uniform","1","undefined","1","left","62","62","62","0","0","62","62","0","0","62","62","62","NA","0","62","0","Sun Oct 24 20:08:44 2021","The main experiment item","yes","Sternbergtask.osexp","/Users/mihailcodreanu/Desktop","no","mono","no","18","no","white","no","yes","768","legacy","50","11","/Users/mihailcodreanu/Desktop/MC-subject-4.csv","legacy","9 8 4","Lentiform Loewenfeld","3.3.9","1","y","0","left","right","right","left","NA","NA","864","135917","25812","864","NA","NA","2","legacy","3","1024","2","48000","-16","experiment","4","even","9","563704","560435","561490","3360","249365","561494","523444","3367","223552","565708","566573","562498","NA","139296","565708","NA","Sternberg task","50","69417","63","yes","1024"
"79.6875","79.6875","1096.65625","1096.65625","black","experiment","legacy","legacy","legacy","0","uniform","1","undefined","1","left","63","63","63","0","0","63","63","0","0","63","63","63","NA","0","63","0","Sun Oct 24 20:08:44 2021","The main experiment item","yes","Sternbergtask.osexp","/Users/mihailcodreanu/Desktop","no","mono","no","18","no","white","no","yes","768","legacy","51","11","/Users/mihailcodreanu/Desktop/MC-subject-4.csv","legacy","4 3 2 5 8","Lentiform Loewenfeld","3.3.9","2","y","0","left","right","right","left","NA","NA","769","135917","25812","769","NA","NA","2","legacy","5","1024","2","48000","-16","experiment","4","even","3","569847","566579","567634","3360","249365","567637","523444","3367","223552","571851","572621","568641","NA","139296","571851","NA","Sternberg task","51","70186","64","yes","1024"
"80","80","1092.4615384615386","1092.4615384615386","black","experiment","legacy","legacy","legacy","0","uniform","1","undefined","1","left","64","64","64","0","0","64","64","0","0","64","64","64","NA","0","64","0","Sun Oct 24 20:08:44 2021","The main experiment item","yes","Sternbergtask.osexp","/Users/mihailcodreanu/Desktop","no","mono","no","18","no","white","no","yes","768","legacy","52","11","/Users/mihailcodreanu/Desktop/MC-subject-4.csv","legacy","6 5","Lentiform Loewenfeld","3.3.9","2","y","0","left","right","right","left","NA","NA","824","135917","25812","824","NA","NA","2","legacy","2","1024","2","48000","-16","experiment","4","even","5","575896","572627","573683","3360","249365","573687","523444","3367","223552","577900","578725","574691","NA","139296","577900","NA","Sternberg task","52","71010","65","yes","1024"
"80.3030303030303","80.3030303030303","1094.0151515151515","1094.0151515151515","black","experiment","legacy","legacy","legacy","0","uniform","1","undefined","1","right","65","65","65","0","0","65","65","0","0","65","65","65","NA","0","65","0","Sun Oct 24 20:08:44 2021","The main experiment item","yes","Sternbergtask.osexp","/Users/mihailcodreanu/Desktop","no","mono","no","18","no","white","no","yes","768","legacy","53","11","/Users/mihailcodreanu/Desktop/MC-subject-4.csv","legacy","3 4 2","Lentiform Loewenfeld","3.3.9","0","n","0","right","right","right","right","NA","NA","1195","135917","25812","1195","NA","NA","2","legacy","3","1024","2","48000","-16","experiment","4","even","5","581997","578732","579785","3360","249365","579789","523444","3367","223552","584001","585197","580793","NA","139296","584001","NA","Sternberg task","53","72205","66","yes","1024"
"80.59701492537313","80.59701492537313","1093.5671641791046","1093.5671641791046","black","experiment","legacy","legacy","legacy","0","uniform","1","undefined","1","right","66","66","66","0","0","66","66","0","0","66","66","66","NA","0","66","0","Sun Oct 24 20:08:44 2021","The main experiment item","yes","Sternbergtask.osexp","/Users/mihailcodreanu/Desktop","no","mono","no","18","no","white","no","yes","768","legacy","54","11","/Users/mihailcodreanu/Desktop/MC-subject-4.csv","legacy","5 9 2 3","Lentiform Loewenfeld","3.3.9","0","n","0","right","right","right","right","NA","NA","1064","135917","25812","1064","NA","NA","2","legacy","4","1024","2","48000","-16","experiment","4","even","8","588472","585203","586257","3360","249365","586261","523444","3367","223552","590476","591541","587265","NA","139296","590476","NA","Sternberg task","54","73269","67","yes","1024"
"80.88235294117646","80.88235294117646","1090.9264705882354","1090.9264705882354","black","experiment","legacy","legacy","legacy","0","uniform","1","undefined","1","right","67","67","67","0","0","67","67","0","0","67","67","67","NA","0","67","0","Sun Oct 24 20:08:44 2021","The main experiment item","yes","Sternbergtask.osexp","/Users/mihailcodreanu/Desktop","no","mono","no","18","no","white","no","yes","768","legacy","55","11","/Users/mihailcodreanu/Desktop/MC-subject-4.csv","legacy","6 9 7 3 8 2","Lentiform Loewenfeld","3.3.9","0","n","0","right","right","right","right","NA","NA","914","135917","25812","914","NA","NA","2","legacy","6","1024","2","48000","-16","experiment","4","even","5","594814","591548","592600","3360","249365","592604","523444","3367","223552","596818","597733","593608","NA","139296","596818","NA","Sternberg task","55","74183","68","yes","1024"
"81.15942028985508","81.15942028985508","1089","1089","black","experiment","legacy","legacy","legacy","0","uniform","1","undefined","1","left","68","68","68","0","0","68","68","0","0","68","68","68","NA","0","68","0","Sun Oct 24 20:08:44 2021","The main experiment item","yes","Sternbergtask.osexp","/Users/mihailcodreanu/Desktop","no","mono","no","18","no","white","no","yes","768","legacy","56","11","/Users/mihailcodreanu/Desktop/MC-subject-4.csv","legacy","2 8 5 1","Lentiform Loewenfeld","3.3.9","4","y","0","left","right","right","left","NA","NA","958","135917","25812","958","NA","NA","2","legacy","4","1024","2","48000","-16","experiment","4","even","1","601010","597739","598796","3360","249365","598800","523444","3367","223552","603014","603973","599804","NA","139296","603014","NA","Sternberg task","56","75141","69","yes","1024"
"80","80","1094.557142857143","1094.557142857143","black","experiment","legacy","legacy","legacy","0","uniform","0","undefined","0","left","69","69","69","0","0","69","69","0","0","69","69","69","NA","0","69","0","Sun Oct 24 20:08:44 2021","The main experiment item","yes","Sternbergtask.osexp","/Users/mihailcodreanu/Desktop","no","mono","no","18","no","white","no","yes","768","legacy","57","11","/Users/mihailcodreanu/Desktop/MC-subject-4.csv","legacy","5 7 8 2 3 8","Lentiform Loewenfeld","3.3.9","5","y","0","right","right","right","right","NA","NA","1478","135917","25812","1478","NA","NA","2","legacy","6","1024","2","48000","-16","experiment","4","even","3","607258","603986","605044","3360","249365","605048","523444","3367","223552","609262","610741","606052","NA","139296","609261","NA","Sternberg task","56","76619","70","yes","1024"
"78.87323943661971","78.87323943661971","1086.4647887323943","1086.4647887323943","black","experiment","legacy","legacy","legacy","0","uniform","0","undefined","0","right","70","70","70","0","0","70","70","0","0","70","70","70","NA","0","70","0","Sun Oct 24 20:08:44 2021","The main experiment item","yes","Sternbergtask.osexp","/Users/mihailcodreanu/Desktop","no","mono","no","18","no","white","no","yes","768","legacy","58","11","/Users/mihailcodreanu/Desktop/MC-subject-4.csv","legacy","6 9 4 5 3 2","Lentiform Loewenfeld","3.3.9","0","n","0","left","right","right","left","NA","NA","520","135917","25812","520","NA","NA","2","legacy","6","1024","2","48000","-16","experiment","4","even","8","614016","603986","611802","3360","249365","611806","610748","3367","223552","616020","616541","612810","NA","139296","616020","NA","Sternberg task","56","77139","71","yes","1024"
"77.77777777777777","77.77777777777777","1081.3055555555557","1081.3055555555557","black","experiment","legacy","legacy","legacy","0","uniform","0","undefined","0","left","71","71","71","0","0","71","71","0","0","71","71","71","NA","0","71","0","Sun Oct 24 20:08:44 2021","The main experiment item","yes","Sternbergtask.osexp","/Users/mihailcodreanu/Desktop","no","mono","no","18","no","white","no","yes","768","legacy","59","11","/Users/mihailcodreanu/Desktop/MC-subject-4.csv","legacy","9 6 2 4 1","Lentiform Loewenfeld","3.3.9","4","y","0","right","right","right","right","NA","NA","715","135917","25812","715","NA","NA","2","legacy","5","1024","2","48000","-16","experiment","4","even","4","619812","603986","617599","3360","249365","617603","616545","3367","223552","621817","622533","618607","NA","139296","621817","NA","Sternberg task","56","77854","72","yes","1024"
"78.08219178082192","78.08219178082192","1079.86301369863","1079.86301369863","black","experiment","legacy","legacy","legacy","0","uniform","1","undefined","1","right","72","72","72","0","0","72","72","0","0","72","72","72","NA","0","72","0","Sun Oct 24 20:08:44 2021","The main experiment item","yes","Sternbergtask.osexp","/Users/mihailcodreanu/Desktop","no","mono","no","18","no","white","no","yes","768","legacy","60","11","/Users/mihailcodreanu/Desktop/MC-subject-4.csv","legacy","1","Lentiform Loewenfeld","3.3.9","0","n","0","right","right","right","right","NA","NA","976","135917","25812","976","NA","NA","2","legacy","1","1024","2","48000","-16","experiment","4","even","7","625808","603986","623594","3360","249365","623598","622539","3367","223552","627812","628789","624602","NA","139296","627812","NA","Sternberg task","57","78830","73","yes","1024"
"77.02702702702703","77.02702702702703","1092.2972972972973","1092.2972972972973","black","experiment","legacy","legacy","legacy","0","uniform","0","undefined","0","right","73","73","73","0","0","73","73","0","0","73","73","73","NA","0","73","0","Sun Oct 24 20:08:44 2021","The main experiment item","yes","Sternbergtask.osexp","/Users/mihailcodreanu/Desktop","no","mono","no","18","no","white","no","yes","768","legacy","61","11","/Users/mihailcodreanu/Desktop/MC-subject-4.csv","legacy","2 8 6 3 1","Lentiform Loewenfeld","3.3.9","0","n","0","None","right","right","None","NA","NA","2000","135917","25812","2000","NA","NA","2","legacy","5","1024","2","48000","-16","experiment","4","even","7","632060","628795","629848","3360","249365","629852","622539","3367","223552","634064","636064","630856","NA","139296","634064","NA","Sternberg task","57","80830","74","yes","1024"
"77.33333333333333","77.33333333333333","1085.4","1085.4","black","experiment","legacy","legacy","legacy","0","uniform","1","undefined","1","right","74","74","74","0","0","74","74","0","0","74","74","74","NA","0","74","0","Sun Oct 24 20:08:44 2021","The main experiment item","yes","Sternbergtask.osexp","/Users/mihailcodreanu/Desktop","no","mono","no","18","no","white","no","yes","768","legacy","62","11","/Users/mihailcodreanu/Desktop/MC-subject-4.csv","legacy","5 3 8 7 2 4","Lentiform Loewenfeld","3.3.9","0","n","0","right","right","right","right","NA","NA","575","135917","25812","575","NA","NA","2","legacy","6","1024","2","48000","-16","experiment","4","even","9","639337","628795","637123","3360","249365","637127","636070","3367","223552","641341","641917","638131","NA","139296","641340","NA","Sternberg task","58","81405","75","yes","1024"
"76.3157894736842","76.3157894736842","1077.1052631578948","1077.1052631578948","black","experiment","legacy","legacy","legacy","0","uniform","0","undefined","0","right","75","75","75","0","0","75","75","0","0","75","75","75","NA","0","75","0","Sun Oct 24 20:08:44 2021","The main experiment item","yes","Sternbergtask.osexp","/Users/mihailcodreanu/Desktop","no","mono","no","18","no","white","no","yes","768","legacy","63","11","/Users/mihailcodreanu/Desktop/MC-subject-4.csv","legacy","6 8","Lentiform Loewenfeld","3.3.9","0","n","0","left","right","right","left","NA","NA","455","135917","25812","455","NA","NA","2","legacy","2","1024","2","48000","-16","experiment","4","even","9","645193","641923","642981","3360","249365","642984","636070","3367","223552","647197","647653","643989","NA","139296","647197","NA","Sternberg task","58","81860","76","yes","1024"
"76.62337662337663","76.62337662337663","1074.3896103896104","1074.3896103896104","black","experiment","legacy","legacy","legacy","0","uniform","1","undefined","1","left","76","76","76","0","0","76","76","0","0","76","76","76","NA","0","76","0","Sun Oct 24 20:08:44 2021","The main experiment item","yes","Sternbergtask.osexp","/Users/mihailcodreanu/Desktop","no","mono","no","18","no","white","no","yes","768","legacy","64","11","/Users/mihailcodreanu/Desktop/MC-subject-4.csv","legacy","7 6","Lentiform Loewenfeld","3.3.9","2","y","0","left","right","right","left","NA","NA","868","135917","25812","868","NA","NA","2","legacy","2","1024","2","48000","-16","experiment","4","even","6","650924","641923","648710","3360","249365","648714","647658","3367","223552","652928","653797","649718","NA","139296","652928","NA","Sternberg task","59","82728","77","yes","1024"
"75.64102564102564","75.64102564102564","1086.2564102564102","1086.2564102564102","black","experiment","legacy","legacy","legacy","0","uniform","0","undefined","0","left","77","77","77","0","0","77","77","0","0","77","77","77","NA","0","77","0","Sun Oct 24 20:08:44 2021","The main experiment item","yes","Sternbergtask.osexp","/Users/mihailcodreanu/Desktop","no","mono","no","18","no","white","no","yes","768","legacy","65","11","/Users/mihailcodreanu/Desktop/MC-subject-4.csv","legacy","3 2 1 4 7","Lentiform Loewenfeld","3.3.9","2","y","0","None","right","right","None","NA","NA","2000","135917","25812","2000","NA","NA","2","legacy","5","1024","2","48000","-16","experiment","4","even","2","657073","653804","654861","3360","249365","654865","647658","3367","223552","659076","661076","655869","NA","139296","659076","NA","Sternberg task","59","84728","78","yes","1024"
"75.9493670886076","75.9493670886076","1084.9240506329113","1084.9240506329113","black","experiment","legacy","legacy","legacy","0","uniform","1","undefined","1","right","78","78","78","0","0","78","78","0","0","78","78","78","NA","0","78","0","Sun Oct 24 20:08:44 2021","The main experiment item","yes","Sternbergtask.osexp","/Users/mihailcodreanu/Desktop","no","mono","no","18","no","white","no","yes","768","legacy","66","11","/Users/mihailcodreanu/Desktop/MC-subject-4.csv","legacy","7 1 5 6 3","Lentiform Loewenfeld","3.3.9","0","n","0","right","right","right","right","NA","NA","981","135917","25812","981","NA","NA","2","legacy","5","1024","2","48000","-16","experiment","4","even","8","664347","653804","662134","3360","249365","662138","661081","3367","223552","666351","667333","663142","NA","139296","666351","NA","Sternberg task","60","85709","79","yes","1024"
"76.25","76.25","1086.2625","1086.2625","black","experiment","legacy","legacy","legacy","0","uniform","1","undefined","1","right","79","79","79","0","0","79","79","0","0","79","79","79","NA","0","79","0","Sun Oct 24 20:08:44 2021","The main experiment item","yes","Sternbergtask.osexp","/Users/mihailcodreanu/Desktop","no","mono","no","18","no","white","no","yes","768","legacy","67","11","/Users/mihailcodreanu/Desktop/MC-subject-4.csv","legacy","1 4 9 2 5","Lentiform Loewenfeld","3.3.9","0","n","0","right","right","right","right","NA","NA","1192","135917","25812","1192","NA","NA","2","legacy","5","1024","2","48000","-16","experiment","4","even","7","670608","667339","668394","3360","249365","668397","661081","3367","223552","672612","673805","669402","NA","139296","672612","NA","Sternberg task","61","86901","80","yes","1024"
"76.54320987654322","76.54320987654322","1081.1728395061727","1081.1728395061727","black","experiment","legacy","legacy","legacy","0","uniform","1","undefined","1","left","80","80","80","0","0","80","80","0","0","80","80","80","NA","0","80","0","Sun Oct 24 20:08:44 2021","The main experiment item","yes","Sternbergtask.osexp","/Users/mihailcodreanu/Desktop","no","mono","no","18","no","white","no","yes","768","legacy","68","11","/Users/mihailcodreanu/Desktop/MC-subject-4.csv","legacy","2 3","Lentiform Loewenfeld","3.3.9","1","y","0","left","right","right","left","NA","NA","674","135917","25812","674","NA","NA","2","legacy","2","1024","2","48000","-16","experiment","4","even","2","677079","673812","674868","3360","249365","674872","661081","3367","223552","679082","679757","675876","NA","139296","679082","NA","Sternberg task","62","87575","81","yes","1024"
"76.82926829268293","76.82926829268293","1084.5487804878048","1084.5487804878048","black","experiment","legacy","legacy","legacy","0","uniform","1","undefined","1","left","81","81","81","0","0","81","81","0","0","81","81","81","NA","0","81","0","Sun Oct 24 20:08:44 2021","The main experiment item","yes","Sternbergtask.osexp","/Users/mihailcodreanu/Desktop","no","mono","no","18","no","white","no","yes","768","legacy","69","11","/Users/mihailcodreanu/Desktop/MC-subject-4.csv","legacy","6 7 8 5","Lentiform Loewenfeld","3.3.9","3","y","0","left","right","right","left","NA","NA","1358","135917","25812","1358","NA","NA","2","legacy","4","1024","2","48000","-16","experiment","4","even","8","683033","679763","680819","3360","249365","680823","661081","3367","223552","685038","686397","681827","NA","139296","685038","NA","Sternberg task","63","88933","82","yes","1024"
"77.10843373493977","77.10843373493977","1081.987951807229","1081.987951807229","black","experiment","legacy","legacy","legacy","0","uniform","1","undefined","1","right","82","82","82","0","0","82","82","0","0","82","82","82","NA","0","82","0","Sun Oct 24 20:08:44 2021","The main experiment item","yes","Sternbergtask.osexp","/Users/mihailcodreanu/Desktop","no","mono","no","18","no","white","no","yes","768","legacy","70","11","/Users/mihailcodreanu/Desktop/MC-subject-4.csv","legacy","7 9 1 6","Lentiform Loewenfeld","3.3.9","0","n","0","right","right","right","right","NA","NA","872","135917","25812","872","NA","NA","2","legacy","4","1024","2","48000","-16","experiment","4","even","4","689672","686404","687458","3360","249365","687462","661081","3367","223552","691676","692549","688466","NA","139296","691676","NA","Sternberg task","64","89805","83","yes","1024"
"76.19047619047619","76.19047619047619","1085.095238095238","1085.095238095238","black","experiment","legacy","legacy","legacy","0","uniform","0","undefined","0","right","83","83","83","0","0","83","83","0","0","83","83","83","NA","0","83","0","Sun Oct 24 20:08:44 2021","The main experiment item","yes","Sternbergtask.osexp","/Users/mihailcodreanu/Desktop","no","mono","no","18","no","white","no","yes","768","legacy","71","11","/Users/mihailcodreanu/Desktop/MC-subject-4.csv","legacy","3 4 9 6 7 8","Lentiform Loewenfeld","3.3.9","0","n","0","left","right","right","left","NA","NA","1343","135917","25812","1343","NA","NA","2","legacy","6","1024","2","48000","-16","experiment","4","even","2","695825","692556","693611","3360","249365","693615","661081","3367","223552","697829","699173","694619","NA","139296","697829","NA","Sternberg task","64","91148","84","yes","1024"
"75.29411764705883","75.29411764705883","1086.7058823529412","1086.7058823529412","black","experiment","legacy","legacy","legacy","0","uniform","0","undefined","0","left","84","84","84","0","0","84","84","0","0","84","84","84","NA","0","84","0","Sun Oct 24 20:08:44 2021","The main experiment item","yes","Sternbergtask.osexp","/Users/mihailcodreanu/Desktop","no","mono","no","18","no","white","no","yes","768","legacy","72","11","/Users/mihailcodreanu/Desktop/MC-subject-4.csv","legacy","7 8 4 6 9 5","Lentiform Loewenfeld","3.3.9","4","y","0","right","right","right","right","NA","NA","1222","135917","25812","1222","NA","NA","2","legacy","6","1024","2","48000","-16","experiment","4","even","6","702450","692556","700236","3360","249365","700240","699180","3367","223552","704454","705677","701244","NA","139296","704454","NA","Sternberg task","64","92370","85","yes","1024"
"75.5813953488372","75.5813953488372","1092.406976744186","1092.406976744186","black","experiment","legacy","legacy","legacy","0","uniform","1","undefined","1","right","85","85","85","0","0","85","85","0","0","85","85","85","NA","0","85","0","Sun Oct 24 20:08:44 2021","The main experiment item","yes","Sternbergtask.osexp","/Users/mihailcodreanu/Desktop","no","mono","no","18","no","white","no","yes","768","legacy","73","11","/Users/mihailcodreanu/Desktop/MC-subject-4.csv","legacy","7 1","Lentiform Loewenfeld","3.3.9","0","n","0","right","right","right","right","NA","NA","1577","135917","25812","1577","NA","NA","2","legacy","2","1024","2","48000","-16","experiment","4","even","8","708951","692556","706737","3360","249365","706741","705683","3367","223552","710955","712533","707745","NA","139296","710955","NA","Sternberg task","65","93947","86","yes","1024"
"75.86206896551724","75.86206896551724","1091.528735632184","1091.528735632184","black","experiment","legacy","legacy","legacy","0","uniform","1","undefined","1","left","86","86","86","0","0","86","86","0","0","86","86","86","NA","0","86","0","Sun Oct 24 20:08:44 2021","The main experiment item","yes","Sternbergtask.osexp","/Users/mihailcodreanu/Desktop","no","mono","no","18","no","white","no","yes","768","legacy","74","11","/Users/mihailcodreanu/Desktop/MC-subject-4.csv","legacy","5 7 3 6 2","Lentiform Loewenfeld","3.3.9","5","y","0","left","right","right","left","NA","NA","1016","135917","25812","1016","NA","NA","2","legacy","5","1024","2","48000","-16","experiment","4","even","2","715808","712539","713594","3360","249365","713598","705683","3367","223552","717812","718829","714602","NA","139296","717812","NA","Sternberg task","66","94963","87","yes","1024"
"76.13636363636364","76.13636363636364","1088.9772727272727","1088.9772727272727","black","experiment","legacy","legacy","legacy","0","uniform","1","undefined","1","left","87","87","87","0","0","87","87","0","0","87","87","87","NA","0","87","0","Sun Oct 24 20:08:44 2021","The main experiment item","yes","Sternbergtask.osexp","/Users/mihailcodreanu/Desktop","no","mono","no","18","no","white","no","yes","768","legacy","75","11","/Users/mihailcodreanu/Desktop/MC-subject-4.csv","legacy","8 3","Lentiform Loewenfeld","3.3.9","2","y","0","left","right","right","left","NA","NA","867","135917","25812","867","NA","NA","2","legacy","2","1024","2","48000","-16","experiment","4","even","3","722109","718836","719895","3360","249365","719899","705683","3367","223552","724113","724981","720903","NA","139296","724113","NA","Sternberg task","67","95830","88","yes","1024"
"75.28089887640449","75.28089887640449","1096.5393258426966","1096.5393258426966","black","experiment","legacy","legacy","legacy","0","uniform","0","undefined","0","left","88","88","88","0","0","88","88","0","0","88","88","88","NA","0","88","0","Sun Oct 24 20:08:44 2021","The main experiment item","yes","Sternbergtask.osexp","/Users/mihailcodreanu/Desktop","no","mono","no","18","no","white","no","yes","768","legacy","76","11","/Users/mihailcodreanu/Desktop/MC-subject-4.csv","legacy","3 9 7 6 4","Lentiform Loewenfeld","3.3.9","3","y","0","right","right","right","right","NA","NA","1762","135917","25812","1762","NA","NA","2","legacy","5","1024","2","48000","-16","experiment","4","even","7","728254","724987","726042","3360","249365","726045","705683","3367","223552","730258","732021","727049","NA","139296","730258","NA","Sternberg task","67","97592","89","yes","1024"
"74.44444444444444","74.44444444444444","1096.1","1096.1","black","experiment","legacy","legacy","legacy","0","uniform","0","undefined","0","right","89","89","89","0","0","89","89","0","0","89","89","89","NA","0","89","0","Sun Oct 24 20:08:44 2021","The main experiment item","yes","Sternbergtask.osexp","/Users/mihailcodreanu/Desktop","no","mono","no","18","no","white","no","yes","768","legacy","77","11","/Users/mihailcodreanu/Desktop/MC-subject-4.csv","legacy","1 7 5 2","Lentiform Loewenfeld","3.3.9","0","n","0","left","right","right","left","NA","NA","1057","135917","25812","1057","NA","NA","2","legacy","4","1024","2","48000","-16","experiment","4","even","3","735295","724987","733083","3360","249365","733087","732028","3367","223552","737299","738357","734090","NA","139296","737299","NA","Sternberg task","67","98649","90","yes","1024"
"73.62637362637362","73.62637362637362","1106.032967032967","1106.032967032967","black","experiment","legacy","legacy","legacy","0","uniform","0","undefined","0","right","90","90","90","0","0","90","90","0","0","90","90","90","NA","0","90","0","Sun Oct 24 20:08:44 2021","The main experiment item","yes","Sternbergtask.osexp","/Users/mihailcodreanu/Desktop","no","mono","no","18","no","white","no","yes","768","legacy","78","11","/Users/mihailcodreanu/Desktop/MC-subject-4.csv","legacy","5 3 2 6 9 8","Lentiform Loewenfeld","3.3.9","0","n","0","None","right","right","None","NA","NA","2000","135917","25812","2000","NA","NA","2","legacy","6","1024","2","48000","-16","experiment","4","even","4","741632","724987","739418","3360","249365","739422","738364","3367","223552","743636","745636","740426","NA","139296","743636","NA","Sternberg task","67","100649","91","yes","1024"
"72.82608695652173","72.82608695652173","1115.75","1115.75","black","experiment","legacy","legacy","legacy","0","uniform","0","undefined","0","right","91","91","91","0","0","91","91","0","0","91","91","91","NA","0","91","0","Sun Oct 24 20:08:44 2021","The main experiment item","yes","Sternbergtask.osexp","/Users/mihailcodreanu/Desktop","no","mono","no","18","no","white","no","yes","768","legacy","79","11","/Users/mihailcodreanu/Desktop/MC-subject-4.csv","legacy","6 8 4","Lentiform Loewenfeld","3.3.9","0","n","0","None","right","right","None","NA","NA","2000","135917","25812","2000","NA","NA","2","legacy","3","1024","2","48000","-16","experiment","4","even","1","748909","724987","746697","3360","249365","746701","745643","3367","223552","750913","752913","747706","NA","139296","750913","NA","Sternberg task","67","102649","92","yes","1024"
"73.11827956989248","73.11827956989248","1114.8602150537633","1114.8602150537633","black","experiment","legacy","legacy","legacy","0","uniform","1","undefined","1","left","92","92","92","0","0","92","92","0","0","92","92","92","NA","0","92","0","Sun Oct 24 20:08:44 2021","The main experiment item","yes","Sternbergtask.osexp","/Users/mihailcodreanu/Desktop","no","mono","no","18","no","white","no","yes","768","legacy","80","11","/Users/mihailcodreanu/Desktop/MC-subject-4.csv","legacy","6 1 2","Lentiform Loewenfeld","3.3.9","3","y","0","left","right","right","left","NA","NA","1033","135917","25812","1033","NA","NA","2","legacy","3","1024","2","48000","-16","experiment","4","even","2","756190","724987","753976","3360","249365","753980","752920","3367","223552","758195","759229","754985","NA","139296","758195","NA","Sternberg task","68","103682","93","yes","1024"
"72.34042553191489","72.34042553191489","1112.4148936170213","1112.4148936170213","black","experiment","legacy","legacy","legacy","0","uniform","0","undefined","0","right","93","93","93","0","0","93","93","0","0","93","93","93","NA","0","93","0","Sun Oct 24 20:08:44 2021","The main experiment item","yes","Sternbergtask.osexp","/Users/mihailcodreanu/Desktop","no","mono","no","18","no","white","no","yes","768","legacy","81","11","/Users/mihailcodreanu/Desktop/MC-subject-4.csv","legacy","8 2 1 4 5 9","Lentiform Loewenfeld","3.3.9","0","n","0","left","right","right","left","NA","NA","885","135917","25812","885","NA","NA","2","legacy","6","1024","2","48000","-16","experiment","4","even","7","762507","759237","760293","3360","249365","760297","752920","3367","223552","764511","765397","761301","NA","139296","764511","NA","Sternberg task","68","104567","94","yes","1024"
"72.63157894736842","72.63157894736842","1106.2526315789473","1106.2526315789473","black","experiment","legacy","legacy","legacy","0","uniform","1","undefined","1","right","94","94","94","0","0","94","94","0","0","94","94","94","NA","0","94","0","Sun Oct 24 20:08:44 2021","The main experiment item","yes","Sternbergtask.osexp","/Users/mihailcodreanu/Desktop","no","mono","no","18","no","white","no","yes","768","legacy","82","11","/Users/mihailcodreanu/Desktop/MC-subject-4.csv","legacy","6 2 9 3 8 4","Lentiform Loewenfeld","3.3.9","0","n","0","right","right","right","right","NA","NA","527","135917","25812","527","NA","NA","2","legacy","6","1024","2","48000","-16","experiment","4","even","1","768673","759237","766459","3360","249365","766463","765403","3367","223552","770677","771205","767467","NA","139296","770677","NA","Sternberg task","69","105094","95","yes","1024"
"72.91666666666667","72.91666666666667","1111.3333333333333","1111.3333333333333","black","experiment","legacy","legacy","legacy","0","uniform","1","undefined","1","right","95","95","95","0","0","95","95","0","0","95","95","95","NA","0","95","0","Sun Oct 24 20:08:44 2021","The main experiment item","yes","Sternbergtask.osexp","/Users/mihailcodreanu/Desktop","no","mono","no","18","no","white","no","yes","768","legacy","83","11","/Users/mihailcodreanu/Desktop/MC-subject-4.csv","legacy","7 8 6 1","Lentiform Loewenfeld","3.3.9","0","n","0","right","right","right","right","NA","NA","1594","135917","25812","1594","NA","NA","2","legacy","4","1024","2","48000","-16","experiment","4","even","3","774478","771211","772265","3360","249365","772269","765403","3367","223552","776482","778077","773273","NA","139296","776482","NA","Sternberg task","70","106688","96","yes","1024"
"73.19587628865979","73.19587628865979","1109.9484536082475","1109.9484536082475","black","experiment","legacy","legacy","legacy","0","uniform","1","undefined","1","left","96","96","96","0","0","96","96","0","0","96","96","96","NA","0","96","0","Sun Oct 24 20:08:44 2021","The main experiment item","yes","Sternbergtask.osexp","/Users/mihailcodreanu/Desktop","no","mono","no","18","no","white","no","yes","768","legacy","84","11","/Users/mihailcodreanu/Desktop/MC-subject-4.csv","legacy","7 2 3","Lentiform Loewenfeld","3.3.9","3","y","0","left","right","right","left","NA","NA","977","135917","25812","977","NA","NA","2","legacy","3","1024","2","48000","-16","experiment","4","even","3","781351","778084","779137","3360","249365","779141","765403","3367","223552","783355","784333","780145","NA","139296","783355","NA","Sternberg task","71","107665","97","yes","1024"
"73.46938775510205","73.46938775510205","1106.530612244898","1106.530612244898","black","experiment","legacy","legacy","legacy","0","uniform","1","undefined","1","left","97","97","97","0","0","97","97","0","0","97","97","97","NA","0","97","0","Sun Oct 24 20:08:44 2021","The main experiment item","yes","Sternbergtask.osexp","/Users/mihailcodreanu/Desktop","no","mono","no","18","no","white","no","yes","768","legacy","85","11","/Users/mihailcodreanu/Desktop/MC-subject-4.csv","legacy","3 5 4 7","Lentiform Loewenfeld","3.3.9","1","y","0","left","right","right","left","NA","NA","775","135917","25812","775","NA","NA","2","legacy","4","1024","2","48000","-16","experiment","4","even","3","787609","784340","785396","3360","249365","785400","765403","3367","223552","789613","790389","786404","NA","139296","789613","NA","Sternberg task","72","108440","98","yes","1024"
"73.73737373737374","73.73737373737374","1109.2323232323233","1109.2323232323233","black","experiment","legacy","legacy","legacy","0","uniform","1","undefined","1","right","98","98","98","0","0","98","98","0","0","98","98","98","NA","0","98","0","Sun Oct 24 20:08:44 2021","The main experiment item","yes","Sternbergtask.osexp","/Users/mihailcodreanu/Desktop","no","mono","no","18","no","white","no","yes","768","legacy","86","11","/Users/mihailcodreanu/Desktop/MC-subject-4.csv","legacy","6 7 5 9","Lentiform Loewenfeld","3.3.9","0","n","0","right","right","right","right","NA","NA","1374","135917","25812","1374","NA","NA","2","legacy","4","1024","2","48000","-16","experiment","4","even","2","793666","790395","791452","3360","249365","791456","765403","3367","223552","795670","797045","792460","NA","139296","795669","NA","Sternberg task","73","109814","99","yes","1024"
"74","74","1114.31","1114.31","black","experiment","legacy","legacy","legacy","0","uniform","1","undefined","1","left","99","99","99","0","0","99","99","0","0","99","99","99","NA","0","99","0","Sun Oct 24 20:08:44 2021","The main experiment item","yes","Sternbergtask.osexp","/Users/mihailcodreanu/Desktop","no","mono","no","18","no","white","no","yes","768","legacy","87","11","/Users/mihailcodreanu/Desktop/MC-subject-4.csv","legacy","9 5 3 8 4","Lentiform Loewenfeld","3.3.9","1","y","0","left","right","right","left","NA","NA","1617","135917","25812","1617","NA","NA","2","legacy","5","1024","2","48000","-16","experiment","4","even","9","800319","797051","798105","3360","249365","798109","765403","3367","223552","802323","803941","799113","NA","139296","802323","NA","Sternberg task","74","111431","100","yes","1024"
"73.26732673267327","73.26732673267327","1123.079207920792","1123.079207920792","black","experiment","legacy","legacy","legacy","0","uniform","0","undefined","0","right","100","100","100","0","0","100","100","0","0","100","100","100","NA","0","100","0","Sun Oct 24 20:08:44 2021","The main experiment item","yes","Sternbergtask.osexp","/Users/mihailcodreanu/Desktop","no","mono","no","18","no","white","no","yes","768","legacy","88","11","/Users/mihailcodreanu/Desktop/MC-subject-4.csv","legacy","4 1","Lentiform Loewenfeld","3.3.9","0","n","0","None","right","right","None","NA","NA","2000","135917","25812","2000","NA","NA","2","legacy","2","1024","2","48000","-16","experiment","4","even","6","807218","803948","805004","3360","249365","805008","765403","3367","223552","809222","811222","806012","NA","139296","809222","NA","Sternberg task","74","113431","101","yes","1024"
"73.52941176470588","73.52941176470588","1129.450980392157","1129.450980392157","black","experiment","legacy","legacy","legacy","0","uniform","1","undefined","1","left","101","101","101","0","0","101","101","0","0","101","101","101","NA","0","101","0","Sun Oct 24 20:08:44 2021","The main experiment item","yes","Sternbergtask.osexp","/Users/mihailcodreanu/Desktop","no","mono","no","18","no","white","no","yes","768","legacy","89","11","/Users/mihailcodreanu/Desktop/MC-subject-4.csv","legacy","8 5 3 7 4 6","Lentiform Loewenfeld","3.3.9","6","y","0","left","right","right","left","NA","NA","1773","135917","25812","1773","NA","NA","2","legacy","6","1024","2","48000","-16","experiment","4","even","6","814499","803948","812286","3360","249365","812290","811230","3367","223552","816503","818277","813294","NA","139296","816503","NA","Sternberg task","75","115204","102","yes","1024"
"73.7864077669903","73.7864077669903","1126.3106796116506","1126.3106796116506","black","experiment","legacy","legacy","legacy","0","uniform","1","undefined","1","right","102","102","102","0","0","102","102","0","0","102","102","102","NA","0","102","0","Sun Oct 24 20:08:44 2021","The main experiment item","yes","Sternbergtask.osexp","/Users/mihailcodreanu/Desktop","no","mono","no","18","no","white","no","yes","768","legacy","90","11","/Users/mihailcodreanu/Desktop/MC-subject-4.csv","legacy","3 9 8 1 6 4","Lentiform Loewenfeld","3.3.9","0","n","0","right","right","right","right","NA","NA","806","135917","25812","806","NA","NA","2","legacy","6","1024","2","48000","-16","experiment","4","even","7","821554","818285","819340","3360","249365","819344","811230","3367","223552","823558","824365","820348","NA","139296","823558","NA","Sternberg task","76","116010","103","yes","1024"
"74.03846153846153","74.03846153846153","1122.4134615384614","1122.4134615384614","black","experiment","legacy","legacy","legacy","0","uniform","1","undefined","1","right","103","103","103","0","0","103","103","0","0","103","103","103","NA","0","103","0","Sun Oct 24 20:08:44 2021","The main experiment item","yes","Sternbergtask.osexp","/Users/mihailcodreanu/Desktop","no","mono","no","18","no","white","no","yes","768","legacy","91","11","/Users/mihailcodreanu/Desktop/MC-subject-4.csv","legacy","5","Lentiform Loewenfeld","3.3.9","0","n","0","right","right","right","right","NA","NA","721","135917","25812","721","NA","NA","2","legacy","1","1024","2","48000","-16","experiment","4","even","8","827639","824372","825425","3360","249365","825429","811230","3367","223552","829643","830365","826433","NA","139296","829643","NA","Sternberg task","77","116731","104","yes","1024"
"74.28571428571429","74.28571428571429","1128.647619047619","1128.647619047619","black","experiment","legacy","legacy","legacy","0","uniform","1","undefined","1","left","104","104","104","0","0","104","104","0","0","104","104","104","NA","0","104","0","Sun Oct 24 20:08:44 2021","The main experiment item","yes","Sternbergtask.osexp","/Users/mihailcodreanu/Desktop","no","mono","no","18","no","white","no","yes","768","legacy","92","11","/Users/mihailcodreanu/Desktop/MC-subject-4.csv","legacy","8 5 4 7 3 1","Lentiform Loewenfeld","3.3.9","2","y","0","left","right","right","left","NA","NA","1777","135917","25812","1777","NA","NA","2","legacy","6","1024","2","48000","-16","experiment","4","even","5","833639","830372","831426","3360","249365","831430","811230","3367","223552","835643","837421","832434","NA","139296","835643","NA","Sternberg task","78","118508","105","yes","1024"
"73.58490566037736","73.58490566037736","1132.122641509434","1132.122641509434","black","experiment","legacy","legacy","legacy","0","uniform","0","undefined","0","left","105","105","105","0","0","105","105","0","0","105","105","105","NA","0","105","0","Sun Oct 24 20:08:44 2021","The main experiment item","yes","Sternbergtask.osexp","/Users/mihailcodreanu/Desktop","no","mono","no","18","no","white","no","yes","768","legacy","93","11","/Users/mihailcodreanu/Desktop/MC-subject-4.csv","legacy","9 4 2","Lentiform Loewenfeld","3.3.9","1","y","0","right","right","right","right","NA","NA","1497","135917","25812","1497","NA","NA","2","legacy","3","1024","2","48000","-16","experiment","4","even","9","840696","837428","838482","3360","249365","838486","811230","3367","223552","842699","844197","839490","NA","139296","842699","NA","Sternberg task","78","120005","106","yes","1024"
"73.83177570093459","73.83177570093459","1126.8317757009345","1126.8317757009345","black","experiment","legacy","legacy","legacy","0","uniform","1","undefined","1","left","106","106","106","0","0","106","106","0","0","106","106","106","NA","0","106","0","Sun Oct 24 20:08:44 2021","The main experiment item","yes","Sternbergtask.osexp","/Users/mihailcodreanu/Desktop","no","mono","no","18","no","white","no","yes","768","legacy","94","11","/Users/mihailcodreanu/Desktop/MC-subject-4.csv","legacy","7","Lentiform Loewenfeld","3.3.9","1","y","0","left","right","right","left","NA","NA","566","135917","25812","566","NA","NA","2","legacy","1","1024","2","48000","-16","experiment","4","even","7","847473","837428","845259","3360","249365","845263","844205","3367","223552","849478","850045","846267","NA","139296","849478","NA","Sternberg task","79","120571","107","yes","1024"
"74.07407407407408","74.07407407407408","1126.0092592592594","1126.0092592592594","black","experiment","legacy","legacy","legacy","0","uniform","1","undefined","1","left","107","107","107","0","0","107","107","0","0","107","107","107","NA","0","107","0","Sun Oct 24 20:08:44 2021","The main experiment item","yes","Sternbergtask.osexp","/Users/mihailcodreanu/Desktop","no","mono","no","18","no","white","no","yes","768","legacy","95","11","/Users/mihailcodreanu/Desktop/MC-subject-4.csv","legacy","9 3 8 2 1 4","Lentiform Loewenfeld","3.3.9","3","y","0","left","right","right","left","NA","NA","1038","135917","25812","1038","NA","NA","2","legacy","6","1024","2","48000","-16","experiment","4","even","8","853322","850052","851108","3360","249365","851112","844205","3367","223552","855326","856365","852116","NA","139296","855326","NA","Sternberg task","80","121609","108","yes","1024"
"74.31192660550458","74.31192660550458","1133.605504587156","1133.605504587156","black","experiment","legacy","legacy","legacy","0","uniform","1","undefined","1","left","108","108","108","0","0","108","108","0","0","108","108","108","NA","0","108","0","Sun Oct 24 20:08:44 2021","The main experiment item","yes","Sternbergtask.osexp","/Users/mihailcodreanu/Desktop","no","mono","no","18","no","white","no","yes","768","legacy","96","11","/Users/mihailcodreanu/Desktop/MC-subject-4.csv","legacy","3 4 9 6 2 9","Lentiform Loewenfeld","3.3.9","5","y","0","left","right","right","left","NA","NA","1954","135917","25812","1954","NA","NA","2","legacy","6","1024","2","48000","-16","experiment","4","even","2","859638","856370","857425","3360","249365","857429","844205","3367","223552","861642","863597","858433","NA","139296","861642","NA","Sternberg task","81","123563","109","yes","1024"
"74.54545454545455","74.54545454545455","1134.0727272727272","1134.0727272727272","black","experiment","legacy","legacy","legacy","0","uniform","1","undefined","1","left","109","109","109","0","0","109","109","0","0","109","109","109","NA","0","109","0","Sun Oct 24 20:08:44 2021","The main experiment item","yes","Sternbergtask.osexp","/Users/mihailcodreanu/Desktop","no","mono","no","18","no","white","no","yes","768","legacy","97","11","/Users/mihailcodreanu/Desktop/MC-subject-4.csv","legacy","8 9 6 1","Lentiform Loewenfeld","3.3.9","2","y","0","left","right","right","left","NA","NA","1185","135917","25812","1185","NA","NA","2","legacy","4","1024","2","48000","-16","experiment","4","even","9","866871","863602","864658","3360","249365","864662","844205","3367","223552","868875","870061","865666","NA","139296","868875","NA","Sternberg task","82","124748","110","yes","1024"
"74.77477477477477","74.77477477477477","1133.054054054054","1133.054054054054","black","experiment","legacy","legacy","legacy","0","uniform","1","undefined","1","right","110","110","110","0","0","110","110","0","0","110","110","110","NA","0","110","0","Sun Oct 24 20:08:44 2021","The main experiment item","yes","Sternbergtask.osexp","/Users/mihailcodreanu/Desktop","no","mono","no","18","no","white","no","yes","768","legacy","98","11","/Users/mihailcodreanu/Desktop/MC-subject-4.csv","legacy","2 8 9","Lentiform Loewenfeld","3.3.9","0","n","0","right","right","right","right","NA","NA","1021","135917","25812","1021","NA","NA","2","legacy","3","1024","2","48000","-16","experiment","4","even","6","873330","870067","871119","3360","249365","871123","844205","3367","223552","875335","876357","872127","NA","139296","875335","NA","Sternberg task","83","125769","111","yes","1024"
"75","75","1134.1607142857142","1134.1607142857142","black","experiment","legacy","legacy","legacy","0","uniform","1","undefined","1","right","111","111","111","0","0","111","111","0","0","111","111","111","NA","0","111","0","Sun Oct 24 20:08:44 2021","The main experiment item","yes","Sternbergtask.osexp","/Users/mihailcodreanu/Desktop","no","mono","no","18","no","white","no","yes","768","legacy","99","11","/Users/mihailcodreanu/Desktop/MC-subject-4.csv","legacy","1 5 3 2 8","Lentiform Loewenfeld","3.3.9","0","n","0","right","right","right","right","NA","NA","1257","135917","25812","1257","NA","NA","2","legacy","5","1024","2","48000","-16","experiment","4","even","4","879631","876362","877417","3360","249365","877421","844205","3367","223552","881635","882893","878425","NA","139296","881635","NA","Sternberg task","84","127026","112","yes","1024"
"75.22123893805309","75.22123893805309","1134.1769911504425","1134.1769911504425","black","experiment","legacy","legacy","legacy","0","uniform","1","undefined","1","left","112","112","112","0","0","112","112","0","0","112","112","112","NA","0","112","0","Sun Oct 24 20:08:44 2021","The main experiment item","yes","Sternbergtask.osexp","/Users/mihailcodreanu/Desktop","no","mono","no","18","no","white","no","yes","768","legacy","100","11","/Users/mihailcodreanu/Desktop/MC-subject-4.csv","legacy","2 3 7 4","Lentiform Loewenfeld","3.3.9","1","y","0","left","right","right","left","NA","NA","1136","135917","25812","1136","NA","NA","2","legacy","4","1024","2","48000","-16","experiment","4","even","2","886168","882900","883954","3360","249365","883958","844205","3367","223552","888172","889309","884962","NA","139296","888172","NA","Sternberg task","85","128162","113","yes","1024"
"75.43859649122807","75.43859649122807","1133.6929824561403","1133.6929824561403","black","experiment","legacy","legacy","legacy","0","uniform","1","undefined","1","right","113","113","113","0","0","113","113","0","0","113","113","113","NA","0","113","0","Sun Oct 24 20:08:44 2021","The main experiment item","yes","Sternbergtask.osexp","/Users/mihailcodreanu/Desktop","no","mono","no","18","no","white","no","yes","768","legacy","101","11","/Users/mihailcodreanu/Desktop/MC-subject-4.csv","legacy","5 2","Lentiform Loewenfeld","3.3.9","0","n","0","right","right","right","right","NA","NA","1079","135917","25812","1079","NA","NA","2","legacy","2","1024","2","48000","-16","experiment","4","even","7","892585","889316","890371","3360","249365","890375","844205","3367","223552","894589","895669","891379","NA","139296","894589","NA","Sternberg task","86","129241","114","yes","1024"
