"acc","accuracy","average_response_time","avg_rt","background","block","canvas_backend","clock_backend","color_backend","correct","correct_Instruction1","correct_keyboard_response","correct_response","count_CorrectFeedback","count_Fixation","count_ISI","count_IncorrectFeedback","count_Instruction1","count_Instructions2","count_MemorySet","count_Probe","count_ThankYou","count_expSequence","count_experiment","count_experimentLoop","count_keyboard_response","count_logger","count_practiceLoop","datetime","description","disable_garbage_collection","experiment_file","experiment_path","font_bold","font_family","font_italic","font_size","font_underline","foreground","form_clicks","fullscreen","height","keyboard_backend","live_row","live_row_practiceLoop","logfile","mouse_backend","numberSet","opensesame_codename","opensesame_version","posInSet","present","repeat_cycle","response","response_Instruction1","response_Instructions2","response_ThankYou","response_keyboard_response","response_time","response_time_Instruction1","response_time_Instructions2","response_time_ThankYou","response_time_keyboard_response","round_decimals","sampler_backend","setSize","sound_buf_size","sound_channels","sound_freq","sound_sample_size","start","subject_nr","subject_parity","target","time_CorrectFeedback","time_Fixation","time_ISI","time_IncorrectFeedback","time_Instruction1","time_Instructions2","time_MemorySet","time_Probe","time_ThankYou","time_expSequence","time_experiment","time_experimentLoop","time_keyboard_response","time_logger","time_practiceLoop","title","total_correct","total_response_time","total_responses","width"
"100","100","1106","1106","#3d3846","practice","legacy","legacy","legacy","1","undefined","1","right","0","0","0","0","0","0","0","0","0","0","0","0","0","0","0","Sun Oct 22 20:15:03 2023","The main experiment item","True","SternbergTask.osexp","C:\Users\Hannah Laskoskie\Desktop\OpenSesame SternburgTask","False","mono","False","18","no","white","no","yes","768","legacy","0","0","C:/Users/Hannah Laskoskie/Desktop/OpenSesame SternburgTask/HL-subject-2.csv","legacy","9 6 7 4 5","Melodramatic Milgram","4.0.5","0","n","0","right","right","NA","NA","right","1106.0","21201","NA","NA","1106","2","legacy","5","1024","2","48000","-16","experiment","2","even","3","NA","28369","30570","NA","4785","NA","29370","32570","NA","28367","4781","NA","32570","33677","25988","Sternberg Task","1","1106.0","1","1024"
"50","50","1149","1149","#3d3846","practice","legacy","legacy","legacy","0","undefined","0","left","1","1","1","1","0","0","1","1","0","1","0","0","1","1","0","Sun Oct 22 20:15:03 2023","The main experiment item","True","SternbergTask.osexp","C:\Users\Hannah Laskoskie\Desktop\OpenSesame SternburgTask","False","mono","False","18","no","white","no","yes","768","legacy","1","1","C:/Users/Hannah Laskoskie/Desktop/OpenSesame SternburgTask/HL-subject-2.csv","legacy","6","Melodramatic Milgram","4.0.5","1","y","0","right","right","NA","NA","right","1193.0","21201","NA","NA","1193","2","legacy","1","1024","2","48000","-16","experiment","2","even","6","33714","34748","36950","NA","4785","NA","35749","38951","NA","34747","4781","NA","38952","40146","25988","Sternberg Task","1","2299.0","2","1024"
"66","66","1056","1056","#3d3846","practice","legacy","legacy","legacy","1","undefined","1","right","2","2","2","2","0","0","2","2","0","2","0","0","2","2","0","Sun Oct 22 20:15:03 2023","The main experiment item","True","SternbergTask.osexp","C:\Users\Hannah Laskoskie\Desktop\OpenSesame SternburgTask","False","mono","False","18","no","white","no","yes","768","legacy","2","2","C:/Users/Hannah Laskoskie/Desktop/OpenSesame SternburgTask/HL-subject-2.csv","legacy","4 1 5","Melodramatic Milgram","4.0.5","0","n","0","right","right","NA","NA","right","871.0","21201","NA","NA","871","2","legacy","3","1024","2","48000","-16","experiment","2","even","2","33714","41195","43397","40149","4785","NA","42196","45398","NA","41193","4781","NA","45399","46271","25988","Sternberg Task","2","3170.0","3","1024"
"75","75","1052","1052","#3d3846","practice","legacy","legacy","legacy","1","undefined","1","left","3","3","3","3","0","0","3","3","0","3","0","0","3","3","0","Sun Oct 22 20:15:03 2023","The main experiment item","True","SternbergTask.osexp","C:\Users\Hannah Laskoskie\Desktop\OpenSesame SternburgTask","False","mono","False","18","no","white","no","yes","768","legacy","3","3","C:/Users/Hannah Laskoskie/Desktop/OpenSesame SternburgTask/HL-subject-2.csv","legacy","1 5 2 9","Melodramatic Milgram","4.0.5","2","y","0","left","right","NA","NA","left","1038.0","21201","NA","NA","1038","2","legacy","4","1024","2","48000","-16","experiment","2","even","5","46280","47328","49530","40149","4785","NA","48329","51532","NA","47326","4781","NA","51533","52572","25988","Sternberg Task","3","4208.0","4","1024"
"80","80","971","971","#3d3846","practice","legacy","legacy","legacy","1","undefined","1","left","4","4","4","4","0","0","4","4","0","4","0","0","4","4","0","Sun Oct 22 20:15:03 2023","The main experiment item","True","SternbergTask.osexp","C:\Users\Hannah Laskoskie\Desktop\OpenSesame SternburgTask","False","mono","False","18","no","white","no","yes","768","legacy","4","4","C:/Users/Hannah Laskoskie/Desktop/OpenSesame SternburgTask/HL-subject-2.csv","legacy","4 3 1 7 9 8","Melodramatic Milgram","4.0.5","1","y","0","left","right","NA","NA","left","650.0","21201","NA","NA","650","2","legacy","6","1024","2","48000","-16","experiment","2","even","4","52576","53614","55815","40149","4785","NA","54614","57815","NA","53612","4781","NA","57815","58466","25988","Sternberg Task","4","4858.0","5","1024"
"83","83","909","909","#3d3846","practice","legacy","legacy","legacy","1","undefined","1","left","5","5","5","5","0","0","5","5","0","5","0","0","5","5","0","Sun Oct 22 20:15:03 2023","The main experiment item","True","SternbergTask.osexp","C:\Users\Hannah Laskoskie\Desktop\OpenSesame SternburgTask","False","mono","False","18","no","white","no","yes","768","legacy","5","5","C:/Users/Hannah Laskoskie/Desktop/OpenSesame SternburgTask/HL-subject-2.csv","legacy","4 8","Melodramatic Milgram","4.0.5","1","y","0","left","right","NA","NA","left","597.0","21201","NA","NA","597","2","legacy","2","1024","2","48000","-16","experiment","2","even","4","58475","59525","61728","40149","4785","NA","60527","63729","NA","59524","4781","NA","63729","64327","25988","Sternberg Task","5","5455.0","6","1024"
"71","71","849","849","#3d3846","practice","legacy","legacy","legacy","0","undefined","0","left","6","6","6","6","0","0","6","6","0","6","0","0","6","6","0","Sun Oct 22 20:15:03 2023","The main experiment item","True","SternbergTask.osexp","C:\Users\Hannah Laskoskie\Desktop\OpenSesame SternburgTask","False","mono","False","18","no","white","no","yes","768","legacy","6","6","C:/Users/Hannah Laskoskie/Desktop/OpenSesame SternburgTask/HL-subject-2.csv","legacy","1 7 9 8 5","Melodramatic Milgram","4.0.5","4","y","0","right","right","NA","NA","right","489.0","21201","NA","NA","489","2","legacy","5","1024","2","48000","-16","experiment","2","even","8","64331","65379","67581","40149","4785","NA","66380","69582","NA","65376","4781","NA","69582","70073","25988","Sternberg Task","5","5944.0","7","1024"
"75","75","839","839","#3d3846","practice","legacy","legacy","legacy","1","undefined","1","right","7","7","7","7","0","0","7","7","0","7","0","0","7","7","0","Sun Oct 22 20:15:03 2023","The main experiment item","True","SternbergTask.osexp","C:\Users\Hannah Laskoskie\Desktop\OpenSesame SternburgTask","False","mono","False","18","no","white","no","yes","768","legacy","7","7","C:/Users/Hannah Laskoskie/Desktop/OpenSesame SternburgTask/HL-subject-2.csv","legacy","2 1","Melodramatic Milgram","4.0.5","0","n","0","right","right","NA","NA","right","768.0","21201","NA","NA","768","2","legacy","2","1024","2","48000","-16","experiment","2","even","5","64331","71138","73340","70081","4785","NA","72139","75341","NA","71135","4781","NA","75341","76110","25988","Sternberg Task","6","6712.0","8","1024"
"77","77","798","798","#3d3846","practice","legacy","legacy","legacy","1","undefined","1","left","8","8","8","8","0","0","8","8","0","8","0","0","8","8","0","Sun Oct 22 20:15:03 2023","The main experiment item","True","SternbergTask.osexp","C:\Users\Hannah Laskoskie\Desktop\OpenSesame SternburgTask","False","mono","False","18","no","white","no","yes","768","legacy","8","8","C:/Users/Hannah Laskoskie/Desktop/OpenSesame SternburgTask/HL-subject-2.csv","legacy","2 9 4","Melodramatic Milgram","4.0.5","3","y","0","left","right","NA","NA","left","475.0","21201","NA","NA","475","2","legacy","3","1024","2","48000","-16","experiment","2","even","4","76119","77163","79365","70081","4785","NA","78164","81366","NA","77161","4781","NA","81366","81841","25988","Sternberg Task","7","7187.0","9","1024"
"80","80","773","773","#3d3846","practice","legacy","legacy","legacy","1","undefined","1","right","9","9","9","9","0","0","9","9","0","9","0","0","9","9","0","Sun Oct 22 20:15:03 2023","The main experiment item","True","SternbergTask.osexp","C:\Users\Hannah Laskoskie\Desktop\OpenSesame SternburgTask","False","mono","False","18","no","white","no","yes","768","legacy","9","9","C:/Users/Hannah Laskoskie/Desktop/OpenSesame SternburgTask/HL-subject-2.csv","legacy","3 1 9 4","Melodramatic Milgram","4.0.5","0","n","0","right","right","NA","NA","right","545.0","21201","NA","NA","545","2","legacy","4","1024","2","48000","-16","experiment","2","even","6","81850","82893","85095","70081","4785","NA","83894","87096","NA","82892","4781","NA","87096","87642","25988","Sternberg Task","8","7732.0","10","1024"
"81","81","738","738","#3d3846","practice","legacy","legacy","legacy","1","undefined","1","right","10","10","10","10","0","0","10","10","0","10","0","0","10","10","0","Sun Oct 22 20:15:03 2023","The main experiment item","True","SternbergTask.osexp","C:\Users\Hannah Laskoskie\Desktop\OpenSesame SternburgTask","False","mono","False","18","no","white","no","yes","768","legacy","10","10","C:/Users/Hannah Laskoskie/Desktop/OpenSesame SternburgTask/HL-subject-2.csv","legacy","5","Melodramatic Milgram","4.0.5","0","n","0","right","right","NA","NA","right","395.0","21201","NA","NA","395","2","legacy","1","1024","2","48000","-16","experiment","2","even","3","87645","88688","90890","70081","4785","NA","89689","92891","NA","88685","4781","NA","92891","93287","25988","Sternberg Task","9","8127.0","11","1024"
"83","83","719","719","#3d3846","practice","legacy","legacy","legacy","1","undefined","1","right","11","11","11","11","0","0","11","11","0","11","0","0","11","11","0","Sun Oct 22 20:15:03 2023","The main experiment item","True","SternbergTask.osexp","C:\Users\Hannah Laskoskie\Desktop\OpenSesame SternburgTask","False","mono","False","18","no","white","no","yes","768","legacy","11","11","C:/Users/Hannah Laskoskie/Desktop/OpenSesame SternburgTask/HL-subject-2.csv","legacy","5 7 8 4 1 2","Melodramatic Milgram","4.0.5","0","n","0","right","right","NA","NA","right","509.0","21201","NA","NA","509","2","legacy","6","1024","2","48000","-16","experiment","2","even","6","93296","94340","96542","70081","4785","NA","95341","98543","NA","94338","4781","NA","98543","99053","25988","Sternberg Task","10","8636.0","12","1024"
"84","84","701","701","#3d3846","experiment","legacy","legacy","legacy","1","undefined","1","left","12","12","12","12","0","0","12","12","0","12","0","0","12","12","0","Sun Oct 22 20:15:03 2023","The main experiment item","True","SternbergTask.osexp","C:\Users\Hannah Laskoskie\Desktop\OpenSesame SternburgTask","False","mono","False","18","no","white","no","yes","768","legacy","0","11","C:/Users/Hannah Laskoskie/Desktop/OpenSesame SternburgTask/HL-subject-2.csv","legacy","9 1 7 2","Melodramatic Milgram","4.0.5","2","y","0","left","right","right","NA","left","480.0","21201","3719","NA","480","2","legacy","4","1024","2","48000","-16","experiment","2","even","1","99062","103898","106100","70081","4785","100064","104899","108101","NA","103897","4781","103783","108101","108582","25988","Sternberg Task","11","9116.0","13","1024"
"85","85","688","688","#3d3846","experiment","legacy","legacy","legacy","1","undefined","1","right","13","13","13","13","0","0","13","13","0","13","0","0","13","13","0","Sun Oct 22 20:15:03 2023","The main experiment item","True","SternbergTask.osexp","C:\Users\Hannah Laskoskie\Desktop\OpenSesame SternburgTask","False","mono","False","18","no","white","no","yes","768","legacy","1","11","C:/Users/Hannah Laskoskie/Desktop/OpenSesame SternburgTask/HL-subject-2.csv","legacy","7 6 4 8 1 2","Melodramatic Milgram","4.0.5","0","n","0","right","right","right","NA","right","523.0","21201","3719","NA","523","2","legacy","6","1024","2","48000","-16","experiment","2","even","9","108591","109636","111838","70081","4785","100064","110637","113840","NA","109634","4781","103783","113840","114364","25988","Sternberg Task","12","9639.0","14","1024"
"80","80","684","684","#3d3846","experiment","legacy","legacy","legacy","0","undefined","0","left","14","14","14","14","0","0","14","14","0","14","0","0","14","14","0","Sun Oct 22 20:15:03 2023","The main experiment item","True","SternbergTask.osexp","C:\Users\Hannah Laskoskie\Desktop\OpenSesame SternburgTask","False","mono","False","18","no","white","no","yes","768","legacy","2","11","C:/Users/Hannah Laskoskie/Desktop/OpenSesame SternburgTask/HL-subject-2.csv","legacy","4 7 6 8 2 3","Melodramatic Milgram","4.0.5","6","y","0","right","right","right","NA","right","631.0","21201","3719","NA","631","2","legacy","6","1024","2","48000","-16","experiment","2","even","3","114367","115410","117612","70081","4785","100064","116411","119613","NA","115408","4781","103783","119613","120245","25988","Sternberg Task","12","10270.0","15","1024"
"81","81","679","679","#3d3846","experiment","legacy","legacy","legacy","1","undefined","1","right","15","15","15","15","0","0","15","15","0","15","0","0","15","15","0","Sun Oct 22 20:15:03 2023","The main experiment item","True","SternbergTask.osexp","C:\Users\Hannah Laskoskie\Desktop\OpenSesame SternburgTask","False","mono","False","18","no","white","no","yes","768","legacy","3","11","C:/Users/Hannah Laskoskie/Desktop/OpenSesame SternburgTask/HL-subject-2.csv","legacy","2 8 9 4 1","Melodramatic Milgram","4.0.5","0","n","0","right","right","right","NA","right","599.0","21201","3719","NA","599","2","legacy","5","1024","2","48000","-16","experiment","2","even","5","114367","121300","123502","120254","4785","100064","122301","125503","NA","121298","4781","103783","125503","126103","25988","Sternberg Task","13","10869.0","16","1024"
"82","82","685","685","#3d3846","experiment","legacy","legacy","legacy","1","undefined","1","right","16","16","16","16","0","0","16","16","0","16","0","0","16","16","0","Sun Oct 22 20:15:03 2023","The main experiment item","True","SternbergTask.osexp","C:\Users\Hannah Laskoskie\Desktop\OpenSesame SternburgTask","False","mono","False","18","no","white","no","yes","768","legacy","4","11","C:/Users/Hannah Laskoskie/Desktop/OpenSesame SternburgTask/HL-subject-2.csv","legacy","4 8 1 2","Melodramatic Milgram","4.0.5","0","n","0","right","right","right","NA","right","789.0","21201","3719","NA","789","2","legacy","4","1024","2","48000","-16","experiment","2","even","7","126106","127158","129361","120254","4785","100064","128160","131362","NA","127156","4781","103783","131362","132152","25988","Sternberg Task","14","11658.0","17","1024"
"83","83","684","684","#3d3846","experiment","legacy","legacy","legacy","1","undefined","1","right","17","17","17","17","0","0","17","17","0","17","0","0","17","17","0","Sun Oct 22 20:15:03 2023","The main experiment item","True","SternbergTask.osexp","C:\Users\Hannah Laskoskie\Desktop\OpenSesame SternburgTask","False","mono","False","18","no","white","no","yes","768","legacy","5","11","C:/Users/Hannah Laskoskie/Desktop/OpenSesame SternburgTask/HL-subject-2.csv","legacy","1 6 4","Melodramatic Milgram","4.0.5","0","n","0","right","right","right","NA","right","655.0","21201","3719","NA","655","2","legacy","3","1024","2","48000","-16","experiment","2","even","7","132161","133203","135405","120254","4785","100064","134204","137406","NA","133201","4781","103783","137406","138061","25988","Sternberg Task","15","12313.0","18","1024"
"84","84","675","675","#3d3846","experiment","legacy","legacy","legacy","1","undefined","1","right","18","18","18","18","0","0","18","18","0","18","0","0","18","18","0","Sun Oct 22 20:15:03 2023","The main experiment item","True","SternbergTask.osexp","C:\Users\Hannah Laskoskie\Desktop\OpenSesame SternburgTask","False","mono","False","18","no","white","no","yes","768","legacy","6","11","C:/Users/Hannah Laskoskie/Desktop/OpenSesame SternburgTask/HL-subject-2.csv","legacy","1","Melodramatic Milgram","4.0.5","0","n","0","right","right","right","NA","right","519.0","21201","3719","NA","519","2","legacy","1","1024","2","48000","-16","experiment","2","even","7","138071","139117","141319","120254","4785","100064","140118","143320","NA","139115","4781","103783","143320","143840","25988","Sternberg Task","16","12832.0","19","1024"
"85","85","684","684","#3d3846","experiment","legacy","legacy","legacy","1","undefined","1","right","19","19","19","19","0","0","19","19","0","19","0","0","19","19","0","Sun Oct 22 20:15:03 2023","The main experiment item","True","SternbergTask.osexp","C:\Users\Hannah Laskoskie\Desktop\OpenSesame SternburgTask","False","mono","False","18","no","white","no","yes","768","legacy","7","11","C:/Users/Hannah Laskoskie/Desktop/OpenSesame SternburgTask/HL-subject-2.csv","legacy","1 6 4 3 9 7","Melodramatic Milgram","4.0.5","0","n","0","right","right","right","NA","right","860.0","21201","3719","NA","860","2","legacy","6","1024","2","48000","-16","experiment","2","even","8","143843","144890","147092","120254","4785","100064","145891","149093","NA","144888","4781","103783","149093","149954","25988","Sternberg Task","17","13692.0","20","1024"
"85","85","682","682","#3d3846","experiment","legacy","legacy","legacy","1","undefined","1","left","20","20","20","20","0","0","20","20","0","20","0","0","20","20","0","Sun Oct 22 20:15:03 2023","The main experiment item","True","SternbergTask.osexp","C:\Users\Hannah Laskoskie\Desktop\OpenSesame SternburgTask","False","mono","False","18","no","white","no","yes","768","legacy","8","11","C:/Users/Hannah Laskoskie/Desktop/OpenSesame SternburgTask/HL-subject-2.csv","legacy","2 5 4 8 7","Melodramatic Milgram","4.0.5","3","y","0","left","right","right","NA","left","642.0","21201","3719","NA","642","2","legacy","5","1024","2","48000","-16","experiment","2","even","4","149956","151002","153204","120254","4785","100064","152003","155205","NA","151000","4781","103783","155205","155848","25988","Sternberg Task","18","14334.0","21","1024"
"81","81","681","681","#3d3846","experiment","legacy","legacy","legacy","0","undefined","0","left","21","21","21","21","0","0","21","21","0","21","0","0","21","21","0","Sun Oct 22 20:15:03 2023","The main experiment item","True","SternbergTask.osexp","C:\Users\Hannah Laskoskie\Desktop\OpenSesame SternburgTask","False","mono","False","18","no","white","no","yes","768","legacy","9","11","C:/Users/Hannah Laskoskie/Desktop/OpenSesame SternburgTask/HL-subject-2.csv","legacy","9 3 8 2 1 4","Melodramatic Milgram","4.0.5","3","y","0","right","right","right","NA","right","661.0","21201","3719","NA","661","2","legacy","6","1024","2","48000","-16","experiment","2","even","8","155858","156902","159104","120254","4785","100064","157903","161105","NA","156900","4781","103783","161106","161768","25988","Sternberg Task","18","14995.0","22","1024"
"82","82","681","681","#3d3846","experiment","legacy","legacy","legacy","1","undefined","1","left","22","22","22","22","0","0","22","22","0","22","0","0","22","22","0","Sun Oct 22 20:15:03 2023","The main experiment item","True","SternbergTask.osexp","C:\Users\Hannah Laskoskie\Desktop\OpenSesame SternburgTask","False","mono","False","18","no","white","no","yes","768","legacy","10","11","C:/Users/Hannah Laskoskie/Desktop/OpenSesame SternburgTask/HL-subject-2.csv","legacy","5 2 9 6 1 7","Melodramatic Milgram","4.0.5","3","y","0","left","right","right","NA","left","670.0","21201","3719","NA","670","2","legacy","6","1024","2","48000","-16","experiment","2","even","9","155858","162823","165025","161777","4785","100064","163824","167026","NA","162821","4781","103783","167026","167697","25988","Sternberg Task","19","15665.0","23","1024"
"83","83","676","676","#3d3846","experiment","legacy","legacy","legacy","1","undefined","1","right","23","23","23","23","0","0","23","23","0","23","0","0","23","23","0","Sun Oct 22 20:15:03 2023","The main experiment item","True","SternbergTask.osexp","C:\Users\Hannah Laskoskie\Desktop\OpenSesame SternburgTask","False","mono","False","18","no","white","no","yes","768","legacy","11","11","C:/Users/Hannah Laskoskie/Desktop/OpenSesame SternburgTask/HL-subject-2.csv","legacy","9 5 3 2 8 6","Melodramatic Milgram","4.0.5","0","n","0","right","right","right","NA","right","571.0","21201","3719","NA","571","2","legacy","6","1024","2","48000","-16","experiment","2","even","7","167706","168767","170969","161777","4785","100064","169768","172970","NA","168765","4781","103783","172970","173542","25988","Sternberg Task","20","16236.0","24","1024"
"84","84","669","669","#3d3846","experiment","legacy","legacy","legacy","1","undefined","1","left","24","24","24","24","0","0","24","24","0","24","0","0","24","24","0","Sun Oct 22 20:15:03 2023","The main experiment item","True","SternbergTask.osexp","C:\Users\Hannah Laskoskie\Desktop\OpenSesame SternburgTask","False","mono","False","18","no","white","no","yes","768","legacy","12","11","C:/Users/Hannah Laskoskie/Desktop/OpenSesame SternburgTask/HL-subject-2.csv","legacy","3 5 4 7","Melodramatic Milgram","4.0.5","1","y","0","left","right","right","NA","left","496.0","21201","3719","NA","496","2","legacy","4","1024","2","48000","-16","experiment","2","even","3","173545","174590","176792","161777","4785","100064","175591","178793","NA","174588","4781","103783","178793","179291","25988","Sternberg Task","21","16732.0","25","1024"
"84","84","669","669","#3d3846","experiment","legacy","legacy","legacy","1","undefined","1","right","25","25","25","25","0","0","25","25","0","25","0","0","25","25","0","Sun Oct 22 20:15:03 2023","The main experiment item","True","SternbergTask.osexp","C:\Users\Hannah Laskoskie\Desktop\OpenSesame SternburgTask","False","mono","False","18","no","white","no","yes","768","legacy","13","11","C:/Users/Hannah Laskoskie/Desktop/OpenSesame SternburgTask/HL-subject-2.csv","legacy","1 4 9 3","Melodramatic Milgram","4.0.5","0","n","0","right","right","right","NA","right","683.0","21201","3719","NA","683","2","legacy","4","1024","2","48000","-16","experiment","2","even","5","179300","180344","182546","161777","4785","100064","181345","184548","NA","180341","4781","103783","184548","185232","25988","Sternberg Task","22","17415.0","26","1024"
"81","81","678","678","#3d3846","experiment","legacy","legacy","legacy","0","undefined","0","left","26","26","26","26","0","0","26","26","0","26","0","0","26","26","0","Sun Oct 22 20:15:03 2023","The main experiment item","True","SternbergTask.osexp","C:\Users\Hannah Laskoskie\Desktop\OpenSesame SternburgTask","False","mono","False","18","no","white","no","yes","768","legacy","14","11","C:/Users/Hannah Laskoskie/Desktop/OpenSesame SternburgTask/HL-subject-2.csv","legacy","6 9 3 1","Melodramatic Milgram","4.0.5","4","y","0","right","right","right","NA","right","897.0","21201","3719","NA","897","2","legacy","4","1024","2","48000","-16","experiment","2","even","1","185235","186279","188481","161777","4785","100064","187280","190482","NA","186277","4781","103783","190482","191380","25988","Sternberg Task","22","18312.0","27","1024"
"82","82","673","673","#3d3846","experiment","legacy","legacy","legacy","1","undefined","1","right","27","27","27","27","0","0","27","27","0","27","0","0","27","27","0","Sun Oct 22 20:15:03 2023","The main experiment item","True","SternbergTask.osexp","C:\Users\Hannah Laskoskie\Desktop\OpenSesame SternburgTask","False","mono","False","18","no","white","no","yes","768","legacy","15","11","C:/Users/Hannah Laskoskie/Desktop/OpenSesame SternburgTask/HL-subject-2.csv","legacy","4 1","Melodramatic Milgram","4.0.5","0","n","0","right","right","right","NA","right","544.0","21201","3719","NA","544","2","legacy","2","1024","2","48000","-16","experiment","2","even","6","185235","192435","194638","191389","4785","100064","193436","196639","NA","192433","4781","103783","196639","197184","25988","Sternberg Task","23","18856.0","28","1024"
"82","82","688","688","#3d3846","experiment","legacy","legacy","legacy","1","undefined","1","left","28","28","28","28","0","0","28","28","0","28","0","0","28","28","0","Sun Oct 22 20:15:03 2023","The main experiment item","True","SternbergTask.osexp","C:\Users\Hannah Laskoskie\Desktop\OpenSesame SternburgTask","False","mono","False","18","no","white","no","yes","768","legacy","16","11","C:/Users/Hannah Laskoskie/Desktop/OpenSesame SternburgTask/HL-subject-2.csv","legacy","3 9 7 6 4","Melodramatic Milgram","4.0.5","3","y","0","left","right","right","NA","left","1124.0","21201","3719","NA","1124","2","legacy","5","1024","2","48000","-16","experiment","2","even","7","197193","198242","200444","191389","4785","100064","199243","202445","NA","198240","4781","103783","202445","203570","25988","Sternberg Task","24","19980.0","29","1024"
"83","83","682","682","#3d3846","experiment","legacy","legacy","legacy","1","undefined","1","left","29","29","29","29","0","0","29","29","0","29","0","0","29","29","0","Sun Oct 22 20:15:03 2023","The main experiment item","True","SternbergTask.osexp","C:\Users\Hannah Laskoskie\Desktop\OpenSesame SternburgTask","False","mono","False","18","no","white","no","yes","768","legacy","17","11","C:/Users/Hannah Laskoskie/Desktop/OpenSesame SternburgTask/HL-subject-2.csv","legacy","9 3 1 2 5","Melodramatic Milgram","4.0.5","4","y","0","left","right","right","NA","left","505.0","21201","3719","NA","505","2","legacy","5","1024","2","48000","-16","experiment","2","even","2","203573","204617","206819","191389","4785","100064","205618","208820","NA","204614","4781","103783","208820","209326","25988","Sternberg Task","25","20485.0","30","1024"
"83","83","675","675","#3d3846","experiment","legacy","legacy","legacy","1","undefined","1","left","30","30","30","30","0","0","30","30","0","30","0","0","30","30","0","Sun Oct 22 20:15:03 2023","The main experiment item","True","SternbergTask.osexp","C:\Users\Hannah Laskoskie\Desktop\OpenSesame SternburgTask","False","mono","False","18","no","white","no","yes","768","legacy","18","11","C:/Users/Hannah Laskoskie/Desktop/OpenSesame SternburgTask/HL-subject-2.csv","legacy","6 7 9 3 1 2","Melodramatic Milgram","4.0.5","1","y","0","left","right","right","NA","left","465.0","21201","3719","NA","465","2","legacy","6","1024","2","48000","-16","experiment","2","even","6","209330","210376","212578","191389","4785","100064","211377","214579","NA","210374","4781","103783","214579","215045","25988","Sternberg Task","26","20950.0","31","1024"
"84","84","682","682","#3d3846","experiment","legacy","legacy","legacy","1","undefined","1","right","31","31","31","31","0","0","31","31","0","31","0","0","31","31","0","Sun Oct 22 20:15:03 2023","The main experiment item","True","SternbergTask.osexp","C:\Users\Hannah Laskoskie\Desktop\OpenSesame SternburgTask","False","mono","False","18","no","white","no","yes","768","legacy","19","11","C:/Users/Hannah Laskoskie/Desktop/OpenSesame SternburgTask/HL-subject-2.csv","legacy","5 7 3","Melodramatic Milgram","4.0.5","0","n","0","right","right","right","NA","right","891.0","21201","3719","NA","891","2","legacy","3","1024","2","48000","-16","experiment","2","even","9","215054","216108","218310","191389","4785","100064","217109","220311","NA","216105","4781","103783","220311","221203","25988","Sternberg Task","27","21841.0","32","1024"
"84","84","678","678","#3d3846","experiment","legacy","legacy","legacy","1","undefined","1","left","32","32","32","32","0","0","32","32","0","32","0","0","32","32","0","Sun Oct 22 20:15:03 2023","The main experiment item","True","SternbergTask.osexp","C:\Users\Hannah Laskoskie\Desktop\OpenSesame SternburgTask","False","mono","False","18","no","white","no","yes","768","legacy","20","11","C:/Users/Hannah Laskoskie/Desktop/OpenSesame SternburgTask/HL-subject-2.csv","legacy","4 1 8 7 5","Melodramatic Milgram","4.0.5","3","y","0","left","right","right","NA","left","534.0","21201","3719","NA","534","2","legacy","5","1024","2","48000","-16","experiment","2","even","8","221211","222255","224457","191389","4785","100064","223256","226458","NA","222252","4781","103783","226458","226993","25988","Sternberg Task","28","22375.0","33","1024"
"85","85","682","682","#3d3846","experiment","legacy","legacy","legacy","1","undefined","1","left","33","33","33","33","0","0","33","33","0","33","0","0","33","33","0","Sun Oct 22 20:15:03 2023","The main experiment item","True","SternbergTask.osexp","C:\Users\Hannah Laskoskie\Desktop\OpenSesame SternburgTask","False","mono","False","18","no","white","no","yes","768","legacy","21","11","C:/Users/Hannah Laskoskie/Desktop/OpenSesame SternburgTask/HL-subject-2.csv","legacy","5 7 8 2 3 8","Melodramatic Milgram","4.0.5","5","y","0","left","right","right","NA","left","841.0","21201","3719","NA","841","2","legacy","6","1024","2","48000","-16","experiment","2","even","3","227002","228044","230246","191389","4785","100064","229045","232247","NA","228042","4781","103783","232247","233089","25988","Sternberg Task","29","23216.0","34","1024"
"82","82","720","720","#3d3846","experiment","legacy","legacy","legacy","0","undefined","0","right","34","34","34","34","0","0","34","34","0","34","0","0","34","34","0","Sun Oct 22 20:15:03 2023","The main experiment item","True","SternbergTask.osexp","C:\Users\Hannah Laskoskie\Desktop\OpenSesame SternburgTask","False","mono","False","18","no","white","no","yes","768","legacy","22","11","C:/Users/Hannah Laskoskie/Desktop/OpenSesame SternburgTask/HL-subject-2.csv","legacy","2 8 6 3 1","Melodramatic Milgram","4.0.5","0","n","0","None","right","right","NA","None","2000.0","21201","3719","NA","2000","2","legacy","5","1024","2","48000","-16","experiment","2","even","7","233092","234136","236338","191389","4785","100064","235137","238339","NA","234134","4781","103783","238339","240339","25988","Sternberg Task","29","25216.0","35","1024"
"83","83","727","727","#3d3846","experiment","legacy","legacy","legacy","1","undefined","1","right","35","35","35","35","0","0","35","35","0","35","0","0","35","35","0","Sun Oct 22 20:15:03 2023","The main experiment item","True","SternbergTask.osexp","C:\Users\Hannah Laskoskie\Desktop\OpenSesame SternburgTask","False","mono","False","18","no","white","no","yes","768","legacy","23","11","C:/Users/Hannah Laskoskie/Desktop/OpenSesame SternburgTask/HL-subject-2.csv","legacy","3 9 1","Melodramatic Milgram","4.0.5","0","n","0","right","right","right","NA","right","975.0","21201","3719","NA","975","2","legacy","3","1024","2","48000","-16","experiment","2","even","7","233092","241392","243594","240348","4785","100064","242393","245595","NA","241390","4781","103783","245595","246571","25988","Sternberg Task","30","26191.0","36","1024"
"83","83","726","726","#3d3846","experiment","legacy","legacy","legacy","1","undefined","1","right","36","36","36","36","0","0","36","36","0","36","0","0","36","36","0","Sun Oct 22 20:15:03 2023","The main experiment item","True","SternbergTask.osexp","C:\Users\Hannah Laskoskie\Desktop\OpenSesame SternburgTask","False","mono","False","18","no","white","no","yes","768","legacy","24","11","C:/Users/Hannah Laskoskie/Desktop/OpenSesame SternburgTask/HL-subject-2.csv","legacy","2 6 4 3 9","Melodramatic Milgram","4.0.5","0","n","0","right","right","right","NA","right","697.0","21201","3719","NA","697","2","legacy","5","1024","2","48000","-16","experiment","2","even","1","246580","247624","249826","240348","4785","100064","248625","251827","NA","247622","4781","103783","251827","252525","25988","Sternberg Task","31","26888.0","37","1024"
"84","84","725","725","#3d3846","experiment","legacy","legacy","legacy","1","undefined","1","right","37","37","37","37","0","0","37","37","0","37","0","0","37","37","0","Sun Oct 22 20:15:03 2023","The main experiment item","True","SternbergTask.osexp","C:\Users\Hannah Laskoskie\Desktop\OpenSesame SternburgTask","False","mono","False","18","no","white","no","yes","768","legacy","25","11","C:/Users/Hannah Laskoskie/Desktop/OpenSesame SternburgTask/HL-subject-2.csv","legacy","6 7 5 9","Melodramatic Milgram","4.0.5","0","n","0","right","right","right","NA","right","693.0","21201","3719","NA","693","2","legacy","4","1024","2","48000","-16","experiment","2","even","2","252534","253583","255785","240348","4785","100064","254584","257786","NA","253580","4781","103783","257786","258480","25988","Sternberg Task","32","27581.0","38","1024"
"84","84","724","724","#3d3846","experiment","legacy","legacy","legacy","1","undefined","1","right","38","38","38","38","0","0","38","38","0","38","0","0","38","38","0","Sun Oct 22 20:15:03 2023","The main experiment item","True","SternbergTask.osexp","C:\Users\Hannah Laskoskie\Desktop\OpenSesame SternburgTask","False","mono","False","18","no","white","no","yes","768","legacy","26","11","C:/Users/Hannah Laskoskie/Desktop/OpenSesame SternburgTask/HL-subject-2.csv","legacy","1 8 7","Melodramatic Milgram","4.0.5","0","n","0","right","right","right","NA","right","662.0","21201","3719","NA","662","2","legacy","3","1024","2","48000","-16","experiment","2","even","4","258489","259565","261767","240348","4785","100064","260566","263768","NA","259547","4781","103783","263768","264432","25988","Sternberg Task","33","28243.0","39","1024"
"85","85","717","717","#3d3846","experiment","legacy","legacy","legacy","1","undefined","1","right","39","39","39","39","0","0","39","39","0","39","0","0","39","39","0","Sun Oct 22 20:15:03 2023","The main experiment item","True","SternbergTask.osexp","C:\Users\Hannah Laskoskie\Desktop\OpenSesame SternburgTask","False","mono","False","18","no","white","no","yes","768","legacy","27","11","C:/Users/Hannah Laskoskie/Desktop/OpenSesame SternburgTask/HL-subject-2.csv","legacy","5 2","Melodramatic Milgram","4.0.5","0","n","0","right","right","right","NA","right","449.0","21201","3719","NA","449","2","legacy","2","1024","2","48000","-16","experiment","2","even","7","264441","265485","267687","240348","4785","100064","266486","269688","NA","265482","4781","103783","269688","270138","25988","Sternberg Task","34","28692.0","40","1024"
"85","85","718","718","#3d3846","experiment","legacy","legacy","legacy","1","undefined","1","left","40","40","40","40","0","0","40","40","0","40","0","0","40","40","0","Sun Oct 22 20:15:03 2023","The main experiment item","True","SternbergTask.osexp","C:\Users\Hannah Laskoskie\Desktop\OpenSesame SternburgTask","False","mono","False","18","no","white","no","yes","768","legacy","28","11","C:/Users/Hannah Laskoskie/Desktop/OpenSesame SternburgTask/HL-subject-2.csv","legacy","3 2 1 4 7","Melodramatic Milgram","4.0.5","2","y","0","left","right","right","NA","left","780.0","21201","3719","NA","780","2","legacy","5","1024","2","48000","-16","experiment","2","even","2","270140","271184","273386","240348","4785","100064","272185","275387","NA","271182","4781","103783","275387","276168","25988","Sternberg Task","35","29472.0","41","1024"
"85","85","718","718","#3d3846","experiment","legacy","legacy","legacy","1","undefined","1","left","41","41","41","41","0","0","41","41","0","41","0","0","41","41","0","Sun Oct 22 20:15:03 2023","The main experiment item","True","SternbergTask.osexp","C:\Users\Hannah Laskoskie\Desktop\OpenSesame SternburgTask","False","mono","False","18","no","white","no","yes","768","legacy","29","11","C:/Users/Hannah Laskoskie/Desktop/OpenSesame SternburgTask/HL-subject-2.csv","legacy","7 6","Melodramatic Milgram","4.0.5","2","y","0","left","right","right","NA","left","705.0","21201","3719","NA","705","2","legacy","2","1024","2","48000","-16","experiment","2","even","6","276177","277221","279423","240348","4785","100064","278222","281424","NA","277219","4781","103783","281424","282130","25988","Sternberg Task","36","30177.0","42","1024"
"86","86","716","716","#3d3846","experiment","legacy","legacy","legacy","1","undefined","1","left","42","42","42","42","0","0","42","42","0","42","0","0","42","42","0","Sun Oct 22 20:15:03 2023","The main experiment item","True","SternbergTask.osexp","C:\Users\Hannah Laskoskie\Desktop\OpenSesame SternburgTask","False","mono","False","18","no","white","no","yes","768","legacy","30","11","C:/Users/Hannah Laskoskie/Desktop/OpenSesame SternburgTask/HL-subject-2.csv","legacy","8 9 5 7 1 6","Melodramatic Milgram","4.0.5","4","y","0","left","right","right","NA","left","620.0","21201","3719","NA","620","2","legacy","6","1024","2","48000","-16","experiment","2","even","7","282139","283184","285386","240348","4785","100064","284185","287387","NA","283182","4781","103783","287387","288008","25988","Sternberg Task","37","30797.0","43","1024"
"86","86","717","717","#3d3846","experiment","legacy","legacy","legacy","1","undefined","1","right","43","43","43","43","0","0","43","43","0","43","0","0","43","43","0","Sun Oct 22 20:15:03 2023","The main experiment item","True","SternbergTask.osexp","C:\Users\Hannah Laskoskie\Desktop\OpenSesame SternburgTask","False","mono","False","18","no","white","no","yes","768","legacy","31","11","C:/Users/Hannah Laskoskie/Desktop/OpenSesame SternburgTask/HL-subject-2.csv","legacy","7 3 2 8","Melodramatic Milgram","4.0.5","0","n","0","right","right","right","NA","right","769.0","21201","3719","NA","769","2","legacy","4","1024","2","48000","-16","experiment","2","even","4","288017","289060","291262","240348","4785","100064","290061","293263","NA","289058","4781","103783","293263","294034","25988","Sternberg Task","38","31566.0","44","1024"
"86","86","716","716","#3d3846","experiment","legacy","legacy","legacy","1","undefined","1","left","44","44","44","44","0","0","44","44","0","44","0","0","44","44","0","Sun Oct 22 20:15:03 2023","The main experiment item","True","SternbergTask.osexp","C:\Users\Hannah Laskoskie\Desktop\OpenSesame SternburgTask","False","mono","False","18","no","white","no","yes","768","legacy","32","11","C:/Users/Hannah Laskoskie/Desktop/OpenSesame SternburgTask/HL-subject-2.csv","legacy","4 6 2 5 1","Melodramatic Milgram","4.0.5","5","y","0","left","right","right","NA","left","687.0","21201","3719","NA","687","2","legacy","5","1024","2","48000","-16","experiment","2","even","1","294037","295078","297280","240348","4785","100064","296079","299282","NA","295077","4781","103783","299282","299970","25988","Sternberg Task","39","32253.0","45","1024"
"86","86","716","716","#3d3846","experiment","legacy","legacy","legacy","1","undefined","1","right","45","45","45","45","0","0","45","45","0","45","0","0","45","45","0","Sun Oct 22 20:15:03 2023","The main experiment item","True","SternbergTask.osexp","C:\Users\Hannah Laskoskie\Desktop\OpenSesame SternburgTask","False","mono","False","18","no","white","no","yes","768","legacy","33","11","C:/Users/Hannah Laskoskie/Desktop/OpenSesame SternburgTask/HL-subject-2.csv","legacy","4 2 6 9","Melodramatic Milgram","4.0.5","0","n","0","right","right","right","NA","right","687.0","21201","3719","NA","687","2","legacy","4","1024","2","48000","-16","experiment","2","even","7","299979","301034","303236","240348","4785","100064","302035","305237","NA","301032","4781","103783","305237","305926","25988","Sternberg Task","40","32940.0","46","1024"
"87","87","713","713","#3d3846","experiment","legacy","legacy","legacy","1","undefined","1","left","46","46","46","46","0","0","46","46","0","46","0","0","46","46","0","Sun Oct 22 20:15:03 2023","The main experiment item","True","SternbergTask.osexp","C:\Users\Hannah Laskoskie\Desktop\OpenSesame SternburgTask","False","mono","False","18","no","white","no","yes","768","legacy","34","11","C:/Users/Hannah Laskoskie/Desktop/OpenSesame SternburgTask/HL-subject-2.csv","legacy","9 4 2","Melodramatic Milgram","4.0.5","1","y","0","left","right","right","NA","left","584.0","21201","3719","NA","584","2","legacy","3","1024","2","48000","-16","experiment","2","even","9","305935","306997","309200","240348","4785","100064","307999","311201","NA","306995","4781","103783","311201","311787","25988","Sternberg Task","41","33524.0","47","1024"
"87","87","709","709","#3d3846","experiment","legacy","legacy","legacy","1","undefined","1","right","47","47","47","47","0","0","47","47","0","47","0","0","47","47","0","Sun Oct 22 20:15:03 2023","The main experiment item","True","SternbergTask.osexp","C:\Users\Hannah Laskoskie\Desktop\OpenSesame SternburgTask","False","mono","False","18","no","white","no","yes","768","legacy","35","11","C:/Users/Hannah Laskoskie/Desktop/OpenSesame SternburgTask/HL-subject-2.csv","legacy","6 2 9 3 8 4","Melodramatic Milgram","4.0.5","0","n","0","right","right","right","NA","right","543.0","21201","3719","NA","543","2","legacy","6","1024","2","48000","-16","experiment","2","even","1","311795","312842","315044","240348","4785","100064","313843","317045","NA","312840","4781","103783","317045","317589","25988","Sternberg Task","42","34067.0","48","1024"
"87","87","711","711","#3d3846","experiment","legacy","legacy","legacy","1","undefined","1","right","48","48","48","48","0","0","48","48","0","48","0","0","48","48","0","Sun Oct 22 20:15:03 2023","The main experiment item","True","SternbergTask.osexp","C:\Users\Hannah Laskoskie\Desktop\OpenSesame SternburgTask","False","mono","False","18","no","white","no","yes","768","legacy","36","11","C:/Users/Hannah Laskoskie/Desktop/OpenSesame SternburgTask/HL-subject-2.csv","legacy","1 7 5 2","Melodramatic Milgram","4.0.5","0","n","0","right","right","right","NA","right","777.0","21201","3719","NA","777","2","legacy","4","1024","2","48000","-16","experiment","2","even","3","317598","318642","320844","240348","4785","100064","319643","322846","NA","318640","4781","103783","322846","323624","25988","Sternberg Task","43","34844.0","49","1024"
"88","88","717","717","#3d3846","experiment","legacy","legacy","legacy","1","undefined","1","right","49","49","49","49","0","0","49","49","0","49","0","0","49","49","0","Sun Oct 22 20:15:03 2023","The main experiment item","True","SternbergTask.osexp","C:\Users\Hannah Laskoskie\Desktop\OpenSesame SternburgTask","False","mono","False","18","no","white","no","yes","768","legacy","37","11","C:/Users/Hannah Laskoskie/Desktop/OpenSesame SternburgTask/HL-subject-2.csv","legacy","5 3 8 7 2 4","Melodramatic Milgram","4.0.5","0","n","0","right","right","right","NA","right","1044.0","21201","3719","NA","1044","2","legacy","6","1024","2","48000","-16","experiment","2","even","9","323633","324681","326883","240348","4785","100064","325682","328884","NA","324679","4781","103783","328884","329929","25988","Sternberg Task","44","35888.0","50","1024"
"88","88","723","723","#3d3846","experiment","legacy","legacy","legacy","1","undefined","1","left","50","50","50","50","0","0","50","50","0","50","0","0","50","50","0","Sun Oct 22 20:15:03 2023","The main experiment item","True","SternbergTask.osexp","C:\Users\Hannah Laskoskie\Desktop\OpenSesame SternburgTask","False","mono","False","18","no","white","no","yes","768","legacy","38","11","C:/Users/Hannah Laskoskie/Desktop/OpenSesame SternburgTask/HL-subject-2.csv","legacy","8 5 4 7 3 1","Melodramatic Milgram","4.0.5","2","y","0","left","right","right","NA","left","1013.0","21201","3719","NA","1013","2","legacy","6","1024","2","48000","-16","experiment","2","even","5","329939","330991","333193","240348","4785","100064","331992","335194","NA","330988","4781","103783","335194","336208","25988","Sternberg Task","45","36901.0","51","1024"
"88","88","718","718","#3d3846","experiment","legacy","legacy","legacy","1","undefined","1","left","51","51","51","51","0","0","51","51","0","51","0","0","51","51","0","Sun Oct 22 20:15:03 2023","The main experiment item","True","SternbergTask.osexp","C:\Users\Hannah Laskoskie\Desktop\OpenSesame SternburgTask","False","mono","False","18","no","white","no","yes","768","legacy","39","11","C:/Users/Hannah Laskoskie/Desktop/OpenSesame SternburgTask/HL-subject-2.csv","legacy","4 6 5 8","Melodramatic Milgram","4.0.5","1","y","0","left","right","right","NA","left","458.0","21201","3719","NA","458","2","legacy","4","1024","2","48000","-16","experiment","2","even","4","336217","337266","339469","240348","4785","100064","338267","341470","NA","337264","4781","103783","341471","341930","25988","Sternberg Task","46","37359.0","52","1024"
"88","88","716","716","#3d3846","experiment","legacy","legacy","legacy","1","undefined","1","left","52","52","52","52","0","0","52","52","0","52","0","0","52","52","0","Sun Oct 22 20:15:03 2023","The main experiment item","True","SternbergTask.osexp","C:\Users\Hannah Laskoskie\Desktop\OpenSesame SternburgTask","False","mono","False","18","no","white","no","yes","768","legacy","40","11","C:/Users/Hannah Laskoskie/Desktop/OpenSesame SternburgTask/HL-subject-2.csv","legacy","8 3","Melodramatic Milgram","4.0.5","2","y","0","left","right","right","NA","left","627.0","21201","3719","NA","627","2","legacy","2","1024","2","48000","-16","experiment","2","even","3","341939","342986","345189","240348","4785","100064","343988","347190","NA","342984","4781","103783","347190","347819","25988","Sternberg Task","47","37986.0","53","1024"
"88","88","712","712","#3d3846","experiment","legacy","legacy","legacy","1","undefined","1","left","53","53","53","53","0","0","53","53","0","53","0","0","53","53","0","Sun Oct 22 20:15:03 2023","The main experiment item","True","SternbergTask.osexp","C:\Users\Hannah Laskoskie\Desktop\OpenSesame SternburgTask","False","mono","False","18","no","white","no","yes","768","legacy","41","11","C:/Users/Hannah Laskoskie/Desktop/OpenSesame SternburgTask/HL-subject-2.csv","legacy","3 4","Melodramatic Milgram","4.0.5","1","y","0","left","right","right","NA","left","483.0","21201","3719","NA","483","2","legacy","2","1024","2","48000","-16","experiment","2","even","3","347828","348902","351105","240348","4785","100064","349903","353106","NA","348900","4781","103783","353106","353590","25988","Sternberg Task","48","38469.0","54","1024"
"89","89","713","713","#3d3846","experiment","legacy","legacy","legacy","1","undefined","1","left","54","54","54","54","0","0","54","54","0","54","0","0","54","54","0","Sun Oct 22 20:15:03 2023","The main experiment item","True","SternbergTask.osexp","C:\Users\Hannah Laskoskie\Desktop\OpenSesame SternburgTask","False","mono","False","18","no","white","no","yes","768","legacy","42","11","C:/Users/Hannah Laskoskie/Desktop/OpenSesame SternburgTask/HL-subject-2.csv","legacy","8 5 3 7 4 6","Melodramatic Milgram","4.0.5","6","y","0","left","right","right","NA","left","785.0","21201","3719","NA","785","2","legacy","6","1024","2","48000","-16","experiment","2","even","6","353599","354644","356846","240348","4785","100064","355645","358847","NA","354642","4781","103783","358847","359633","25988","Sternberg Task","49","39254.0","55","1024"
"89","89","717","717","#3d3846","experiment","legacy","legacy","legacy","1","undefined","1","left","55","55","55","55","0","0","55","55","0","55","0","0","55","55","0","Sun Oct 22 20:15:03 2023","The main experiment item","True","SternbergTask.osexp","C:\Users\Hannah Laskoskie\Desktop\OpenSesame SternburgTask","False","mono","False","18","no","white","no","yes","768","legacy","43","11","C:/Users/Hannah Laskoskie/Desktop/OpenSesame SternburgTask/HL-subject-2.csv","legacy","4 9 7 8 5 3","Melodramatic Milgram","4.0.5","4","y","0","left","right","right","NA","left","945.0","21201","3719","NA","945","2","legacy","6","1024","2","48000","-16","experiment","2","even","8","359642","360685","362887","240348","4785","100064","361686","364889","NA","360683","4781","103783","364889","365835","25988","Sternberg Task","50","40199.0","56","1024"
"89","89","718","718","#3d3846","experiment","legacy","legacy","legacy","1","undefined","1","right","56","56","56","56","0","0","56","56","0","56","0","0","56","56","0","Sun Oct 22 20:15:03 2023","The main experiment item","True","SternbergTask.osexp","C:\Users\Hannah Laskoskie\Desktop\OpenSesame SternburgTask","False","mono","False","18","no","white","no","yes","768","legacy","44","11","C:/Users/Hannah Laskoskie/Desktop/OpenSesame SternburgTask/HL-subject-2.csv","legacy","7 1 8 4 9 3","Melodramatic Milgram","4.0.5","0","n","0","right","right","right","NA","right","770.0","21201","3719","NA","770","2","legacy","6","1024","2","48000","-16","experiment","2","even","6","365844","366888","369091","240348","4785","100064","367889","371092","NA","366886","4781","103783","371092","371863","25988","Sternberg Task","51","40969.0","57","1024"
"89","89","717","717","#3d3846","experiment","legacy","legacy","legacy","1","undefined","1","right","57","57","57","57","0","0","57","57","0","57","0","0","57","57","0","Sun Oct 22 20:15:03 2023","The main experiment item","True","SternbergTask.osexp","C:\Users\Hannah Laskoskie\Desktop\OpenSesame SternburgTask","False","mono","False","18","no","white","no","yes","768","legacy","45","11","C:/Users/Hannah Laskoskie/Desktop/OpenSesame SternburgTask/HL-subject-2.csv","legacy","8 4 3 9","Melodramatic Milgram","4.0.5","0","n","0","right","right","right","NA","right","644.0","21201","3719","NA","644","2","legacy","4","1024","2","48000","-16","experiment","2","even","5","371867","372914","375116","240348","4785","100064","373915","377117","NA","372911","4781","103783","377117","377762","25988","Sternberg Task","52","41613.0","58","1024"
"89","89","719","719","#3d3846","experiment","legacy","legacy","legacy","1","undefined","1","right","58","58","58","58","0","0","58","58","0","58","0","0","58","58","0","Sun Oct 22 20:15:03 2023","The main experiment item","True","SternbergTask.osexp","C:\Users\Hannah Laskoskie\Desktop\OpenSesame SternburgTask","False","mono","False","18","no","white","no","yes","768","legacy","46","11","C:/Users/Hannah Laskoskie/Desktop/OpenSesame SternburgTask/HL-subject-2.csv","legacy","7 9 1 6","Melodramatic Milgram","4.0.5","0","n","0","right","right","right","NA","right","837.0","21201","3719","NA","837","2","legacy","4","1024","2","48000","-16","experiment","2","even","4","377771","378820","381022","240348","4785","100064","379821","383023","NA","378818","4781","103783","383023","383860","25988","Sternberg Task","53","42450.0","59","1024"
"90","90","717","717","#3d3846","experiment","legacy","legacy","legacy","1","undefined","1","right","59","59","59","59","0","0","59","59","0","59","0","0","59","59","0","Sun Oct 22 20:15:03 2023","The main experiment item","True","SternbergTask.osexp","C:\Users\Hannah Laskoskie\Desktop\OpenSesame SternburgTask","False","mono","False","18","no","white","no","yes","768","legacy","47","11","C:/Users/Hannah Laskoskie/Desktop/OpenSesame SternburgTask/HL-subject-2.csv","legacy","2 7 5","Melodramatic Milgram","4.0.5","0","n","0","right","right","right","NA","right","602.0","21201","3719","NA","602","2","legacy","3","1024","2","48000","-16","experiment","2","even","8","383870","384922","387124","240348","4785","100064","385923","389125","NA","384920","4781","103783","389125","389728","25988","Sternberg Task","54","43052.0","60","1024"
"90","90","714","714","#3d3846","experiment","legacy","legacy","legacy","1","undefined","1","right","60","60","60","60","0","0","60","60","0","60","0","0","60","60","0","Sun Oct 22 20:15:03 2023","The main experiment item","True","SternbergTask.osexp","C:\Users\Hannah Laskoskie\Desktop\OpenSesame SternburgTask","False","mono","False","18","no","white","no","yes","768","legacy","48","11","C:/Users/Hannah Laskoskie/Desktop/OpenSesame SternburgTask/HL-subject-2.csv","legacy","2 5 1 4","Melodramatic Milgram","4.0.5","0","n","0","right","right","right","NA","right","532.0","21201","3719","NA","532","2","legacy","4","1024","2","48000","-16","experiment","2","even","6","389737","390792","392994","240348","4785","100064","391793","394995","NA","390790","4781","103783","394995","395528","25988","Sternberg Task","55","43584.0","61","1024"
"90","90","710","710","#3d3846","experiment","legacy","legacy","legacy","1","undefined","1","left","61","61","61","61","0","0","61","61","0","61","0","0","61","61","0","Sun Oct 22 20:15:03 2023","The main experiment item","True","SternbergTask.osexp","C:\Users\Hannah Laskoskie\Desktop\OpenSesame SternburgTask","False","mono","False","18","no","white","no","yes","768","legacy","49","11","C:/Users/Hannah Laskoskie/Desktop/OpenSesame SternburgTask/HL-subject-2.csv","legacy","6 2","Melodramatic Milgram","4.0.5","1","y","0","left","right","right","NA","left","450.0","21201","3719","NA","450","2","legacy","2","1024","2","48000","-16","experiment","2","even","6","395537","396594","398796","240348","4785","100064","397595","400797","NA","396592","4781","103783","400797","401248","25988","Sternberg Task","56","44034.0","62","1024"
"90","90","708","708","#3d3846","experiment","legacy","legacy","legacy","1","undefined","1","left","62","62","62","62","0","0","62","62","0","62","0","0","62","62","0","Sun Oct 22 20:15:03 2023","The main experiment item","True","SternbergTask.osexp","C:\Users\Hannah Laskoskie\Desktop\OpenSesame SternburgTask","False","mono","False","18","no","white","no","yes","768","legacy","50","11","C:/Users/Hannah Laskoskie/Desktop/OpenSesame SternburgTask/HL-subject-2.csv","legacy","2 4 8 5 1 3","Melodramatic Milgram","4.0.5","1","y","0","left","right","right","NA","left","603.0","21201","3719","NA","603","2","legacy","6","1024","2","48000","-16","experiment","2","even","2","401257","402300","404502","240348","4785","100064","403301","406504","NA","402298","4781","103783","406504","407108","25988","Sternberg Task","57","44637.0","63","1024"
"90","90","704","704","#3d3846","experiment","legacy","legacy","legacy","1","undefined","1","right","63","63","63","63","0","0","63","63","0","63","0","0","63","63","0","Sun Oct 22 20:15:03 2023","The main experiment item","True","SternbergTask.osexp","C:\Users\Hannah Laskoskie\Desktop\OpenSesame SternburgTask","False","mono","False","18","no","white","no","yes","768","legacy","51","11","C:/Users/Hannah Laskoskie/Desktop/OpenSesame SternburgTask/HL-subject-2.csv","legacy","9","Melodramatic Milgram","4.0.5","0","n","0","right","right","right","NA","right","464.0","21201","3719","NA","464","2","legacy","1","1024","2","48000","-16","experiment","2","even","6","407117","408160","410362","240348","4785","100064","409161","412363","NA","408158","4781","103783","412363","412829","25988","Sternberg Task","58","45101.0","64","1024"
"90","90","706","706","#3d3846","experiment","legacy","legacy","legacy","1","undefined","1","left","64","64","64","64","0","0","64","64","0","64","0","0","64","64","0","Sun Oct 22 20:15:03 2023","The main experiment item","True","SternbergTask.osexp","C:\Users\Hannah Laskoskie\Desktop\OpenSesame SternburgTask","False","mono","False","18","no","white","no","yes","768","legacy","52","11","C:/Users/Hannah Laskoskie/Desktop/OpenSesame SternburgTask/HL-subject-2.csv","legacy","7 8 6 3 1","Melodramatic Milgram","4.0.5","5","y","0","left","right","right","NA","left","833.0","21201","3719","NA","833","2","legacy","5","1024","2","48000","-16","experiment","2","even","1","412832","413879","416081","240348","4785","100064","414880","418082","NA","413877","4781","103783","418082","418916","25988","Sternberg Task","59","45934.0","65","1024"
"90","90","722","722","#3d3846","experiment","legacy","legacy","legacy","1","undefined","1","left","65","65","65","65","0","0","65","65","0","65","0","0","65","65","0","Sun Oct 22 20:15:03 2023","The main experiment item","True","SternbergTask.osexp","C:\Users\Hannah Laskoskie\Desktop\OpenSesame SternburgTask","False","mono","False","18","no","white","no","yes","768","legacy","53","11","C:/Users/Hannah Laskoskie/Desktop/OpenSesame SternburgTask/HL-subject-2.csv","legacy","7 2 3","Melodramatic Milgram","4.0.5","3","y","0","left","right","right","NA","left","1770.0","21201","3719","NA","1770","2","legacy","3","1024","2","48000","-16","experiment","2","even","3","418925","419970","422172","240348","4785","100064","420971","424173","NA","419968","4781","103783","424173","425944","25988","Sternberg Task","60","47704.0","66","1024"
"91","91","720","720","#3d3846","experiment","legacy","legacy","legacy","1","undefined","1","right","66","66","66","66","0","0","66","66","0","66","0","0","66","66","0","Sun Oct 22 20:15:03 2023","The main experiment item","True","SternbergTask.osexp","C:\Users\Hannah Laskoskie\Desktop\OpenSesame SternburgTask","False","mono","False","18","no","white","no","yes","768","legacy","54","11","C:/Users/Hannah Laskoskie/Desktop/OpenSesame SternburgTask/HL-subject-2.csv","legacy","6 8 4","Melodramatic Milgram","4.0.5","0","n","0","right","right","right","NA","right","590.0","21201","3719","NA","590","2","legacy","3","1024","2","48000","-16","experiment","2","even","1","425953","426997","429199","240348","4785","100064","427998","431200","NA","426995","4781","103783","431200","431792","25988","Sternberg Task","61","48294.0","67","1024"
"91","91","734","734","#3d3846","experiment","legacy","legacy","legacy","1","undefined","1","left","67","67","67","67","0","0","67","67","0","67","0","0","67","67","0","Sun Oct 22 20:15:03 2023","The main experiment item","True","SternbergTask.osexp","C:\Users\Hannah Laskoskie\Desktop\OpenSesame SternburgTask","False","mono","False","18","no","white","no","yes","768","legacy","55","11","C:/Users/Hannah Laskoskie/Desktop/OpenSesame SternburgTask/HL-subject-2.csv","legacy","7 1 3","Melodramatic Milgram","4.0.5","2","y","0","left","right","right","NA","left","1657.0","21201","3719","NA","1657","2","legacy","3","1024","2","48000","-16","experiment","2","even","1","431795","432841","435043","240348","4785","100064","433842","437045","NA","432839","4781","103783","437045","438703","25988","Sternberg Task","62","49951.0","68","1024"
"91","91","732","732","#3d3846","experiment","legacy","legacy","legacy","1","undefined","1","right","68","68","68","68","0","0","68","68","0","68","0","0","68","68","0","Sun Oct 22 20:15:03 2023","The main experiment item","True","SternbergTask.osexp","C:\Users\Hannah Laskoskie\Desktop\OpenSesame SternburgTask","False","mono","False","18","no","white","no","yes","768","legacy","56","11","C:/Users/Hannah Laskoskie/Desktop/OpenSesame SternburgTask/HL-subject-2.csv","legacy","4 2 7 6 1 3","Melodramatic Milgram","4.0.5","0","n","0","right","right","right","NA","right","588.0","21201","3719","NA","588","2","legacy","6","1024","2","48000","-16","experiment","2","even","8","438707","439767","441969","240348","4785","100064","440768","443970","NA","439765","4781","103783","443971","444560","25988","Sternberg Task","63","50539.0","69","1024"
"90","90","733","733","#3d3846","experiment","legacy","legacy","legacy","0","undefined","0","left","69","69","69","69","0","0","69","69","0","69","0","0","69","69","0","Sun Oct 22 20:15:03 2023","The main experiment item","True","SternbergTask.osexp","C:\Users\Hannah Laskoskie\Desktop\OpenSesame SternburgTask","False","mono","False","18","no","white","no","yes","768","legacy","57","11","C:/Users/Hannah Laskoskie/Desktop/OpenSesame SternburgTask/HL-subject-2.csv","legacy","7 1 8 5 6 2","Melodramatic Milgram","4.0.5","2","y","0","right","right","right","NA","right","804.0","21201","3719","NA","804","2","legacy","6","1024","2","48000","-16","experiment","2","even","1","444569","445612","447814","240348","4785","100064","446613","449815","NA","445610","4781","103783","449815","450620","25988","Sternberg Task","63","51343.0","70","1024"
"90","90","729","729","#3d3846","experiment","legacy","legacy","legacy","1","undefined","1","left","70","70","70","70","0","0","70","70","0","70","0","0","70","70","0","Sun Oct 22 20:15:03 2023","The main experiment item","True","SternbergTask.osexp","C:\Users\Hannah Laskoskie\Desktop\OpenSesame SternburgTask","False","mono","False","18","no","white","no","yes","768","legacy","58","11","C:/Users/Hannah Laskoskie/Desktop/OpenSesame SternburgTask/HL-subject-2.csv","legacy","8 5 1 3 9","Melodramatic Milgram","4.0.5","4","y","0","left","right","right","NA","left","456.0","21201","3719","NA","456","2","legacy","5","1024","2","48000","-16","experiment","2","even","3","444569","451674","453876","450629","4785","100064","452675","455877","NA","451672","4781","103783","455877","456334","25988","Sternberg Task","64","51799.0","71","1024"
"90","90","730","730","#3d3846","experiment","legacy","legacy","legacy","1","undefined","1","left","71","71","71","71","0","0","71","71","0","71","0","0","71","71","0","Sun Oct 22 20:15:03 2023","The main experiment item","True","SternbergTask.osexp","C:\Users\Hannah Laskoskie\Desktop\OpenSesame SternburgTask","False","mono","False","18","no","white","no","yes","768","legacy","59","11","C:/Users/Hannah Laskoskie/Desktop/OpenSesame SternburgTask/HL-subject-2.csv","legacy","4 3 2 5 8","Melodramatic Milgram","4.0.5","2","y","0","left","right","right","NA","left","770.0","21201","3719","NA","770","2","legacy","5","1024","2","48000","-16","experiment","2","even","3","456344","457387","459589","450629","4785","100064","458388","461590","NA","457385","4781","103783","461590","462361","25988","Sternberg Task","65","52569.0","72","1024"
"90","90","729","729","#3d3846","experiment","legacy","legacy","legacy","1","undefined","1","left","72","72","72","72","0","0","72","72","0","72","0","0","72","72","0","Sun Oct 22 20:15:03 2023","The main experiment item","True","SternbergTask.osexp","C:\Users\Hannah Laskoskie\Desktop\OpenSesame SternburgTask","False","mono","False","18","no","white","no","yes","768","legacy","60","11","C:/Users/Hannah Laskoskie/Desktop/OpenSesame SternburgTask/HL-subject-2.csv","legacy","6 1 2","Melodramatic Milgram","4.0.5","3","y","0","left","right","right","NA","left","676.0","21201","3719","NA","676","2","legacy","3","1024","2","48000","-16","experiment","2","even","2","462371","463421","465626","450629","4785","100064","464425","467627","NA","463418","4781","103783","467627","468305","25988","Sternberg Task","66","53245.0","73","1024"
"90","90","727","727","#3d3846","experiment","legacy","legacy","legacy","1","undefined","1","left","73","73","73","73","0","0","73","73","0","73","0","0","73","73","0","Sun Oct 22 20:15:03 2023","The main experiment item","True","SternbergTask.osexp","C:\Users\Hannah Laskoskie\Desktop\OpenSesame SternburgTask","False","mono","False","18","no","white","no","yes","768","legacy","61","11","C:/Users/Hannah Laskoskie/Desktop/OpenSesame SternburgTask/HL-subject-2.csv","legacy","8 1 6","Melodramatic Milgram","4.0.5","3","y","0","left","right","right","NA","left","596.0","21201","3719","NA","596","2","legacy","3","1024","2","48000","-16","experiment","2","even","6","468315","469360","471562","450629","4785","100064","470361","473563","NA","469357","4781","103783","473563","474160","25988","Sternberg Task","67","53841.0","74","1024"
"90","90","723","723","#3d3846","experiment","legacy","legacy","legacy","1","undefined","1","left","74","74","74","74","0","0","74","74","0","74","0","0","74","74","0","Sun Oct 22 20:15:03 2023","The main experiment item","True","SternbergTask.osexp","C:\Users\Hannah Laskoskie\Desktop\OpenSesame SternburgTask","False","mono","False","18","no","white","no","yes","768","legacy","62","11","C:/Users/Hannah Laskoskie/Desktop/OpenSesame SternburgTask/HL-subject-2.csv","legacy","7","Melodramatic Milgram","4.0.5","1","y","0","left","right","right","NA","left","422.0","21201","3719","NA","422","2","legacy","1","1024","2","48000","-16","experiment","2","even","7","474170","475221","477423","450629","4785","100064","476222","479424","NA","475219","4781","103783","479424","479848","25988","Sternberg Task","68","54263.0","75","1024"
"90","90","726","726","#3d3846","experiment","legacy","legacy","legacy","1","undefined","1","right","75","75","75","75","0","0","75","75","0","75","0","0","75","75","0","Sun Oct 22 20:15:03 2023","The main experiment item","True","SternbergTask.osexp","C:\Users\Hannah Laskoskie\Desktop\OpenSesame SternburgTask","False","mono","False","18","no","white","no","yes","768","legacy","63","11","C:/Users/Hannah Laskoskie/Desktop/OpenSesame SternburgTask/HL-subject-2.csv","legacy","7 1","Melodramatic Milgram","4.0.5","0","n","0","right","right","right","NA","right","934.0","21201","3719","NA","934","2","legacy","2","1024","2","48000","-16","experiment","2","even","8","479858","480904","483106","450629","4785","100064","481905","485107","NA","480902","4781","103783","485107","486042","25988","Sternberg Task","69","55197.0","76","1024"
"90","90","726","726","#3d3846","experiment","legacy","legacy","legacy","1","undefined","1","right","76","76","76","76","0","0","76","76","0","76","0","0","76","76","0","Sun Oct 22 20:15:03 2023","The main experiment item","True","SternbergTask.osexp","C:\Users\Hannah Laskoskie\Desktop\OpenSesame SternburgTask","False","mono","False","18","no","white","no","yes","768","legacy","64","11","C:/Users/Hannah Laskoskie/Desktop/OpenSesame SternburgTask/HL-subject-2.csv","legacy","7 8 6 1","Melodramatic Milgram","4.0.5","0","n","0","right","right","right","NA","right","771.0","21201","3719","NA","771","2","legacy","4","1024","2","48000","-16","experiment","2","even","3","486052","487110","489312","450629","4785","100064","488111","491313","NA","487108","4781","103783","491313","492086","25988","Sternberg Task","70","55968.0","77","1024"
"91","91","724","724","#3d3846","experiment","legacy","legacy","legacy","1","undefined","1","left","77","77","77","77","0","0","77","77","0","77","0","0","77","77","0","Sun Oct 22 20:15:03 2023","The main experiment item","True","SternbergTask.osexp","C:\Users\Hannah Laskoskie\Desktop\OpenSesame SternburgTask","False","mono","False","18","no","white","no","yes","768","legacy","65","11","C:/Users/Hannah Laskoskie/Desktop/OpenSesame SternburgTask/HL-subject-2.csv","legacy","8 9 5 6 7","Melodramatic Milgram","4.0.5","1","y","0","left","right","right","NA","left","537.0","21201","3719","NA","537","2","legacy","5","1024","2","48000","-16","experiment","2","even","8","492096","493140","495342","450629","4785","100064","494141","497343","NA","493137","4781","103783","497343","497881","25988","Sternberg Task","71","56505.0","78","1024"
"91","91","726","726","#3d3846","experiment","legacy","legacy","legacy","1","undefined","1","right","78","78","78","78","0","0","78","78","0","78","0","0","78","78","0","Sun Oct 22 20:15:03 2023","The main experiment item","True","SternbergTask.osexp","C:\Users\Hannah Laskoskie\Desktop\OpenSesame SternburgTask","False","mono","False","18","no","white","no","yes","768","legacy","66","11","C:/Users/Hannah Laskoskie/Desktop/OpenSesame SternburgTask/HL-subject-2.csv","legacy","7 1 5 6 3","Melodramatic Milgram","4.0.5","0","n","0","right","right","right","NA","right","866.0","21201","3719","NA","866","2","legacy","5","1024","2","48000","-16","experiment","2","even","8","497890","498935","501139","450629","4785","100064","499938","503140","NA","498933","4781","103783","503140","504008","25988","Sternberg Task","72","57371.0","79","1024"
"91","91","725","725","#3d3846","experiment","legacy","legacy","legacy","1","undefined","1","right","79","79","79","79","0","0","79","79","0","79","0","0","79","79","0","Sun Oct 22 20:15:03 2023","The main experiment item","True","SternbergTask.osexp","C:\Users\Hannah Laskoskie\Desktop\OpenSesame SternburgTask","False","mono","False","18","no","white","no","yes","768","legacy","67","11","C:/Users/Hannah Laskoskie/Desktop/OpenSesame SternburgTask/HL-subject-2.csv","legacy","1 3 2 6 9","Melodramatic Milgram","4.0.5","0","n","0","right","right","right","NA","right","655.0","21201","3719","NA","655","2","legacy","5","1024","2","48000","-16","experiment","2","even","5","504017","505062","507264","450629","4785","100064","506063","509265","NA","505060","4781","103783","509265","509921","25988","Sternberg Task","73","58026.0","80","1024"
"91","91","724","724","#3d3846","experiment","legacy","legacy","legacy","1","undefined","1","right","80","80","80","80","0","0","80","80","0","80","0","0","80","80","0","Sun Oct 22 20:15:03 2023","The main experiment item","True","SternbergTask.osexp","C:\Users\Hannah Laskoskie\Desktop\OpenSesame SternburgTask","False","mono","False","18","no","white","no","yes","768","legacy","68","11","C:/Users/Hannah Laskoskie/Desktop/OpenSesame SternburgTask/HL-subject-2.csv","legacy","1 7 8 3 9","Melodramatic Milgram","4.0.5","0","n","0","right","right","right","NA","right","687.0","21201","3719","NA","687","2","legacy","5","1024","2","48000","-16","experiment","2","even","2","509930","510973","513175","450629","4785","100064","511974","515177","NA","510971","4781","103783","515177","515866","25988","Sternberg Task","74","58713.0","81","1024"
"91","91","727","727","#3d3846","experiment","legacy","legacy","legacy","1","undefined","1","right","81","81","81","81","0","0","81","81","0","81","0","0","81","81","0","Sun Oct 22 20:15:03 2023","The main experiment item","True","SternbergTask.osexp","C:\Users\Hannah Laskoskie\Desktop\OpenSesame SternburgTask","False","mono","False","18","no","white","no","yes","768","legacy","69","11","C:/Users/Hannah Laskoskie/Desktop/OpenSesame SternburgTask/HL-subject-2.csv","legacy","9 7 4 5 8","Melodramatic Milgram","4.0.5","0","n","0","right","right","right","NA","right","944.0","21201","3719","NA","944","2","legacy","5","1024","2","48000","-16","experiment","2","even","6","515875","516919","519121","450629","4785","100064","517920","521122","NA","516917","4781","103783","521122","522068","25988","Sternberg Task","75","59657.0","82","1024"
"91","91","725","725","#3d3846","experiment","legacy","legacy","legacy","1","undefined","1","right","82","82","82","82","0","0","82","82","0","82","0","0","82","82","0","Sun Oct 22 20:15:03 2023","The main experiment item","True","SternbergTask.osexp","C:\Users\Hannah Laskoskie\Desktop\OpenSesame SternburgTask","False","mono","False","18","no","white","no","yes","768","legacy","70","11","C:/Users/Hannah Laskoskie/Desktop/OpenSesame SternburgTask/HL-subject-2.csv","legacy","3 4 2","Melodramatic Milgram","4.0.5","0","n","0","right","right","right","NA","right","595.0","21201","3719","NA","595","2","legacy","3","1024","2","48000","-16","experiment","2","even","5","522076","523127","525329","450629","4785","100064","524128","527330","NA","523125","4781","103783","527330","527926","25988","Sternberg Task","76","60252.0","83","1024"
"91","91","724","724","#3d3846","experiment","legacy","legacy","legacy","1","undefined","1","left","83","83","83","83","0","0","83","83","0","83","0","0","83","83","0","Sun Oct 22 20:15:03 2023","The main experiment item","True","SternbergTask.osexp","C:\Users\Hannah Laskoskie\Desktop\OpenSesame SternburgTask","False","mono","False","18","no","white","no","yes","768","legacy","71","11","C:/Users/Hannah Laskoskie/Desktop/OpenSesame SternburgTask/HL-subject-2.csv","legacy","3 4 9 6 2 9","Melodramatic Milgram","4.0.5","5","y","0","left","right","right","NA","left","646.0","21201","3719","NA","646","2","legacy","6","1024","2","48000","-16","experiment","2","even","2","527936","529010","531212","450629","4785","100064","530011","533213","NA","528994","4781","103783","533213","533860","25988","Sternberg Task","77","60898.0","84","1024"
"90","90","727","727","#3d3846","experiment","legacy","legacy","legacy","0","undefined","0","left","84","84","84","84","0","0","84","84","0","84","0","0","84","84","0","Sun Oct 22 20:15:03 2023","The main experiment item","True","SternbergTask.osexp","C:\Users\Hannah Laskoskie\Desktop\OpenSesame SternburgTask","False","mono","False","18","no","white","no","yes","768","legacy","72","11","C:/Users/Hannah Laskoskie/Desktop/OpenSesame SternburgTask/HL-subject-2.csv","legacy","2 8 5 1","Melodramatic Milgram","4.0.5","4","y","0","right","right","right","NA","right","906.0","21201","3719","NA","906","2","legacy","4","1024","2","48000","-16","experiment","2","even","1","533863","534910","537112","450629","4785","100064","535911","539113","NA","534908","4781","103783","539113","540020","25988","Sternberg Task","77","61804.0","85","1024"
"90","90","724","724","#3d3846","experiment","legacy","legacy","legacy","1","undefined","1","right","85","85","85","85","0","0","85","85","0","85","0","0","85","85","0","Sun Oct 22 20:15:03 2023","The main experiment item","True","SternbergTask.osexp","C:\Users\Hannah Laskoskie\Desktop\OpenSesame SternburgTask","False","mono","False","18","no","white","no","yes","768","legacy","73","11","C:/Users/Hannah Laskoskie/Desktop/OpenSesame SternburgTask/HL-subject-2.csv","legacy","5","Melodramatic Milgram","4.0.5","0","n","0","right","right","right","NA","right","512.0","21201","3719","NA","512","2","legacy","1","1024","2","48000","-16","experiment","2","even","8","533863","541074","543276","540030","4785","100064","542075","545277","NA","541072","4781","103783","545277","545790","25988","Sternberg Task","78","62316.0","86","1024"
"90","90","722","722","#3d3846","experiment","legacy","legacy","legacy","1","undefined","1","left","86","86","86","86","0","0","86","86","0","86","0","0","86","86","0","Sun Oct 22 20:15:03 2023","The main experiment item","True","SternbergTask.osexp","C:\Users\Hannah Laskoskie\Desktop\OpenSesame SternburgTask","False","mono","False","18","no","white","no","yes","768","legacy","74","11","C:/Users/Hannah Laskoskie/Desktop/OpenSesame SternburgTask/HL-subject-2.csv","legacy","4 1 5","Melodramatic Milgram","4.0.5","2","y","0","left","right","right","NA","left","548.0","21201","3719","NA","548","2","legacy","3","1024","2","48000","-16","experiment","2","even","1","545794","546842","549044","540030","4785","100064","547843","551045","NA","546840","4781","103783","551045","551595","25988","Sternberg Task","79","62864.0","87","1024"
"90","90","721","721","#3d3846","experiment","legacy","legacy","legacy","1","undefined","1","right","87","87","87","87","0","0","87","87","0","87","0","0","87","87","0","Sun Oct 22 20:15:03 2023","The main experiment item","True","SternbergTask.osexp","C:\Users\Hannah Laskoskie\Desktop\OpenSesame SternburgTask","False","mono","False","18","no","white","no","yes","768","legacy","75","11","C:/Users/Hannah Laskoskie/Desktop/OpenSesame SternburgTask/HL-subject-2.csv","legacy","6 3 1 7 9 8","Melodramatic Milgram","4.0.5","0","n","0","right","right","right","NA","right","591.0","21201","3719","NA","591","2","legacy","6","1024","2","48000","-16","experiment","2","even","4","551604","552650","554852","540030","4785","100064","553651","556853","NA","552647","4781","103783","556853","557446","25988","Sternberg Task","80","63455.0","88","1024"
"91","91","720","720","#3d3846","experiment","legacy","legacy","legacy","1","undefined","1","left","88","88","88","88","0","0","88","88","0","88","0","0","88","88","0","Sun Oct 22 20:15:03 2023","The main experiment item","True","SternbergTask.osexp","C:\Users\Hannah Laskoskie\Desktop\OpenSesame SternburgTask","False","mono","False","18","no","white","no","yes","768","legacy","76","11","C:/Users/Hannah Laskoskie/Desktop/OpenSesame SternburgTask/HL-subject-2.csv","legacy","1 4 9 3 2 5","Melodramatic Milgram","4.0.5","3","y","0","left","right","right","NA","left","669.0","21201","3719","NA","669","2","legacy","6","1024","2","48000","-16","experiment","2","even","9","557450","558499","560701","540030","4785","100064","559500","562702","NA","558497","4781","103783","562702","563373","25988","Sternberg Task","81","64124.0","89","1024"
"91","91","720","720","#3d3846","experiment","legacy","legacy","legacy","1","undefined","1","left","89","89","89","89","0","0","89","89","0","89","0","0","89","89","0","Sun Oct 22 20:15:03 2023","The main experiment item","True","SternbergTask.osexp","C:\Users\Hannah Laskoskie\Desktop\OpenSesame SternburgTask","False","mono","False","18","no","white","no","yes","768","legacy","77","11","C:/Users/Hannah Laskoskie/Desktop/OpenSesame SternburgTask/HL-subject-2.csv","legacy","6 7 8 5","Melodramatic Milgram","4.0.5","3","y","0","left","right","right","NA","left","695.0","21201","3719","NA","695","2","legacy","4","1024","2","48000","-16","experiment","2","even","8","563382","564435","566637","540030","4785","100064","565436","568638","NA","564432","4781","103783","568639","569335","25988","Sternberg Task","82","64819.0","90","1024"
"91","91","719","719","#3d3846","experiment","legacy","legacy","legacy","1","undefined","1","right","90","90","90","90","0","0","90","90","0","90","0","0","90","90","0","Sun Oct 22 20:15:03 2023","The main experiment item","True","SternbergTask.osexp","C:\Users\Hannah Laskoskie\Desktop\OpenSesame SternburgTask","False","mono","False","18","no","white","no","yes","768","legacy","78","11","C:/Users/Hannah Laskoskie/Desktop/OpenSesame SternburgTask/HL-subject-2.csv","legacy","8 5 7 3 6","Melodramatic Milgram","4.0.5","0","n","0","right","right","right","NA","right","700.0","21201","3719","NA","700","2","legacy","5","1024","2","48000","-16","experiment","2","even","9","569345","570395","572597","540030","4785","100064","571396","574598","NA","570393","4781","103783","574598","575299","25988","Sternberg Task","83","65519.0","91","1024"
"91","91","721","721","#3d3846","experiment","legacy","legacy","legacy","1","undefined","1","left","91","91","91","91","0","0","91","91","0","91","0","0","91","91","0","Sun Oct 22 20:15:03 2023","The main experiment item","True","SternbergTask.osexp","C:\Users\Hannah Laskoskie\Desktop\OpenSesame SternburgTask","False","mono","False","18","no","white","no","yes","768","legacy","79","11","C:/Users/Hannah Laskoskie/Desktop/OpenSesame SternburgTask/HL-subject-2.csv","legacy","6 9 7 4 5 1","Melodramatic Milgram","4.0.5","2","y","0","left","right","right","NA","left","815.0","21201","3719","NA","815","2","legacy","6","1024","2","48000","-16","experiment","2","even","9","575308","576397","578599","540030","4785","100064","577398","580600","NA","576381","4781","103783","580600","581417","25988","Sternberg Task","84","66334.0","92","1024"
"91","91","719","719","#3d3846","experiment","legacy","legacy","legacy","1","undefined","1","right","92","92","92","92","0","0","92","92","0","92","0","0","92","92","0","Sun Oct 22 20:15:03 2023","The main experiment item","True","SternbergTask.osexp","C:\Users\Hannah Laskoskie\Desktop\OpenSesame SternburgTask","False","mono","False","18","no","white","no","yes","768","legacy","80","11","C:/Users/Hannah Laskoskie/Desktop/OpenSesame SternburgTask/HL-subject-2.csv","legacy","8 4 3 5","Melodramatic Milgram","4.0.5","0","n","0","right","right","right","NA","right","623.0","21201","3719","NA","623","2","legacy","4","1024","2","48000","-16","experiment","2","even","6","581426","582470","584672","540030","4785","100064","583471","586674","NA","582468","4781","103783","586674","587298","25988","Sternberg Task","85","66957.0","93","1024"
"91","91","727","727","#3d3846","experiment","legacy","legacy","legacy","1","undefined","1","right","93","93","93","93","0","0","93","93","0","93","0","0","93","93","0","Sun Oct 22 20:15:03 2023","The main experiment item","True","SternbergTask.osexp","C:\Users\Hannah Laskoskie\Desktop\OpenSesame SternburgTask","False","mono","False","18","no","white","no","yes","768","legacy","81","11","C:/Users/Hannah Laskoskie/Desktop/OpenSesame SternburgTask/HL-subject-2.csv","legacy","1 7 5 2 9","Melodramatic Milgram","4.0.5","0","n","0","right","right","right","NA","right","1458.0","21201","3719","NA","1458","2","legacy","5","1024","2","48000","-16","experiment","2","even","3","587301","588350","590553","540030","4785","100064","589351","592554","NA","588348","4781","103783","592555","594014","25988","Sternberg Task","86","68415.0","94","1024"
"91","91","725","725","#3d3846","experiment","legacy","legacy","legacy","1","undefined","1","left","94","94","94","94","0","0","94","94","0","94","0","0","94","94","0","Sun Oct 22 20:15:03 2023","The main experiment item","True","SternbergTask.osexp","C:\Users\Hannah Laskoskie\Desktop\OpenSesame SternburgTask","False","mono","False","18","no","white","no","yes","768","legacy","82","11","C:/Users/Hannah Laskoskie/Desktop/OpenSesame SternburgTask/HL-subject-2.csv","legacy","8 7 3","Melodramatic Milgram","4.0.5","1","y","0","left","right","right","NA","left","520.0","21201","3719","NA","520","2","legacy","3","1024","2","48000","-16","experiment","2","even","8","594017","595068","597271","540030","4785","100064","596070","599272","NA","595066","4781","103783","599272","599793","25988","Sternberg Task","87","68935.0","95","1024"
"91","91","726","726","#3d3846","experiment","legacy","legacy","legacy","1","undefined","1","left","95","95","95","95","0","0","95","95","0","95","0","0","95","95","0","Sun Oct 22 20:15:03 2023","The main experiment item","True","SternbergTask.osexp","C:\Users\Hannah Laskoskie\Desktop\OpenSesame SternburgTask","False","mono","False","18","no","white","no","yes","768","legacy","83","11","C:/Users/Hannah Laskoskie/Desktop/OpenSesame SternburgTask/HL-subject-2.csv","legacy","8 9 6 1","Melodramatic Milgram","4.0.5","2","y","0","left","right","right","NA","left","772.0","21201","3719","NA","772","2","legacy","4","1024","2","48000","-16","experiment","2","even","9","599796","600859","603062","540030","4785","100064","601861","605063","NA","600856","4781","103783","605063","605837","25988","Sternberg Task","88","69707.0","96","1024"
"91","91","723","723","#3d3846","experiment","legacy","legacy","legacy","1","undefined","1","right","96","96","96","96","0","0","96","96","0","96","0","0","96","96","0","Sun Oct 22 20:15:03 2023","The main experiment item","True","SternbergTask.osexp","C:\Users\Hannah Laskoskie\Desktop\OpenSesame SternburgTask","False","mono","False","18","no","white","no","yes","768","legacy","84","11","C:/Users/Hannah Laskoskie/Desktop/OpenSesame SternburgTask/HL-subject-2.csv","legacy","7 9","Melodramatic Milgram","4.0.5","0","n","0","right","right","right","NA","right","503.0","21201","3719","NA","503","2","legacy","2","1024","2","48000","-16","experiment","2","even","1","605846","606893","609095","540030","4785","100064","607894","611096","NA","606891","4781","103783","611096","611600","25988","Sternberg Task","89","70210.0","97","1024"
"91","91","724","724","#3d3846","experiment","legacy","legacy","legacy","1","undefined","1","left","97","97","97","97","0","0","97","97","0","97","0","0","97","97","0","Sun Oct 22 20:15:03 2023","The main experiment item","True","SternbergTask.osexp","C:\Users\Hannah Laskoskie\Desktop\OpenSesame SternburgTask","False","mono","False","18","no","white","no","yes","768","legacy","85","11","C:/Users/Hannah Laskoskie/Desktop/OpenSesame SternburgTask/HL-subject-2.csv","legacy","8","Melodramatic Milgram","4.0.5","1","y","0","left","right","right","NA","left","742.0","21201","3719","NA","742","2","legacy","1","1024","2","48000","-16","experiment","2","even","8","611609","612653","614855","540030","4785","100064","613654","616856","NA","612651","4781","103783","616857","617601","25988","Sternberg Task","90","70952.0","98","1024"
"91","91","724","724","#3d3846","experiment","legacy","legacy","legacy","1","undefined","1","right","98","98","98","98","0","0","98","98","0","98","0","0","98","98","0","Sun Oct 22 20:15:03 2023","The main experiment item","True","SternbergTask.osexp","C:\Users\Hannah Laskoskie\Desktop\OpenSesame SternburgTask","False","mono","False","18","no","white","no","yes","768","legacy","86","11","C:/Users/Hannah Laskoskie/Desktop/OpenSesame SternburgTask/HL-subject-2.csv","legacy","6 9 7 3 8 2","Melodramatic Milgram","4.0.5","0","n","0","right","right","right","NA","right","802.0","21201","3719","NA","802","2","legacy","6","1024","2","48000","-16","experiment","2","even","5","617604","618661","620863","540030","4785","100064","619662","622864","NA","618659","4781","103783","622864","623667","25988","Sternberg Task","91","71754.0","99","1024"
"92","92","722","722","#3d3846","experiment","legacy","legacy","legacy","1","undefined","1","left","99","99","99","99","0","0","99","99","0","99","0","0","99","99","0","Sun Oct 22 20:15:03 2023","The main experiment item","True","SternbergTask.osexp","C:\Users\Hannah Laskoskie\Desktop\OpenSesame SternburgTask","False","mono","False","18","no","white","no","yes","768","legacy","87","11","C:/Users/Hannah Laskoskie/Desktop/OpenSesame SternburgTask/HL-subject-2.csv","legacy","2 3 7 4","Melodramatic Milgram","4.0.5","1","y","0","left","right","right","NA","left","524.0","21201","3719","NA","524","2","legacy","4","1024","2","48000","-16","experiment","2","even","2","623672","624717","626919","540030","4785","100064","625718","628920","NA","624715","4781","103783","628920","629445","25988","Sternberg Task","92","72278.0","100","1024"
"92","92","731","731","#3d3846","experiment","legacy","legacy","legacy","1","undefined","1","right","100","100","100","100","0","0","100","100","0","100","0","0","100","100","0","Sun Oct 22 20:15:03 2023","The main experiment item","True","SternbergTask.osexp","C:\Users\Hannah Laskoskie\Desktop\OpenSesame SternburgTask","False","mono","False","18","no","white","no","yes","768","legacy","88","11","C:/Users/Hannah Laskoskie/Desktop/OpenSesame SternburgTask/HL-subject-2.csv","legacy","5 9 2 3","Melodramatic Milgram","4.0.5","0","n","0","right","right","right","NA","right","1569.0","21201","3719","NA","1569","2","legacy","4","1024","2","48000","-16","experiment","2","even","8","629449","630499","632702","540030","4785","100064","631500","634703","NA","630497","4781","103783","634703","636274","25988","Sternberg Task","93","73847.0","101","1024"
"92","92","729","729","#3d3846","experiment","legacy","legacy","legacy","1","undefined","1","left","101","101","101","101","0","0","101","101","0","101","0","0","101","101","0","Sun Oct 22 20:15:03 2023","The main experiment item","True","SternbergTask.osexp","C:\Users\Hannah Laskoskie\Desktop\OpenSesame SternburgTask","False","mono","False","18","no","white","no","yes","768","legacy","89","11","C:/Users/Hannah Laskoskie/Desktop/OpenSesame SternburgTask/HL-subject-2.csv","legacy","7 8 4 6 9 5","Melodramatic Milgram","4.0.5","4","y","0","left","right","right","NA","left","582.0","21201","3719","NA","582","2","legacy","6","1024","2","48000","-16","experiment","2","even","6","636284","637330","639532","540030","4785","100064","638331","641533","NA","637327","4781","103783","641533","642117","25988","Sternberg Task","94","74429.0","102","1024"
"92","92","728","728","#3d3846","experiment","legacy","legacy","legacy","1","undefined","1","left","102","102","102","102","0","0","102","102","0","102","0","0","102","102","0","Sun Oct 22 20:15:03 2023","The main experiment item","True","SternbergTask.osexp","C:\Users\Hannah Laskoskie\Desktop\OpenSesame SternburgTask","False","mono","False","18","no","white","no","yes","768","legacy","90","11","C:/Users/Hannah Laskoskie/Desktop/OpenSesame SternburgTask/HL-subject-2.csv","legacy","4","Melodramatic Milgram","4.0.5","1","y","0","left","right","right","NA","left","601.0","21201","3719","NA","601","2","legacy","1","1024","2","48000","-16","experiment","2","even","4","642126","643181","645383","540030","4785","100064","644182","647384","NA","643179","4781","103783","647384","647986","25988","Sternberg Task","95","75030.0","103","1024"
"92","92","728","728","#3d3846","experiment","legacy","legacy","legacy","1","undefined","1","right","103","103","103","103","0","0","103","103","0","103","0","0","103","103","0","Sun Oct 22 20:15:03 2023","The main experiment item","True","SternbergTask.osexp","C:\Users\Hannah Laskoskie\Desktop\OpenSesame SternburgTask","False","mono","False","18","no","white","no","yes","768","legacy","91","11","C:/Users/Hannah Laskoskie/Desktop/OpenSesame SternburgTask/HL-subject-2.csv","legacy","8 2 1 4 5 9","Melodramatic Milgram","4.0.5","0","n","0","right","right","right","NA","right","758.0","21201","3719","NA","758","2","legacy","6","1024","2","48000","-16","experiment","2","even","7","647995","649048","651250","540030","4785","100064","650049","653251","NA","649045","4781","103783","653251","654011","25988","Sternberg Task","96","75788.0","104","1024"
"92","92","730","730","#3d3846","experiment","legacy","legacy","legacy","1","undefined","1","right","104","104","104","104","0","0","104","104","0","104","0","0","104","104","0","Sun Oct 22 20:15:03 2023","The main experiment item","True","SternbergTask.osexp","C:\Users\Hannah Laskoskie\Desktop\OpenSesame SternburgTask","False","mono","False","18","no","white","no","yes","768","legacy","92","11","C:/Users/Hannah Laskoskie/Desktop/OpenSesame SternburgTask/HL-subject-2.csv","legacy","8 6 3 4 7","Melodramatic Milgram","4.0.5","0","n","0","right","right","right","NA","right","936.0","21201","3719","NA","936","2","legacy","5","1024","2","48000","-16","experiment","2","even","1","654020","655064","657266","540030","4785","100064","656065","659268","NA","655061","4781","103783","659268","660205","25988","Sternberg Task","97","76724.0","105","1024"
"91","91","736","736","#3d3846","experiment","legacy","legacy","legacy","0","undefined","0","left","105","105","105","105","0","0","105","105","0","105","0","0","105","105","0","Sun Oct 22 20:15:03 2023","The main experiment item","True","SternbergTask.osexp","C:\Users\Hannah Laskoskie\Desktop\OpenSesame SternburgTask","False","mono","False","18","no","white","no","yes","768","legacy","93","11","C:/Users/Hannah Laskoskie/Desktop/OpenSesame SternburgTask/HL-subject-2.csv","legacy","5 2 6","Melodramatic Milgram","4.0.5","2","y","0","right","right","right","NA","right","1359.0","21201","3719","NA","1359","2","legacy","3","1024","2","48000","-16","experiment","2","even","2","660208","661253","663456","540030","4785","100064","662254","665457","NA","661250","4781","103783","665457","666818","25988","Sternberg Task","97","78083.0","106","1024"
"90","90","739","739","#3d3846","experiment","legacy","legacy","legacy","0","undefined","0","right","106","106","106","106","0","0","106","106","0","106","0","0","106","106","0","Sun Oct 22 20:15:03 2023","The main experiment item","True","SternbergTask.osexp","C:\Users\Hannah Laskoskie\Desktop\OpenSesame SternburgTask","False","mono","False","18","no","white","no","yes","768","legacy","94","11","C:/Users/Hannah Laskoskie/Desktop/OpenSesame SternburgTask/HL-subject-2.csv","legacy","1 4 9 2 5","Melodramatic Milgram","4.0.5","0","n","0","left","right","right","NA","left","1017.0","21201","3719","NA","1017","2","legacy","5","1024","2","48000","-16","experiment","2","even","7","660208","667885","670087","666827","4785","100064","668886","672088","NA","667883","4781","103783","672089","673107","25988","Sternberg Task","97","79100.0","107","1024"
"90","90","738","738","#3d3846","experiment","legacy","legacy","legacy","1","undefined","1","right","107","107","107","107","0","0","107","107","0","107","0","0","107","107","0","Sun Oct 22 20:15:03 2023","The main experiment item","True","SternbergTask.osexp","C:\Users\Hannah Laskoskie\Desktop\OpenSesame SternburgTask","False","mono","False","18","no","white","no","yes","768","legacy","95","11","C:/Users/Hannah Laskoskie/Desktop/OpenSesame SternburgTask/HL-subject-2.csv","legacy","7 4 2 8 1 9","Melodramatic Milgram","4.0.5","0","n","0","right","right","right","NA","right","648.0","21201","3719","NA","648","2","legacy","6","1024","2","48000","-16","experiment","2","even","5","660208","674165","676367","673117","4785","100064","675166","678368","NA","674162","4781","103783","678368","679018","25988","Sternberg Task","98","79748.0","108","1024"
"90","90","737","737","#3d3846","experiment","legacy","legacy","legacy","1","undefined","1","right","108","108","108","108","0","0","108","108","0","108","0","0","108","108","0","Sun Oct 22 20:15:03 2023","The main experiment item","True","SternbergTask.osexp","C:\Users\Hannah Laskoskie\Desktop\OpenSesame SternburgTask","False","mono","False","18","no","white","no","yes","768","legacy","96","11","C:/Users/Hannah Laskoskie/Desktop/OpenSesame SternburgTask/HL-subject-2.csv","legacy","2 3 8 5 6 7","Melodramatic Milgram","4.0.5","0","n","0","right","right","right","NA","right","594.0","21201","3719","NA","594","2","legacy","6","1024","2","48000","-16","experiment","2","even","1","679021","680069","682271","673117","4785","100064","681070","684272","NA","680066","4781","103783","684272","684867","25988","Sternberg Task","99","80342.0","109","1024"
"90","90","737","737","#3d3846","experiment","legacy","legacy","legacy","1","undefined","1","left","109","109","109","109","0","0","109","109","0","109","0","0","109","109","0","Sun Oct 22 20:15:03 2023","The main experiment item","True","SternbergTask.osexp","C:\Users\Hannah Laskoskie\Desktop\OpenSesame SternburgTask","False","mono","False","18","no","white","no","yes","768","legacy","97","11","C:/Users/Hannah Laskoskie/Desktop/OpenSesame SternburgTask/HL-subject-2.csv","legacy","9 5 3 8 4","Melodramatic Milgram","4.0.5","1","y","0","left","right","right","NA","left","800.0","21201","3719","NA","800","2","legacy","5","1024","2","48000","-16","experiment","2","even","9","684870","685913","688115","673117","4785","100064","686914","690116","NA","685911","4781","103783","690116","690918","25988","Sternberg Task","100","81142.0","110","1024"
"90","90","736","736","#3d3846","experiment","legacy","legacy","legacy","1","undefined","1","right","110","110","110","110","0","0","110","110","0","110","0","0","110","110","0","Sun Oct 22 20:15:03 2023","The main experiment item","True","SternbergTask.osexp","C:\Users\Hannah Laskoskie\Desktop\OpenSesame SternburgTask","False","mono","False","18","no","white","no","yes","768","legacy","98","11","C:/Users/Hannah Laskoskie/Desktop/OpenSesame SternburgTask/HL-subject-2.csv","legacy","9 8 2 7 4","Melodramatic Milgram","4.0.5","0","n","0","right","right","right","NA","right","651.0","21201","3719","NA","651","2","legacy","5","1024","2","48000","-16","experiment","2","even","5","690927","691978","694180","673117","4785","100064","692979","696181","NA","691976","4781","103783","696181","696834","25988","Sternberg Task","101","81793.0","111","1024"
"91","91","735","735","#3d3846","experiment","legacy","legacy","legacy","1","undefined","1","right","111","111","111","111","0","0","111","111","0","111","0","0","111","111","0","Sun Oct 22 20:15:03 2023","The main experiment item","True","SternbergTask.osexp","C:\Users\Hannah Laskoskie\Desktop\OpenSesame SternburgTask","False","mono","False","18","no","white","no","yes","768","legacy","99","11","C:/Users/Hannah Laskoskie/Desktop/OpenSesame SternburgTask/HL-subject-2.csv","legacy","3 9 8 1 6 4","Melodramatic Milgram","4.0.5","0","n","0","right","right","right","NA","right","579.0","21201","3719","NA","579","2","legacy","6","1024","2","48000","-16","experiment","2","even","7","696843","697887","700089","673117","4785","100064","698888","702090","NA","697884","4781","103783","702090","702670","25988","Sternberg Task","102","82372.0","112","1024"
"91","91","733","733","#3d3846","experiment","legacy","legacy","legacy","1","undefined","1","right","112","112","112","112","0","0","112","112","0","112","0","0","112","112","0","Sun Oct 22 20:15:03 2023","The main experiment item","True","SternbergTask.osexp","C:\Users\Hannah Laskoskie\Desktop\OpenSesame SternburgTask","False","mono","False","18","no","white","no","yes","768","legacy","100","11","C:/Users/Hannah Laskoskie/Desktop/OpenSesame SternburgTask/HL-subject-2.csv","legacy","8 5 4 2 9 6","Melodramatic Milgram","4.0.5","0","n","0","right","right","right","NA","right","521.0","21201","3719","NA","521","2","legacy","6","1024","2","48000","-16","experiment","2","even","3","702680","703724","705926","673117","4785","100064","704725","707927","NA","703722","4781","103783","707928","708451","25988","Sternberg Task","103","82893.0","113","1024"
"90","90","731","731","#3d3846","experiment","legacy","legacy","legacy","0","undefined","0","left","113","113","113","113","0","0","113","113","0","113","0","0","113","113","0","Sun Oct 22 20:15:03 2023","The main experiment item","True","SternbergTask.osexp","C:\Users\Hannah Laskoskie\Desktop\OpenSesame SternburgTask","False","mono","False","18","no","white","no","yes","768","legacy","101","11","C:/Users/Hannah Laskoskie/Desktop/OpenSesame SternburgTask/HL-subject-2.csv","legacy","6 5","Melodramatic Milgram","4.0.5","2","y","0","right","right","right","NA","right","483.0","21201","3719","NA","483","2","legacy","2","1024","2","48000","-16","experiment","2","even","5","708460","709516","711718","673117","4785","100064","710517","713719","NA","709514","4781","103783","713719","714203","25988","Sternberg Task","103","83376.0","114","1024"
"89","89","729","729","#3d3846","experiment","legacy","legacy","legacy","0","undefined","0","right","114","114","114","114","0","0","114","114","0","114","0","0","114","114","0","Sun Oct 22 20:15:03 2023","The main experiment item","True","SternbergTask.osexp","C:\Users\Hannah Laskoskie\Desktop\OpenSesame SternburgTask","False","mono","False","18","no","white","no","yes","768","legacy","102","11","C:/Users/Hannah Laskoskie/Desktop/OpenSesame SternburgTask/HL-subject-2.csv","legacy","1 5 3 2 8","Melodramatic Milgram","4.0.5","0","n","0","left","right","right","NA","left","507.0","21201","3719","NA","507","2","legacy","5","1024","2","48000","-16","experiment","2","even","4","708460","715259","717461","714213","4785","100064","716260","719462","NA","715257","4781","103783","719462","719970","25988","Sternberg Task","103","83883.0","115","1024"
"89","89","728","728","#3d3846","experiment","legacy","legacy","legacy","1","undefined","1","right","115","115","115","115","0","0","115","115","0","115","0","0","115","115","0","Sun Oct 22 20:15:03 2023","The main experiment item","True","SternbergTask.osexp","C:\Users\Hannah Laskoskie\Desktop\OpenSesame SternburgTask","False","mono","False","18","no","white","no","yes","768","legacy","103","11","C:/Users/Hannah Laskoskie/Desktop/OpenSesame SternburgTask/HL-subject-2.csv","legacy","2 8 7 9 5 3","Melodramatic Milgram","4.0.5","0","n","0","right","right","right","NA","right","669.0","21201","3719","NA","669","2","legacy","6","1024","2","48000","-16","experiment","2","even","6","708460","721025","723227","719981","4785","100064","722026","725228","NA","721023","4781","103783","725228","725899","25988","Sternberg Task","104","84552.0","116","1024"
"89","89","727","727","#3d3846","experiment","legacy","legacy","legacy","1","undefined","1","right","116","116","116","116","0","0","116","116","0","116","0","0","116","116","0","Sun Oct 22 20:15:03 2023","The main experiment item","True","SternbergTask.osexp","C:\Users\Hannah Laskoskie\Desktop\OpenSesame SternburgTask","False","mono","False","18","no","white","no","yes","768","legacy","104","11","C:/Users/Hannah Laskoskie/Desktop/OpenSesame SternburgTask/HL-subject-2.csv","legacy","6 8","Melodramatic Milgram","4.0.5","0","n","0","right","right","right","NA","right","527.0","21201","3719","NA","527","2","legacy","2","1024","2","48000","-16","experiment","2","even","9","725911","726954","729156","719981","4785","100064","727955","731157","NA","726951","4781","103783","731157","731686","25988","Sternberg Task","105","85079.0","117","1024"
