acc,accuracy,average_response_time,avg_rt,background,block,canvas_backend,clock_backend,color_backend,compensation,coordinates,correct,correct_instruction1,correct_keyboard_response,correct_response,count_Instructions2,count_correctFeedback,count_experiment,count_experiment_loop,count_fixation,count_incorrectFeedback,count_instruction1,count_isi,count_keyboard_response,count_logger,count_memory_set,count_practiceloop,count_probe,count_thankYou,count_x_sequence,datetime,description,disable_garbage_collection,experiment_file,experiment_path,font_bold,font_family,font_italic,font_size,font_underline,foreground,form_clicks,fullscreen,height,keyboard_backend,live_row,live_row_practiceloop,logfile,mouse_backend,numberSet,opensesame_codename,opensesame_version,posInSet,present,repeat_cycle,response,response_Instructions2,response_instruction1,response_keyboard_response,response_thankYou,response_time,response_time_Instructions2,response_time_instruction1,response_time_keyboard_response,response_time_thankYou,round_decimals,sampler_backend,setSize,sound_buf_size,sound_channels,sound_freq,sound_sample_size,start,subject_nr,subject_parity,target,time_Instructions2,time_correctFeedback,time_experiment,time_experiment_loop,time_fixation,time_incorrectFeedback,time_instruction1,time_isi,time_keyboard_response,time_logger,time_memory_set,time_practiceloop,time_probe,time_thankYou,time_x_sequence,title,total_correct,total_response_time,total_responses,uniform_coordinates,width
100,100,648,648,black,practice,legacy,legacy,legacy,0,uniform,1,undefined,1,left,0,0,0,0,0,0,0,0,0,0,0,0,0,0,0,10/13/2021 12:22,The main experiment item,yes,SternburgTask.osexp,C:/Users/borna.000/Documents/PSYC/PSYC5316/Sternburg,no,mono,no,18,no,white,no,yes,768,legacy,0,0,C:/Users/borna.000/Documents/PSYC/PSYC5316/Sternburg/subject-1.csv,legacy,4 8,Lentiform Loewenfeld,3.3.9,1,y,0,left,NA,right,left,NA,648,NA,26766,648,NA,2,legacy,2,1024,2,48000,-16,experiment,1,odd,4,NA,NA,2084,NA,29608,NA,2087,31810,33811,34459,30609,28854,33811,NA,29606,Sternburg Task,1,648,1,yes,1024
100,100,813.5,813.5,black,practice,legacy,legacy,legacy,0,uniform,1,undefined,1,left,0,1,0,0,1,1,0,1,1,1,1,0,1,0,1,10/13/2021 12:22,The main experiment item,yes,SternburgTask.osexp,C:/Users/borna.000/Documents/PSYC/PSYC5316/Sternburg,no,mono,no,18,no,white,no,yes,768,legacy,1,1,C:/Users/borna.000/Documents/PSYC/PSYC5316/Sternburg/subject-1.csv,legacy,4 3 1 7 9 8,Lentiform Loewenfeld,3.3.9,1,y,0,left,NA,right,left,NA,979,NA,26766,979,NA,2,legacy,6,1024,2,48000,-16,experiment,1,odd,4,NA,34507,2084,NA,35582,NA,2087,37784,39785,40765,36583,28854,39785,NA,35580,Sternburg Task,2,1627,2,yes,1024
100,100,739.6666667,739.6666667,black,practice,legacy,legacy,legacy,0,uniform,1,undefined,1,left,0,2,0,0,2,2,0,2,2,2,2,0,2,0,2,10/13/2021 12:22,The main experiment item,yes,SternburgTask.osexp,C:/Users/borna.000/Documents/PSYC/PSYC5316/Sternburg,no,mono,no,18,no,white,no,yes,768,legacy,2,2,C:/Users/borna.000/Documents/PSYC/PSYC5316/Sternburg/subject-1.csv,legacy,6,Lentiform Loewenfeld,3.3.9,1,y,0,left,NA,right,left,NA,592,NA,26766,592,NA,2,legacy,1,1024,2,48000,-16,experiment,1,odd,6,NA,40774,2084,NA,41843,NA,2087,44045,46046,46639,42844,28854,46046,NA,41841,Sternburg Task,3,2219,3,yes,1024
75,75,711.25,711.25,black,practice,legacy,legacy,legacy,0,uniform,0,undefined,0,right,0,3,0,0,3,3,0,3,3,3,3,0,3,0,3,10/13/2021 12:22,The main experiment item,yes,SternburgTask.osexp,C:/Users/borna.000/Documents/PSYC/PSYC5316/Sternburg,no,mono,no,18,no,white,no,yes,768,legacy,3,3,C:/Users/borna.000/Documents/PSYC/PSYC5316/Sternburg/subject-1.csv,legacy,5 7 8 4 1 2,Lentiform Loewenfeld,3.3.9,0,n,0,left,NA,right,left,NA,626,NA,26766,626,NA,2,legacy,6,1024,2,48000,-16,experiment,1,odd,6,NA,46647,2084,NA,47720,NA,2087,49923,51924,52550,48722,28854,51924,NA,47717,Sternburg Task,3,2845,4,yes,1024
80,80,834.4,834.4,black,practice,legacy,legacy,legacy,0,uniform,1,undefined,1,right,0,4,0,0,4,4,0,4,4,4,4,0,4,0,4,10/13/2021 12:22,The main experiment item,yes,SternburgTask.osexp,C:/Users/borna.000/Documents/PSYC/PSYC5316/Sternburg,no,mono,no,18,no,white,no,yes,768,legacy,4,4,C:/Users/borna.000/Documents/PSYC/PSYC5316/Sternburg/subject-1.csv,legacy,9 6 7 4 5,Lentiform Loewenfeld,3.3.9,0,n,0,right,NA,right,right,NA,1327,NA,26766,1327,NA,2,legacy,5,1024,2,48000,-16,experiment,1,odd,3,NA,46647,2084,NA,53630,52558,2087,55833,57834,59161,54632,28854,57834,NA,53628,Sternburg Task,4,4172,5,yes,1024
83.33333333,83.33333333,834.5,834.5,black,practice,legacy,legacy,legacy,0,uniform,1,undefined,1,left,0,5,0,0,5,5,0,5,5,5,5,0,5,0,5,10/13/2021 12:22,The main experiment item,yes,SternburgTask.osexp,C:/Users/borna.000/Documents/PSYC/PSYC5316/Sternburg,no,mono,no,18,no,white,no,yes,768,legacy,5,5,C:/Users/borna.000/Documents/PSYC/PSYC5316/Sternburg/subject-1.csv,legacy,1 5 2 9,Lentiform Loewenfeld,3.3.9,2,y,0,left,NA,right,left,NA,835,NA,26766,835,NA,2,legacy,4,1024,2,48000,-16,experiment,1,odd,5,NA,59169,2084,NA,60239,52558,2087,62441,64442,65277,61240,28854,64442,NA,60237,Sternburg Task,5,5007,6,yes,1024
85.71428571,85.71428571,837.5714286,837.5714286,black,practice,legacy,legacy,legacy,0,uniform,1,undefined,1,right,0,6,0,0,6,6,0,6,6,6,6,0,6,0,6,10/13/2021 12:22,The main experiment item,yes,SternburgTask.osexp,C:/Users/borna.000/Documents/PSYC/PSYC5316/Sternburg,no,mono,no,18,no,white,no,yes,768,legacy,6,6,C:/Users/borna.000/Documents/PSYC/PSYC5316/Sternburg/subject-1.csv,legacy,3 1 9 4,Lentiform Loewenfeld,3.3.9,0,n,0,right,NA,right,right,NA,856,NA,26766,856,NA,2,legacy,4,1024,2,48000,-16,experiment,1,odd,6,NA,65285,2084,NA,66361,52558,2087,68563,70564,71421,67362,28854,70564,NA,66358,Sternburg Task,6,5863,7,yes,1024
75,75,873,873,black,practice,legacy,legacy,legacy,0,uniform,0,undefined,0,right,0,7,0,0,7,7,0,7,7,7,7,0,7,0,7,10/13/2021 12:22,The main experiment item,yes,SternburgTask.osexp,C:/Users/borna.000/Documents/PSYC/PSYC5316/Sternburg,no,mono,no,18,no,white,no,yes,768,legacy,7,7,C:/Users/borna.000/Documents/PSYC/PSYC5316/Sternburg/subject-1.csv,legacy,5,Lentiform Loewenfeld,3.3.9,0,n,0,left,NA,right,left,NA,1121,NA,26766,1121,NA,2,legacy,1,1024,2,48000,-16,experiment,1,odd,3,NA,71429,2084,NA,72498,52558,2087,74700,76701,77823,73499,28854,76701,NA,72496,Sternburg Task,6,6984,8,yes,1024
66.66666667,66.66666667,913.4444444,913.4444444,black,practice,legacy,legacy,legacy,0,uniform,0,undefined,0,left,0,8,0,0,8,8,0,8,8,8,8,0,8,0,8,10/13/2021 12:22,The main experiment item,yes,SternburgTask.osexp,C:/Users/borna.000/Documents/PSYC/PSYC5316/Sternburg,no,mono,no,18,no,white,no,yes,768,legacy,8,8,C:/Users/borna.000/Documents/PSYC/PSYC5316/Sternburg/subject-1.csv,legacy,1 7 9 8 5,Lentiform Loewenfeld,3.3.9,4,y,0,right,NA,right,right,NA,1237,NA,26766,1237,NA,2,legacy,5,1024,2,48000,-16,experiment,1,odd,8,NA,71429,2084,NA,78905,77831,2087,81106,83108,84346,79906,28854,83108,NA,78903,Sternburg Task,6,8221,9,yes,1024
70,70,900.1,900.1,black,practice,legacy,legacy,legacy,0,uniform,1,undefined,1,right,0,9,0,0,9,9,0,9,9,9,9,0,9,0,9,10/13/2021 12:22,The main experiment item,yes,SternburgTask.osexp,C:/Users/borna.000/Documents/PSYC/PSYC5316/Sternburg,no,mono,no,18,no,white,no,yes,768,legacy,9,9,C:/Users/borna.000/Documents/PSYC/PSYC5316/Sternburg/subject-1.csv,legacy,2 1,Lentiform Loewenfeld,3.3.9,0,n,0,right,NA,right,right,NA,780,NA,26766,780,NA,2,legacy,2,1024,2,48000,-16,experiment,1,odd,5,NA,71429,2084,NA,85425,84355,2087,87627,89628,90408,86426,28854,89628,NA,85423,Sternburg Task,7,9001,10,yes,1024
63.63636364,63.63636364,867.0909091,867.0909091,black,practice,legacy,legacy,legacy,0,uniform,0,undefined,0,left,0,10,0,0,10,10,0,10,10,10,10,0,10,0,10,10/13/2021 12:22,The main experiment item,yes,SternburgTask.osexp,C:/Users/borna.000/Documents/PSYC/PSYC5316/Sternburg,no,mono,no,18,no,white,no,yes,768,legacy,10,10,C:/Users/borna.000/Documents/PSYC/PSYC5316/Sternburg/subject-1.csv,legacy,2 9 4,Lentiform Loewenfeld,3.3.9,3,y,0,right,NA,right,right,NA,537,NA,26766,537,NA,2,legacy,3,1024,2,48000,-16,experiment,1,odd,4,NA,90417,2084,NA,91487,84355,2087,93689,95692,96229,92488,28854,95692,NA,91485,Sternburg Task,7,9538,11,yes,1024
58.33333333,58.33333333,875.6666667,875.6666667,black,practice,legacy,legacy,legacy,0,uniform,0,undefined,0,right,0,11,0,0,11,11,0,11,11,11,11,0,11,0,11,10/13/2021 12:22,The main experiment item,yes,SternburgTask.osexp,C:/Users/borna.000/Documents/PSYC/PSYC5316/Sternburg,no,mono,no,18,no,white,no,yes,768,legacy,11,11,C:/Users/borna.000/Documents/PSYC/PSYC5316/Sternburg/subject-1.csv,legacy,4 1 5,Lentiform Loewenfeld,3.3.9,0,n,0,left,NA,right,left,NA,970,NA,26766,970,NA,2,legacy,3,1024,2,48000,-16,experiment,1,odd,2,NA,90417,2084,NA,97306,96237,2087,99509,101510,102480,98308,28854,101510,NA,97305,Sternburg Task,7,10508,12,yes,1024
53.84615385,53.84615385,863.3846154,863.3846154,black,experiment,legacy,legacy,legacy,0,uniform,0,undefined,0,right,0,12,0,0,12,12,0,12,12,12,12,0,12,0,12,10/13/2021 12:22,The main experiment item,yes,SternburgTask.osexp,C:/Users/borna.000/Documents/PSYC/PSYC5316/Sternburg,no,mono,no,18,no,white,no,yes,768,legacy,0,11,C:/Users/borna.000/Documents/PSYC/PSYC5316/Sternburg/subject-1.csv,legacy,5 9 2 3,Lentiform Loewenfeld,3.3.9,0,n,0,left,right,right,left,NA,716,5179,26766,716,NA,2,legacy,4,1024,2,48000,-16,experiment,1,odd,8,103503,90417,2084,108683,108767,102489,2087,110969,112971,113687,109768,28854,112970,NA,108765,Sternburg Task,7,11224,13,yes,1024
57.14285714,57.14285714,845.2857143,845.2857143,black,experiment,legacy,legacy,legacy,0,uniform,1,undefined,1,left,0,13,0,0,13,13,0,13,13,13,13,0,13,0,13,10/13/2021 12:22,The main experiment item,yes,SternburgTask.osexp,C:/Users/borna.000/Documents/PSYC/PSYC5316/Sternburg,no,mono,no,18,no,white,no,yes,768,legacy,1,11,C:/Users/borna.000/Documents/PSYC/PSYC5316/Sternburg/subject-1.csv,legacy,1 4 9 3 2 5,Lentiform Loewenfeld,3.3.9,3,y,0,left,right,right,left,NA,610,5179,26766,610,NA,2,legacy,6,1024,2,48000,-16,experiment,1,odd,9,103503,90417,2084,108683,114767,113695,2087,116969,118970,119581,115768,28854,118970,NA,114765,Sternburg Task,8,11834,14,yes,1024
60,60,825.1333333,825.1333333,black,experiment,legacy,legacy,legacy,0,uniform,1,undefined,1,left,0,14,0,0,14,14,0,14,14,14,14,0,14,0,14,10/13/2021 12:22,The main experiment item,yes,SternburgTask.osexp,C:/Users/borna.000/Documents/PSYC/PSYC5316/Sternburg,no,mono,no,18,no,white,no,yes,768,legacy,2,11,C:/Users/borna.000/Documents/PSYC/PSYC5316/Sternburg/subject-1.csv,legacy,5 7 8 2 3 8,Lentiform Loewenfeld,3.3.9,5,y,0,left,right,right,left,NA,543,5179,26766,543,NA,2,legacy,6,1024,2,48000,-16,experiment,1,odd,3,103503,119589,2084,108683,120659,113695,2087,122861,124863,125407,121660,28854,124863,NA,120657,Sternburg Task,9,12377,15,yes,1024
62.5,62.5,817.875,817.875,black,experiment,legacy,legacy,legacy,0,uniform,1,undefined,1,left,0,15,0,0,15,15,0,15,15,15,15,0,15,0,15,10/13/2021 12:22,The main experiment item,yes,SternburgTask.osexp,C:/Users/borna.000/Documents/PSYC/PSYC5316/Sternburg,no,mono,no,18,no,white,no,yes,768,legacy,3,11,C:/Users/borna.000/Documents/PSYC/PSYC5316/Sternburg/subject-1.csv,legacy,4 7 6 8 2 3,Lentiform Loewenfeld,3.3.9,6,y,0,left,right,right,left,NA,709,5179,26766,709,NA,2,legacy,6,1024,2,48000,-16,experiment,1,odd,3,103503,125416,2084,108683,126494,113695,2087,128697,130698,131407,127495,28854,130698,NA,126492,Sternburg Task,10,13086,16,yes,1024
64.70588235,64.70588235,822.4117647,822.4117647,black,experiment,legacy,legacy,legacy,0,uniform,1,undefined,1,right,0,16,0,0,16,16,0,16,16,16,16,0,16,0,16,10/13/2021 12:22,The main experiment item,yes,SternburgTask.osexp,C:/Users/borna.000/Documents/PSYC/PSYC5316/Sternburg,no,mono,no,18,no,white,no,yes,768,legacy,4,11,C:/Users/borna.000/Documents/PSYC/PSYC5316/Sternburg/subject-1.csv,legacy,1 8 7,Lentiform Loewenfeld,3.3.9,0,n,0,right,right,right,right,NA,895,5179,26766,895,NA,2,legacy,3,1024,2,48000,-16,experiment,1,odd,4,103503,131415,2084,108683,132487,113695,2087,134689,136690,137586,133488,28854,136690,NA,132485,Sternburg Task,11,13981,17,yes,1024
61.11111111,61.11111111,831.6666667,831.6666667,black,experiment,legacy,legacy,legacy,0,uniform,0,undefined,0,right,0,17,0,0,17,17,0,17,17,17,17,0,17,0,17,10/13/2021 12:22,The main experiment item,yes,SternburgTask.osexp,C:/Users/borna.000/Documents/PSYC/PSYC5316/Sternburg,no,mono,no,18,no,white,no,yes,768,legacy,5,11,C:/Users/borna.000/Documents/PSYC/PSYC5316/Sternburg/subject-1.csv,legacy,2 8 9,Lentiform Loewenfeld,3.3.9,0,n,0,left,right,right,left,NA,989,5179,26766,989,NA,2,legacy,3,1024,2,48000,-16,experiment,1,odd,6,103503,137589,2084,108683,138659,113695,2087,140861,142862,143851,139660,28854,142862,NA,138657,Sternburg Task,11,14970,18,yes,1024
63.15789474,63.15789474,825.6315789,825.6315789,black,experiment,legacy,legacy,legacy,0,uniform,1,undefined,1,left,0,18,0,0,18,18,0,18,18,18,18,0,18,0,18,10/13/2021 12:22,The main experiment item,yes,SternburgTask.osexp,C:/Users/borna.000/Documents/PSYC/PSYC5316/Sternburg,no,mono,no,18,no,white,no,yes,768,legacy,6,11,C:/Users/borna.000/Documents/PSYC/PSYC5316/Sternburg/subject-1.csv,legacy,6 5,Lentiform Loewenfeld,3.3.9,2,y,0,left,right,right,left,NA,717,5179,26766,717,NA,2,legacy,2,1024,2,48000,-16,experiment,1,odd,5,103503,137589,2084,108683,144928,143859,2087,147131,149132,149850,145930,28854,149132,NA,144927,Sternburg Task,12,15687,19,yes,1024
60,60,833.3,833.3,black,experiment,legacy,legacy,legacy,0,uniform,0,undefined,0,right,0,19,0,0,19,19,0,19,19,19,19,0,19,0,19,10/13/2021 12:22,The main experiment item,yes,SternburgTask.osexp,C:/Users/borna.000/Documents/PSYC/PSYC5316/Sternburg,no,mono,no,18,no,white,no,yes,768,legacy,7,11,C:/Users/borna.000/Documents/PSYC/PSYC5316/Sternburg/subject-1.csv,legacy,4 8 1 2,Lentiform Loewenfeld,3.3.9,0,n,0,left,right,right,left,NA,979,5179,26766,979,NA,2,legacy,4,1024,2,48000,-16,experiment,1,odd,7,103503,149859,2084,108683,150928,143859,2087,153130,155131,156111,151929,28854,155131,NA,150926,Sternburg Task,12,16666,20,yes,1024
61.9047619,61.9047619,823.2857143,823.2857143,black,experiment,legacy,legacy,legacy,0,uniform,1,undefined,1,left,0,20,0,0,20,20,0,20,20,20,20,0,20,0,20,10/13/2021 12:22,The main experiment item,yes,SternburgTask.osexp,C:/Users/borna.000/Documents/PSYC/PSYC5316/Sternburg,no,mono,no,18,no,white,no,yes,768,legacy,8,11,C:/Users/borna.000/Documents/PSYC/PSYC5316/Sternburg/subject-1.csv,legacy,8 9 5 6 7,Lentiform Loewenfeld,3.3.9,1,y,0,left,right,right,left,NA,623,5179,26766,623,NA,2,legacy,5,1024,2,48000,-16,experiment,1,odd,8,103503,149859,2084,108683,157194,156119,2087,159396,161398,162022,158195,28854,161397,NA,157192,Sternburg Task,13,17289,21,yes,1024
63.63636364,63.63636364,834.0909091,834.0909091,black,experiment,legacy,legacy,legacy,0,uniform,1,undefined,1,left,0,21,0,0,21,21,0,21,21,21,21,0,21,0,21,10/13/2021 12:22,The main experiment item,yes,SternburgTask.osexp,C:/Users/borna.000/Documents/PSYC/PSYC5316/Sternburg,no,mono,no,18,no,white,no,yes,768,legacy,9,11,C:/Users/borna.000/Documents/PSYC/PSYC5316/Sternburg/subject-1.csv,legacy,9 6 2 4 1,Lentiform Loewenfeld,3.3.9,4,y,0,left,right,right,left,NA,1061,5179,26766,1061,NA,2,legacy,5,1024,2,48000,-16,experiment,1,odd,4,103503,162031,2084,108683,163104,156119,2087,165306,167307,168368,164105,28854,167307,NA,163102,Sternburg Task,14,18350,22,yes,1024
60.86956522,60.86956522,831,831,black,experiment,legacy,legacy,legacy,0,uniform,0,undefined,0,right,0,22,0,0,22,22,0,22,22,22,22,0,22,0,22,10/13/2021 12:22,The main experiment item,yes,SternburgTask.osexp,C:/Users/borna.000/Documents/PSYC/PSYC5316/Sternburg,no,mono,no,18,no,white,no,yes,768,legacy,10,11,C:/Users/borna.000/Documents/PSYC/PSYC5316/Sternburg/subject-1.csv,legacy,8 4 3 9,Lentiform Loewenfeld,3.3.9,0,n,0,left,right,right,left,NA,763,5179,26766,763,NA,2,legacy,4,1024,2,48000,-16,experiment,1,odd,5,103503,168372,2084,108683,169442,156119,2087,171646,173647,174411,170444,28854,173647,NA,169440,Sternburg Task,14,19113,23,yes,1024
62.5,62.5,846.5,846.5,black,experiment,legacy,legacy,legacy,0,uniform,1,undefined,1,right,0,23,0,0,23,23,0,23,23,23,23,0,23,0,23,10/13/2021 12:22,The main experiment item,yes,SternburgTask.osexp,C:/Users/borna.000/Documents/PSYC/PSYC5316/Sternburg,no,mono,no,18,no,white,no,yes,768,legacy,11,11,C:/Users/borna.000/Documents/PSYC/PSYC5316/Sternburg/subject-1.csv,legacy,6 9 4 5 3 2,Lentiform Loewenfeld,3.3.9,0,n,0,right,right,right,right,NA,1203,5179,26766,1203,NA,2,legacy,6,1024,2,48000,-16,experiment,1,odd,8,103503,168372,2084,108683,175488,174419,2087,177691,179692,180896,176489,28854,179692,NA,175486,Sternburg Task,15,20316,24,yes,1024
60,60,844.8,844.8,black,experiment,legacy,legacy,legacy,0,uniform,0,undefined,0,right,0,24,0,0,24,24,0,24,24,24,24,0,24,0,24,10/13/2021 12:22,The main experiment item,yes,SternburgTask.osexp,C:/Users/borna.000/Documents/PSYC/PSYC5316/Sternburg,no,mono,no,18,no,white,no,yes,768,legacy,12,11,C:/Users/borna.000/Documents/PSYC/PSYC5316/Sternburg/subject-1.csv,legacy,9 7 4 5 8,Lentiform Loewenfeld,3.3.9,0,n,0,left,right,right,left,NA,804,5179,26766,804,NA,2,legacy,5,1024,2,48000,-16,experiment,1,odd,6,103503,180904,2084,108683,181973,174419,2087,184175,186176,186981,182974,28854,186176,NA,181971,Sternburg Task,15,21120,25,yes,1024
57.69230769,57.69230769,842.2307692,842.2307692,black,experiment,legacy,legacy,legacy,0,uniform,0,undefined,0,left,0,25,0,0,25,25,0,25,25,25,25,0,25,0,25,10/13/2021 12:22,The main experiment item,yes,SternburgTask.osexp,C:/Users/borna.000/Documents/PSYC/PSYC5316/Sternburg,no,mono,no,18,no,white,no,yes,768,legacy,13,11,C:/Users/borna.000/Documents/PSYC/PSYC5316/Sternburg/subject-1.csv,legacy,6 9 3 1,Lentiform Loewenfeld,3.3.9,4,y,0,right,right,right,right,NA,778,5179,26766,778,NA,2,legacy,4,1024,2,48000,-16,experiment,1,odd,1,103503,180904,2084,108683,188058,186989,2087,190259,192260,193038,189059,28854,192260,NA,188056,Sternburg Task,15,21898,26,yes,1024
59.25925926,59.25925926,831.5185185,831.5185185,black,experiment,legacy,legacy,legacy,0,uniform,1,undefined,1,left,0,26,0,0,26,26,0,26,26,26,26,0,26,0,26,10/13/2021 12:22,The main experiment item,yes,SternburgTask.osexp,C:/Users/borna.000/Documents/PSYC/PSYC5316/Sternburg,no,mono,no,18,no,white,no,yes,768,legacy,14,11,C:/Users/borna.000/Documents/PSYC/PSYC5316/Sternburg/subject-1.csv,legacy,3 4,Lentiform Loewenfeld,3.3.9,1,y,0,left,right,right,left,NA,553,5179,26766,553,NA,2,legacy,2,1024,2,48000,-16,experiment,1,odd,3,103503,180904,2084,108683,194131,193047,2087,196333,198334,198888,195132,28854,198334,NA,194129,Sternburg Task,16,22451,27,yes,1024
57.14285714,57.14285714,825.0357143,825.0357143,black,experiment,legacy,legacy,legacy,0,uniform,0,undefined,0,right,0,27,0,0,27,27,0,27,27,27,27,0,27,0,27,10/13/2021 12:22,The main experiment item,yes,SternburgTask.osexp,C:/Users/borna.000/Documents/PSYC/PSYC5316/Sternburg,no,mono,no,18,no,white,no,yes,768,legacy,15,11,C:/Users/borna.000/Documents/PSYC/PSYC5316/Sternburg/subject-1.csv,legacy,1 7 5 2,Lentiform Loewenfeld,3.3.9,0,n,0,left,right,right,left,NA,650,5179,26766,650,NA,2,legacy,4,1024,2,48000,-16,experiment,1,odd,3,103503,198896,2084,108683,199965,193047,2087,202167,204168,204819,200966,28854,204168,NA,199963,Sternburg Task,16,23101,28,yes,1024
58.62068966,58.62068966,821.7931034,821.7931034,black,experiment,legacy,legacy,legacy,0,uniform,1,undefined,1,left,0,28,0,0,28,28,0,28,28,28,28,0,28,0,28,10/13/2021 12:22,The main experiment item,yes,SternburgTask.osexp,C:/Users/borna.000/Documents/PSYC/PSYC5316/Sternburg,no,mono,no,18,no,white,no,yes,768,legacy,16,11,C:/Users/borna.000/Documents/PSYC/PSYC5316/Sternburg/subject-1.csv,legacy,9 5 8 1,Lentiform Loewenfeld,3.3.9,2,y,0,left,right,right,left,NA,731,5179,26766,731,NA,2,legacy,4,1024,2,48000,-16,experiment,1,odd,5,103503,198896,2084,108683,205899,204828,2087,208102,210103,210835,206900,28854,210103,NA,205897,Sternburg Task,17,23832,29,yes,1024
56.66666667,56.66666667,821.1,821.1,black,experiment,legacy,legacy,legacy,0,uniform,0,undefined,0,right,0,29,0,0,29,29,0,29,29,29,29,0,29,0,29,10/13/2021 12:22,The main experiment item,yes,SternburgTask.osexp,C:/Users/borna.000/Documents/PSYC/PSYC5316/Sternburg,no,mono,no,18,no,white,no,yes,768,legacy,17,11,C:/Users/borna.000/Documents/PSYC/PSYC5316/Sternburg/subject-1.csv,legacy,8 6 3 4 7,Lentiform Loewenfeld,3.3.9,0,n,0,left,right,right,left,NA,801,5179,26766,801,NA,2,legacy,5,1024,2,48000,-16,experiment,1,odd,1,103503,210843,2084,108683,211913,204828,2087,214115,216117,216919,212914,28854,216116,NA,211910,Sternburg Task,17,24633,30,yes,1024
58.06451613,58.06451613,806.0645161,806.0645161,black,experiment,legacy,legacy,legacy,0,uniform,1,undefined,1,right,0,30,0,0,30,30,0,30,30,30,30,0,30,0,30,10/13/2021 12:22,The main experiment item,yes,SternburgTask.osexp,C:/Users/borna.000/Documents/PSYC/PSYC5316/Sternburg,no,mono,no,18,no,white,no,yes,768,legacy,18,11,C:/Users/borna.000/Documents/PSYC/PSYC5316/Sternburg/subject-1.csv,legacy,6 2 9 3 8 4,Lentiform Loewenfeld,3.3.9,0,n,0,right,right,right,right,NA,355,5179,26766,355,NA,2,legacy,6,1024,2,48000,-16,experiment,1,odd,1,103503,210843,2084,108683,217997,216928,2087,220199,222200,222555,218998,28854,222200,NA,217995,Sternburg Task,18,24988,31,yes,1024
56.25,56.25,796.84375,796.84375,black,experiment,legacy,legacy,legacy,0,uniform,0,undefined,0,right,0,31,0,0,31,31,0,31,31,31,31,0,31,0,31,10/13/2021 12:22,The main experiment item,yes,SternburgTask.osexp,C:/Users/borna.000/Documents/PSYC/PSYC5316/Sternburg,no,mono,no,18,no,white,no,yes,768,legacy,19,11,C:/Users/borna.000/Documents/PSYC/PSYC5316/Sternburg/subject-1.csv,legacy,8 5 4 2 9 6,Lentiform Loewenfeld,3.3.9,0,n,0,left,right,right,left,NA,511,5179,26766,511,NA,2,legacy,6,1024,2,48000,-16,experiment,1,odd,3,103503,222559,2084,108683,223630,216928,2087,225832,227833,228345,224631,28854,227833,NA,223628,Sternburg Task,18,25499,32,yes,1024
57.57575758,57.57575758,792.9090909,792.9090909,black,experiment,legacy,legacy,legacy,0,uniform,1,undefined,1,left,0,32,0,0,32,32,0,32,32,32,32,0,32,0,32,10/13/2021 12:22,The main experiment item,yes,SternburgTask.osexp,C:/Users/borna.000/Documents/PSYC/PSYC5316/Sternburg,no,mono,no,18,no,white,no,yes,768,legacy,20,11,C:/Users/borna.000/Documents/PSYC/PSYC5316/Sternburg/subject-1.csv,legacy,2 5 4 8 7,Lentiform Loewenfeld,3.3.9,3,y,0,left,right,right,left,NA,667,5179,26766,667,NA,2,legacy,5,1024,2,48000,-16,experiment,1,odd,4,103503,222559,2084,108683,229424,228353,2087,231626,233627,234294,230425,28854,233627,NA,229422,Sternburg Task,19,26166,33,yes,1024
58.82352941,58.82352941,789.4705882,789.4705882,black,experiment,legacy,legacy,legacy,0,uniform,1,undefined,1,right,0,33,0,0,33,33,0,33,33,33,33,0,33,0,33,10/13/2021 12:22,The main experiment item,yes,SternburgTask.osexp,C:/Users/borna.000/Documents/PSYC/PSYC5316/Sternburg,no,mono,no,18,no,white,no,yes,768,legacy,21,11,C:/Users/borna.000/Documents/PSYC/PSYC5316/Sternburg/subject-1.csv,legacy,3 9 1,Lentiform Loewenfeld,3.3.9,0,n,0,right,right,right,right,NA,676,5179,26766,676,NA,2,legacy,3,1024,2,48000,-16,experiment,1,odd,7,103503,234303,2084,108683,235372,228353,2087,237574,239575,240251,236373,28854,239575,NA,235370,Sternburg Task,20,26842,34,yes,1024
57.14285714,57.14285714,796.1714286,796.1714286,black,experiment,legacy,legacy,legacy,0,uniform,0,undefined,0,right,0,34,0,0,34,34,0,34,34,34,34,0,34,0,34,10/13/2021 12:22,The main experiment item,yes,SternburgTask.osexp,C:/Users/borna.000/Documents/PSYC/PSYC5316/Sternburg,no,mono,no,18,no,white,no,yes,768,legacy,22,11,C:/Users/borna.000/Documents/PSYC/PSYC5316/Sternburg/subject-1.csv,legacy,5 3 8 7 2 4,Lentiform Loewenfeld,3.3.9,0,n,0,left,right,right,left,NA,1024,5179,26766,1024,NA,2,legacy,6,1024,2,48000,-16,experiment,1,odd,9,103503,240259,2084,108683,241328,228353,2087,243531,245532,246556,242329,28854,245532,NA,241326,Sternburg Task,20,27866,35,yes,1024
55.55555556,55.55555556,785.6666667,785.6666667,black,experiment,legacy,legacy,legacy,0,uniform,0,undefined,0,left,0,35,0,0,35,35,0,35,35,35,35,0,35,0,35,10/13/2021 12:22,The main experiment item,yes,SternburgTask.osexp,C:/Users/borna.000/Documents/PSYC/PSYC5316/Sternburg,no,mono,no,18,no,white,no,yes,768,legacy,23,11,C:/Users/borna.000/Documents/PSYC/PSYC5316/Sternburg/subject-1.csv,legacy,9 5 3 8 4,Lentiform Loewenfeld,3.3.9,1,y,0,right,right,right,right,NA,418,5179,26766,418,NA,2,legacy,5,1024,2,48000,-16,experiment,1,odd,9,103503,240259,2084,108683,247636,246565,2087,249838,251840,252258,248637,28854,251839,NA,247634,Sternburg Task,20,28284,36,yes,1024
54.05405405,54.05405405,776.7297297,776.7297297,black,experiment,legacy,legacy,legacy,0,uniform,0,undefined,0,right,0,36,0,0,36,36,0,36,36,36,36,0,36,0,36,10/13/2021 12:22,The main experiment item,yes,SternburgTask.osexp,C:/Users/borna.000/Documents/PSYC/PSYC5316/Sternburg,no,mono,no,18,no,white,no,yes,768,legacy,24,11,C:/Users/borna.000/Documents/PSYC/PSYC5316/Sternburg/subject-1.csv,legacy,2 8 6 3 1,Lentiform Loewenfeld,3.3.9,0,n,0,left,right,right,left,NA,455,5179,26766,455,NA,2,legacy,5,1024,2,48000,-16,experiment,1,odd,7,103503,240259,2084,108683,253335,252266,2087,255537,257538,257993,254336,28854,257538,NA,253333,Sternburg Task,20,28739,37,yes,1024
52.63157895,52.63157895,786.3684211,786.3684211,black,experiment,legacy,legacy,legacy,0,uniform,0,undefined,0,left,0,37,0,0,37,37,0,37,37,37,37,0,37,0,37,10/13/2021 12:22,The main experiment item,yes,SternburgTask.osexp,C:/Users/borna.000/Documents/PSYC/PSYC5316/Sternburg,no,mono,no,18,no,white,no,yes,768,legacy,25,11,C:/Users/borna.000/Documents/PSYC/PSYC5316/Sternburg/subject-1.csv,legacy,2 4 6 9,Lentiform Loewenfeld,3.3.9,3,y,0,right,right,right,right,NA,1143,5179,26766,1143,NA,2,legacy,4,1024,2,48000,-16,experiment,1,odd,6,103503,240259,2084,108683,259070,258001,2087,261272,263273,264417,260071,28854,263273,NA,259068,Sternburg Task,20,29882,38,yes,1024
53.84615385,53.84615385,788.6923077,788.6923077,black,experiment,legacy,legacy,legacy,0,uniform,1,undefined,1,left,0,38,0,0,38,38,0,38,38,38,38,0,38,0,38,10/13/2021 12:22,The main experiment item,yes,SternburgTask.osexp,C:/Users/borna.000/Documents/PSYC/PSYC5316/Sternburg,no,mono,no,18,no,white,no,yes,768,legacy,26,11,C:/Users/borna.000/Documents/PSYC/PSYC5316/Sternburg/subject-1.csv,legacy,6 9 7 4 5 1,Lentiform Loewenfeld,3.3.9,2,y,0,left,right,right,left,NA,877,5179,26766,877,NA,2,legacy,6,1024,2,48000,-16,experiment,1,odd,9,103503,240259,2084,108683,265493,264423,2087,267695,269696,270573,266494,28854,269696,NA,265491,Sternburg Task,21,30759,39,yes,1024
52.5,52.5,790.7,790.7,black,experiment,legacy,legacy,legacy,0,uniform,0,undefined,0,right,0,39,0,0,39,39,0,39,39,39,39,0,39,0,39,10/13/2021 12:22,The main experiment item,yes,SternburgTask.osexp,C:/Users/borna.000/Documents/PSYC/PSYC5316/Sternburg,no,mono,no,18,no,white,no,yes,768,legacy,27,11,C:/Users/borna.000/Documents/PSYC/PSYC5316/Sternburg/subject-1.csv,legacy,1 6 4,Lentiform Loewenfeld,3.3.9,0,n,0,left,right,right,left,NA,869,5179,26766,869,NA,2,legacy,3,1024,2,48000,-16,experiment,1,odd,7,103503,270581,2084,108683,271651,264423,2087,273853,275854,276723,272652,28854,275854,NA,271649,Sternburg Task,21,31628,40,yes,1024
51.2195122,51.2195122,792.4390244,792.4390244,black,experiment,legacy,legacy,legacy,0,uniform,0,undefined,0,right,0,40,0,0,40,40,0,40,40,40,40,0,40,0,40,10/13/2021 12:22,The main experiment item,yes,SternburgTask.osexp,C:/Users/borna.000/Documents/PSYC/PSYC5316/Sternburg,no,mono,no,18,no,white,no,yes,768,legacy,28,11,C:/Users/borna.000/Documents/PSYC/PSYC5316/Sternburg/subject-1.csv,legacy,1 4 3 6 5,Lentiform Loewenfeld,3.3.9,0,n,0,left,right,right,left,NA,862,5179,26766,862,NA,2,legacy,5,1024,2,48000,-16,experiment,1,odd,8,103503,270581,2084,108683,277802,276732,2087,280004,282005,282867,278803,28854,282005,NA,277800,Sternburg Task,21,32490,41,yes,1024
52.38095238,52.38095238,784.5,784.5,black,experiment,legacy,legacy,legacy,0,uniform,1,undefined,1,right,0,41,0,0,41,41,0,41,41,41,41,0,41,0,41,10/13/2021 12:22,The main experiment item,yes,SternburgTask.osexp,C:/Users/borna.000/Documents/PSYC/PSYC5316/Sternburg,no,mono,no,18,no,white,no,yes,768,legacy,29,11,C:/Users/borna.000/Documents/PSYC/PSYC5316/Sternburg/subject-1.csv,legacy,4 1,Lentiform Loewenfeld,3.3.9,0,n,0,right,right,right,right,NA,459,5179,26766,459,NA,2,legacy,2,1024,2,48000,-16,experiment,1,odd,6,103503,270581,2084,108683,283946,282875,2087,286148,288149,288609,284947,28854,288149,NA,283944,Sternburg Task,22,32949,42,yes,1024
51.1627907,51.1627907,780.8372093,780.8372093,black,experiment,legacy,legacy,legacy,0,uniform,0,undefined,0,left,0,42,0,0,42,42,0,42,42,42,42,0,42,0,42,10/13/2021 12:22,The main experiment item,yes,SternburgTask.osexp,C:/Users/borna.000/Documents/PSYC/PSYC5316/Sternburg,no,mono,no,18,no,white,no,yes,768,legacy,30,11,C:/Users/borna.000/Documents/PSYC/PSYC5316/Sternburg/subject-1.csv,legacy,3 9 6 2,Lentiform Loewenfeld,3.3.9,4,y,0,right,right,right,right,NA,627,5179,26766,627,NA,2,legacy,4,1024,2,48000,-16,experiment,1,odd,2,103503,288617,2084,108683,289686,282875,2087,291890,293891,294519,290688,28854,293891,NA,289684,Sternburg Task,22,33576,43,yes,1024
52.27272727,52.27272727,778.2045455,778.2045455,black,experiment,legacy,legacy,legacy,0,uniform,1,undefined,1,left,0,43,0,0,43,43,0,43,43,43,43,0,43,0,43,10/13/2021 12:22,The main experiment item,yes,SternburgTask.osexp,C:/Users/borna.000/Documents/PSYC/PSYC5316/Sternburg,no,mono,no,18,no,white,no,yes,768,legacy,31,11,C:/Users/borna.000/Documents/PSYC/PSYC5316/Sternburg/subject-1.csv,legacy,2 4 8 5 1 3,Lentiform Loewenfeld,3.3.9,1,y,0,left,right,right,left,NA,665,5179,26766,665,NA,2,legacy,6,1024,2,48000,-16,experiment,1,odd,2,103503,288617,2084,108683,295596,294527,2087,297798,299799,300465,296597,28854,299799,NA,295594,Sternburg Task,23,34241,44,yes,1024
53.33333333,53.33333333,788.6444444,788.6444444,black,experiment,legacy,legacy,legacy,0,uniform,1,undefined,1,right,0,44,0,0,44,44,0,44,44,44,44,0,44,0,44,10/13/2021 12:22,The main experiment item,yes,SternburgTask.osexp,C:/Users/borna.000/Documents/PSYC/PSYC5316/Sternburg,no,mono,no,18,no,white,no,yes,768,legacy,32,11,C:/Users/borna.000/Documents/PSYC/PSYC5316/Sternburg/subject-1.csv,legacy,2 6 4 3 9,Lentiform Loewenfeld,3.3.9,0,n,0,right,right,right,right,NA,1248,5179,26766,1248,NA,2,legacy,5,1024,2,48000,-16,experiment,1,odd,1,103503,300473,2084,108683,301542,294527,2087,303744,305745,306993,302543,28854,305745,NA,301540,Sternburg Task,24,35489,45,yes,1024
52.17391304,52.17391304,793.2608696,793.2608696,black,experiment,legacy,legacy,legacy,0,uniform,0,undefined,0,left,0,45,0,0,45,45,0,45,45,45,45,0,45,0,45,10/13/2021 12:22,The main experiment item,yes,SternburgTask.osexp,C:/Users/borna.000/Documents/PSYC/PSYC5316/Sternburg,no,mono,no,18,no,white,no,yes,768,legacy,33,11,C:/Users/borna.000/Documents/PSYC/PSYC5316/Sternburg/subject-1.csv,legacy,6 7 8 5,Lentiform Loewenfeld,3.3.9,3,y,0,right,right,right,right,NA,1001,5179,26766,1001,NA,2,legacy,4,1024,2,48000,-16,experiment,1,odd,8,103503,307002,2084,108683,308071,294527,2087,310273,312274,313276,309072,28854,312274,NA,308069,Sternburg Task,24,36490,46,yes,1024
53.19148936,53.19148936,788.6595745,788.6595745,black,experiment,legacy,legacy,legacy,0,uniform,1,undefined,1,right,0,46,0,0,46,46,0,46,46,46,46,0,46,0,46,10/13/2021 12:22,The main experiment item,yes,SternburgTask.osexp,C:/Users/borna.000/Documents/PSYC/PSYC5316/Sternburg,no,mono,no,18,no,white,no,yes,768,legacy,34,11,C:/Users/borna.000/Documents/PSYC/PSYC5316/Sternburg/subject-1.csv,legacy,1 5 3 2 8,Lentiform Loewenfeld,3.3.9,0,n,0,right,right,right,right,NA,577,5179,26766,577,NA,2,legacy,5,1024,2,48000,-16,experiment,1,odd,4,103503,307002,2084,108683,314361,313285,2087,316563,318565,319143,315362,28854,318565,NA,314359,Sternburg Task,25,37067,47,yes,1024
54.16666667,54.16666667,792.7291667,792.7291667,black,experiment,legacy,legacy,legacy,0,uniform,1,undefined,1,left,0,47,0,0,47,47,0,47,47,47,47,0,47,0,47,10/13/2021 12:22,The main experiment item,yes,SternburgTask.osexp,C:/Users/borna.000/Documents/PSYC/PSYC5316/Sternburg,no,mono,no,18,no,white,no,yes,768,legacy,35,11,C:/Users/borna.000/Documents/PSYC/PSYC5316/Sternburg/subject-1.csv,legacy,4 1 8 7 5,Lentiform Loewenfeld,3.3.9,3,y,0,left,right,right,left,NA,984,5179,26766,984,NA,2,legacy,5,1024,2,48000,-16,experiment,1,odd,8,103503,319151,2084,108683,320222,313285,2087,322424,324426,325411,321223,28854,324426,NA,320220,Sternburg Task,26,38051,48,yes,1024
53.06122449,53.06122449,787.7755102,787.7755102,black,experiment,legacy,legacy,legacy,0,uniform,0,undefined,0,right,0,48,0,0,48,48,0,48,48,48,48,0,48,0,48,10/13/2021 12:22,The main experiment item,yes,SternburgTask.osexp,C:/Users/borna.000/Documents/PSYC/PSYC5316/Sternburg,no,mono,no,18,no,white,no,yes,768,legacy,36,11,C:/Users/borna.000/Documents/PSYC/PSYC5316/Sternburg/subject-1.csv,legacy,6 9 5,Lentiform Loewenfeld,3.3.9,0,n,0,left,right,right,left,NA,550,5179,26766,550,NA,2,legacy,3,1024,2,48000,-16,experiment,1,odd,8,103503,325420,2084,108683,326490,313285,2087,328692,330693,331243,327491,28854,330693,NA,326488,Sternburg Task,26,38601,49,yes,1024
52,52,799.26,799.26,black,experiment,legacy,legacy,legacy,0,uniform,0,undefined,0,right,0,49,0,0,49,49,0,49,49,49,49,0,49,0,49,10/13/2021 12:22,The main experiment item,yes,SternburgTask.osexp,C:/Users/borna.000/Documents/PSYC/PSYC5316/Sternburg,no,mono,no,18,no,white,no,yes,768,legacy,37,11,C:/Users/borna.000/Documents/PSYC/PSYC5316/Sternburg/subject-1.csv,legacy,4 2 6 9,Lentiform Loewenfeld,3.3.9,0,n,0,left,right,right,left,NA,1362,5179,26766,1362,NA,2,legacy,4,1024,2,48000,-16,experiment,1,odd,7,103503,325420,2084,108683,332323,331252,2087,334526,336528,337891,333324,28854,336528,NA,332321,Sternburg Task,26,39963,50,yes,1024
50.98039216,50.98039216,793.4901961,793.4901961,black,experiment,legacy,legacy,legacy,0,uniform,0,undefined,0,left,0,50,0,0,50,50,0,50,50,50,50,0,50,0,50,10/13/2021 12:22,The main experiment item,yes,SternburgTask.osexp,C:/Users/borna.000/Documents/PSYC/PSYC5316/Sternburg,no,mono,no,18,no,white,no,yes,768,legacy,38,11,C:/Users/borna.000/Documents/PSYC/PSYC5316/Sternburg/subject-1.csv,legacy,7 8 6 3 1,Lentiform Loewenfeld,3.3.9,5,y,0,right,right,right,right,NA,505,5179,26766,505,NA,2,legacy,5,1024,2,48000,-16,experiment,1,odd,1,103503,325420,2084,108683,338968,337899,2087,341170,343171,343677,339969,28854,343171,NA,338967,Sternburg Task,26,40468,51,yes,1024
51.92307692,51.92307692,793,793,black,experiment,legacy,legacy,legacy,0,uniform,1,undefined,1,left,0,51,0,0,51,51,0,51,51,51,51,0,51,0,51,10/13/2021 12:22,The main experiment item,yes,SternburgTask.osexp,C:/Users/borna.000/Documents/PSYC/PSYC5316/Sternburg,no,mono,no,18,no,white,no,yes,768,legacy,39,11,C:/Users/borna.000/Documents/PSYC/PSYC5316/Sternburg/subject-1.csv,legacy,9 3 8 2 1 4,Lentiform Loewenfeld,3.3.9,3,y,0,left,right,right,left,NA,768,5179,26766,768,NA,2,legacy,6,1024,2,48000,-16,experiment,1,odd,8,103503,325420,2084,108683,344755,343686,2087,346958,348961,349730,345756,28854,348960,NA,344753,Sternburg Task,27,41236,52,yes,1024
52.83018868,52.83018868,806.1132075,806.1132075,black,experiment,legacy,legacy,legacy,0,uniform,1,undefined,1,right,0,52,0,0,52,52,0,52,52,52,52,0,52,0,52,10/13/2021 12:22,The main experiment item,yes,SternburgTask.osexp,C:/Users/borna.000/Documents/PSYC/PSYC5316/Sternburg,no,mono,no,18,no,white,no,yes,768,legacy,40,11,C:/Users/borna.000/Documents/PSYC/PSYC5316/Sternburg/subject-1.csv,legacy,7 1,Lentiform Loewenfeld,3.3.9,0,n,0,right,right,right,right,NA,1488,5179,26766,1488,NA,2,legacy,2,1024,2,48000,-16,experiment,1,odd,8,103503,349738,2084,108683,350807,343686,2087,353009,355010,356499,351808,28854,355010,NA,350805,Sternburg Task,28,42724,53,yes,1024
53.7037037,53.7037037,799.8703704,799.8703704,black,experiment,legacy,legacy,legacy,0,uniform,1,undefined,1,right,0,53,0,0,53,53,0,53,53,53,53,0,53,0,53,10/13/2021 12:22,The main experiment item,yes,SternburgTask.osexp,C:/Users/borna.000/Documents/PSYC/PSYC5316/Sternburg,no,mono,no,18,no,white,no,yes,768,legacy,41,11,C:/Users/borna.000/Documents/PSYC/PSYC5316/Sternburg/subject-1.csv,legacy,5 3 2 6 9 8,Lentiform Loewenfeld,3.3.9,0,n,0,right,right,right,right,NA,469,5179,26766,469,NA,2,legacy,6,1024,2,48000,-16,experiment,1,odd,4,103503,356508,2084,108683,357579,343686,2087,359781,361782,362251,358580,28854,361782,NA,357577,Sternburg Task,29,43193,54,yes,1024
54.54545455,54.54545455,802.6363636,802.6363636,black,experiment,legacy,legacy,legacy,0,uniform,1,undefined,1,left,0,54,0,0,54,54,0,54,54,54,54,0,54,0,54,10/13/2021 12:22,The main experiment item,yes,SternburgTask.osexp,C:/Users/borna.000/Documents/PSYC/PSYC5316/Sternburg,no,mono,no,18,no,white,no,yes,768,legacy,42,11,C:/Users/borna.000/Documents/PSYC/PSYC5316/Sternburg/subject-1.csv,legacy,7 6,Lentiform Loewenfeld,3.3.9,2,y,0,left,right,right,left,NA,952,5179,26766,952,NA,2,legacy,2,1024,2,48000,-16,experiment,1,odd,6,103503,362259,2084,108683,363330,343686,2087,365534,367535,368488,364332,28854,367535,NA,363328,Sternburg Task,30,44145,55,yes,1024
55.35714286,55.35714286,818.375,818.375,black,experiment,legacy,legacy,legacy,0,uniform,1,undefined,1,right,0,55,0,0,55,55,0,55,55,55,55,0,55,0,55,10/13/2021 12:22,The main experiment item,yes,SternburgTask.osexp,C:/Users/borna.000/Documents/PSYC/PSYC5316/Sternburg,no,mono,no,18,no,white,no,yes,768,legacy,43,11,C:/Users/borna.000/Documents/PSYC/PSYC5316/Sternburg/subject-1.csv,legacy,1,Lentiform Loewenfeld,3.3.9,0,n,0,right,right,right,right,NA,1684,5179,26766,1684,NA,2,legacy,1,1024,2,48000,-16,experiment,1,odd,7,103503,368496,2084,108683,369565,343686,2087,371767,373768,375452,370566,28854,373768,NA,369563,Sternburg Task,31,45829,56,yes,1024
56.14035088,56.14035088,828.3684211,828.3684211,black,experiment,legacy,legacy,legacy,0,uniform,1,undefined,1,left,0,56,0,0,56,56,0,56,56,56,56,0,56,0,56,10/13/2021 12:22,The main experiment item,yes,SternburgTask.osexp,C:/Users/borna.000/Documents/PSYC/PSYC5316/Sternburg,no,mono,no,18,no,white,no,yes,768,legacy,44,11,C:/Users/borna.000/Documents/PSYC/PSYC5316/Sternburg/subject-1.csv,legacy,6 7 9 3 1 2,Lentiform Loewenfeld,3.3.9,1,y,0,left,right,right,left,NA,1388,5179,26766,1388,NA,2,legacy,6,1024,2,48000,-16,experiment,1,odd,6,103503,375460,2084,108683,376530,343686,2087,378732,380734,382123,377531,28854,380734,NA,376528,Sternburg Task,32,47217,57,yes,1024
56.89655172,56.89655172,829.8965517,829.8965517,black,experiment,legacy,legacy,legacy,0,uniform,1,undefined,1,right,0,57,0,0,57,57,0,57,57,57,57,0,57,0,57,10/13/2021 12:22,The main experiment item,yes,SternburgTask.osexp,C:/Users/borna.000/Documents/PSYC/PSYC5316/Sternburg,no,mono,no,18,no,white,no,yes,768,legacy,45,11,C:/Users/borna.000/Documents/PSYC/PSYC5316/Sternburg/subject-1.csv,legacy,2 3 8 5 6 7,Lentiform Loewenfeld,3.3.9,0,n,0,right,right,right,right,NA,917,5179,26766,917,NA,2,legacy,6,1024,2,48000,-16,experiment,1,odd,1,103503,382131,2084,108683,383207,343686,2087,385409,387410,388327,384208,28854,387410,NA,383205,Sternburg Task,33,48134,58,yes,1024
57.62711864,57.62711864,838.3050847,838.3050847,black,experiment,legacy,legacy,legacy,0,uniform,1,undefined,1,left,0,58,0,0,58,58,0,58,58,58,58,0,58,0,58,10/13/2021 12:22,The main experiment item,yes,SternburgTask.osexp,C:/Users/borna.000/Documents/PSYC/PSYC5316/Sternburg,no,mono,no,18,no,white,no,yes,768,legacy,46,11,C:/Users/borna.000/Documents/PSYC/PSYC5316/Sternburg/subject-1.csv,legacy,9 1 7 2,Lentiform Loewenfeld,3.3.9,2,y,0,left,right,right,left,NA,1326,5179,26766,1326,NA,2,legacy,4,1024,2,48000,-16,experiment,1,odd,1,103503,388336,2084,108683,389405,343686,2087,391608,393609,394935,390406,28854,393609,NA,389403,Sternburg Task,34,49460,59,yes,1024
58.33333333,58.33333333,834.7166667,834.7166667,black,experiment,legacy,legacy,legacy,0,uniform,1,undefined,1,left,0,59,0,0,59,59,0,59,59,59,59,0,59,0,59,10/13/2021 12:22,The main experiment item,yes,SternburgTask.osexp,C:/Users/borna.000/Documents/PSYC/PSYC5316/Sternburg,no,mono,no,18,no,white,no,yes,768,legacy,47,11,C:/Users/borna.000/Documents/PSYC/PSYC5316/Sternburg/subject-1.csv,legacy,4 1 5,Lentiform Loewenfeld,3.3.9,2,y,0,left,right,right,left,NA,623,5179,26766,623,NA,2,legacy,3,1024,2,48000,-16,experiment,1,odd,1,103503,394944,2084,108683,396015,343686,2087,398217,400218,400842,397016,28854,400218,NA,396013,Sternburg Task,35,50083,60,yes,1024
59.01639344,59.01639344,839.4754098,839.4754098,black,experiment,legacy,legacy,legacy,0,uniform,1,undefined,1,left,0,60,0,0,60,60,0,60,60,60,60,0,60,0,60,10/13/2021 12:22,The main experiment item,yes,SternburgTask.osexp,C:/Users/borna.000/Documents/PSYC/PSYC5316/Sternburg,no,mono,no,18,no,white,no,yes,768,legacy,48,11,C:/Users/borna.000/Documents/PSYC/PSYC5316/Sternburg/subject-1.csv,legacy,9 3 1 2 5,Lentiform Loewenfeld,3.3.9,4,y,0,left,right,right,left,NA,1125,5179,26766,1125,NA,2,legacy,5,1024,2,48000,-16,experiment,1,odd,2,103503,400851,2084,108683,401927,343686,2087,404129,406130,407256,402928,28854,406130,NA,401925,Sternburg Task,36,51208,61,yes,1024
59.67741935,59.67741935,839.5645161,839.5645161,black,experiment,legacy,legacy,legacy,0,uniform,1,undefined,1,right,0,61,0,0,61,61,0,61,61,61,61,0,61,0,61,10/13/2021 12:22,The main experiment item,yes,SternburgTask.osexp,C:/Users/borna.000/Documents/PSYC/PSYC5316/Sternburg,no,mono,no,18,no,white,no,yes,768,legacy,49,11,C:/Users/borna.000/Documents/PSYC/PSYC5316/Sternburg/subject-1.csv,legacy,7 1 8 4 9 3,Lentiform Loewenfeld,3.3.9,0,n,0,right,right,right,right,NA,845,5179,26766,845,NA,2,legacy,6,1024,2,48000,-16,experiment,1,odd,6,103503,407260,2084,108683,408330,343686,2087,410532,412534,413380,409331,28854,412533,NA,408328,Sternburg Task,37,52053,62,yes,1024
60.31746032,60.31746032,835.6825397,835.6825397,black,experiment,legacy,legacy,legacy,0,uniform,1,undefined,1,left,0,62,0,0,62,62,0,62,62,62,62,0,62,0,62,10/13/2021 12:22,The main experiment item,yes,SternburgTask.osexp,C:/Users/borna.000/Documents/PSYC/PSYC5316/Sternburg,no,mono,no,18,no,white,no,yes,768,legacy,50,11,C:/Users/borna.000/Documents/PSYC/PSYC5316/Sternburg/subject-1.csv,legacy,6 1 2,Lentiform Loewenfeld,3.3.9,3,y,0,left,right,right,left,NA,595,5179,26766,595,NA,2,legacy,3,1024,2,48000,-16,experiment,1,odd,2,103503,413388,2084,108683,414465,343686,2087,416666,418667,419262,415466,28854,418667,NA,414463,Sternburg Task,38,52648,63,yes,1024
60.9375,60.9375,836.6875,836.6875,black,experiment,legacy,legacy,legacy,0,uniform,1,undefined,1,left,0,63,0,0,63,63,0,63,63,63,63,0,63,0,63,10/13/2021 12:22,The main experiment item,yes,SternburgTask.osexp,C:/Users/borna.000/Documents/PSYC/PSYC5316/Sternburg,no,mono,no,18,no,white,no,yes,768,legacy,51,11,C:/Users/borna.000/Documents/PSYC/PSYC5316/Sternburg/subject-1.csv,legacy,8 3,Lentiform Loewenfeld,3.3.9,2,y,0,left,right,right,left,NA,900,5179,26766,900,NA,2,legacy,2,1024,2,48000,-16,experiment,1,odd,3,103503,419271,2084,108683,420343,343686,2087,422545,424546,425447,421344,28854,424546,NA,420341,Sternburg Task,39,53548,64,yes,1024
61.53846154,61.53846154,843.8,843.8,black,experiment,legacy,legacy,legacy,0,uniform,1,undefined,1,right,0,64,0,0,64,64,0,64,64,64,64,0,64,0,64,10/13/2021 12:22,The main experiment item,yes,SternburgTask.osexp,C:/Users/borna.000/Documents/PSYC/PSYC5316/Sternburg,no,mono,no,18,no,white,no,yes,768,legacy,52,11,C:/Users/borna.000/Documents/PSYC/PSYC5316/Sternburg/subject-1.csv,legacy,6 9 7 3 8 2,Lentiform Loewenfeld,3.3.9,0,n,0,right,right,right,right,NA,1299,5179,26766,1299,NA,2,legacy,6,1024,2,48000,-16,experiment,1,odd,5,103503,425455,2084,108683,426525,343686,2087,428727,430728,432028,427526,28854,430728,NA,426523,Sternburg Task,40,54847,65,yes,1024
60.60606061,60.60606061,857.8030303,857.8030303,black,experiment,legacy,legacy,legacy,0,uniform,0,undefined,0,left,0,65,0,0,65,65,0,65,65,65,65,0,65,0,65,10/13/2021 12:22,The main experiment item,yes,SternburgTask.osexp,C:/Users/borna.000/Documents/PSYC/PSYC5316/Sternburg,no,mono,no,18,no,white,no,yes,768,legacy,53,11,C:/Users/borna.000/Documents/PSYC/PSYC5316/Sternburg/subject-1.csv,legacy,6 8 9 3 4 9,Lentiform Loewenfeld,3.3.9,5,y,0,right,right,right,right,NA,1768,5179,26766,1768,NA,2,legacy,6,1024,2,48000,-16,experiment,1,odd,4,103503,432036,2084,108683,433106,343686,2087,435308,437309,439078,434107,28854,437309,NA,433104,Sternburg Task,40,56615,66,yes,1024
61.19402985,61.19402985,855.1343284,855.1343284,black,experiment,legacy,legacy,legacy,0,uniform,1,undefined,1,left,0,66,0,0,66,66,0,66,66,66,66,0,66,0,66,10/13/2021 12:22,The main experiment item,yes,SternburgTask.osexp,C:/Users/borna.000/Documents/PSYC/PSYC5316/Sternburg,no,mono,no,18,no,white,no,yes,768,legacy,54,11,C:/Users/borna.000/Documents/PSYC/PSYC5316/Sternburg/subject-1.csv,legacy,4 3 2 5 8,Lentiform Loewenfeld,3.3.9,2,y,0,left,right,right,left,NA,679,5179,26766,679,NA,2,legacy,5,1024,2,48000,-16,experiment,1,odd,3,103503,432036,2084,108683,440158,439087,2087,442360,444362,445042,441159,28854,444362,NA,440156,Sternburg Task,41,57294,67,yes,1024
61.76470588,61.76470588,855.2352941,855.2352941,black,experiment,legacy,legacy,legacy,0,uniform,1,undefined,1,left,0,67,0,0,67,67,0,67,67,67,67,0,67,0,67,10/13/2021 12:22,The main experiment item,yes,SternburgTask.osexp,C:/Users/borna.000/Documents/PSYC/PSYC5316/Sternburg,no,mono,no,18,no,white,no,yes,768,legacy,55,11,C:/Users/borna.000/Documents/PSYC/PSYC5316/Sternburg/subject-1.csv,legacy,2 3 7 4,Lentiform Loewenfeld,3.3.9,1,y,0,left,right,right,left,NA,862,5179,26766,862,NA,2,legacy,4,1024,2,48000,-16,experiment,1,odd,2,103503,445050,2084,108683,446121,439087,2087,448323,450324,451187,447122,28854,450324,NA,446119,Sternburg Task,42,58156,68,yes,1024
62.31884058,62.31884058,858.4202899,858.4202899,black,experiment,legacy,legacy,legacy,0,uniform,1,undefined,1,left,0,68,0,0,68,68,0,68,68,68,68,0,68,0,68,10/13/2021 12:22,The main experiment item,yes,SternburgTask.osexp,C:/Users/borna.000/Documents/PSYC/PSYC5316/Sternburg,no,mono,no,18,no,white,no,yes,768,legacy,56,11,C:/Users/borna.000/Documents/PSYC/PSYC5316/Sternburg/subject-1.csv,legacy,7 8 4 6 9 5,Lentiform Loewenfeld,3.3.9,4,y,0,left,right,right,left,NA,1075,5179,26766,1075,NA,2,legacy,6,1024,2,48000,-16,experiment,1,odd,6,103503,451195,2084,108683,452264,439087,2087,454466,456467,457542,453265,28854,456467,NA,452262,Sternburg Task,43,59231,69,yes,1024
61.42857143,61.42857143,855,855,black,experiment,legacy,legacy,legacy,0,uniform,0,undefined,0,right,0,69,0,0,69,69,0,69,69,69,69,0,69,0,69,10/13/2021 12:22,The main experiment item,yes,SternburgTask.osexp,C:/Users/borna.000/Documents/PSYC/PSYC5316/Sternburg,no,mono,no,18,no,white,no,yes,768,legacy,57,11,C:/Users/borna.000/Documents/PSYC/PSYC5316/Sternburg/subject-1.csv,legacy,2 5 1 4,Lentiform Loewenfeld,3.3.9,0,n,0,left,right,right,left,NA,619,5179,26766,619,NA,2,legacy,4,1024,2,48000,-16,experiment,1,odd,6,103503,457550,2084,108683,458621,439087,2087,460823,462824,463447,459622,28854,462824,NA,458619,Sternburg Task,43,59850,70,yes,1024
61.97183099,61.97183099,856.0140845,856.0140845,black,experiment,legacy,legacy,legacy,0,uniform,1,undefined,1,left,0,70,0,0,70,70,0,70,70,70,70,0,70,0,70,10/13/2021 12:22,The main experiment item,yes,SternburgTask.osexp,C:/Users/borna.000/Documents/PSYC/PSYC5316/Sternburg,no,mono,no,18,no,white,no,yes,768,legacy,58,11,C:/Users/borna.000/Documents/PSYC/PSYC5316/Sternburg/subject-1.csv,legacy,4 6 2 5 1,Lentiform Loewenfeld,3.3.9,5,y,0,left,right,right,left,NA,927,5179,26766,927,NA,2,legacy,5,1024,2,48000,-16,experiment,1,odd,1,103503,457550,2084,108683,464557,463454,2087,466759,468762,469691,465558,28854,468761,NA,464555,Sternburg Task,44,60777,71,yes,1024
62.5,62.5,850.9444444,850.9444444,black,experiment,legacy,legacy,legacy,0,uniform,1,undefined,1,left,0,71,0,0,71,71,0,71,71,71,71,0,71,0,71,10/13/2021 12:22,The main experiment item,yes,SternburgTask.osexp,C:/Users/borna.000/Documents/PSYC/PSYC5316/Sternburg,no,mono,no,18,no,white,no,yes,768,legacy,59,11,C:/Users/borna.000/Documents/PSYC/PSYC5316/Sternburg/subject-1.csv,legacy,8 9 6 1,Lentiform Loewenfeld,3.3.9,2,y,0,left,right,right,left,NA,491,5179,26766,491,NA,2,legacy,4,1024,2,48000,-16,experiment,1,odd,9,103503,469701,2084,108683,470804,463454,2087,473006,475007,475499,471805,28854,475007,NA,470802,Sternburg Task,45,61268,72,yes,1024
63.01369863,63.01369863,850.890411,850.890411,black,experiment,legacy,legacy,legacy,0,uniform,1,undefined,1,right,0,72,0,0,72,72,0,72,72,72,72,0,72,0,72,10/13/2021 12:22,The main experiment item,yes,SternburgTask.osexp,C:/Users/borna.000/Documents/PSYC/PSYC5316/Sternburg,no,mono,no,18,no,white,no,yes,768,legacy,60,11,C:/Users/borna.000/Documents/PSYC/PSYC5316/Sternburg/subject-1.csv,legacy,1 7 5 2 9,Lentiform Loewenfeld,3.3.9,0,n,0,right,right,right,right,NA,847,5179,26766,847,NA,2,legacy,5,1024,2,48000,-16,experiment,1,odd,3,103503,475504,2084,108683,476578,463454,2087,478780,480781,481629,477579,28854,480781,NA,476576,Sternburg Task,46,62115,73,yes,1024
63.51351351,63.51351351,855.472973,855.472973,black,experiment,legacy,legacy,legacy,0,uniform,1,undefined,1,left,0,73,0,0,73,73,0,73,73,73,73,0,73,0,73,10/13/2021 12:22,The main experiment item,yes,SternburgTask.osexp,C:/Users/borna.000/Documents/PSYC/PSYC5316/Sternburg,no,mono,no,18,no,white,no,yes,768,legacy,61,11,C:/Users/borna.000/Documents/PSYC/PSYC5316/Sternburg/subject-1.csv,legacy,3 9 7 6 4,Lentiform Loewenfeld,3.3.9,3,y,0,left,right,right,left,NA,1190,5179,26766,1190,NA,2,legacy,5,1024,2,48000,-16,experiment,1,odd,7,103503,481661,2084,108683,482737,463454,2087,484939,486941,488132,483738,28854,486941,NA,482735,Sternburg Task,47,63305,74,yes,1024
64,64,864.9333333,864.9333333,black,experiment,legacy,legacy,legacy,0,uniform,1,undefined,1,left,0,74,0,0,74,74,0,74,74,74,74,0,74,0,74,10/13/2021 12:22,The main experiment item,yes,SternburgTask.osexp,C:/Users/borna.000/Documents/PSYC/PSYC5316/Sternburg,no,mono,no,18,no,white,no,yes,768,legacy,62,11,C:/Users/borna.000/Documents/PSYC/PSYC5316/Sternburg/subject-1.csv,legacy,3 4 9 6 2 9,Lentiform Loewenfeld,3.3.9,5,y,0,left,right,right,left,NA,1565,5179,26766,1565,NA,2,legacy,6,1024,2,48000,-16,experiment,1,odd,2,103503,488162,2084,108683,489235,463454,2087,491438,493440,495006,490237,28854,493439,NA,489234,Sternburg Task,48,64870,75,yes,1024
64.47368421,64.47368421,867.2236842,867.2236842,black,experiment,legacy,legacy,legacy,0,uniform,1,undefined,1,left,0,75,0,0,75,75,0,75,75,75,75,0,75,0,75,10/13/2021 12:22,The main experiment item,yes,SternburgTask.osexp,C:/Users/borna.000/Documents/PSYC/PSYC5316/Sternburg,no,mono,no,18,no,white,no,yes,768,legacy,63,11,C:/Users/borna.000/Documents/PSYC/PSYC5316/Sternburg/subject-1.csv,legacy,8 5 1 3 9,Lentiform Loewenfeld,3.3.9,4,y,0,left,right,right,left,NA,1039,5179,26766,1039,NA,2,legacy,5,1024,2,48000,-16,experiment,1,odd,3,103503,495011,2084,108683,496093,463454,2087,498295,500297,501337,497094,28854,500296,NA,496090,Sternburg Task,49,65909,76,yes,1024
64.93506494,64.93506494,868.4415584,868.4415584,black,experiment,legacy,legacy,legacy,0,uniform,1,undefined,1,left,0,76,0,0,76,76,0,76,76,76,76,0,76,0,76,10/13/2021 12:22,The main experiment item,yes,SternburgTask.osexp,C:/Users/borna.000/Documents/PSYC/PSYC5316/Sternburg,no,mono,no,18,no,white,no,yes,768,legacy,64,11,C:/Users/borna.000/Documents/PSYC/PSYC5316/Sternburg/subject-1.csv,legacy,4,Lentiform Loewenfeld,3.3.9,1,y,0,left,right,right,left,NA,961,5179,26766,961,NA,2,legacy,1,1024,2,48000,-16,experiment,1,odd,4,103503,501341,2084,108683,502417,463454,2087,504619,506621,507583,503418,28854,506621,NA,502415,Sternburg Task,50,66870,77,yes,1024
65.38461538,65.38461538,880.8076923,880.8076923,black,experiment,legacy,legacy,legacy,0,uniform,1,undefined,1,right,0,77,0,0,77,77,0,77,77,77,77,0,77,0,77,10/13/2021 12:22,The main experiment item,yes,SternburgTask.osexp,C:/Users/borna.000/Documents/PSYC/PSYC5316/Sternburg,no,mono,no,18,no,white,no,yes,768,legacy,65,11,C:/Users/borna.000/Documents/PSYC/PSYC5316/Sternburg/subject-1.csv,legacy,1 4 9 2 5,Lentiform Loewenfeld,3.3.9,0,n,0,right,right,right,right,NA,1833,5179,26766,1833,NA,2,legacy,5,1024,2,48000,-16,experiment,1,odd,7,103503,507591,2084,108683,508668,463454,2087,510871,512876,514710,509669,28854,512872,NA,508663,Sternburg Task,51,68703,78,yes,1024
65.82278481,65.82278481,882.0886076,882.0886076,black,experiment,legacy,legacy,legacy,0,uniform,1,undefined,1,right,0,78,0,0,78,78,0,78,78,78,78,0,78,0,78,10/13/2021 12:22,The main experiment item,yes,SternburgTask.osexp,C:/Users/borna.000/Documents/PSYC/PSYC5316/Sternburg,no,mono,no,18,no,white,no,yes,768,legacy,66,11,C:/Users/borna.000/Documents/PSYC/PSYC5316/Sternburg/subject-1.csv,legacy,6 8,Lentiform Loewenfeld,3.3.9,0,n,0,right,right,right,right,NA,982,5179,26766,982,NA,2,legacy,2,1024,2,48000,-16,experiment,1,odd,9,103503,514719,2084,108683,515789,463454,2087,517992,519994,520977,516790,28854,519994,NA,515787,Sternburg Task,52,69685,79,yes,1024
66.25,66.25,887.8,887.8,black,experiment,legacy,legacy,legacy,0,uniform,1,undefined,1,right,0,79,0,0,79,79,0,79,79,79,79,0,79,0,79,10/13/2021 12:22,The main experiment item,yes,SternburgTask.osexp,C:/Users/borna.000/Documents/PSYC/PSYC5316/Sternburg,no,mono,no,18,no,white,no,yes,768,legacy,67,11,C:/Users/borna.000/Documents/PSYC/PSYC5316/Sternburg/subject-1.csv,legacy,6 7 5 9,Lentiform Loewenfeld,3.3.9,0,n,0,right,right,right,right,NA,1339,5179,26766,1339,NA,2,legacy,4,1024,2,48000,-16,experiment,1,odd,2,103503,520985,2084,108683,522059,463454,2087,524261,526262,527602,523060,28854,526262,NA,522057,Sternburg Task,53,71024,80,yes,1024
65.43209877,65.43209877,884.3580247,884.3580247,black,experiment,legacy,legacy,legacy,0,uniform,0,undefined,0,right,0,80,0,0,80,80,0,80,80,80,80,0,80,0,80,10/13/2021 12:22,The main experiment item,yes,SternburgTask.osexp,C:/Users/borna.000/Documents/PSYC/PSYC5316/Sternburg,no,mono,no,18,no,white,no,yes,768,legacy,68,11,C:/Users/borna.000/Documents/PSYC/PSYC5316/Sternburg/subject-1.csv,legacy,2 7 5,Lentiform Loewenfeld,3.3.9,0,n,0,left,right,right,left,NA,609,5179,26766,609,NA,2,legacy,3,1024,2,48000,-16,experiment,1,odd,8,103503,527610,2084,108683,528680,463454,2087,530882,532884,533494,529681,28854,532884,NA,528678,Sternburg Task,53,71633,81,yes,1024
65.85365854,65.85365854,887.1219512,887.1219512,black,experiment,legacy,legacy,legacy,0,uniform,1,undefined,1,right,0,81,0,0,81,81,0,81,81,81,81,0,81,0,81,10/13/2021 12:22,The main experiment item,yes,SternburgTask.osexp,C:/Users/borna.000/Documents/PSYC/PSYC5316/Sternburg,no,mono,no,18,no,white,no,yes,768,legacy,69,11,C:/Users/borna.000/Documents/PSYC/PSYC5316/Sternburg/subject-1.csv,legacy,2 8 7 9 5 3,Lentiform Loewenfeld,3.3.9,0,n,0,right,right,right,right,NA,1111,5179,26766,1111,NA,2,legacy,6,1024,2,48000,-16,experiment,1,odd,6,103503,527610,2084,108683,534573,533502,2087,536776,538777,539889,535575,28854,538777,NA,534571,Sternburg Task,54,72744,82,yes,1024
65.06024096,65.06024096,886.4819277,886.4819277,black,experiment,legacy,legacy,legacy,0,uniform,0,undefined,0,right,0,82,0,0,82,82,0,82,82,82,82,0,82,0,82,10/13/2021 12:22,The main experiment item,yes,SternburgTask.osexp,C:/Users/borna.000/Documents/PSYC/PSYC5316/Sternburg,no,mono,no,18,no,white,no,yes,768,legacy,70,11,C:/Users/borna.000/Documents/PSYC/PSYC5316/Sternburg/subject-1.csv,legacy,3 4 9 6 7 8,Lentiform Loewenfeld,3.3.9,0,n,0,left,right,right,left,NA,834,5179,26766,834,NA,2,legacy,6,1024,2,48000,-16,experiment,1,odd,2,103503,539898,2084,108683,540967,533502,2087,543169,545170,546005,541968,28854,545170,NA,540965,Sternburg Task,54,73578,83,yes,1024
64.28571429,64.28571429,899.7380952,899.7380952,black,experiment,legacy,legacy,legacy,0,uniform,0,undefined,0,right,0,83,0,0,83,83,0,83,83,83,83,0,83,0,83,10/13/2021 12:22,The main experiment item,yes,SternburgTask.osexp,C:/Users/borna.000/Documents/PSYC/PSYC5316/Sternburg,no,mono,no,18,no,white,no,yes,768,legacy,71,11,C:/Users/borna.000/Documents/PSYC/PSYC5316/Sternburg/subject-1.csv,legacy,7 3 2 8,Lentiform Loewenfeld,3.3.9,0,n,0,None,right,right,None,NA,2000,5179,26766,2000,NA,2,legacy,4,1024,2,48000,-16,experiment,1,odd,4,103503,539898,2084,108683,547084,546014,2087,549287,551288,553288,548086,28854,551288,NA,547082,Sternburg Task,54,75578,84,yes,1024
64.70588235,64.70588235,900.9764706,900.9764706,black,experiment,legacy,legacy,legacy,0,uniform,1,undefined,1,left,0,84,0,0,84,84,0,84,84,84,84,0,84,0,84,10/13/2021 12:22,The main experiment item,yes,SternburgTask.osexp,C:/Users/borna.000/Documents/PSYC/PSYC5316/Sternburg,no,mono,no,18,no,white,no,yes,768,legacy,72,11,C:/Users/borna.000/Documents/PSYC/PSYC5316/Sternburg/subject-1.csv,legacy,9 1 6 7 8,Lentiform Loewenfeld,3.3.9,1,y,0,left,right,right,left,NA,1005,5179,26766,1005,NA,2,legacy,5,1024,2,48000,-16,experiment,1,odd,9,103503,539898,2084,108683,554366,553296,2087,556568,558569,559575,555367,28854,558569,NA,554364,Sternburg Task,55,76583,85,yes,1024
63.95348837,63.95348837,899.2906977,899.2906977,black,experiment,legacy,legacy,legacy,0,uniform,0,undefined,0,right,0,85,0,0,85,85,0,85,85,85,85,0,85,0,85,10/13/2021 12:22,The main experiment item,yes,SternburgTask.osexp,C:/Users/borna.000/Documents/PSYC/PSYC5316/Sternburg,no,mono,no,18,no,white,no,yes,768,legacy,73,11,C:/Users/borna.000/Documents/PSYC/PSYC5316/Sternburg/subject-1.csv,legacy,8 9,Lentiform Loewenfeld,3.3.9,0,n,0,left,right,right,left,NA,756,5179,26766,756,NA,2,legacy,2,1024,2,48000,-16,experiment,1,odd,5,103503,559584,2084,108683,560658,553296,2087,562861,564862,565619,561659,28854,564862,NA,560656,Sternburg Task,55,77339,86,yes,1024
64.36781609,64.36781609,901.2068966,901.2068966,black,experiment,legacy,legacy,legacy,0,uniform,1,undefined,1,left,0,86,0,0,86,86,0,86,86,86,86,0,86,0,86,10/13/2021 12:22,The main experiment item,yes,SternburgTask.osexp,C:/Users/borna.000/Documents/PSYC/PSYC5316/Sternburg,no,mono,no,18,no,white,no,yes,768,legacy,74,11,C:/Users/borna.000/Documents/PSYC/PSYC5316/Sternburg/subject-1.csv,legacy,5 2 6,Lentiform Loewenfeld,3.3.9,2,y,0,left,right,right,left,NA,1066,5179,26766,1066,NA,2,legacy,3,1024,2,48000,-16,experiment,1,odd,2,103503,559584,2084,108683,566703,565634,2087,568905,570907,571974,567704,28854,570906,NA,566701,Sternburg Task,56,78405,87,yes,1024
64.77272727,64.77272727,901.8295455,901.8295455,black,experiment,legacy,legacy,legacy,0,uniform,1,undefined,1,left,0,87,0,0,87,87,0,87,87,87,87,0,87,0,87,10/13/2021 12:22,The main experiment item,yes,SternburgTask.osexp,C:/Users/borna.000/Documents/PSYC/PSYC5316/Sternburg,no,mono,no,18,no,white,no,yes,768,legacy,75,11,C:/Users/borna.000/Documents/PSYC/PSYC5316/Sternburg/subject-1.csv,legacy,8,Lentiform Loewenfeld,3.3.9,1,y,0,left,right,right,left,NA,956,5179,26766,956,NA,2,legacy,1,1024,2,48000,-16,experiment,1,odd,8,103503,571982,2084,108683,573051,565634,2087,575253,577254,578211,574052,28854,577254,NA,573049,Sternburg Task,57,79361,88,yes,1024
65.16853933,65.16853933,898.7078652,898.7078652,black,experiment,legacy,legacy,legacy,0,uniform,1,undefined,1,left,0,88,0,0,88,88,0,88,88,88,88,0,88,0,88,10/13/2021 12:22,The main experiment item,yes,SternburgTask.osexp,C:/Users/borna.000/Documents/PSYC/PSYC5316/Sternburg,no,mono,no,18,no,white,no,yes,768,legacy,76,11,C:/Users/borna.000/Documents/PSYC/PSYC5316/Sternburg/subject-1.csv,legacy,5 7 3 6 2,Lentiform Loewenfeld,3.3.9,5,y,0,left,right,right,left,NA,624,5179,26766,624,NA,2,legacy,5,1024,2,48000,-16,experiment,1,odd,2,103503,578220,2084,108683,579298,565634,2087,581501,583502,584127,580299,28854,583502,NA,579296,Sternburg Task,58,79985,89,yes,1024
64.44444444,64.44444444,898.4777778,898.4777778,black,experiment,legacy,legacy,legacy,0,uniform,0,undefined,0,left,0,89,0,0,89,89,0,89,89,89,89,0,89,0,89,10/13/2021 12:22,The main experiment item,yes,SternburgTask.osexp,C:/Users/borna.000/Documents/PSYC/PSYC5316/Sternburg,no,mono,no,18,no,white,no,yes,768,legacy,77,11,C:/Users/borna.000/Documents/PSYC/PSYC5316/Sternburg/subject-1.csv,legacy,9 8 4,Lentiform Loewenfeld,3.3.9,1,y,0,right,right,right,right,NA,878,5179,26766,878,NA,2,legacy,3,1024,2,48000,-16,experiment,1,odd,9,103503,584135,2084,108683,585204,565634,2087,587406,589407,590286,586205,28854,589407,NA,585202,Sternburg Task,58,80863,90,yes,1024
63.73626374,63.73626374,907.2857143,907.2857143,black,experiment,legacy,legacy,legacy,0,uniform,0,undefined,0,right,0,90,0,0,90,90,0,90,90,90,90,0,90,0,90,10/13/2021 12:22,The main experiment item,yes,SternburgTask.osexp,C:/Users/borna.000/Documents/PSYC/PSYC5316/Sternburg,no,mono,no,18,no,white,no,yes,768,legacy,78,11,C:/Users/borna.000/Documents/PSYC/PSYC5316/Sternburg/subject-1.csv,legacy,5,Lentiform Loewenfeld,3.3.9,0,n,0,left,right,right,left,NA,1700,5179,26766,1700,NA,2,legacy,1,1024,2,48000,-16,experiment,1,odd,8,103503,584135,2084,108683,591363,590294,2087,593566,595567,597268,592365,28854,595567,NA,591361,Sternburg Task,58,82563,91,yes,1024
64.13043478,64.13043478,915.2934783,915.2934783,black,experiment,legacy,legacy,legacy,0,uniform,1,undefined,1,left,0,91,0,0,91,91,0,91,91,91,91,0,91,0,91,10/13/2021 12:22,The main experiment item,yes,SternburgTask.osexp,C:/Users/borna.000/Documents/PSYC/PSYC5316/Sternburg,no,mono,no,18,no,white,no,yes,768,legacy,79,11,C:/Users/borna.000/Documents/PSYC/PSYC5316/Sternburg/subject-1.csv,legacy,8 5 4 7 3 1,Lentiform Loewenfeld,3.3.9,2,y,0,left,right,right,left,NA,1644,5179,26766,1644,NA,2,legacy,6,1024,2,48000,-16,experiment,1,odd,5,103503,584135,2084,108683,598347,597277,2087,600549,602550,604195,599348,28854,602550,NA,598345,Sternburg Task,59,84207,92,yes,1024
64.51612903,64.51612903,918.9677419,918.9677419,black,experiment,legacy,legacy,legacy,0,uniform,1,undefined,1,left,0,92,0,0,92,92,0,92,92,92,92,0,92,0,92,10/13/2021 12:22,The main experiment item,yes,SternburgTask.osexp,C:/Users/borna.000/Documents/PSYC/PSYC5316/Sternburg,no,mono,no,18,no,white,no,yes,768,legacy,80,11,C:/Users/borna.000/Documents/PSYC/PSYC5316/Sternburg/subject-1.csv,legacy,9 4 2,Lentiform Loewenfeld,3.3.9,1,y,0,left,right,right,left,NA,1257,5179,26766,1257,NA,2,legacy,3,1024,2,48000,-16,experiment,1,odd,9,103503,604199,2084,108683,605267,597277,2087,607469,609470,610728,606268,28854,609470,NA,605265,Sternburg Task,60,85464,93,yes,1024
63.82978723,63.82978723,930.4680851,930.4680851,black,experiment,legacy,legacy,legacy,0,uniform,0,undefined,0,right,0,93,0,0,93,93,0,93,93,93,93,0,93,0,93,10/13/2021 12:22,The main experiment item,yes,SternburgTask.osexp,C:/Users/borna.000/Documents/PSYC/PSYC5316/Sternburg,no,mono,no,18,no,white,no,yes,768,legacy,81,11,C:/Users/borna.000/Documents/PSYC/PSYC5316/Sternburg/subject-1.csv,legacy,2 8 9 4 1,Lentiform Loewenfeld,3.3.9,0,n,0,None,right,right,None,NA,2000,5179,26766,2000,NA,2,legacy,5,1024,2,48000,-16,experiment,1,odd,5,103503,610737,2084,108683,611807,597277,2087,614009,616011,618011,612808,28854,616011,NA,611805,Sternburg Task,60,87464,94,yes,1024
64.21052632,64.21052632,938.6421053,938.6421053,black,experiment,legacy,legacy,legacy,0,uniform,1,undefined,1,right,0,94,0,0,94,94,0,94,94,94,94,0,94,0,94,10/13/2021 12:22,The main experiment item,yes,SternburgTask.osexp,C:/Users/borna.000/Documents/PSYC/PSYC5316/Sternburg,no,mono,no,18,no,white,no,yes,768,legacy,82,11,C:/Users/borna.000/Documents/PSYC/PSYC5316/Sternburg/subject-1.csv,legacy,1 6 4 3 9 7,Lentiform Loewenfeld,3.3.9,0,n,0,right,right,right,right,NA,1707,5179,26766,1707,NA,2,legacy,6,1024,2,48000,-16,experiment,1,odd,8,103503,610737,2084,108683,619090,618019,2087,621292,623293,625001,620091,28854,623293,NA,619088,Sternburg Task,61,89171,95,yes,1024
63.54166667,63.54166667,949.6979167,949.6979167,black,experiment,legacy,legacy,legacy,0,uniform,0,undefined,0,left,0,95,0,0,95,95,0,95,95,95,95,0,95,0,95,10/13/2021 12:22,The main experiment item,yes,SternburgTask.osexp,C:/Users/borna.000/Documents/PSYC/PSYC5316/Sternburg,no,mono,no,18,no,white,no,yes,768,legacy,83,11,C:/Users/borna.000/Documents/PSYC/PSYC5316/Sternburg/subject-1.csv,legacy,7 4 2 6 3 5,Lentiform Loewenfeld,3.3.9,6,y,0,None,right,right,None,NA,2000,5179,26766,2000,NA,2,legacy,6,1024,2,48000,-16,experiment,1,odd,5,103503,625009,2084,108683,626080,618019,2087,628282,630283,632283,627081,28854,630283,NA,626078,Sternburg Task,61,91171,96,yes,1024
63.91752577,63.91752577,957.0206186,957.0206186,black,experiment,legacy,legacy,legacy,0,uniform,1,undefined,1,right,0,96,0,0,96,96,0,96,96,96,96,0,96,0,96,10/13/2021 12:22,The main experiment item,yes,SternburgTask.osexp,C:/Users/borna.000/Documents/PSYC/PSYC5316/Sternburg,no,mono,no,18,no,white,no,yes,768,legacy,84,11,C:/Users/borna.000/Documents/PSYC/PSYC5316/Sternburg/subject-1.csv,legacy,8 2 1 4 5 9,Lentiform Loewenfeld,3.3.9,0,n,0,right,right,right,right,NA,1660,5179,26766,1660,NA,2,legacy,6,1024,2,48000,-16,experiment,1,odd,7,103503,625009,2084,108683,633366,632291,2087,635568,637569,639230,634367,28854,637569,NA,633364,Sternburg Task,62,92831,97,yes,1024
64.28571429,64.28571429,961.4387755,961.4387755,black,experiment,legacy,legacy,legacy,0,uniform,1,undefined,1,left,0,97,0,0,97,97,0,97,97,97,97,0,97,0,97,10/13/2021 12:22,The main experiment item,yes,SternburgTask.osexp,C:/Users/borna.000/Documents/PSYC/PSYC5316/Sternburg,no,mono,no,18,no,white,no,yes,768,legacy,85,11,C:/Users/borna.000/Documents/PSYC/PSYC5316/Sternburg/subject-1.csv,legacy,2 3,Lentiform Loewenfeld,3.3.9,1,y,0,left,right,right,left,NA,1390,5179,26766,1390,NA,2,legacy,2,1024,2,48000,-16,experiment,1,odd,2,103503,639239,2084,108683,640312,632291,2087,642514,644515,645906,641313,28854,644515,NA,640310,Sternburg Task,63,94221,98,yes,1024
63.63636364,63.63636364,964.8585859,964.8585859,black,experiment,legacy,legacy,legacy,0,uniform,0,undefined,0,right,0,98,0,0,98,98,0,98,98,98,98,0,98,0,98,10/13/2021 12:22,The main experiment item,yes,SternburgTask.osexp,C:/Users/borna.000/Documents/PSYC/PSYC5316/Sternburg,no,mono,no,18,no,white,no,yes,768,legacy,86,11,C:/Users/borna.000/Documents/PSYC/PSYC5316/Sternburg/subject-1.csv,legacy,9,Lentiform Loewenfeld,3.3.9,0,n,0,left,right,right,left,NA,1300,5179,26766,1300,NA,2,legacy,1,1024,2,48000,-16,experiment,1,odd,6,103503,645915,2084,108683,646983,632291,2087,649185,651187,652488,647984,28854,651187,NA,646981,Sternburg Task,63,95521,99,yes,1024
64,64,966.47,966.47,black,experiment,legacy,legacy,legacy,0,uniform,1,undefined,1,left,0,99,0,0,99,99,0,99,99,99,99,0,99,0,99,10/13/2021 12:22,The main experiment item,yes,SternburgTask.osexp,C:/Users/borna.000/Documents/PSYC/PSYC5316/Sternburg,no,mono,no,18,no,white,no,yes,768,legacy,87,11,C:/Users/borna.000/Documents/PSYC/PSYC5316/Sternburg/subject-1.csv,legacy,3 5 4 7,Lentiform Loewenfeld,3.3.9,1,y,0,left,right,right,left,NA,1126,5179,26766,1126,NA,2,legacy,4,1024,2,48000,-16,experiment,1,odd,3,103503,645915,2084,108683,653566,652497,2087,655768,657769,658896,654567,28854,657769,NA,653564,Sternburg Task,64,96647,100,yes,1024
64.35643564,64.35643564,970.2277228,970.2277228,black,experiment,legacy,legacy,legacy,0,uniform,1,undefined,1,right,0,100,0,0,100,100,0,100,100,100,100,0,100,0,100,10/13/2021 12:22,The main experiment item,yes,SternburgTask.osexp,C:/Users/borna.000/Documents/PSYC/PSYC5316/Sternburg,no,mono,no,18,no,white,no,yes,768,legacy,88,11,C:/Users/borna.000/Documents/PSYC/PSYC5316/Sternburg/subject-1.csv,legacy,6 8 4,Lentiform Loewenfeld,3.3.9,0,n,0,right,right,right,right,NA,1346,5179,26766,1346,NA,2,legacy,3,1024,2,48000,-16,experiment,1,odd,1,103503,658904,2084,108683,659974,652497,2087,662176,664177,665524,660976,28854,664177,NA,659972,Sternburg Task,65,97993,101,yes,1024
63.7254902,63.7254902,977.4705882,977.4705882,black,experiment,legacy,legacy,legacy,0,uniform,0,undefined,0,left,0,101,0,0,101,101,0,101,101,101,101,0,101,0,101,10/13/2021 12:22,The main experiment item,yes,SternburgTask.osexp,C:/Users/borna.000/Documents/PSYC/PSYC5316/Sternburg,no,mono,no,18,no,white,no,yes,768,legacy,89,11,C:/Users/borna.000/Documents/PSYC/PSYC5316/Sternburg/subject-1.csv,legacy,8 9 5 7 1 6,Lentiform Loewenfeld,3.3.9,4,y,0,right,right,right,right,NA,1709,5179,26766,1709,NA,2,legacy,6,1024,2,48000,-16,experiment,1,odd,7,103503,665534,2084,108683,666603,652497,2087,668806,670807,672517,667604,28854,670807,NA,666602,Sternburg Task,65,99702,102,yes,1024
63.10679612,63.10679612,978.0582524,978.0582524,black,experiment,legacy,legacy,legacy,0,uniform,0,undefined,0,right,0,102,0,0,102,102,0,102,102,102,102,0,102,0,102,10/13/2021 12:22,The main experiment item,yes,SternburgTask.osexp,C:/Users/borna.000/Documents/PSYC/PSYC5316/Sternburg,no,mono,no,18,no,white,no,yes,768,legacy,90,11,C:/Users/borna.000/Documents/PSYC/PSYC5316/Sternburg/subject-1.csv,legacy,1 7 8 3 9,Lentiform Loewenfeld,3.3.9,0,n,0,left,right,right,left,NA,1038,5179,26766,1038,NA,2,legacy,5,1024,2,48000,-16,experiment,1,odd,2,103503,665534,2084,108683,673596,672525,2087,675798,677799,678838,674597,28854,677799,NA,673594,Sternburg Task,65,100740,103,yes,1024
63.46153846,63.46153846,984.9615385,984.9615385,black,experiment,legacy,legacy,legacy,0,uniform,1,undefined,1,left,0,103,0,0,103,103,0,103,103,103,103,0,103,0,103,10/13/2021 12:22,The main experiment item,yes,SternburgTask.osexp,C:/Users/borna.000/Documents/PSYC/PSYC5316/Sternburg,no,mono,no,18,no,white,no,yes,768,legacy,91,11,C:/Users/borna.000/Documents/PSYC/PSYC5316/Sternburg/subject-1.csv,legacy,2 6 1 7 4,Lentiform Loewenfeld,3.3.9,2,y,0,left,right,right,left,NA,1696,5179,26766,1696,NA,2,legacy,5,1024,2,48000,-16,experiment,1,odd,6,103503,665534,2084,108683,679918,678847,2087,682120,684121,685818,680919,28854,684121,NA,679916,Sternburg Task,66,102436,104,yes,1024
63.80952381,63.80952381,988.7714286,988.7714286,black,experiment,legacy,legacy,legacy,0,uniform,1,undefined,1,left,0,104,0,0,104,104,0,104,104,104,104,0,104,0,104,10/13/2021 12:22,The main experiment item,yes,SternburgTask.osexp,C:/Users/borna.000/Documents/PSYC/PSYC5316/Sternburg,no,mono,no,18,no,white,no,yes,768,legacy,92,11,C:/Users/borna.000/Documents/PSYC/PSYC5316/Sternburg/subject-1.csv,legacy,8 1 6,Lentiform Loewenfeld,3.3.9,3,y,0,left,right,right,left,NA,1385,5179,26766,1385,NA,2,legacy,3,1024,2,48000,-16,experiment,1,odd,6,103503,685826,2084,108683,686894,678847,2087,689096,691097,692483,687895,28854,691097,NA,686892,Sternburg Task,67,103821,105,yes,1024
64.1509434,64.1509434,992.0377358,992.0377358,black,experiment,legacy,legacy,legacy,0,uniform,1,undefined,1,left,0,105,0,0,105,105,0,105,105,105,105,0,105,0,105,10/13/2021 12:22,The main experiment item,yes,SternburgTask.osexp,C:/Users/borna.000/Documents/PSYC/PSYC5316/Sternburg,no,mono,no,18,no,white,no,yes,768,legacy,93,11,C:/Users/borna.000/Documents/PSYC/PSYC5316/Sternburg/subject-1.csv,legacy,7 1 3,Lentiform Loewenfeld,3.3.9,2,y,0,left,right,right,left,NA,1335,5179,26766,1335,NA,2,legacy,3,1024,2,48000,-16,experiment,1,odd,1,103503,692491,2084,108683,693572,678847,2087,695774,697776,699112,694573,28854,697776,NA,693570,Sternburg Task,68,105156,106,yes,1024
64.48598131,64.48598131,993.9065421,993.9065421,black,experiment,legacy,legacy,legacy,0,uniform,1,undefined,1,right,0,106,0,0,106,106,0,106,106,106,106,0,106,0,106,10/13/2021 12:22,The main experiment item,yes,SternburgTask.osexp,C:/Users/borna.000/Documents/PSYC/PSYC5316/Sternburg,no,mono,no,18,no,white,no,yes,768,legacy,94,11,C:/Users/borna.000/Documents/PSYC/PSYC5316/Sternburg/subject-1.csv,legacy,3 4 2,Lentiform Loewenfeld,3.3.9,0,n,0,right,right,right,right,NA,1192,5179,26766,1192,NA,2,legacy,3,1024,2,48000,-16,experiment,1,odd,5,103503,699121,2084,108683,700193,678847,2087,702395,704397,705590,701194,28854,704397,NA,700191,Sternburg Task,69,106348,107,yes,1024
64.81481481,64.81481481,996.3703704,996.3703704,black,experiment,legacy,legacy,legacy,0,uniform,1,undefined,1,left,0,107,0,0,107,107,0,107,107,107,107,0,107,0,107,10/13/2021 12:22,The main experiment item,yes,SternburgTask.osexp,C:/Users/borna.000/Documents/PSYC/PSYC5316/Sternburg,no,mono,no,18,no,white,no,yes,768,legacy,95,11,C:/Users/borna.000/Documents/PSYC/PSYC5316/Sternburg/subject-1.csv,legacy,2 8 5 1,Lentiform Loewenfeld,3.3.9,4,y,0,left,right,right,left,NA,1260,5179,26766,1260,NA,2,legacy,4,1024,2,48000,-16,experiment,1,odd,1,103503,705598,2084,108683,706669,678847,2087,708871,710872,712133,707670,28854,710872,NA,706667,Sternburg Task,70,107608,108,yes,1024
65.13761468,65.13761468,997.0917431,997.0917431,black,experiment,legacy,legacy,legacy,0,uniform,1,undefined,1,right,0,108,0,0,108,108,0,108,108,108,108,0,108,0,108,10/13/2021 12:22,The main experiment item,yes,SternburgTask.osexp,C:/Users/borna.000/Documents/PSYC/PSYC5316/Sternburg,no,mono,no,18,no,white,no,yes,768,legacy,96,11,C:/Users/borna.000/Documents/PSYC/PSYC5316/Sternburg/subject-1.csv,legacy,8 5 7 3 6,Lentiform Loewenfeld,3.3.9,0,n,0,right,right,right,right,NA,1075,5179,26766,1075,NA,2,legacy,5,1024,2,48000,-16,experiment,1,odd,9,103503,712141,2084,108683,713211,678847,2087,715413,717414,718490,714212,28854,717414,NA,713209,Sternburg Task,71,108683,109,yes,1024
65.45454545,65.45454545,1001.563636,1001.563636,black,experiment,legacy,legacy,legacy,0,uniform,1,undefined,1,right,0,109,0,0,109,109,0,109,109,109,109,0,109,0,109,10/13/2021 12:22,The main experiment item,yes,SternburgTask.osexp,C:/Users/borna.000/Documents/PSYC/PSYC5316/Sternburg,no,mono,no,18,no,white,no,yes,768,legacy,97,11,C:/Users/borna.000/Documents/PSYC/PSYC5316/Sternburg/subject-1.csv,legacy,4 2 7 6 1 3,Lentiform Loewenfeld,3.3.9,0,n,0,right,right,right,right,NA,1489,5179,26766,1489,NA,2,legacy,6,1024,2,48000,-16,experiment,1,odd,8,103503,718498,2084,108683,719570,678847,2087,721771,723772,725262,720571,28854,723772,NA,719568,Sternburg Task,72,110172,110,yes,1024
65.76576577,65.76576577,998.4684685,998.4684685,black,experiment,legacy,legacy,legacy,0,uniform,1,undefined,1,right,0,110,0,0,110,110,0,110,110,110,110,0,110,0,110,10/13/2021 12:22,The main experiment item,yes,SternburgTask.osexp,C:/Users/borna.000/Documents/PSYC/PSYC5316/Sternburg,no,mono,no,18,no,white,no,yes,768,legacy,98,11,C:/Users/borna.000/Documents/PSYC/PSYC5316/Sternburg/subject-1.csv,legacy,8 4 3 5,Lentiform Loewenfeld,3.3.9,0,n,0,right,right,right,right,NA,658,5179,26766,658,NA,2,legacy,4,1024,2,48000,-16,experiment,1,odd,6,103503,725271,2084,108683,726341,678847,2087,728543,730544,731203,727342,28854,730544,NA,726339,Sternburg Task,73,110830,111,yes,1024
65.17857143,65.17857143,1000.401786,1000.401786,black,experiment,legacy,legacy,legacy,0,uniform,0,undefined,0,right,0,111,0,0,111,111,0,111,111,111,111,0,111,0,111,10/13/2021 12:22,The main experiment item,yes,SternburgTask.osexp,C:/Users/borna.000/Documents/PSYC/PSYC5316/Sternburg,no,mono,no,18,no,white,no,yes,768,legacy,99,11,C:/Users/borna.000/Documents/PSYC/PSYC5316/Sternburg/subject-1.csv,legacy,7 6 4 8 1 2,Lentiform Loewenfeld,3.3.9,0,n,0,left,right,right,left,NA,1215,5179,26766,1215,NA,2,legacy,6,1024,2,48000,-16,experiment,1,odd,9,103503,731211,2084,108683,732283,678847,2087,734485,736486,737702,733284,28854,736486,NA,732281,Sternburg Task,73,112045,112,yes,1024
65.48672566,65.48672566,1005.716814,1005.716814,black,experiment,legacy,legacy,legacy,0,uniform,1,undefined,1,right,0,112,0,0,112,112,0,112,112,112,112,0,112,0,112,10/13/2021 12:22,The main experiment item,yes,SternburgTask.osexp,C:/Users/borna.000/Documents/PSYC/PSYC5316/Sternburg,no,mono,no,18,no,white,no,yes,768,legacy,100,11,C:/Users/borna.000/Documents/PSYC/PSYC5316/Sternburg/subject-1.csv,legacy,7 9,Lentiform Loewenfeld,3.3.9,0,n,0,right,right,right,right,NA,1601,5179,26766,1601,NA,2,legacy,2,1024,2,48000,-16,experiment,1,odd,1,103503,731211,2084,108683,738779,737711,2087,740981,742982,744584,739780,28854,742982,NA,738777,Sternburg Task,74,113646,113,yes,1024
65.78947368,65.78947368,1010.403509,1010.403509,black,experiment,legacy,legacy,legacy,0,uniform,1,undefined,1,left,0,113,0,0,113,113,0,113,113,113,113,0,113,0,113,10/13/2021 12:22,The main experiment item,yes,SternburgTask.osexp,C:/Users/borna.000/Documents/PSYC/PSYC5316/Sternburg,no,mono,no,18,no,white,no,yes,768,legacy,101,11,C:/Users/borna.000/Documents/PSYC/PSYC5316/Sternburg/subject-1.csv,legacy,5 2 9 6 1 7,Lentiform Loewenfeld,3.3.9,3,y,0,left,right,right,left,NA,1540,5179,26766,1540,NA,2,legacy,6,1024,2,48000,-16,experiment,1,odd,9,103503,744593,2084,108683,745663,737711,2087,747866,749867,751408,746664,28854,749867,NA,745661,Sternburg Task,75,115186,114,yes,1024
66.08695652,66.08695652,1012.286957,1012.286957,black,experiment,legacy,legacy,legacy,0,uniform,1,undefined,1,right,0,114,0,0,114,114,0,114,114,114,114,0,114,0,114,10/13/2021 12:22,The main experiment item,yes,SternburgTask.osexp,C:/Users/borna.000/Documents/PSYC/PSYC5316/Sternburg,no,mono,no,18,no,white,no,yes,768,legacy,102,11,C:/Users/borna.000/Documents/PSYC/PSYC5316/Sternburg/subject-1.csv,legacy,3 9 8 1 6 4,Lentiform Loewenfeld,3.3.9,0,n,0,right,right,right,right,NA,1227,5179,26766,1227,NA,2,legacy,6,1024,2,48000,-16,experiment,1,odd,7,103503,751417,2084,108683,752489,737711,2087,754691,756692,757920,753490,28854,756692,NA,752487,Sternburg Task,76,116413,115,yes,1024
66.37931034,66.37931034,1014.215517,1014.215517,black,experiment,legacy,legacy,legacy,0,uniform,1,undefined,1,left,0,115,0,0,115,115,0,115,115,115,115,0,115,0,115,10/13/2021 12:22,The main experiment item,yes,SternburgTask.osexp,C:/Users/borna.000/Documents/PSYC/PSYC5316/Sternburg,no,mono,no,18,no,white,no,yes,768,legacy,103,11,C:/Users/borna.000/Documents/PSYC/PSYC5316/Sternburg/subject-1.csv,legacy,4 9 7 8 5 3,Lentiform Loewenfeld,3.3.9,4,y,0,left,right,right,left,NA,1236,5179,26766,1236,NA,2,legacy,6,1024,2,48000,-16,experiment,1,odd,8,103503,757929,2084,108683,758998,737711,2087,761200,763201,764439,759999,28854,763201,NA,758996,Sternburg Task,77,117649,116,yes,1024
66.66666667,66.66666667,1014.34188,1014.34188,black,experiment,legacy,legacy,legacy,0,uniform,1,undefined,1,right,0,116,0,0,116,116,0,116,116,116,116,0,116,0,116,10/13/2021 12:22,The main experiment item,yes,SternburgTask.osexp,C:/Users/borna.000/Documents/PSYC/PSYC5316/Sternburg,no,mono,no,18,no,white,no,yes,768,legacy,104,11,C:/Users/borna.000/Documents/PSYC/PSYC5316/Sternburg/subject-1.csv,legacy,7 1 5 6 3,Lentiform Loewenfeld,3.3.9,0,n,0,right,right,right,right,NA,1029,5179,26766,1029,NA,2,legacy,5,1024,2,48000,-16,experiment,1,odd,8,103503,764447,2084,108683,765517,737711,2087,767719,769720,770750,766518,28854,769720,NA,765515,Sternburg Task,78,118678,117,yes,1024
66.94915254,66.94915254,1019.271186,1019.271186,black,experiment,legacy,legacy,legacy,0,uniform,1,undefined,1,left,0,117,0,0,117,117,0,117,117,117,117,0,117,0,117,10/13/2021 12:22,The main experiment item,yes,SternburgTask.osexp,C:/Users/borna.000/Documents/PSYC/PSYC5316/Sternburg,no,mono,no,18,no,white,no,yes,768,legacy,105,11,C:/Users/borna.000/Documents/PSYC/PSYC5316/Sternburg/subject-1.csv,legacy,3 5 7 1,Lentiform Loewenfeld,3.3.9,3,y,0,left,right,right,left,NA,1596,5179,26766,1596,NA,2,legacy,4,1024,2,48000,-16,experiment,1,odd,7,103503,770758,2084,108683,771826,737711,2087,774029,776030,777627,772828,28854,776030,NA,771824,Sternburg Task,79,120274,118,yes,1024
66.38655462,66.38655462,1020.546218,1020.546218,black,experiment,legacy,legacy,legacy,0,uniform,0,undefined,0,right,0,118,0,0,118,118,0,118,118,118,118,0,118,0,118,10/13/2021 12:22,The main experiment item,yes,SternburgTask.osexp,C:/Users/borna.000/Documents/PSYC/PSYC5316/Sternburg,no,mono,no,18,no,white,no,yes,768,legacy,106,11,C:/Users/borna.000/Documents/PSYC/PSYC5316/Sternburg/subject-1.csv,legacy,1 4 9 3,Lentiform Loewenfeld,3.3.9,0,n,0,left,right,right,left,NA,1171,5179,26766,1171,NA,2,legacy,4,1024,2,48000,-16,experiment,1,odd,5,103503,777639,2084,108683,778709,737711,2087,780911,782913,784085,779710,28854,782912,NA,778707,Sternburg Task,79,121445,119,yes,1024
66.66666667,66.66666667,1023.725,1023.725,black,experiment,legacy,legacy,legacy,0,uniform,1,undefined,1,right,0,119,0,0,119,119,0,119,119,119,119,0,119,0,119,10/13/2021 12:22,The main experiment item,yes,SternburgTask.osexp,C:/Users/borna.000/Documents/PSYC/PSYC5316/Sternburg,no,mono,no,18,no,white,no,yes,768,legacy,107,11,C:/Users/borna.000/Documents/PSYC/PSYC5316/Sternburg/subject-1.csv,legacy,5 2,Lentiform Loewenfeld,3.3.9,0,n,0,right,right,right,right,NA,1402,5179,26766,1402,NA,2,legacy,2,1024,2,48000,-16,experiment,1,odd,7,103503,777639,2084,108683,785168,784096,2087,787371,789372,790775,786170,28854,789372,NA,785166,Sternburg Task,80,122847,120,yes,1024
66.11570248,66.11570248,1026.628099,1026.628099,black,experiment,legacy,legacy,legacy,0,uniform,0,undefined,0,right,0,120,0,0,120,120,0,120,120,120,120,0,120,0,120,10/13/2021 12:22,The main experiment item,yes,SternburgTask.osexp,C:/Users/borna.000/Documents/PSYC/PSYC5316/Sternburg,no,mono,no,18,no,white,no,yes,768,legacy,108,11,C:/Users/borna.000/Documents/PSYC/PSYC5316/Sternburg/subject-1.csv,legacy,9 8 2 7 4,Lentiform Loewenfeld,3.3.9,0,n,0,left,right,right,left,NA,1375,5179,26766,1375,NA,2,legacy,5,1024,2,48000,-16,experiment,1,odd,5,103503,790783,2084,108683,791852,784096,2087,794054,796056,797432,792853,28854,796056,NA,791850,Sternburg Task,80,124222,121,yes,1024
65.57377049,65.57377049,1025.172131,1025.172131,black,experiment,legacy,legacy,legacy,0,uniform,0,undefined,0,left,0,121,0,0,121,121,0,121,121,121,121,0,121,0,121,10/13/2021 12:22,The main experiment item,yes,SternburgTask.osexp,C:/Users/borna.000/Documents/PSYC/PSYC5316/Sternburg,no,mono,no,18,no,white,no,yes,768,legacy,109,11,C:/Users/borna.000/Documents/PSYC/PSYC5316/Sternburg/subject-1.csv,legacy,4 6 5 8,Lentiform Loewenfeld,3.3.9,1,y,0,right,right,right,right,NA,849,5179,26766,849,NA,2,legacy,4,1024,2,48000,-16,experiment,1,odd,4,103503,790783,2084,108683,798510,797440,2087,800712,802713,803564,799511,28854,802713,NA,798508,Sternburg Task,80,125071,122,yes,1024
65.85365854,65.85365854,1030.447154,1030.447154,black,experiment,legacy,legacy,legacy,0,uniform,1,undefined,1,left,0,122,0,0,122,122,0,122,122,122,122,0,122,0,122,10/13/2021 12:22,The main experiment item,yes,SternburgTask.osexp,C:/Users/borna.000/Documents/PSYC/PSYC5316/Sternburg,no,mono,no,18,no,white,no,yes,768,legacy,110,11,C:/Users/borna.000/Documents/PSYC/PSYC5316/Sternburg/subject-1.csv,legacy,3 2 1 4 7,Lentiform Loewenfeld,3.3.9,2,y,0,left,right,right,left,NA,1674,5179,26766,1674,NA,2,legacy,5,1024,2,48000,-16,experiment,1,odd,2,103503,790783,2084,108683,804646,803572,2087,806848,808849,810524,805647,28854,808849,NA,804645,Sternburg Task,81,126745,123,yes,1024
66.12903226,66.12903226,1026.104839,1026.104839,black,experiment,legacy,legacy,legacy,0,uniform,1,undefined,1,right,0,123,0,0,123,123,0,123,123,123,123,0,123,0,123,10/13/2021 12:22,The main experiment item,yes,SternburgTask.osexp,C:/Users/borna.000/Documents/PSYC/PSYC5316/Sternburg,no,mono,no,18,no,white,no,yes,768,legacy,111,11,C:/Users/borna.000/Documents/PSYC/PSYC5316/Sternburg/subject-1.csv,legacy,1 3 2 6 9,Lentiform Loewenfeld,3.3.9,0,n,0,right,right,right,right,NA,492,5179,26766,492,NA,2,legacy,5,1024,2,48000,-16,experiment,1,odd,5,103503,810532,2084,108683,811602,803572,2087,813804,815805,816298,812603,28854,815805,NA,811600,Sternburg Task,82,127237,124,yes,1024
65.6,65.6,1028.104,1028.104,black,experiment,legacy,legacy,legacy,0,uniform,0,undefined,0,right,0,124,0,0,124,124,0,124,124,124,124,0,124,0,124,10/13/2021 12:22,The main experiment item,yes,SternburgTask.osexp,C:/Users/borna.000/Documents/PSYC/PSYC5316/Sternburg,no,mono,no,18,no,white,no,yes,768,legacy,112,11,C:/Users/borna.000/Documents/PSYC/PSYC5316/Sternburg/subject-1.csv,legacy,7 9 1 6,Lentiform Loewenfeld,3.3.9,0,n,0,left,right,right,left,NA,1276,5179,26766,1276,NA,2,legacy,4,1024,2,48000,-16,experiment,1,odd,4,103503,816306,2084,108683,817375,803572,2087,819577,821578,822855,818376,28854,821578,NA,817373,Sternburg Task,82,128513,125,yes,1024
65.87301587,65.87301587,1023.825397,1023.825397,black,experiment,legacy,legacy,legacy,0,uniform,1,undefined,1,right,0,125,0,0,125,125,0,125,125,125,125,0,125,0,125,10/13/2021 12:22,The main experiment item,yes,SternburgTask.osexp,C:/Users/borna.000/Documents/PSYC/PSYC5316/Sternburg,no,mono,no,18,no,white,no,yes,768,legacy,113,11,C:/Users/borna.000/Documents/PSYC/PSYC5316/Sternburg/subject-1.csv,legacy,5 7 3,Lentiform Loewenfeld,3.3.9,0,n,0,right,right,right,right,NA,489,5179,26766,489,NA,2,legacy,3,1024,2,48000,-16,experiment,1,odd,9,103503,816306,2084,108683,823935,822864,2087,826137,828138,828628,824936,28854,828138,NA,823933,Sternburg Task,83,129002,126,yes,1024
66.14173228,66.14173228,1026.590551,1026.590551,black,experiment,legacy,legacy,legacy,0,uniform,1,undefined,1,left,0,126,0,0,126,126,0,126,126,126,126,0,126,0,126,10/13/2021 12:22,The main experiment item,yes,SternburgTask.osexp,C:/Users/borna.000/Documents/PSYC/PSYC5316/Sternburg,no,mono,no,18,no,white,no,yes,768,legacy,114,11,C:/Users/borna.000/Documents/PSYC/PSYC5316/Sternburg/subject-1.csv,legacy,7,Lentiform Loewenfeld,3.3.9,1,y,0,left,right,right,left,NA,1375,5179,26766,1375,NA,2,legacy,1,1024,2,48000,-16,experiment,1,odd,7,103503,828636,2084,108683,829706,822864,2087,831909,833911,835287,830707,28854,833911,NA,829704,Sternburg Task,84,130377,127,yes,1024
65.625,65.625,1027.609375,1027.609375,black,experiment,legacy,legacy,legacy,0,uniform,0,undefined,0,right,0,127,0,0,127,127,0,127,127,127,127,0,127,0,127,10/13/2021 12:22,The main experiment item,yes,SternburgTask.osexp,C:/Users/borna.000/Documents/PSYC/PSYC5316/Sternburg,no,mono,no,18,no,white,no,yes,768,legacy,115,11,C:/Users/borna.000/Documents/PSYC/PSYC5316/Sternburg/subject-1.csv,legacy,7 8 6 1,Lentiform Loewenfeld,3.3.9,0,n,0,left,right,right,left,NA,1157,5179,26766,1157,NA,2,legacy,4,1024,2,48000,-16,experiment,1,odd,3,103503,835296,2084,108683,836370,822864,2087,838572,840574,841732,837371,28854,840574,NA,836368,Sternburg Task,84,131534,128,yes,1024
65.89147287,65.89147287,1031.100775,1031.100775,black,experiment,legacy,legacy,legacy,0,uniform,1,undefined,1,right,0,128,0,0,128,128,0,128,128,128,128,0,128,0,128,10/13/2021 12:22,The main experiment item,yes,SternburgTask.osexp,C:/Users/borna.000/Documents/PSYC/PSYC5316/Sternburg,no,mono,no,18,no,white,no,yes,768,legacy,116,11,C:/Users/borna.000/Documents/PSYC/PSYC5316/Sternburg/subject-1.csv,legacy,7 4 2 8 1 9,Lentiform Loewenfeld,3.3.9,0,n,0,right,right,right,right,NA,1478,5179,26766,1478,NA,2,legacy,6,1024,2,48000,-16,experiment,1,odd,5,103503,835296,2084,108683,842811,841741,2087,845014,847015,848494,843813,28854,847015,NA,842810,Sternburg Task,85,133012,129,yes,1024
65.38461538,65.38461538,1034.423077,1034.423077,black,experiment,legacy,legacy,legacy,0,uniform,0,undefined,0,left,0,129,0,0,129,129,0,129,129,129,129,0,129,0,129,10/13/2021 12:22,The main experiment item,yes,SternburgTask.osexp,C:/Users/borna.000/Documents/PSYC/PSYC5316/Sternburg,no,mono,no,18,no,white,no,yes,768,legacy,117,11,C:/Users/borna.000/Documents/PSYC/PSYC5316/Sternburg/subject-1.csv,legacy,8 5 3 7 4 6,Lentiform Loewenfeld,3.3.9,6,y,0,right,right,right,right,NA,1463,5179,26766,1463,NA,2,legacy,6,1024,2,48000,-16,experiment,1,odd,6,103503,848502,2084,108683,849573,841741,2087,851775,853776,855241,850574,28854,853776,NA,849571,Sternburg Task,85,134475,130,yes,1024
64.88549618,64.88549618,1041.793893,1041.793893,black,experiment,legacy,legacy,legacy,0,uniform,0,undefined,0,left,0,130,0,0,130,130,0,130,130,130,130,0,130,0,130,10/13/2021 12:22,The main experiment item,yes,SternburgTask.osexp,C:/Users/borna.000/Documents/PSYC/PSYC5316/Sternburg,no,mono,no,18,no,white,no,yes,768,legacy,118,11,C:/Users/borna.000/Documents/PSYC/PSYC5316/Sternburg/subject-1.csv,legacy,8 7 3,Lentiform Loewenfeld,3.3.9,1,y,0,None,right,right,None,NA,2000,5179,26766,2000,NA,2,legacy,3,1024,2,48000,-16,experiment,1,odd,8,103503,848502,2084,108683,856322,855250,2087,858524,860526,862526,857323,28854,860526,NA,856319,Sternburg Task,85,136475,131,yes,1024
65.15151515,65.15151515,1043.848485,1043.848485,black,experiment,legacy,legacy,legacy,0,uniform,1,undefined,1,left,0,131,0,0,131,131,0,131,131,131,131,0,131,0,131,10/13/2021 12:22,The main experiment item,yes,SternburgTask.osexp,C:/Users/borna.000/Documents/PSYC/PSYC5316/Sternburg,no,mono,no,18,no,white,no,yes,768,legacy,119,11,C:/Users/borna.000/Documents/PSYC/PSYC5316/Sternburg/subject-1.csv,legacy,6 2,Lentiform Loewenfeld,3.3.9,1,y,0,left,right,right,left,NA,1313,5179,26766,1313,NA,2,legacy,2,1024,2,48000,-16,experiment,1,odd,6,103503,848502,2084,108683,863607,862537,2087,865810,867811,869125,864608,28854,867811,NA,863605,Sternburg Task,86,137788,132,yes,1024
65.41353383,65.41353383,1046.112782,1046.112782,black,experiment,legacy,legacy,legacy,0,uniform,1,undefined,1,left,0,132,0,0,132,132,0,132,132,132,132,0,132,0,132,10/13/2021 12:22,The main experiment item,yes,SternburgTask.osexp,C:/Users/borna.000/Documents/PSYC/PSYC5316/Sternburg,no,mono,no,18,no,white,no,yes,768,legacy,120,11,C:/Users/borna.000/Documents/PSYC/PSYC5316/Sternburg/subject-1.csv,legacy,7 1 8 5 6 2,Lentiform Loewenfeld,3.3.9,2,y,0,left,right,right,left,NA,1345,5179,26766,1345,NA,2,legacy,6,1024,2,48000,-16,experiment,1,odd,1,103503,869136,2084,108683,870207,862537,2087,872409,874410,875756,871208,28854,874410,NA,870205,Sternburg Task,87,139133,133,yes,1024
65.67164179,65.67164179,1045.223881,1045.223881,black,experiment,legacy,legacy,legacy,0,uniform,1,undefined,1,right,0,133,0,0,133,133,0,133,133,133,133,0,133,0,133,10/13/2021 12:22,The main experiment item,yes,SternburgTask.osexp,C:/Users/borna.000/Documents/PSYC/PSYC5316/Sternburg,no,mono,no,18,no,white,no,yes,768,legacy,121,11,C:/Users/borna.000/Documents/PSYC/PSYC5316/Sternburg/subject-1.csv,legacy,6 3 1 7 9 8,Lentiform Loewenfeld,3.3.9,0,n,0,right,right,right,right,NA,927,5179,26766,927,NA,2,legacy,6,1024,2,48000,-16,experiment,1,odd,4,103503,875767,2084,108683,876836,862537,2087,879039,881040,881969,877838,28854,881040,NA,876834,Sternburg Task,88,140060,134,yes,1024
65.92592593,65.92592593,1047.977778,1047.977778,black,experiment,legacy,legacy,legacy,0,uniform,1,undefined,1,left,0,134,0,0,134,134,0,134,134,134,134,0,134,0,134,10/13/2021 12:22,The main experiment item,yes,SternburgTask.osexp,C:/Users/borna.000/Documents/PSYC/PSYC5316/Sternburg,no,mono,no,18,no,white,no,yes,768,legacy,122,11,C:/Users/borna.000/Documents/PSYC/PSYC5316/Sternburg/subject-1.csv,legacy,3 5 9 6 2 4,Lentiform Loewenfeld,3.3.9,1,y,0,left,right,right,left,NA,1417,5179,26766,1417,NA,2,legacy,6,1024,2,48000,-16,experiment,1,odd,3,103503,881977,2084,108683,883048,862537,2087,885250,887251,888669,884049,28854,887251,NA,883046,Sternburg Task,89,141477,135,yes,1024
66.17647059,66.17647059,1053.786765,1053.786765,black,experiment,legacy,legacy,legacy,0,uniform,1,undefined,1,right,0,135,0,0,135,135,0,135,135,135,135,0,135,0,135,10/13/2021 12:22,The main experiment item,yes,SternburgTask.osexp,C:/Users/borna.000/Documents/PSYC/PSYC5316/Sternburg,no,mono,no,18,no,white,no,yes,768,legacy,123,11,C:/Users/borna.000/Documents/PSYC/PSYC5316/Sternburg/subject-1.csv,legacy,9 5 3 2 8 6,Lentiform Loewenfeld,3.3.9,0,n,0,right,right,right,right,NA,1838,5179,26766,1838,NA,2,legacy,6,1024,2,48000,-16,experiment,1,odd,7,103503,888677,2084,108683,889748,862537,2087,891950,893952,895792,890749,28854,893951,NA,889746,Sternburg Task,90,143315,136,yes,1024
66.42335766,66.42335766,1054.532847,1054.532847,black,experiment,legacy,legacy,legacy,0,uniform,1,undefined,1,right,0,136,0,0,136,136,0,136,136,136,136,0,136,0,136,10/13/2021 12:22,The main experiment item,yes,SternburgTask.osexp,C:/Users/borna.000/Documents/PSYC/PSYC5316/Sternburg,no,mono,no,18,no,white,no,yes,768,legacy,124,11,C:/Users/borna.000/Documents/PSYC/PSYC5316/Sternburg/subject-1.csv,legacy,6 9 4 5 2,Lentiform Loewenfeld,3.3.9,0,n,0,right,right,right,right,NA,1156,5179,26766,1156,NA,2,legacy,5,1024,2,48000,-16,experiment,1,odd,1,103503,895801,2084,108683,896873,862537,2087,899076,901077,902234,897874,28854,901077,NA,896871,Sternburg Task,91,144471,137,yes,1024
66.66666667,66.66666667,1059.253623,1059.253623,black,experiment,legacy,legacy,legacy,0,uniform,1,undefined,1,left,0,137,0,0,137,137,0,137,137,137,137,0,137,0,137,10/13/2021 12:22,The main experiment item,yes,SternburgTask.osexp,C:/Users/borna.000/Documents/PSYC/PSYC5316/Sternburg,no,mono,no,18,no,white,no,yes,768,legacy,125,11,C:/Users/borna.000/Documents/PSYC/PSYC5316/Sternburg/subject-1.csv,legacy,7 2 3,Lentiform Loewenfeld,3.3.9,3,y,0,left,right,right,left,NA,1706,5179,26766,1706,NA,2,legacy,3,1024,2,48000,-16,experiment,1,odd,3,103503,902243,2084,108683,903313,862537,2087,905516,907517,909224,904314,28854,907517,NA,903311,Sternburg Task,92,146177,138,yes,1024
