"acc","accuracy","average_response_time","avg_rt","background","block","canvas_backend","clock_backend","color_backend","compensation","coordinates","correct","correct_instruction1","correct_keyboard_response","correct_response","count_ISI","count_correctFeedback","count_expSequence","count_experiment","count_experimentLoop","count_fixation","count_incorrectFeedback","count_instruction1","count_instruction2","count_instructional","count_keyboard_response","count_logger","count_memorySet","count_practiceLoop","count_probe","count_thankYou","datetime","description","disable_garbage_collection","empty_column","experiment_file","experiment_path","font_bold","font_family","font_italic","font_size","font_underline","foreground","form_clicks","fullscreen","height","keyboard_backend","live_row","live_row_practiceLoop","logfile","mouse_backend","numberSet","opensesame_codename","opensesame_version","posInSet","present","repeat_cycle","response","response_instruction1","response_instruction2","response_keyboard_response","response_thankYou","response_time","response_time_instruction1","response_time_instruction2","response_time_keyboard_response","response_time_thankYou","round_decimals","sampler_backend","setSize","sound_buf_size","sound_channels","sound_freq","sound_sample_size","start","subject_nr","subject_parity","target","time_ISI","time_correctFeedback","time_expSequence","time_experiment","time_experimentLoop","time_fixation","time_incorrectFeedback","time_instruction1","time_instruction2","time_instructional","time_keyboard_response","time_logger","time_memorySet","time_practiceLoop","time_probe","time_thankYou","title","total_correct","total_response_time","total_responses","uniform_coordinates","width"
"100","100","1357","1357","black","practice","legacy","legacy","legacy","0","uniform","1","undefined","1","left","0","0","0","0","0","0","0","0","0","NA","0","0","0","0","0","0","Sat Oct 24 21:31:04 2020","The main experiment item","yes","NA","SternbergTask.osexp","C:/Users/chelsea/OneDrive - Tarleton State University/psych 5316- adv/Sternberg test","no","mono","no","18","no","white","no","yes","768","legacy","0","0","C:/Users/chelsea/OneDrive - Tarleton State University/psych 5316- adv/Sternberg test/subject-2 JH.csv","legacy","2 9 4","Lentiform Loewenfeld","3.3.3","3","y","0","left","left","NA","left","NA","1357","163467","NA","1357","NA","2","legacy","3","1024","2","48000","-16","experiment","1","odd","4","202578","NA","200360","31471","NA","200369","NA","31499","NA","NA","204585","205943","201373","194969","204584","NA","Sternberg Task","1","1357","1","yes","1024"
"100","100","1224","1224","black","practice","legacy","legacy","legacy","0","uniform","1","undefined","1","left","1","1","1","0","0","1","1","0","0","NA","1","1","1","0","1","0","Sat Oct 24 21:31:04 2020","The main experiment item","yes","NA","SternbergTask.osexp","C:/Users/chelsea/OneDrive - Tarleton State University/psych 5316- adv/Sternberg test","no","mono","no","18","no","white","no","yes","768","legacy","1","1","C:/Users/chelsea/OneDrive - Tarleton State University/psych 5316- adv/Sternberg test/subject-2 JH.csv","legacy","1 7 9 8 5","Lentiform Loewenfeld","3.3.3","4","y","0","left","left","NA","left","NA","1091","163467","NA","1091","NA","2","legacy","5","1024","2","48000","-16","experiment","1","odd","8","209766","206245","207551","31471","NA","207556","NA","31499","NA","NA","211770","212862","208560","194969","211770","NA","Sternberg Task","2","2448","2","yes","1024"
"100","100","1095.3333333333333","1095.3333333333333","black","practice","legacy","legacy","legacy","0","uniform","1","undefined","1","right","2","2","2","0","0","2","2","0","0","NA","2","2","2","0","2","0","Sat Oct 24 21:31:04 2020","The main experiment item","yes","NA","SternbergTask.osexp","C:/Users/chelsea/OneDrive - Tarleton State University/psych 5316- adv/Sternberg test","no","mono","no","18","no","white","no","yes","768","legacy","2","2","C:/Users/chelsea/OneDrive - Tarleton State University/psych 5316- adv/Sternberg test/subject-2 JH.csv","legacy","5 7 8 4 1 2","Lentiform Loewenfeld","3.3.3","0","n","0","right","left","NA","right","NA","838","163467","NA","838","NA","2","legacy","6","1024","2","48000","-16","experiment","1","odd","6","216401","212887","214186","31471","NA","214193","NA","31499","NA","NA","218405","219245","215197","194969","218405","NA","Sternberg Task","3","3286","3","yes","1024"
"100","100","1084.5","1084.5","black","practice","legacy","legacy","legacy","0","uniform","1","undefined","1","right","3","3","3","0","0","3","3","0","0","NA","3","3","3","0","3","0","Sat Oct 24 21:31:04 2020","The main experiment item","yes","NA","SternbergTask.osexp","C:/Users/chelsea/OneDrive - Tarleton State University/psych 5316- adv/Sternberg test","no","mono","no","18","no","white","no","yes","768","legacy","3","3","C:/Users/chelsea/OneDrive - Tarleton State University/psych 5316- adv/Sternberg test/subject-2 JH.csv","legacy","4 1 5","Lentiform Loewenfeld","3.3.3","0","n","0","right","left","NA","right","NA","1052","163467","NA","1052","NA","2","legacy","3","1024","2","48000","-16","experiment","1","odd","2","222817","219302","220601","31471","NA","220606","NA","31499","NA","NA","224822","225876","221611","194969","224822","NA","Sternberg Task","4","4338","4","yes","1024"
"100","100","1028.4","1028.4","black","practice","legacy","legacy","legacy","0","uniform","1","undefined","1","right","4","4","4","0","0","4","4","0","0","NA","4","4","4","0","4","0","Sat Oct 24 21:31:04 2020","The main experiment item","yes","NA","SternbergTask.osexp","C:/Users/chelsea/OneDrive - Tarleton State University/psych 5316- adv/Sternberg test","no","mono","no","18","no","white","no","yes","768","legacy","4","4","C:/Users/chelsea/OneDrive - Tarleton State University/psych 5316- adv/Sternberg test/subject-2 JH.csv","legacy","5","Lentiform Loewenfeld","3.3.3","0","n","0","right","left","NA","right","NA","804","163467","NA","804","NA","2","legacy","1","1024","2","48000","-16","experiment","1","odd","3","229472","225966","227257","31471","NA","227264","NA","31499","NA","NA","231477","232282","228268","194969","231476","NA","Sternberg Task","5","5142","5","yes","1024"
"83.33333333333333","83.33333333333333","1190.3333333333333","1190.3333333333333","black","practice","legacy","legacy","legacy","0","uniform","0","undefined","0","right","5","5","5","0","0","5","5","0","0","NA","5","5","5","0","5","0","Sat Oct 24 21:31:04 2020","The main experiment item","yes","NA","SternbergTask.osexp","C:/Users/chelsea/OneDrive - Tarleton State University/psych 5316- adv/Sternberg test","no","mono","no","18","no","white","no","yes","768","legacy","5","5","C:/Users/chelsea/OneDrive - Tarleton State University/psych 5316- adv/Sternberg test/subject-2 JH.csv","legacy","9 6 7 4 5","Lentiform Loewenfeld","3.3.3","0","n","0","None","left","NA","None","NA","2000","163467","NA","2000","NA","2","legacy","5","1024","2","48000","-16","experiment","1","odd","3","235851","232321","233635","31471","NA","233639","NA","31499","NA","NA","237855","239856","234646","194969","237855","NA","Sternberg Task","5","7142","6","yes","1024"
"85.71428571428571","85.71428571428571","1193.857142857143","1193.857142857143","black","practice","legacy","legacy","legacy","0","uniform","1","undefined","1","right","6","6","6","0","0","6","6","0","0","NA","6","6","6","0","6","0","Sat Oct 24 21:31:04 2020","The main experiment item","yes","NA","SternbergTask.osexp","C:/Users/chelsea/OneDrive - Tarleton State University/psych 5316- adv/Sternberg test","no","mono","no","18","no","white","no","yes","768","legacy","6","6","C:/Users/chelsea/OneDrive - Tarleton State University/psych 5316- adv/Sternberg test/subject-2 JH.csv","legacy","3 1 9 4","Lentiform Loewenfeld","3.3.3","0","n","0","right","left","NA","right","NA","1215","163467","NA","1215","NA","2","legacy","4","1024","2","48000","-16","experiment","1","odd","6","243404","232321","241189","31471","NA","241194","239887","31499","NA","NA","245409","246625","242199","194969","245409","NA","Sternberg Task","6","8357","7","yes","1024"
"87.5","87.5","1173.125","1173.125","black","practice","legacy","legacy","legacy","0","uniform","1","undefined","1","left","7","7","7","0","0","7","7","0","0","NA","7","7","7","0","7","0","Sat Oct 24 21:31:04 2020","The main experiment item","yes","NA","SternbergTask.osexp","C:/Users/chelsea/OneDrive - Tarleton State University/psych 5316- adv/Sternberg test","no","mono","no","18","no","white","no","yes","768","legacy","7","7","C:/Users/chelsea/OneDrive - Tarleton State University/psych 5316- adv/Sternberg test/subject-2 JH.csv","legacy","6","Lentiform Loewenfeld","3.3.3","1","y","0","left","left","NA","left","NA","1028","163467","NA","1028","NA","2","legacy","1","1024","2","48000","-16","experiment","1","odd","6","250199","246679","247984","31471","NA","247989","239887","31499","NA","NA","252204","253233","248993","194969","252204","NA","Sternberg Task","7","9385","8","yes","1024"
"88.88888888888889","88.88888888888889","1145.888888888889","1145.888888888889","black","practice","legacy","legacy","legacy","0","uniform","1","undefined","1","left","8","8","8","0","0","8","8","0","0","NA","8","8","8","0","8","0","Sat Oct 24 21:31:04 2020","The main experiment item","yes","NA","SternbergTask.osexp","C:/Users/chelsea/OneDrive - Tarleton State University/psych 5316- adv/Sternberg test","no","mono","no","18","no","white","no","yes","768","legacy","8","8","C:/Users/chelsea/OneDrive - Tarleton State University/psych 5316- adv/Sternberg test/subject-2 JH.csv","legacy","1 5 2 9","Lentiform Loewenfeld","3.3.3","2","y","0","left","left","NA","left","NA","928","163467","NA","928","NA","2","legacy","4","1024","2","48000","-16","experiment","1","odd","5","256809","253289","254596","31471","NA","254601","239887","31499","NA","NA","258814","259745","255605","194969","258814","NA","Sternberg Task","8","10313","9","yes","1024"
"90","90","1095.7","1095.7","black","practice","legacy","legacy","legacy","0","uniform","1","undefined","1","left","9","9","9","0","0","9","9","0","0","NA","9","9","9","0","9","0","Sat Oct 24 21:31:04 2020","The main experiment item","yes","NA","SternbergTask.osexp","C:/Users/chelsea/OneDrive - Tarleton State University/psych 5316- adv/Sternberg test","no","mono","no","18","no","white","no","yes","768","legacy","9","9","C:/Users/chelsea/OneDrive - Tarleton State University/psych 5316- adv/Sternberg test/subject-2 JH.csv","legacy","4 8","Lentiform Loewenfeld","3.3.3","1","y","0","left","left","NA","left","NA","644","163467","NA","644","NA","2","legacy","2","1024","2","48000","-16","experiment","1","odd","4","263324","259810","261109","31471","NA","261114","239887","31499","NA","NA","265330","265975","262119","194969","265330","NA","Sternberg Task","9","10957","10","yes","1024"
"90.9090909090909","90.9090909090909","1065.1818181818182","1065.1818181818182","black","practice","legacy","legacy","legacy","0","uniform","1","undefined","1","right","10","10","10","0","0","10","10","0","0","NA","10","10","10","0","10","0","Sat Oct 24 21:31:04 2020","The main experiment item","yes","NA","SternbergTask.osexp","C:/Users/chelsea/OneDrive - Tarleton State University/psych 5316- adv/Sternberg test","no","mono","no","18","no","white","no","yes","768","legacy","10","10","C:/Users/chelsea/OneDrive - Tarleton State University/psych 5316- adv/Sternberg test/subject-2 JH.csv","legacy","2 1","Lentiform Loewenfeld","3.3.3","0","n","0","right","left","NA","right","NA","760","163467","NA","760","NA","2","legacy","2","1024","2","48000","-16","experiment","1","odd","5","269543","266022","267324","31471","NA","267332","239887","31499","NA","NA","271549","272310","268337","194969","271548","NA","Sternberg Task","10","11717","11","yes","1024"
"91.66666666666667","91.66666666666667","1036.6666666666667","1036.6666666666667","black","practice","legacy","legacy","legacy","0","uniform","1","undefined","1","left","11","11","11","0","0","11","11","0","0","NA","11","11","11","0","11","0","Sat Oct 24 21:31:04 2020","The main experiment item","yes","NA","SternbergTask.osexp","C:/Users/chelsea/OneDrive - Tarleton State University/psych 5316- adv/Sternberg test","no","mono","no","18","no","white","no","yes","768","legacy","11","11","C:/Users/chelsea/OneDrive - Tarleton State University/psych 5316- adv/Sternberg test/subject-2 JH.csv","legacy","4 3 1 7 9 8","Lentiform Loewenfeld","3.3.3","1","y","0","left","left","NA","left","NA","723","163467","NA","723","NA","2","legacy","6","1024","2","48000","-16","experiment","1","odd","4","275891","272366","273678","31471","NA","273683","239887","31499","NA","NA","277897","278621","274687","194969","277896","NA","Sternberg Task","11","12440","12","yes","1024"
"92.3076923076923","92.3076923076923","1025.923076923077","1025.923076923077","black","experiment","legacy","legacy","legacy","0","uniform","1","undefined","1","right","12","12","12","0","0","12","12","0","0","NA","12","12","12","0","12","0","Sat Oct 24 21:31:04 2020","The main experiment item","yes","NA","SternbergTask.osexp","C:/Users/chelsea/OneDrive - Tarleton State University/psych 5316- adv/Sternberg test","no","mono","no","18","no","white","no","yes","768","legacy","0","11","C:/Users/chelsea/OneDrive - Tarleton State University/psych 5316- adv/Sternberg test/subject-2 JH.csv","legacy","7 1 8 4 9 3","Lentiform Loewenfeld","3.3.3","0","n","0","right","left","left","right","NA","897","163467","1044761","897","NA","2","legacy","6","1024","2","48000","-16","experiment","1","odd","6","1327126","278680","1324912","31471","1324563","1324917","239887","31499","279799","NA","1329134","1330035","1325921","194969","1329133","NA","Sternberg Task","12","13337","13","yes","1024"
"92.85714285714286","92.85714285714286","1047.357142857143","1047.357142857143","black","experiment","legacy","legacy","legacy","0","uniform","1","undefined","1","left","13","13","13","0","0","13","13","0","0","NA","13","13","13","0","13","0","Sat Oct 24 21:31:04 2020","The main experiment item","yes","NA","SternbergTask.osexp","C:/Users/chelsea/OneDrive - Tarleton State University/psych 5316- adv/Sternberg test","no","mono","no","18","no","white","no","yes","768","legacy","1","11","C:/Users/chelsea/OneDrive - Tarleton State University/psych 5316- adv/Sternberg test/subject-2 JH.csv","legacy","8 9 5 7 1 6","Lentiform Loewenfeld","3.3.3","4","y","0","left","left","left","left","NA","1326","163467","1044761","1326","NA","2","legacy","6","1024","2","48000","-16","experiment","1","odd","7","1333613","1330097","1331398","31471","1324563","1331404","239887","31499","279799","NA","1335617","1336945","1332408","194969","1335617","NA","Sternberg Task","13","14663","14","yes","1024"
"86.66666666666667","86.66666666666667","1041.1333333333334","1041.1333333333334","black","experiment","legacy","legacy","legacy","0","uniform","0","undefined","0","right","14","14","14","0","0","14","14","0","0","NA","14","14","14","0","14","0","Sat Oct 24 21:31:04 2020","The main experiment item","yes","NA","SternbergTask.osexp","C:/Users/chelsea/OneDrive - Tarleton State University/psych 5316- adv/Sternberg test","no","mono","no","18","no","white","no","yes","768","legacy","2","11","C:/Users/chelsea/OneDrive - Tarleton State University/psych 5316- adv/Sternberg test/subject-2 JH.csv","legacy","1 7 5 2","Lentiform Loewenfeld","3.3.3","0","n","0","left","left","left","left","NA","954","163467","1044761","954","NA","2","legacy","4","1024","2","48000","-16","experiment","1","odd","3","1340511","1337006","1338294","31471","1324563","1338301","239887","31499","279799","NA","1342516","1343472","1339305","194969","1342516","NA","Sternberg Task","13","15617","15","yes","1024"
"87.5","87.5","1015.5","1015.5","black","experiment","legacy","legacy","legacy","0","uniform","1","undefined","1","right","15","15","15","0","0","15","15","0","0","NA","15","15","15","0","15","0","Sat Oct 24 21:31:04 2020","The main experiment item","yes","NA","SternbergTask.osexp","C:/Users/chelsea/OneDrive - Tarleton State University/psych 5316- adv/Sternberg test","no","mono","no","18","no","white","no","yes","768","legacy","3","11","C:/Users/chelsea/OneDrive - Tarleton State University/psych 5316- adv/Sternberg test/subject-2 JH.csv","legacy","4 1","Lentiform Loewenfeld","3.3.3","0","n","0","right","left","left","right","NA","631","163467","1044761","631","NA","2","legacy","2","1024","2","48000","-16","experiment","1","odd","6","1347049","1337006","1344833","31471","1324563","1344838","1343540","31499","279799","NA","1349053","1349686","1345842","194969","1349053","NA","Sternberg Task","14","16248","16","yes","1024"
"88.23529411764706","88.23529411764706","1013.9411764705883","1013.9411764705883","black","experiment","legacy","legacy","legacy","0","uniform","1","undefined","1","right","16","16","16","0","0","16","16","0","0","NA","16","16","16","0","16","0","Sat Oct 24 21:31:04 2020","The main experiment item","yes","NA","SternbergTask.osexp","C:/Users/chelsea/OneDrive - Tarleton State University/psych 5316- adv/Sternberg test","no","mono","no","18","no","white","no","yes","768","legacy","4","11","C:/Users/chelsea/OneDrive - Tarleton State University/psych 5316- adv/Sternberg test/subject-2 JH.csv","legacy","5 7 3","Lentiform Loewenfeld","3.3.3","0","n","0","right","left","left","right","NA","989","163467","1044761","989","NA","2","legacy","3","1024","2","48000","-16","experiment","1","odd","9","1353258","1349751","1351045","31471","1324563","1351050","1343540","31499","279799","NA","1355263","1356253","1352054","194969","1355263","NA","Sternberg Task","15","17237","17","yes","1024"
"88.88888888888889","88.88888888888889","1006.6111111111111","1006.6111111111111","black","experiment","legacy","legacy","legacy","0","uniform","1","undefined","1","right","17","17","17","0","0","17","17","0","0","NA","17","17","17","0","17","0","Sat Oct 24 21:31:04 2020","The main experiment item","yes","NA","SternbergTask.osexp","C:/Users/chelsea/OneDrive - Tarleton State University/psych 5316- adv/Sternberg test","no","mono","no","18","no","white","no","yes","768","legacy","5","11","C:/Users/chelsea/OneDrive - Tarleton State University/psych 5316- adv/Sternberg test/subject-2 JH.csv","legacy","5 3 8 7 2 4","Lentiform Loewenfeld","3.3.3","0","n","0","right","left","left","right","NA","882","163467","1044761","882","NA","2","legacy","6","1024","2","48000","-16","experiment","1","odd","9","1359824","1356318","1357613","31471","1324563","1357617","1343540","31499","279799","NA","1361833","1362716","1358621","194969","1361833","NA","Sternberg Task","16","18119","18","yes","1024"
"89.47368421052632","89.47368421052632","994.0526315789474","994.0526315789474","black","experiment","legacy","legacy","legacy","0","uniform","1","undefined","1","right","18","18","18","0","0","18","18","0","0","NA","18","18","18","0","18","0","Sat Oct 24 21:31:04 2020","The main experiment item","yes","NA","SternbergTask.osexp","C:/Users/chelsea/OneDrive - Tarleton State University/psych 5316- adv/Sternberg test","no","mono","no","18","no","white","no","yes","768","legacy","6","11","C:/Users/chelsea/OneDrive - Tarleton State University/psych 5316- adv/Sternberg test/subject-2 JH.csv","legacy","7 8 6 1","Lentiform Loewenfeld","3.3.3","0","n","0","right","left","left","right","NA","768","163467","1044761","768","NA","2","legacy","4","1024","2","48000","-16","experiment","1","odd","3","1366302","1362773","1364084","31471","1324563","1364089","1343540","31499","279799","NA","1368306","1369076","1365095","194969","1368306","NA","Sternberg Task","17","18887","19","yes","1024"
"85","85","1013.6","1013.6","black","experiment","legacy","legacy","legacy","0","uniform","0","undefined","0","right","19","19","19","0","0","19","19","0","0","NA","19","19","19","0","19","0","Sat Oct 24 21:31:04 2020","The main experiment item","yes","NA","SternbergTask.osexp","C:/Users/chelsea/OneDrive - Tarleton State University/psych 5316- adv/Sternberg test","no","mono","no","18","no","white","no","yes","768","legacy","7","11","C:/Users/chelsea/OneDrive - Tarleton State University/psych 5316- adv/Sternberg test/subject-2 JH.csv","legacy","8 2 1 4 5 9","Lentiform Loewenfeld","3.3.3","0","n","0","left","left","left","left","NA","1385","163467","1044761","1385","NA","2","legacy","6","1024","2","48000","-16","experiment","1","odd","7","1372641","1369140","1370427","31471","1324563","1370433","1343540","31499","279799","NA","1374648","1376035","1371437","194969","1374646","NA","Sternberg Task","17","20272","20","yes","1024"
"85.71428571428571","85.71428571428571","1014.3333333333334","1014.3333333333334","black","experiment","legacy","legacy","legacy","0","uniform","1","undefined","1","right","20","20","20","0","0","20","20","0","0","NA","20","20","20","0","20","0","Sat Oct 24 21:31:04 2020","The main experiment item","yes","NA","SternbergTask.osexp","C:/Users/chelsea/OneDrive - Tarleton State University/psych 5316- adv/Sternberg test","no","mono","no","18","no","white","no","yes","768","legacy","8","11","C:/Users/chelsea/OneDrive - Tarleton State University/psych 5316- adv/Sternberg test/subject-2 JH.csv","legacy","6 9 5","Lentiform Loewenfeld","3.3.3","0","n","0","right","left","left","right","NA","1029","163467","1044761","1029","NA","2","legacy","3","1024","2","48000","-16","experiment","1","odd","8","1379591","1369140","1377378","31471","1324563","1377383","1376086","31499","279799","NA","1381596","1382628","1378387","194969","1381596","NA","Sternberg Task","18","21301","21","yes","1024"
"86.36363636363636","86.36363636363636","1039.8181818181818","1039.8181818181818","black","experiment","legacy","legacy","legacy","0","uniform","1","undefined","1","left","21","21","21","0","0","21","21","0","0","NA","21","21","21","0","21","0","Sat Oct 24 21:31:04 2020","The main experiment item","yes","NA","SternbergTask.osexp","C:/Users/chelsea/OneDrive - Tarleton State University/psych 5316- adv/Sternberg test","no","mono","no","18","no","white","no","yes","768","legacy","9","11","C:/Users/chelsea/OneDrive - Tarleton State University/psych 5316- adv/Sternberg test/subject-2 JH.csv","legacy","7 8 6 3 1","Lentiform Loewenfeld","3.3.3","5","y","0","left","left","left","left","NA","1575","163467","1044761","1575","NA","2","legacy","5","1024","2","48000","-16","experiment","1","odd","1","1386307","1382801","1384094","31471","1324563","1384099","1376086","31499","279799","NA","1388312","1389889","1385103","194969","1388311","NA","Sternberg Task","19","22876","22","yes","1024"
"86.95652173913044","86.95652173913044","1031","1031","black","experiment","legacy","legacy","legacy","0","uniform","1","undefined","1","left","22","22","22","0","0","22","22","0","0","NA","22","22","22","0","22","0","Sat Oct 24 21:31:04 2020","The main experiment item","yes","NA","SternbergTask.osexp","C:/Users/chelsea/OneDrive - Tarleton State University/psych 5316- adv/Sternberg test","no","mono","no","18","no","white","no","yes","768","legacy","10","11","C:/Users/chelsea/OneDrive - Tarleton State University/psych 5316- adv/Sternberg test/subject-2 JH.csv","legacy","2 3","Lentiform Loewenfeld","3.3.3","1","y","0","left","left","left","left","NA","837","163467","1044761","837","NA","2","legacy","2","1024","2","48000","-16","experiment","1","odd","2","1393486","1389986","1391271","31471","1324563","1391275","1376086","31499","279799","NA","1395490","1396330","1392282","194969","1395490","NA","Sternberg Task","20","23713","23","yes","1024"
"87.5","87.5","1039.5833333333333","1039.5833333333333","black","experiment","legacy","legacy","legacy","0","uniform","1","undefined","1","right","23","23","23","0","0","23","23","0","0","NA","23","23","23","0","23","0","Sat Oct 24 21:31:04 2020","The main experiment item","yes","NA","SternbergTask.osexp","C:/Users/chelsea/OneDrive - Tarleton State University/psych 5316- adv/Sternberg test","no","mono","no","18","no","white","no","yes","768","legacy","11","11","C:/Users/chelsea/OneDrive - Tarleton State University/psych 5316- adv/Sternberg test/subject-2 JH.csv","legacy","3 9 8 1 6 4","Lentiform Loewenfeld","3.3.3","0","n","0","right","left","left","right","NA","1237","163467","1044761","1237","NA","2","legacy","6","1024","2","48000","-16","experiment","1","odd","7","1399885","1396373","1397670","31471","1324563","1397675","1376086","31499","279799","NA","1401889","1403128","1398680","194969","1401889","NA","Sternberg Task","21","24950","24","yes","1024"
"88","88","1039.56","1039.56","black","experiment","legacy","legacy","legacy","0","uniform","1","undefined","1","left","24","24","24","0","0","24","24","0","0","NA","24","24","24","0","24","0","Sat Oct 24 21:31:04 2020","The main experiment item","yes","NA","SternbergTask.osexp","C:/Users/chelsea/OneDrive - Tarleton State University/psych 5316- adv/Sternberg test","no","mono","no","18","no","white","no","yes","768","legacy","12","11","C:/Users/chelsea/OneDrive - Tarleton State University/psych 5316- adv/Sternberg test/subject-2 JH.csv","legacy","7","Lentiform Loewenfeld","3.3.3","1","y","0","left","left","left","left","NA","1039","163467","1044761","1039","NA","2","legacy","1","1024","2","48000","-16","experiment","1","odd","7","1406665","1403165","1404450","31471","1324563","1404455","1376086","31499","279799","NA","1408670","1409711","1405459","194969","1408670","NA","Sternberg Task","22","25989","25","yes","1024"
"88.46153846153847","88.46153846153847","1053.1153846153845","1053.1153846153845","black","experiment","legacy","legacy","legacy","0","uniform","1","undefined","1","right","25","25","25","0","0","25","25","0","0","NA","25","25","25","0","25","0","Sat Oct 24 21:31:04 2020","The main experiment item","yes","NA","SternbergTask.osexp","C:/Users/chelsea/OneDrive - Tarleton State University/psych 5316- adv/Sternberg test","no","mono","no","18","no","white","no","yes","768","legacy","13","11","C:/Users/chelsea/OneDrive - Tarleton State University/psych 5316- adv/Sternberg test/subject-2 JH.csv","legacy","5 9 2 3","Lentiform Loewenfeld","3.3.3","0","n","0","right","left","left","right","NA","1392","163467","1044761","1392","NA","2","legacy","4","1024","2","48000","-16","experiment","1","odd","8","1413288","1409773","1411071","31471","1324563","1411076","1376086","31499","279799","NA","1415292","1416686","1412083","194969","1415292","NA","Sternberg Task","23","27381","26","yes","1024"
"88.88888888888889","88.88888888888889","1049.148148148148","1049.148148148148","black","experiment","legacy","legacy","legacy","0","uniform","1","undefined","1","right","26","26","26","0","0","26","26","0","0","NA","26","26","26","0","26","0","Sat Oct 24 21:31:04 2020","The main experiment item","yes","NA","SternbergTask.osexp","C:/Users/chelsea/OneDrive - Tarleton State University/psych 5316- adv/Sternberg test","no","mono","no","18","no","white","no","yes","768","legacy","14","11","C:/Users/chelsea/OneDrive - Tarleton State University/psych 5316- adv/Sternberg test/subject-2 JH.csv","legacy","2 6 4 3 9","Lentiform Loewenfeld","3.3.3","0","n","0","right","left","left","right","NA","946","163467","1044761","946","NA","2","legacy","5","1024","2","48000","-16","experiment","1","odd","1","1420268","1416768","1418054","31471","1324563","1418059","1376086","31499","279799","NA","1422273","1423222","1419064","194969","1422272","NA","Sternberg Task","24","28327","27","yes","1024"
"89.28571428571429","89.28571428571429","1051.9642857142858","1051.9642857142858","black","experiment","legacy","legacy","legacy","0","uniform","1","undefined","1","right","27","27","27","0","0","27","27","0","0","NA","27","27","27","0","27","0","Sat Oct 24 21:31:04 2020","The main experiment item","yes","NA","SternbergTask.osexp","C:/Users/chelsea/OneDrive - Tarleton State University/psych 5316- adv/Sternberg test","no","mono","no","18","no","white","no","yes","768","legacy","15","11","C:/Users/chelsea/OneDrive - Tarleton State University/psych 5316- adv/Sternberg test/subject-2 JH.csv","legacy","6 9 4 5 3 2","Lentiform Loewenfeld","3.3.3","0","n","0","right","left","left","right","NA","1128","163467","1044761","1128","NA","2","legacy","6","1024","2","48000","-16","experiment","1","odd","8","1426838","1423287","1424624","31471","1324563","1424629","1376086","31499","279799","NA","1428842","1429973","1425634","194969","1428842","NA","Sternberg Task","25","29455","28","yes","1024"
"89.65517241379311","89.65517241379311","1063.6896551724137","1063.6896551724137","black","experiment","legacy","legacy","legacy","0","uniform","1","undefined","1","right","28","28","28","0","0","28","28","0","0","NA","28","28","28","0","28","0","Sat Oct 24 21:31:04 2020","The main experiment item","yes","NA","SternbergTask.osexp","C:/Users/chelsea/OneDrive - Tarleton State University/psych 5316- adv/Sternberg test","no","mono","no","18","no","white","no","yes","768","legacy","16","11","C:/Users/chelsea/OneDrive - Tarleton State University/psych 5316- adv/Sternberg test/subject-2 JH.csv","legacy","5","Lentiform Loewenfeld","3.3.3","0","n","0","right","left","left","right","NA","1392","163467","1044761","1392","NA","2","legacy","1","1024","2","48000","-16","experiment","1","odd","8","1433534","1430031","1431320","31471","1324563","1431324","1376086","31499","279799","NA","1435538","1436932","1432329","194969","1435538","NA","Sternberg Task","26","30847","29","yes","1024"
"90","90","1061.3","1061.3","black","experiment","legacy","legacy","legacy","0","uniform","1","undefined","1","right","29","29","29","0","0","29","29","0","0","NA","29","29","29","0","29","0","Sat Oct 24 21:31:04 2020","The main experiment item","yes","NA","SternbergTask.osexp","C:/Users/chelsea/OneDrive - Tarleton State University/psych 5316- adv/Sternberg test","no","mono","no","18","no","white","no","yes","768","legacy","17","11","C:/Users/chelsea/OneDrive - Tarleton State University/psych 5316- adv/Sternberg test/subject-2 JH.csv","legacy","7 9","Lentiform Loewenfeld","3.3.3","0","n","0","right","left","left","right","NA","992","163467","1044761","992","NA","2","legacy","2","1024","2","48000","-16","experiment","1","odd","1","1440470","1436964","1438256","31471","1324563","1438261","1376086","31499","279799","NA","1442474","1443469","1439265","194969","1442474","NA","Sternberg Task","27","31839","30","yes","1024"
"87.09677419354838","87.09677419354838","1090.6451612903227","1090.6451612903227","black","experiment","legacy","legacy","legacy","0","uniform","0","undefined","0","left","30","30","30","0","0","30","30","0","0","NA","30","30","30","0","30","0","Sat Oct 24 21:31:04 2020","The main experiment item","yes","NA","SternbergTask.osexp","C:/Users/chelsea/OneDrive - Tarleton State University/psych 5316- adv/Sternberg test","no","mono","no","18","no","white","no","yes","768","legacy","18","11","C:/Users/chelsea/OneDrive - Tarleton State University/psych 5316- adv/Sternberg test/subject-2 JH.csv","legacy","9 3 1 2 5","Lentiform Loewenfeld","3.3.3","4","y","0","right","left","left","right","NA","1971","163467","1044761","1971","NA","2","legacy","5","1024","2","48000","-16","experiment","1","odd","2","1447047","1443531","1444834","31471","1324563","1444839","1376086","31499","279799","NA","1449053","1451026","1445843","194969","1449052","NA","Sternberg Task","27","33810","31","yes","1024"
"87.5","87.5","1092.3125","1092.3125","black","experiment","legacy","legacy","legacy","0","uniform","1","undefined","1","right","31","31","31","0","0","31","31","0","0","NA","31","31","31","0","31","0","Sat Oct 24 21:31:04 2020","The main experiment item","yes","NA","SternbergTask.osexp","C:/Users/chelsea/OneDrive - Tarleton State University/psych 5316- adv/Sternberg test","no","mono","no","18","no","white","no","yes","768","legacy","19","11","C:/Users/chelsea/OneDrive - Tarleton State University/psych 5316- adv/Sternberg test/subject-2 JH.csv","legacy","6 3 1 7 9 8","Lentiform Loewenfeld","3.3.3","0","n","0","right","left","left","right","NA","1144","163467","1044761","1144","NA","2","legacy","6","1024","2","48000","-16","experiment","1","odd","4","1454593","1443531","1452377","31471","1324563","1452385","1451089","31499","279799","NA","1456599","1457745","1453389","194969","1456598","NA","Sternberg Task","28","34954","32","yes","1024"
"87.87878787878788","87.87878787878788","1084","1084","black","experiment","legacy","legacy","legacy","0","uniform","1","undefined","1","left","32","32","32","0","0","32","32","0","0","NA","32","32","32","0","32","0","Sat Oct 24 21:31:04 2020","The main experiment item","yes","NA","SternbergTask.osexp","C:/Users/chelsea/OneDrive - Tarleton State University/psych 5316- adv/Sternberg test","no","mono","no","18","no","white","no","yes","768","legacy","20","11","C:/Users/chelsea/OneDrive - Tarleton State University/psych 5316- adv/Sternberg test/subject-2 JH.csv","legacy","4","Lentiform Loewenfeld","3.3.3","1","y","0","left","left","left","left","NA","818","163467","1044761","818","NA","2","legacy","1","1024","2","48000","-16","experiment","1","odd","4","1461287","1457775","1459070","31471","1324563","1459078","1451089","31499","279799","NA","1463292","1464112","1460083","194969","1463292","NA","Sternberg Task","29","35772","33","yes","1024"
"88.23529411764706","88.23529411764706","1075.8235294117646","1075.8235294117646","black","experiment","legacy","legacy","legacy","0","uniform","1","undefined","1","left","33","33","33","0","0","33","33","0","0","NA","33","33","33","0","33","0","Sat Oct 24 21:31:04 2020","The main experiment item","yes","NA","SternbergTask.osexp","C:/Users/chelsea/OneDrive - Tarleton State University/psych 5316- adv/Sternberg test","no","mono","no","18","no","white","no","yes","768","legacy","21","11","C:/Users/chelsea/OneDrive - Tarleton State University/psych 5316- adv/Sternberg test/subject-2 JH.csv","legacy","2 4 8 5 1 3","Lentiform Loewenfeld","3.3.3","1","y","0","left","left","left","left","NA","806","163467","1044761","806","NA","2","legacy","6","1024","2","48000","-16","experiment","1","odd","2","1467707","1464175","1465490","31471","1324563","1465495","1451089","31499","279799","NA","1469711","1470520","1466503","194969","1469711","NA","Sternberg Task","30","36578","34","yes","1024"
"88.57142857142857","88.57142857142857","1070.6857142857143","1070.6857142857143","black","experiment","legacy","legacy","legacy","0","uniform","1","undefined","1","right","34","34","34","0","0","34","34","0","0","NA","34","34","34","0","34","0","Sat Oct 24 21:31:04 2020","The main experiment item","yes","NA","SternbergTask.osexp","C:/Users/chelsea/OneDrive - Tarleton State University/psych 5316- adv/Sternberg test","no","mono","no","18","no","white","no","yes","768","legacy","22","11","C:/Users/chelsea/OneDrive - Tarleton State University/psych 5316- adv/Sternberg test/subject-2 JH.csv","legacy","4 2 7 6 1 3","Lentiform Loewenfeld","3.3.3","0","n","0","right","left","left","right","NA","896","163467","1044761","896","NA","2","legacy","6","1024","2","48000","-16","experiment","1","odd","8","1474088","1470575","1471871","31471","1324563","1471876","1451089","31499","279799","NA","1476092","1476990","1472880","194969","1476092","NA","Sternberg Task","31","37474","35","yes","1024"
"86.11111111111111","86.11111111111111","1062.0277777777778","1062.0277777777778","black","experiment","legacy","legacy","legacy","0","uniform","0","undefined","0","left","35","35","35","0","0","35","35","0","0","NA","35","35","35","0","35","0","Sat Oct 24 21:31:04 2020","The main experiment item","yes","NA","SternbergTask.osexp","C:/Users/chelsea/OneDrive - Tarleton State University/psych 5316- adv/Sternberg test","no","mono","no","18","no","white","no","yes","768","legacy","23","11","C:/Users/chelsea/OneDrive - Tarleton State University/psych 5316- adv/Sternberg test/subject-2 JH.csv","legacy","3 5 7 1","Lentiform Loewenfeld","3.3.3","3","y","0","right","left","left","right","NA","759","163467","1044761","759","NA","2","legacy","4","1024","2","48000","-16","experiment","1","odd","7","1480584","1477075","1478370","31471","1324563","1478375","1451089","31499","279799","NA","1482589","1483350","1479379","194969","1482588","NA","Sternberg Task","31","38233","36","yes","1024"
"86.48648648648648","86.48648648648648","1063.4864864864865","1063.4864864864865","black","experiment","legacy","legacy","legacy","0","uniform","1","undefined","1","right","36","36","36","0","0","36","36","0","0","NA","36","36","36","0","36","0","Sat Oct 24 21:31:04 2020","The main experiment item","yes","NA","SternbergTask.osexp","C:/Users/chelsea/OneDrive - Tarleton State University/psych 5316- adv/Sternberg test","no","mono","no","18","no","white","no","yes","768","legacy","24","11","C:/Users/chelsea/OneDrive - Tarleton State University/psych 5316- adv/Sternberg test/subject-2 JH.csv","legacy","1","Lentiform Loewenfeld","3.3.3","0","n","0","right","left","left","right","NA","1116","163467","1044761","1116","NA","2","legacy","1","1024","2","48000","-16","experiment","1","odd","7","1486929","1477075","1484715","31471","1324563","1484721","1483408","31499","279799","NA","1488934","1490053","1485725","194969","1488934","NA","Sternberg Task","32","39349","37","yes","1024"
"86.84210526315789","86.84210526315789","1070.4736842105262","1070.4736842105262","black","experiment","legacy","legacy","legacy","0","uniform","1","undefined","1","right","37","37","37","0","0","37","37","0","0","NA","37","37","37","0","37","0","Sat Oct 24 21:31:04 2020","The main experiment item","yes","NA","SternbergTask.osexp","C:/Users/chelsea/OneDrive - Tarleton State University/psych 5316- adv/Sternberg test","no","mono","no","18","no","white","no","yes","768","legacy","25","11","C:/Users/chelsea/OneDrive - Tarleton State University/psych 5316- adv/Sternberg test/subject-2 JH.csv","legacy","6 9 4 5 2","Lentiform Loewenfeld","3.3.3","0","n","0","right","left","left","right","NA","1329","163467","1044761","1329","NA","2","legacy","5","1024","2","48000","-16","experiment","1","odd","1","1493619","1490109","1491404","31471","1324563","1491408","1483408","31499","279799","NA","1495624","1496955","1492412","194969","1495624","NA","Sternberg Task","33","40678","38","yes","1024"
"87.17948717948718","87.17948717948718","1074.179487179487","1074.179487179487","black","experiment","legacy","legacy","legacy","0","uniform","1","undefined","1","left","38","38","38","0","0","38","38","0","0","NA","38","38","38","0","38","0","Sat Oct 24 21:31:04 2020","The main experiment item","yes","NA","SternbergTask.osexp","C:/Users/chelsea/OneDrive - Tarleton State University/psych 5316- adv/Sternberg test","no","mono","no","18","no","white","no","yes","768","legacy","26","11","C:/Users/chelsea/OneDrive - Tarleton State University/psych 5316- adv/Sternberg test/subject-2 JH.csv","legacy","8 7 3","Lentiform Loewenfeld","3.3.3","1","y","0","left","left","left","left","NA","1215","163467","1044761","1215","NA","2","legacy","3","1024","2","48000","-16","experiment","1","odd","8","1500523","1497019","1498309","31471","1324563","1498314","1483408","31499","279799","NA","1502529","1503747","1499319","194969","1502529","NA","Sternberg Task","34","41893","39","yes","1024"
"85","85","1097.325","1097.325","black","experiment","legacy","legacy","legacy","0","uniform","0","undefined","0","left","39","39","39","0","0","39","39","0","0","NA","39","39","39","0","39","0","Sat Oct 24 21:31:04 2020","The main experiment item","yes","NA","SternbergTask.osexp","C:/Users/chelsea/OneDrive - Tarleton State University/psych 5316- adv/Sternberg test","no","mono","no","18","no","white","no","yes","768","legacy","27","11","C:/Users/chelsea/OneDrive - Tarleton State University/psych 5316- adv/Sternberg test/subject-2 JH.csv","legacy","3 4 9 6 2 9","Lentiform Loewenfeld","3.3.3","5","y","0","None","left","left","None","NA","2000","163467","1044761","2000","NA","2","legacy","6","1024","2","48000","-16","experiment","1","odd","2","1507336","1503809","1505123","31471","1324563","1505128","1483408","31499","279799","NA","1509342","1511344","1506132","194969","1509342","NA","Sternberg Task","34","43893","40","yes","1024"
"82.92682926829268","82.92682926829268","1118.4146341463415","1118.4146341463415","black","experiment","legacy","legacy","legacy","0","uniform","0","undefined","0","left","40","40","40","0","0","40","40","0","0","NA","40","40","40","0","40","0","Sat Oct 24 21:31:04 2020","The main experiment item","yes","NA","SternbergTask.osexp","C:/Users/chelsea/OneDrive - Tarleton State University/psych 5316- adv/Sternberg test","no","mono","no","18","no","white","no","yes","768","legacy","28","11","C:/Users/chelsea/OneDrive - Tarleton State University/psych 5316- adv/Sternberg test/subject-2 JH.csv","legacy","5 7 8 2 3 8","Lentiform Loewenfeld","3.3.3","5","y","0","right","left","left","right","NA","1962","163467","1044761","1962","NA","2","legacy","6","1024","2","48000","-16","experiment","1","odd","3","1514920","1503809","1512707","31471","1324563","1512711","1511408","31499","279799","NA","1516924","1518889","1513715","194969","1516924","NA","Sternberg Task","34","45855","41","yes","1024"
"83.33333333333333","83.33333333333333","1122.1904761904761","1122.1904761904761","black","experiment","legacy","legacy","legacy","0","uniform","1","undefined","1","left","41","41","41","0","0","41","41","0","0","NA","41","41","41","0","41","0","Sat Oct 24 21:31:04 2020","The main experiment item","yes","NA","SternbergTask.osexp","C:/Users/chelsea/OneDrive - Tarleton State University/psych 5316- adv/Sternberg test","no","mono","no","18","no","white","no","yes","768","legacy","29","11","C:/Users/chelsea/OneDrive - Tarleton State University/psych 5316- adv/Sternberg test/subject-2 JH.csv","legacy","2 5 4 8 7","Lentiform Loewenfeld","3.3.3","3","y","0","left","left","left","left","NA","1277","163467","1044761","1277","NA","2","legacy","5","1024","2","48000","-16","experiment","1","odd","4","1522443","1503809","1520227","31471","1324563","1520233","1518942","31499","279799","NA","1524448","1525728","1521239","194969","1524448","NA","Sternberg Task","35","47132","42","yes","1024"
"83.72093023255815","83.72093023255815","1130.2325581395348","1130.2325581395348","black","experiment","legacy","legacy","legacy","0","uniform","1","undefined","1","right","42","42","42","0","0","42","42","0","0","NA","42","42","42","0","42","0","Sat Oct 24 21:31:04 2020","The main experiment item","yes","NA","SternbergTask.osexp","C:/Users/chelsea/OneDrive - Tarleton State University/psych 5316- adv/Sternberg test","no","mono","no","18","no","white","no","yes","768","legacy","30","11","C:/Users/chelsea/OneDrive - Tarleton State University/psych 5316- adv/Sternberg test/subject-2 JH.csv","legacy","3 9 1","Lentiform Loewenfeld","3.3.3","0","n","0","right","left","left","right","NA","1468","163467","1044761","1468","NA","2","legacy","3","1024","2","48000","-16","experiment","1","odd","7","1529309","1525821","1527096","31471","1324563","1527101","1518942","31499","279799","NA","1531313","1532784","1528105","194969","1531313","NA","Sternberg Task","36","48600","43","yes","1024"
"81.81818181818181","81.81818181818181","1140.7727272727273","1140.7727272727273","black","experiment","legacy","legacy","legacy","0","uniform","0","undefined","0","right","43","43","43","0","0","43","43","0","0","NA","43","43","43","0","43","0","Sat Oct 24 21:31:04 2020","The main experiment item","yes","NA","SternbergTask.osexp","C:/Users/chelsea/OneDrive - Tarleton State University/psych 5316- adv/Sternberg test","no","mono","no","18","no","white","no","yes","768","legacy","31","11","C:/Users/chelsea/OneDrive - Tarleton State University/psych 5316- adv/Sternberg test/subject-2 JH.csv","legacy","2 8 7 9 5 3","Lentiform Loewenfeld","3.3.3","0","n","0","left","left","left","left","NA","1594","163467","1044761","1594","NA","2","legacy","6","1024","2","48000","-16","experiment","1","odd","6","1536309","1532809","1534095","31471","1324563","1534100","1518942","31499","279799","NA","1538314","1539910","1535104","194969","1538313","NA","Sternberg Task","36","50194","44","yes","1024"
"82.22222222222223","82.22222222222223","1135.8222222222223","1135.8222222222223","black","experiment","legacy","legacy","legacy","0","uniform","1","undefined","1","left","44","44","44","0","0","44","44","0","0","NA","44","44","44","0","44","0","Sat Oct 24 21:31:04 2020","The main experiment item","yes","NA","SternbergTask.osexp","C:/Users/chelsea/OneDrive - Tarleton State University/psych 5316- adv/Sternberg test","no","mono","no","18","no","white","no","yes","768","legacy","32","11","C:/Users/chelsea/OneDrive - Tarleton State University/psych 5316- adv/Sternberg test/subject-2 JH.csv","legacy","9 8 4","Lentiform Loewenfeld","3.3.3","1","y","0","left","left","left","left","NA","918","163467","1044761","918","NA","2","legacy","3","1024","2","48000","-16","experiment","1","odd","9","1543480","1532809","1541267","31471","1324563","1541272","1539976","31499","279799","NA","1545485","1546406","1542275","194969","1545484","NA","Sternberg Task","37","51112","45","yes","1024"
"82.6086956521739","82.6086956521739","1129.2391304347825","1129.2391304347825","black","experiment","legacy","legacy","legacy","0","uniform","1","undefined","1","right","45","45","45","0","0","45","45","0","0","NA","45","45","45","0","45","0","Sat Oct 24 21:31:04 2020","The main experiment item","yes","NA","SternbergTask.osexp","C:/Users/chelsea/OneDrive - Tarleton State University/psych 5316- adv/Sternberg test","no","mono","no","18","no","white","no","yes","768","legacy","33","11","C:/Users/chelsea/OneDrive - Tarleton State University/psych 5316- adv/Sternberg test/subject-2 JH.csv","legacy","4 8 1 2","Lentiform Loewenfeld","3.3.3","0","n","0","right","left","left","right","NA","833","163467","1044761","833","NA","2","legacy","4","1024","2","48000","-16","experiment","1","odd","7","1549964","1546456","1547751","31471","1324563","1547756","1539976","31499","279799","NA","1551971","1552807","1548760","194969","1551971","NA","Sternberg Task","38","51945","46","yes","1024"
"82.97872340425532","82.97872340425532","1124.7659574468084","1124.7659574468084","black","experiment","legacy","legacy","legacy","0","uniform","1","undefined","1","right","46","46","46","0","0","46","46","0","0","NA","46","46","46","0","46","0","Sat Oct 24 21:31:04 2020","The main experiment item","yes","NA","SternbergTask.osexp","C:/Users/chelsea/OneDrive - Tarleton State University/psych 5316- adv/Sternberg test","no","mono","no","18","no","white","no","yes","768","legacy","34","11","C:/Users/chelsea/OneDrive - Tarleton State University/psych 5316- adv/Sternberg test/subject-2 JH.csv","legacy","1 4 9 3","Lentiform Loewenfeld","3.3.3","0","n","0","right","left","left","right","NA","919","163467","1044761","919","NA","2","legacy","4","1024","2","48000","-16","experiment","1","odd","5","1556373","1552865","1554157","31471","1324563","1554162","1539976","31499","279799","NA","1558377","1559299","1555166","194969","1558377","NA","Sternberg Task","39","52864","47","yes","1024"
"83.33333333333333","83.33333333333333","1122.625","1122.625","black","experiment","legacy","legacy","legacy","0","uniform","1","undefined","1","left","47","47","47","0","0","47","47","0","0","NA","47","47","47","0","47","0","Sat Oct 24 21:31:04 2020","The main experiment item","yes","NA","SternbergTask.osexp","C:/Users/chelsea/OneDrive - Tarleton State University/psych 5316- adv/Sternberg test","no","mono","no","18","no","white","no","yes","768","legacy","35","11","C:/Users/chelsea/OneDrive - Tarleton State University/psych 5316- adv/Sternberg test/subject-2 JH.csv","legacy","6 5","Lentiform Loewenfeld","3.3.3","2","y","0","left","left","left","left","NA","1022","163467","1044761","1022","NA","2","legacy","2","1024","2","48000","-16","experiment","1","odd","5","1562869","1559365","1560656","31471","1324563","1560660","1539976","31499","279799","NA","1564874","1565899","1561665","194969","1564874","NA","Sternberg Task","40","53886","48","yes","1024"
"81.63265306122449","81.63265306122449","1127.1020408163265","1127.1020408163265","black","experiment","legacy","legacy","legacy","0","uniform","0","undefined","0","left","48","48","48","0","0","48","48","0","0","NA","48","48","48","0","48","0","Sat Oct 24 21:31:04 2020","The main experiment item","yes","NA","SternbergTask.osexp","C:/Users/chelsea/OneDrive - Tarleton State University/psych 5316- adv/Sternberg test","no","mono","no","18","no","white","no","yes","768","legacy","36","11","C:/Users/chelsea/OneDrive - Tarleton State University/psych 5316- adv/Sternberg test/subject-2 JH.csv","legacy","9 5 8 1","Lentiform Loewenfeld","3.3.3","2","y","0","right","left","left","right","NA","1342","163467","1044761","1342","NA","2","legacy","4","1024","2","48000","-16","experiment","1","odd","5","1569461","1565957","1567244","31471","1324563","1567250","1539976","31499","279799","NA","1571465","1572810","1568257","194969","1571465","NA","Sternberg Task","40","55228","49","yes","1024"
"82","82","1132.66","1132.66","black","experiment","legacy","legacy","legacy","0","uniform","1","undefined","1","right","49","49","49","0","0","49","49","0","0","NA","49","49","49","0","49","0","Sat Oct 24 21:31:04 2020","The main experiment item","yes","NA","SternbergTask.osexp","C:/Users/chelsea/OneDrive - Tarleton State University/psych 5316- adv/Sternberg test","no","mono","no","18","no","white","no","yes","768","legacy","37","11","C:/Users/chelsea/OneDrive - Tarleton State University/psych 5316- adv/Sternberg test/subject-2 JH.csv","legacy","1 6 4","Lentiform Loewenfeld","3.3.3","0","n","0","right","left","left","right","NA","1405","163467","1044761","1405","NA","2","legacy","3","1024","2","48000","-16","experiment","1","odd","7","1576372","1565957","1574157","31471","1324563","1574162","1572865","31499","279799","NA","1578377","1579787","1575166","194969","1578377","NA","Sternberg Task","41","56633","50","yes","1024"
"80.3921568627451","80.3921568627451","1129.7058823529412","1129.7058823529412","black","experiment","legacy","legacy","legacy","0","uniform","0","undefined","0","left","50","50","50","0","0","50","50","0","0","NA","50","50","50","0","50","0","Sat Oct 24 21:31:04 2020","The main experiment item","yes","NA","SternbergTask.osexp","C:/Users/chelsea/OneDrive - Tarleton State University/psych 5316- adv/Sternberg test","no","mono","no","18","no","white","no","yes","768","legacy","38","11","C:/Users/chelsea/OneDrive - Tarleton State University/psych 5316- adv/Sternberg test/subject-2 JH.csv","legacy","3 9 7 6 4","Lentiform Loewenfeld","3.3.3","3","y","0","right","left","left","right","NA","982","163467","1044761","982","NA","2","legacy","5","1024","2","48000","-16","experiment","1","odd","7","1583341","1579844","1581127","31471","1324563","1581131","1572865","31499","279799","NA","1585344","1586329","1582136","194969","1585344","NA","Sternberg Task","41","57615","51","yes","1024"
"80.76923076923077","80.76923076923077","1123.2884615384614","1123.2884615384614","black","experiment","legacy","legacy","legacy","0","uniform","1","undefined","1","right","51","51","51","0","0","51","51","0","0","NA","51","51","51","0","51","0","Sat Oct 24 21:31:04 2020","The main experiment item","yes","NA","SternbergTask.osexp","C:/Users/chelsea/OneDrive - Tarleton State University/psych 5316- adv/Sternberg test","no","mono","no","18","no","white","no","yes","768","legacy","39","11","C:/Users/chelsea/OneDrive - Tarleton State University/psych 5316- adv/Sternberg test/subject-2 JH.csv","legacy","8 5 4 2 9 6","Lentiform Loewenfeld","3.3.3","0","n","0","right","left","left","right","NA","796","163467","1044761","796","NA","2","legacy","6","1024","2","48000","-16","experiment","1","odd","3","1589907","1579844","1587691","31471","1324563","1587696","1586390","31499","279799","NA","1591912","1592711","1588701","194969","1591912","NA","Sternberg Task","42","58411","52","yes","1024"
"81.13207547169812","81.13207547169812","1121","1121","black","experiment","legacy","legacy","legacy","0","uniform","1","undefined","1","left","52","52","52","0","0","52","52","0","0","NA","52","52","52","0","52","0","Sat Oct 24 21:31:04 2020","The main experiment item","yes","NA","SternbergTask.osexp","C:/Users/chelsea/OneDrive - Tarleton State University/psych 5316- adv/Sternberg test","no","mono","no","18","no","white","no","yes","768","legacy","40","11","C:/Users/chelsea/OneDrive - Tarleton State University/psych 5316- adv/Sternberg test/subject-2 JH.csv","legacy","1 4 9 3 2 5","Lentiform Loewenfeld","3.3.3","3","y","0","left","left","left","left","NA","1002","163467","1044761","1002","NA","2","legacy","6","1024","2","48000","-16","experiment","1","odd","9","1596270","1592757","1594055","31471","1324563","1594059","1586390","31499","279799","NA","1598274","1599279","1595063","194969","1598274","NA","Sternberg Task","43","59413","53","yes","1024"
"81.48148148148148","81.48148148148148","1114.4814814814815","1114.4814814814815","black","experiment","legacy","legacy","legacy","0","uniform","1","undefined","1","left","53","53","53","0","0","53","53","0","0","NA","53","53","53","0","53","0","Sat Oct 24 21:31:04 2020","The main experiment item","yes","NA","SternbergTask.osexp","C:/Users/chelsea/OneDrive - Tarleton State University/psych 5316- adv/Sternberg test","no","mono","no","18","no","white","no","yes","768","legacy","41","11","C:/Users/chelsea/OneDrive - Tarleton State University/psych 5316- adv/Sternberg test/subject-2 JH.csv","legacy","9 5 3 8 4","Lentiform Loewenfeld","3.3.3","1","y","0","left","left","left","left","NA","769","163467","1044761","769","NA","2","legacy","5","1024","2","48000","-16","experiment","1","odd","9","1602822","1599311","1600606","31471","1324563","1600613","1586390","31499","279799","NA","1604826","1605598","1601617","194969","1604826","NA","Sternberg Task","44","60182","54","yes","1024"
"81.81818181818181","81.81818181818181","1111.7818181818182","1111.7818181818182","black","experiment","legacy","legacy","legacy","0","uniform","1","undefined","1","left","54","54","54","0","0","54","54","0","0","NA","54","54","54","0","54","0","Sat Oct 24 21:31:04 2020","The main experiment item","yes","NA","SternbergTask.osexp","C:/Users/chelsea/OneDrive - Tarleton State University/psych 5316- adv/Sternberg test","no","mono","no","18","no","white","no","yes","768","legacy","42","11","C:/Users/chelsea/OneDrive - Tarleton State University/psych 5316- adv/Sternberg test/subject-2 JH.csv","legacy","8 9 6 1","Lentiform Loewenfeld","3.3.3","2","y","0","left","left","left","left","NA","966","163467","1044761","966","NA","2","legacy","4","1024","2","48000","-16","experiment","1","odd","9","1609176","1605676","1606961","31471","1324563","1606966","1586390","31499","279799","NA","1611180","1612149","1607971","194969","1611180","NA","Sternberg Task","45","61148","55","yes","1024"
"82.14285714285714","82.14285714285714","1108.392857142857","1108.392857142857","black","experiment","legacy","legacy","legacy","0","uniform","1","undefined","1","right","55","55","55","0","0","55","55","0","0","NA","55","55","55","0","55","0","Sat Oct 24 21:31:04 2020","The main experiment item","yes","NA","SternbergTask.osexp","C:/Users/chelsea/OneDrive - Tarleton State University/psych 5316- adv/Sternberg test","no","mono","no","18","no","white","no","yes","768","legacy","43","11","C:/Users/chelsea/OneDrive - Tarleton State University/psych 5316- adv/Sternberg test/subject-2 JH.csv","legacy","6 2 9 3 8 4","Lentiform Loewenfeld","3.3.3","0","n","0","right","left","left","right","NA","922","163467","1044761","922","NA","2","legacy","6","1024","2","48000","-16","experiment","1","odd","1","1615690","1612188","1613475","31471","1324563","1613481","1586390","31499","279799","NA","1617695","1618622","1614486","194969","1617694","NA","Sternberg Task","46","62070","56","yes","1024"
"82.45614035087719","82.45614035087719","1109.0526315789473","1109.0526315789473","black","experiment","legacy","legacy","legacy","0","uniform","1","undefined","1","right","56","56","56","0","0","56","56","0","0","NA","56","56","56","0","56","0","Sat Oct 24 21:31:04 2020","The main experiment item","yes","NA","SternbergTask.osexp","C:/Users/chelsea/OneDrive - Tarleton State University/psych 5316- adv/Sternberg test","no","mono","no","18","no","white","no","yes","768","legacy","44","11","C:/Users/chelsea/OneDrive - Tarleton State University/psych 5316- adv/Sternberg test/subject-2 JH.csv","legacy","1 7 8 3 9","Lentiform Loewenfeld","3.3.3","0","n","0","right","left","left","right","NA","1146","163467","1044761","1146","NA","2","legacy","5","1024","2","48000","-16","experiment","1","odd","2","1622178","1618677","1619964","31471","1324563","1619969","1586390","31499","279799","NA","1624182","1625331","1620973","194969","1624182","NA","Sternberg Task","47","63216","57","yes","1024"
"82.75862068965517","82.75862068965517","1103.8793103448277","1103.8793103448277","black","experiment","legacy","legacy","legacy","0","uniform","1","undefined","1","left","57","57","57","0","0","57","57","0","0","NA","57","57","57","0","57","0","Sat Oct 24 21:31:04 2020","The main experiment item","yes","NA","SternbergTask.osexp","C:/Users/chelsea/OneDrive - Tarleton State University/psych 5316- adv/Sternberg test","no","mono","no","18","no","white","no","yes","768","legacy","45","11","C:/Users/chelsea/OneDrive - Tarleton State University/psych 5316- adv/Sternberg test/subject-2 JH.csv","legacy","3 5 4 7","Lentiform Loewenfeld","3.3.3","1","y","0","left","left","left","left","NA","809","163467","1044761","809","NA","2","legacy","4","1024","2","48000","-16","experiment","1","odd","3","1628873","1625366","1626659","31471","1324563","1626664","1586390","31499","279799","NA","1630878","1631692","1627668","194969","1630878","NA","Sternberg Task","48","64025","58","yes","1024"
"83.05084745762711","83.05084745762711","1099.6610169491526","1099.6610169491526","black","experiment","legacy","legacy","legacy","0","uniform","1","undefined","1","right","58","58","58","0","0","58","58","0","0","NA","58","58","58","0","58","0","Sat Oct 24 21:31:04 2020","The main experiment item","yes","NA","SternbergTask.osexp","C:/Users/chelsea/OneDrive - Tarleton State University/psych 5316- adv/Sternberg test","no","mono","no","18","no","white","no","yes","768","legacy","46","11","C:/Users/chelsea/OneDrive - Tarleton State University/psych 5316- adv/Sternberg test/subject-2 JH.csv","legacy","1 6 4 3 9 7","Lentiform Loewenfeld","3.3.3","0","n","0","right","left","left","right","NA","855","163467","1044761","855","NA","2","legacy","6","1024","2","48000","-16","experiment","1","odd","8","1635273","1631766","1633056","31471","1324563","1633062","1586390","31499","279799","NA","1637279","1638139","1634066","194969","1637278","NA","Sternberg Task","49","64880","59","yes","1024"
"83.33333333333333","83.33333333333333","1093.7333333333333","1093.7333333333333","black","experiment","legacy","legacy","legacy","0","uniform","1","undefined","1","right","59","59","59","0","0","59","59","0","0","NA","59","59","59","0","59","0","Sat Oct 24 21:31:04 2020","The main experiment item","yes","NA","SternbergTask.osexp","C:/Users/chelsea/OneDrive - Tarleton State University/psych 5316- adv/Sternberg test","no","mono","no","18","no","white","no","yes","768","legacy","47","11","C:/Users/chelsea/OneDrive - Tarleton State University/psych 5316- adv/Sternberg test/subject-2 JH.csv","legacy","9","Lentiform Loewenfeld","3.3.3","0","n","0","right","left","left","right","NA","744","163467","1044761","744","NA","2","legacy","1","1024","2","48000","-16","experiment","1","odd","6","1641729","1638222","1639513","31471","1324563","1639519","1586390","31499","279799","NA","1643733","1644481","1640523","194969","1643732","NA","Sternberg Task","50","65624","60","yes","1024"
"81.9672131147541","81.9672131147541","1088.360655737705","1088.360655737705","black","experiment","legacy","legacy","legacy","0","uniform","0","undefined","0","left","60","60","60","0","0","60","60","0","0","NA","60","60","60","0","60","0","Sat Oct 24 21:31:04 2020","The main experiment item","yes","NA","SternbergTask.osexp","C:/Users/chelsea/OneDrive - Tarleton State University/psych 5316- adv/Sternberg test","no","mono","no","18","no","white","no","yes","768","legacy","48","11","C:/Users/chelsea/OneDrive - Tarleton State University/psych 5316- adv/Sternberg test/subject-2 JH.csv","legacy","9 1 7 2","Lentiform Loewenfeld","3.3.3","2","y","0","right","left","left","right","NA","766","163467","1044761","766","NA","2","legacy","4","1024","2","48000","-16","experiment","1","odd","1","1648050","1644524","1645826","31471","1324563","1645841","1586390","31499","279799","NA","1650056","1650829","1646846","194969","1650056","NA","Sternberg Task","50","66390","61","yes","1024"
"82.25806451612904","82.25806451612904","1100.2903225806451","1100.2903225806451","black","experiment","legacy","legacy","legacy","0","uniform","1","undefined","1","right","61","61","61","0","0","61","61","0","0","NA","61","61","61","0","61","0","Sat Oct 24 21:31:04 2020","The main experiment item","yes","NA","SternbergTask.osexp","C:/Users/chelsea/OneDrive - Tarleton State University/psych 5316- adv/Sternberg test","no","mono","no","18","no","white","no","yes","768","legacy","49","11","C:/Users/chelsea/OneDrive - Tarleton State University/psych 5316- adv/Sternberg test/subject-2 JH.csv","legacy","9 5 3 2 8 6","Lentiform Loewenfeld","3.3.3","0","n","0","right","left","left","right","NA","1828","163467","1044761","1828","NA","2","legacy","6","1024","2","48000","-16","experiment","1","odd","7","1654387","1644524","1652174","31471","1324563","1652179","1650868","31499","279799","NA","1656391","1658223","1653183","194969","1656391","NA","Sternberg Task","51","68218","62","yes","1024"
"80.95238095238095","80.95238095238095","1098.8095238095239","1098.8095238095239","black","experiment","legacy","legacy","legacy","0","uniform","0","undefined","0","right","62","62","62","0","0","62","62","0","0","NA","62","62","62","0","62","0","Sat Oct 24 21:31:04 2020","The main experiment item","yes","NA","SternbergTask.osexp","C:/Users/chelsea/OneDrive - Tarleton State University/psych 5316- adv/Sternberg test","no","mono","no","18","no","white","no","yes","768","legacy","50","11","C:/Users/chelsea/OneDrive - Tarleton State University/psych 5316- adv/Sternberg test/subject-2 JH.csv","legacy","6 8","Lentiform Loewenfeld","3.3.3","0","n","0","left","left","left","left","NA","1007","163467","1044761","1007","NA","2","legacy","2","1024","2","48000","-16","experiment","1","odd","9","1661791","1658259","1659578","31471","1324563","1659583","1650868","31499","279799","NA","1663795","1664810","1660587","194969","1663795","NA","Sternberg Task","51","69225","63","yes","1024"
"81.25","81.25","1101.578125","1101.578125","black","experiment","legacy","legacy","legacy","0","uniform","1","undefined","1","left","63","63","63","0","0","63","63","0","0","NA","63","63","63","0","63","0","Sat Oct 24 21:31:04 2020","The main experiment item","yes","NA","SternbergTask.osexp","C:/Users/chelsea/OneDrive - Tarleton State University/psych 5316- adv/Sternberg test","no","mono","no","18","no","white","no","yes","768","legacy","51","11","C:/Users/chelsea/OneDrive - Tarleton State University/psych 5316- adv/Sternberg test/subject-2 JH.csv","legacy","2 3 7 4","Lentiform Loewenfeld","3.3.3","1","y","0","left","left","left","left","NA","1276","163467","1044761","1276","NA","2","legacy","4","1024","2","48000","-16","experiment","1","odd","2","1668376","1658259","1666162","31471","1324563","1666166","1664877","31499","279799","NA","1670381","1671661","1667172","194969","1670380","NA","Sternberg Task","52","70501","64","yes","1024"
"80","80","1115.4","1115.4","black","experiment","legacy","legacy","legacy","0","uniform","0","undefined","0","left","64","64","64","0","0","64","64","0","0","NA","64","64","64","0","64","0","Sat Oct 24 21:31:04 2020","The main experiment item","yes","NA","SternbergTask.osexp","C:/Users/chelsea/OneDrive - Tarleton State University/psych 5316- adv/Sternberg test","no","mono","no","18","no","white","no","yes","768","legacy","52","11","C:/Users/chelsea/OneDrive - Tarleton State University/psych 5316- adv/Sternberg test/subject-2 JH.csv","legacy","8","Lentiform Loewenfeld","3.3.3","1","y","0","None","left","left","None","NA","2000","163467","1044761","2000","NA","2","legacy","1","1024","2","48000","-16","experiment","1","odd","8","1675195","1671700","1672980","31471","1324563","1672986","1664877","31499","279799","NA","1677199","1679202","1673990","194969","1677199","NA","Sternberg Task","52","72501","65","yes","1024"
"78.78787878787878","78.78787878787878","1117.9242424242425","1117.9242424242425","black","experiment","legacy","legacy","legacy","0","uniform","0","undefined","0","left","65","65","65","0","0","65","65","0","0","NA","65","65","65","0","65","0","Sat Oct 24 21:31:04 2020","The main experiment item","yes","NA","SternbergTask.osexp","C:/Users/chelsea/OneDrive - Tarleton State University/psych 5316- adv/Sternberg test","no","mono","no","18","no","white","no","yes","768","legacy","53","11","C:/Users/chelsea/OneDrive - Tarleton State University/psych 5316- adv/Sternberg test/subject-2 JH.csv","legacy","5 7 3 6 2","Lentiform Loewenfeld","3.3.3","5","y","0","right","left","left","right","NA","1282","163467","1044761","1282","NA","2","legacy","5","1024","2","48000","-16","experiment","1","odd","2","1682762","1671700","1680548","31471","1324563","1680553","1679257","31499","279799","NA","1684766","1686052","1681558","194969","1684766","NA","Sternberg Task","52","73783","66","yes","1024"
"79.1044776119403","79.1044776119403","1113.7462686567164","1113.7462686567164","black","experiment","legacy","legacy","legacy","0","uniform","1","undefined","1","left","66","66","66","0","0","66","66","0","0","NA","66","66","66","0","66","0","Sat Oct 24 21:31:04 2020","The main experiment item","yes","NA","SternbergTask.osexp","C:/Users/chelsea/OneDrive - Tarleton State University/psych 5316- adv/Sternberg test","no","mono","no","18","no","white","no","yes","768","legacy","54","11","C:/Users/chelsea/OneDrive - Tarleton State University/psych 5316- adv/Sternberg test/subject-2 JH.csv","legacy","3 2 1 4 7","Lentiform Loewenfeld","3.3.3","2","y","0","left","left","left","left","NA","838","163467","1044761","838","NA","2","legacy","5","1024","2","48000","-16","experiment","1","odd","2","1689613","1671700","1687399","31471","1324563","1687405","1686112","31499","279799","NA","1691618","1692459","1688408","194969","1691617","NA","Sternberg Task","53","74621","67","yes","1024"
"79.41176470588235","79.41176470588235","1109.7794117647059","1109.7794117647059","black","experiment","legacy","legacy","legacy","0","uniform","1","undefined","1","right","67","67","67","0","0","67","67","0","0","NA","67","67","67","0","67","0","Sat Oct 24 21:31:04 2020","The main experiment item","yes","NA","SternbergTask.osexp","C:/Users/chelsea/OneDrive - Tarleton State University/psych 5316- adv/Sternberg test","no","mono","no","18","no","white","no","yes","768","legacy","55","11","C:/Users/chelsea/OneDrive - Tarleton State University/psych 5316- adv/Sternberg test/subject-2 JH.csv","legacy","2 3 8 5 6 7","Lentiform Loewenfeld","3.3.3","0","n","0","right","left","left","right","NA","844","163467","1044761","844","NA","2","legacy","6","1024","2","48000","-16","experiment","1","odd","1","1696031","1692523","1693818","31471","1324563","1693823","1686112","31499","279799","NA","1698035","1698882","1694826","194969","1698035","NA","Sternberg Task","54","75465","68","yes","1024"
"79.71014492753623","79.71014492753623","1114.463768115942","1114.463768115942","black","experiment","legacy","legacy","legacy","0","uniform","1","undefined","1","right","68","68","68","0","0","68","68","0","0","NA","68","68","68","0","68","0","Sat Oct 24 21:31:04 2020","The main experiment item","yes","NA","SternbergTask.osexp","C:/Users/chelsea/OneDrive - Tarleton State University/psych 5316- adv/Sternberg test","no","mono","no","18","no","white","no","yes","768","legacy","56","11","C:/Users/chelsea/OneDrive - Tarleton State University/psych 5316- adv/Sternberg test/subject-2 JH.csv","legacy","7 9 1 6","Lentiform Loewenfeld","3.3.3","0","n","0","right","left","left","right","NA","1433","163467","1044761","1433","NA","2","legacy","4","1024","2","48000","-16","experiment","1","odd","4","1702434","1698913","1700219","31471","1324563","1700225","1686112","31499","279799","NA","1704444","1705881","1701231","194969","1704443","NA","Sternberg Task","55","76898","69","yes","1024"
"80","80","1111.8","1111.8","black","experiment","legacy","legacy","legacy","0","uniform","1","undefined","1","right","69","69","69","0","0","69","69","0","0","NA","69","69","69","0","69","0","Sat Oct 24 21:31:04 2020","The main experiment item","yes","NA","SternbergTask.osexp","C:/Users/chelsea/OneDrive - Tarleton State University/psych 5316- adv/Sternberg test","no","mono","no","18","no","white","no","yes","768","legacy","57","11","C:/Users/chelsea/OneDrive - Tarleton State University/psych 5316- adv/Sternberg test/subject-2 JH.csv","legacy","7 4 2 8 1 9","Lentiform Loewenfeld","3.3.3","0","n","0","right","left","left","right","NA","928","163467","1044761","928","NA","2","legacy","6","1024","2","48000","-16","experiment","1","odd","5","1709431","1705911","1707213","31471","1324563","1707219","1686112","31499","279799","NA","1711436","1712368","1708227","194969","1711435","NA","Sternberg Task","56","77826","70","yes","1024"
"78.87323943661971","78.87323943661971","1109.0985915492959","1109.0985915492959","black","experiment","legacy","legacy","legacy","0","uniform","0","undefined","0","left","70","70","70","0","0","70","70","0","0","NA","70","70","70","0","70","0","Sat Oct 24 21:31:04 2020","The main experiment item","yes","NA","SternbergTask.osexp","C:/Users/chelsea/OneDrive - Tarleton State University/psych 5316- adv/Sternberg test","no","mono","no","18","no","white","no","yes","768","legacy","58","11","C:/Users/chelsea/OneDrive - Tarleton State University/psych 5316- adv/Sternberg test/subject-2 JH.csv","legacy","9 6 2 4 1","Lentiform Loewenfeld","3.3.3","4","y","0","right","left","left","right","NA","920","163467","1044761","920","NA","2","legacy","5","1024","2","48000","-16","experiment","1","odd","4","1715934","1712425","1713719","31471","1324563","1713726","1686112","31499","279799","NA","1717939","1718863","1714730","194969","1717938","NA","Sternberg Task","56","78746","71","yes","1024"
"77.77777777777777","77.77777777777777","1111.0833333333333","1111.0833333333333","black","experiment","legacy","legacy","legacy","0","uniform","0","undefined","0","left","71","71","71","0","0","71","71","0","0","NA","71","71","71","0","71","0","Sat Oct 24 21:31:04 2020","The main experiment item","yes","NA","SternbergTask.osexp","C:/Users/chelsea/OneDrive - Tarleton State University/psych 5316- adv/Sternberg test","no","mono","no","18","no","white","no","yes","768","legacy","59","11","C:/Users/chelsea/OneDrive - Tarleton State University/psych 5316- adv/Sternberg test/subject-2 JH.csv","legacy","4 6 2 5 1","Lentiform Loewenfeld","3.3.3","5","y","0","right","left","left","right","NA","1252","163467","1044761","1252","NA","2","legacy","5","1024","2","48000","-16","experiment","1","odd","1","1722490","1712425","1720277","31471","1324563","1720282","1718970","31499","279799","NA","1724495","1725751","1721286","194969","1724494","NA","Sternberg Task","56","79998","72","yes","1024"
"76.71232876712328","76.71232876712328","1123.3835616438357","1123.3835616438357","black","experiment","legacy","legacy","legacy","0","uniform","0","undefined","0","left","72","72","72","0","0","72","72","0","0","NA","72","72","72","0","72","0","Sat Oct 24 21:31:04 2020","The main experiment item","yes","NA","SternbergTask.osexp","C:/Users/chelsea/OneDrive - Tarleton State University/psych 5316- adv/Sternberg test","no","mono","no","18","no","white","no","yes","768","legacy","60","11","C:/Users/chelsea/OneDrive - Tarleton State University/psych 5316- adv/Sternberg test/subject-2 JH.csv","legacy","9 1 6 7 8","Lentiform Loewenfeld","3.3.3","1","y","0","None","left","left","None","NA","2009","163467","1044761","2009","NA","2","legacy","5","1024","2","48000","-16","experiment","1","odd","9","1729323","1712425","1727105","31471","1324563","1727113","1725814","31499","279799","NA","2001268","2003284","1728117","194969","1731328","NA","Sternberg Task","56","82007","73","yes","1024"
"77.02702702702703","77.02702702702703","1126.2972972972973","1126.2972972972973","black","experiment","legacy","legacy","legacy","0","uniform","1","undefined","1","left","73","73","73","0","0","73","73","0","0","NA","73","73","73","0","73","0","Sat Oct 24 21:31:04 2020","The main experiment item","yes","NA","SternbergTask.osexp","C:/Users/chelsea/OneDrive - Tarleton State University/psych 5316- adv/Sternberg test","no","mono","no","18","no","white","no","yes","768","legacy","61","11","C:/Users/chelsea/OneDrive - Tarleton State University/psych 5316- adv/Sternberg test/subject-2 JH.csv","legacy","8 5 4 7 3 1","Lentiform Loewenfeld","3.3.3","2","y","0","left","left","left","left","NA","1339","163467","1044761","1339","NA","2","legacy","6","1024","2","48000","-16","experiment","1","odd","5","2006917","1712425","2004702","31471","1324563","2004706","2003338","31499","279799","NA","2008922","2010265","2005711","194969","2008922","NA","Sternberg Task","57","83346","74","yes","1024"
"77.33333333333333","77.33333333333333","1123.04","1123.04","black","experiment","legacy","legacy","legacy","0","uniform","1","undefined","1","left","74","74","74","0","0","74","74","0","0","NA","74","74","74","0","74","0","Sat Oct 24 21:31:04 2020","The main experiment item","yes","NA","SternbergTask.osexp","C:/Users/chelsea/OneDrive - Tarleton State University/psych 5316- adv/Sternberg test","no","mono","no","18","no","white","no","yes","768","legacy","62","11","C:/Users/chelsea/OneDrive - Tarleton State University/psych 5316- adv/Sternberg test/subject-2 JH.csv","legacy","2 4 6 9","Lentiform Loewenfeld","3.3.3","3","y","0","left","left","left","left","NA","882","163467","1044761","882","NA","2","legacy","4","1024","2","48000","-16","experiment","1","odd","6","2013820","2010294","2011603","31471","1324563","2011609","2003338","31499","279799","NA","2015826","2016712","2012614","194969","2015826","NA","Sternberg Task","58","84228","75","yes","1024"
"77.63157894736842","77.63157894736842","1120.7368421052631","1120.7368421052631","black","experiment","legacy","legacy","legacy","0","uniform","1","undefined","1","right","75","75","75","0","0","75","75","0","0","NA","75","75","75","0","75","0","Sat Oct 24 21:31:04 2020","The main experiment item","yes","NA","SternbergTask.osexp","C:/Users/chelsea/OneDrive - Tarleton State University/psych 5316- adv/Sternberg test","no","mono","no","18","no","white","no","yes","768","legacy","63","11","C:/Users/chelsea/OneDrive - Tarleton State University/psych 5316- adv/Sternberg test/subject-2 JH.csv","legacy","3 4 2","Lentiform Loewenfeld","3.3.3","0","n","0","right","left","left","right","NA","948","163467","1044761","948","NA","2","legacy","3","1024","2","48000","-16","experiment","1","odd","5","2020266","2016751","2018053","31471","1324563","2018058","2003338","31499","279799","NA","2022272","2023224","2019062","194969","2022271","NA","Sternberg Task","59","85176","76","yes","1024"
"76.62337662337663","76.62337662337663","1118.4675324675325","1118.4675324675325","black","experiment","legacy","legacy","legacy","0","uniform","0","undefined","0","left","76","76","76","0","0","76","76","0","0","NA","76","76","76","0","76","0","Sat Oct 24 21:31:04 2020","The main experiment item","yes","NA","SternbergTask.osexp","C:/Users/chelsea/OneDrive - Tarleton State University/psych 5316- adv/Sternberg test","no","mono","no","18","no","white","no","yes","768","legacy","64","11","C:/Users/chelsea/OneDrive - Tarleton State University/psych 5316- adv/Sternberg test/subject-2 JH.csv","legacy","3 4","Lentiform Loewenfeld","3.3.3","1","y","0","right","left","left","right","NA","946","163467","1044761","946","NA","2","legacy","2","1024","2","48000","-16","experiment","1","odd","3","2026818","2023294","2024603","31471","1324563","2024608","2003338","31499","279799","NA","2028824","2029775","2025612","194969","2028823","NA","Sternberg Task","59","86122","77","yes","1024"
"76.92307692307692","76.92307692307692","1112.7948717948718","1112.7948717948718","black","experiment","legacy","legacy","legacy","0","uniform","1","undefined","1","right","77","77","77","0","0","77","77","0","0","NA","77","77","77","0","77","0","Sat Oct 24 21:31:04 2020","The main experiment item","yes","NA","SternbergTask.osexp","C:/Users/chelsea/OneDrive - Tarleton State University/psych 5316- adv/Sternberg test","no","mono","no","18","no","white","no","yes","768","legacy","65","11","C:/Users/chelsea/OneDrive - Tarleton State University/psych 5316- adv/Sternberg test/subject-2 JH.csv","legacy","5 2","Lentiform Loewenfeld","3.3.3","0","n","0","right","left","left","right","NA","676","163467","1044761","676","NA","2","legacy","2","1024","2","48000","-16","experiment","1","odd","7","2033360","2023294","2031140","31471","1324563","2031147","2029841","31499","279799","NA","2035366","2036046","2032154","194969","2035365","NA","Sternberg Task","60","86798","78","yes","1024"
"77.21518987341773","77.21518987341773","1113.5696202531647","1113.5696202531647","black","experiment","legacy","legacy","legacy","0","uniform","1","undefined","1","left","78","78","78","0","0","78","78","0","0","NA","78","78","78","0","78","0","Sat Oct 24 21:31:04 2020","The main experiment item","yes","NA","SternbergTask.osexp","C:/Users/chelsea/OneDrive - Tarleton State University/psych 5316- adv/Sternberg test","no","mono","no","18","no","white","no","yes","768","legacy","66","11","C:/Users/chelsea/OneDrive - Tarleton State University/psych 5316- adv/Sternberg test/subject-2 JH.csv","legacy","8 5 3 7 4 6","Lentiform Loewenfeld","3.3.3","6","y","0","left","left","left","left","NA","1174","163467","1044761","1174","NA","2","legacy","6","1024","2","48000","-16","experiment","1","odd","6","2039621","2036107","2037406","31471","1324563","2037411","2029841","31499","279799","NA","2041626","2042805","2038416","194969","2041626","NA","Sternberg Task","61","87972","79","yes","1024"
"77.5","77.5","1109.9125","1109.9125","black","experiment","legacy","legacy","legacy","0","uniform","1","undefined","1","right","79","79","79","0","0","79","79","0","0","NA","79","79","79","0","79","0","Sat Oct 24 21:31:04 2020","The main experiment item","yes","NA","SternbergTask.osexp","C:/Users/chelsea/OneDrive - Tarleton State University/psych 5316- adv/Sternberg test","no","mono","no","18","no","white","no","yes","768","legacy","67","11","C:/Users/chelsea/OneDrive - Tarleton State University/psych 5316- adv/Sternberg test/subject-2 JH.csv","legacy","1 4 3 6 5","Lentiform Loewenfeld","3.3.3","0","n","0","right","left","left","right","NA","821","163467","1044761","821","NA","2","legacy","5","1024","2","48000","-16","experiment","1","odd","8","2046375","2042863","2044160","31471","1324563","2044165","2029841","31499","279799","NA","2048380","2049215","2045171","194969","2048379","NA","Sternberg Task","62","88793","80","yes","1024"
"77.77777777777777","77.77777777777777","1105.0740740740741","1105.0740740740741","black","experiment","legacy","legacy","legacy","0","uniform","1","undefined","1","left","80","80","80","0","0","80","80","0","0","NA","80","80","80","0","80","0","Sat Oct 24 21:31:04 2020","The main experiment item","yes","NA","SternbergTask.osexp","C:/Users/chelsea/OneDrive - Tarleton State University/psych 5316- adv/Sternberg test","no","mono","no","18","no","white","no","yes","768","legacy","68","11","C:/Users/chelsea/OneDrive - Tarleton State University/psych 5316- adv/Sternberg test/subject-2 JH.csv","legacy","8 9 5 6 7","Lentiform Loewenfeld","3.3.3","1","y","0","left","left","left","left","NA","718","163467","1044761","718","NA","2","legacy","5","1024","2","48000","-16","experiment","1","odd","8","2052765","2049261","2050551","31471","1324563","2050555","2029841","31499","279799","NA","2054769","2055491","2051559","194969","2054769","NA","Sternberg Task","63","89511","81","yes","1024"
"78.04878048780488","78.04878048780488","1107.280487804878","1107.280487804878","black","experiment","legacy","legacy","legacy","0","uniform","1","undefined","1","left","81","81","81","0","0","81","81","0","0","NA","81","81","81","0","81","0","Sat Oct 24 21:31:04 2020","The main experiment item","yes","NA","SternbergTask.osexp","C:/Users/chelsea/OneDrive - Tarleton State University/psych 5316- adv/Sternberg test","no","mono","no","18","no","white","no","yes","768","legacy","69","11","C:/Users/chelsea/OneDrive - Tarleton State University/psych 5316- adv/Sternberg test/subject-2 JH.csv","legacy","5 2 6","Lentiform Loewenfeld","3.3.3","2","y","0","left","left","left","left","NA","1286","163467","1044761","1286","NA","2","legacy","3","1024","2","48000","-16","experiment","1","odd","2","2059076","2055555","2056862","31471","1324563","2056868","2029841","31499","279799","NA","2061080","2062371","2057872","194969","2061080","NA","Sternberg Task","64","90797","82","yes","1024"
"77.10843373493977","77.10843373493977","1102.6746987951808","1102.6746987951808","black","experiment","legacy","legacy","legacy","0","uniform","0","undefined","0","left","82","82","82","0","0","82","82","0","0","NA","82","82","82","0","82","0","Sat Oct 24 21:31:04 2020","The main experiment item","yes","NA","SternbergTask.osexp","C:/Users/chelsea/OneDrive - Tarleton State University/psych 5316- adv/Sternberg test","no","mono","no","18","no","white","no","yes","768","legacy","70","11","C:/Users/chelsea/OneDrive - Tarleton State University/psych 5316- adv/Sternberg test/subject-2 JH.csv","legacy","8 5 1 3 9","Lentiform Loewenfeld","3.3.3","4","y","0","right","left","left","right","NA","725","163467","1044761","725","NA","2","legacy","5","1024","2","48000","-16","experiment","1","odd","3","2065956","2062428","2063741","31471","1324563","2063747","2029841","31499","279799","NA","2067961","2068690","2064751","194969","2067961","NA","Sternberg Task","64","91522","83","yes","1024"
"77.38095238095238","77.38095238095238","1100.357142857143","1100.357142857143","black","experiment","legacy","legacy","legacy","0","uniform","1","undefined","1","right","83","83","83","0","0","83","83","0","0","NA","83","83","83","0","83","0","Sat Oct 24 21:31:04 2020","The main experiment item","yes","NA","SternbergTask.osexp","C:/Users/chelsea/OneDrive - Tarleton State University/psych 5316- adv/Sternberg test","no","mono","no","18","no","white","no","yes","768","legacy","71","11","C:/Users/chelsea/OneDrive - Tarleton State University/psych 5316- adv/Sternberg test/subject-2 JH.csv","legacy","1 7 5 2 9","Lentiform Loewenfeld","3.3.3","0","n","0","right","left","left","right","NA","908","163467","1044761","908","NA","2","legacy","5","1024","2","48000","-16","experiment","1","odd","3","2072259","2062428","2070042","31471","1324563","2070049","2068730","31499","279799","NA","2074264","2075177","2071053","194969","2074263","NA","Sternberg Task","65","92430","84","yes","1024"
"76.47058823529412","76.47058823529412","1097.3529411764705","1097.3529411764705","black","experiment","legacy","legacy","legacy","0","uniform","0","undefined","0","right","84","84","84","0","0","84","84","0","0","NA","84","84","84","0","84","0","Sat Oct 24 21:31:04 2020","The main experiment item","yes","NA","SternbergTask.osexp","C:/Users/chelsea/OneDrive - Tarleton State University/psych 5316- adv/Sternberg test","no","mono","no","18","no","white","no","yes","768","legacy","72","11","C:/Users/chelsea/OneDrive - Tarleton State University/psych 5316- adv/Sternberg test/subject-2 JH.csv","legacy","6 9 7 3 8 2","Lentiform Loewenfeld","3.3.3","0","n","0","left","left","left","left","NA","845","163467","1044761","845","NA","2","legacy","6","1024","2","48000","-16","experiment","1","odd","5","2078775","2075264","2076561","31471","1324563","2076566","2068730","31499","279799","NA","2080779","2081645","2077570","194969","2080779","NA","Sternberg Task","65","93275","85","yes","1024"
"76.74418604651163","76.74418604651163","1097.8255813953488","1097.8255813953488","black","experiment","legacy","legacy","legacy","0","uniform","1","undefined","1","right","85","85","85","0","0","85","85","0","0","NA","85","85","85","0","85","0","Sat Oct 24 21:31:04 2020","The main experiment item","yes","NA","SternbergTask.osexp","C:/Users/chelsea/OneDrive - Tarleton State University/psych 5316- adv/Sternberg test","no","mono","no","18","no","white","no","yes","768","legacy","73","11","C:/Users/chelsea/OneDrive - Tarleton State University/psych 5316- adv/Sternberg test/subject-2 JH.csv","legacy","7 6 4 8 1 2","Lentiform Loewenfeld","3.3.3","0","n","0","right","left","left","right","NA","1138","163467","1044761","1138","NA","2","legacy","6","1024","2","48000","-16","experiment","1","odd","9","2085219","2075264","2083004","31471","1324563","2083010","2081707","31499","279799","NA","2087224","2088368","2084014","194969","2087224","NA","Sternberg Task","66","94413","86","yes","1024"
"77.01149425287356","77.01149425287356","1096.4597701149426","1096.4597701149426","black","experiment","legacy","legacy","legacy","0","uniform","1","undefined","1","right","86","86","86","0","0","86","86","0","0","NA","86","86","86","0","86","0","Sat Oct 24 21:31:04 2020","The main experiment item","yes","NA","SternbergTask.osexp","C:/Users/chelsea/OneDrive - Tarleton State University/psych 5316- adv/Sternberg test","no","mono","no","18","no","white","no","yes","768","legacy","74","11","C:/Users/chelsea/OneDrive - Tarleton State University/psych 5316- adv/Sternberg test/subject-2 JH.csv","legacy","2 8 9","Lentiform Loewenfeld","3.3.3","0","n","0","right","left","left","right","NA","979","163467","1044761","979","NA","2","legacy","3","1024","2","48000","-16","experiment","1","odd","6","2091930","2088428","2089715","31471","1324563","2089722","2081707","31499","279799","NA","2093935","2094920","2090726","194969","2093934","NA","Sternberg Task","67","95392","87","yes","1024"
"77.27272727272727","77.27272727272727","1092.2613636363637","1092.2613636363637","black","experiment","legacy","legacy","legacy","0","uniform","1","undefined","1","right","87","87","87","0","0","87","87","0","0","NA","87","87","87","0","87","0","Sat Oct 24 21:31:04 2020","The main experiment item","yes","NA","SternbergTask.osexp","C:/Users/chelsea/OneDrive - Tarleton State University/psych 5316- adv/Sternberg test","no","mono","no","18","no","white","no","yes","768","legacy","75","11","C:/Users/chelsea/OneDrive - Tarleton State University/psych 5316- adv/Sternberg test/subject-2 JH.csv","legacy","8 6 3 4 7","Lentiform Loewenfeld","3.3.3","0","n","0","right","left","left","right","NA","727","163467","1044761","727","NA","2","legacy","5","1024","2","48000","-16","experiment","1","odd","1","2098508","2094974","2096292","31471","1324563","2096296","2081707","31499","279799","NA","2100513","2101245","2097303","194969","2100513","NA","Sternberg Task","68","96119","88","yes","1024"
"76.40449438202248","76.40449438202248","1089.4044943820224","1089.4044943820224","black","experiment","legacy","legacy","legacy","0","uniform","0","undefined","0","left","88","88","88","0","0","88","88","0","0","NA","88","88","88","0","88","0","Sat Oct 24 21:31:04 2020","The main experiment item","yes","NA","SternbergTask.osexp","C:/Users/chelsea/OneDrive - Tarleton State University/psych 5316- adv/Sternberg test","no","mono","no","18","no","white","no","yes","768","legacy","76","11","C:/Users/chelsea/OneDrive - Tarleton State University/psych 5316- adv/Sternberg test/subject-2 JH.csv","legacy","4 3 2 5 8","Lentiform Loewenfeld","3.3.3","2","y","0","right","left","left","right","NA","838","163467","1044761","838","NA","2","legacy","5","1024","2","48000","-16","experiment","1","odd","3","2104788","2101272","2102564","31471","1324563","2102578","2081707","31499","279799","NA","2106794","2107637","2103583","194969","2106794","NA","Sternberg Task","68","96957","89","yes","1024"
"76.66666666666667","76.66666666666667","1091.2333333333333","1091.2333333333333","black","experiment","legacy","legacy","legacy","0","uniform","1","undefined","1","right","89","89","89","0","0","89","89","0","0","NA","89","89","89","0","89","0","Sat Oct 24 21:31:04 2020","The main experiment item","yes","NA","SternbergTask.osexp","C:/Users/chelsea/OneDrive - Tarleton State University/psych 5316- adv/Sternberg test","no","mono","no","18","no","white","no","yes","768","legacy","77","11","C:/Users/chelsea/OneDrive - Tarleton State University/psych 5316- adv/Sternberg test/subject-2 JH.csv","legacy","4 2 6 9","Lentiform Loewenfeld","3.3.3","0","n","0","right","left","left","right","NA","1254","163467","1044761","1254","NA","2","legacy","4","1024","2","48000","-16","experiment","1","odd","7","2111219","2101272","2109005","31471","1324563","2109010","2107695","31499","279799","NA","2113224","2114483","2110014","194969","2113224","NA","Sternberg Task","69","98211","90","yes","1024"
"76.92307692307692","76.92307692307692","1087.4835164835165","1087.4835164835165","black","experiment","legacy","legacy","legacy","0","uniform","1","undefined","1","right","90","90","90","0","0","90","90","0","0","NA","90","90","90","0","90","0","Sat Oct 24 21:31:04 2020","The main experiment item","yes","NA","SternbergTask.osexp","C:/Users/chelsea/OneDrive - Tarleton State University/psych 5316- adv/Sternberg test","no","mono","no","18","no","white","no","yes","768","legacy","78","11","C:/Users/chelsea/OneDrive - Tarleton State University/psych 5316- adv/Sternberg test/subject-2 JH.csv","legacy","1 8 7","Lentiform Loewenfeld","3.3.3","0","n","0","right","left","left","right","NA","750","163467","1044761","750","NA","2","legacy","3","1024","2","48000","-16","experiment","1","odd","4","2118020","2114519","2115804","31471","1324563","2115811","2107695","31499","279799","NA","2120024","2120779","2116814","194969","2120024","NA","Sternberg Task","70","98961","91","yes","1024"
"76.08695652173913","76.08695652173913","1097.4021739130435","1097.4021739130435","black","experiment","legacy","legacy","legacy","0","uniform","0","undefined","0","left","91","91","91","0","0","91","91","0","0","NA","91","91","91","0","91","0","Sat Oct 24 21:31:04 2020","The main experiment item","yes","NA","SternbergTask.osexp","C:/Users/chelsea/OneDrive - Tarleton State University/psych 5316- adv/Sternberg test","no","mono","no","18","no","white","no","yes","768","legacy","79","11","C:/Users/chelsea/OneDrive - Tarleton State University/psych 5316- adv/Sternberg test/subject-2 JH.csv","legacy","2 6 1 7 4","Lentiform Loewenfeld","3.3.3","2","y","0","None","left","left","None","NA","2000","163467","1044761","2000","NA","2","legacy","5","1024","2","48000","-16","experiment","1","odd","6","2124344","2120840","2122130","31471","1324563","2122135","2107695","31499","279799","NA","2126348","2128361","2123140","194969","2126348","NA","Sternberg Task","70","100961","92","yes","1024"
"76.34408602150538","76.34408602150538","1101.7096774193549","1101.7096774193549","black","experiment","legacy","legacy","legacy","0","uniform","1","undefined","1","right","92","92","92","0","0","92","92","0","0","NA","92","92","92","0","92","0","Sat Oct 24 21:31:04 2020","The main experiment item","yes","NA","SternbergTask.osexp","C:/Users/chelsea/OneDrive - Tarleton State University/psych 5316- adv/Sternberg test","no","mono","no","18","no","white","no","yes","768","legacy","80","11","C:/Users/chelsea/OneDrive - Tarleton State University/psych 5316- adv/Sternberg test/subject-2 JH.csv","legacy","8 5 7 3 6","Lentiform Loewenfeld","3.3.3","0","n","0","right","left","left","right","NA","1498","163467","1044761","1498","NA","2","legacy","5","1024","2","48000","-16","experiment","1","odd","9","2131899","2120840","2129685","31471","1324563","2129689","2128396","31499","279799","NA","2133906","2135409","2130695","194969","2133906","NA","Sternberg Task","71","102459","93","yes","1024"
"76.59574468085107","76.59574468085107","1099.2659574468084","1099.2659574468084","black","experiment","legacy","legacy","legacy","0","uniform","1","undefined","1","right","93","93","93","0","0","93","93","0","0","NA","93","93","93","0","93","0","Sat Oct 24 21:31:04 2020","The main experiment item","yes","NA","SternbergTask.osexp","C:/Users/chelsea/OneDrive - Tarleton State University/psych 5316- adv/Sternberg test","no","mono","no","18","no","white","no","yes","768","legacy","81","11","C:/Users/chelsea/OneDrive - Tarleton State University/psych 5316- adv/Sternberg test/subject-2 JH.csv","legacy","6 8 4","Lentiform Loewenfeld","3.3.3","0","n","0","right","left","left","right","NA","872","163467","1044761","872","NA","2","legacy","3","1024","2","48000","-16","experiment","1","odd","1","2139013","2135474","2136799","31471","1324563","2136805","2128396","31499","279799","NA","2141019","2141896","2137809","194969","2141019","NA","Sternberg Task","72","103331","94","yes","1024"
"75.78947368421052","75.78947368421052","1099.1263157894737","1099.1263157894737","black","experiment","legacy","legacy","legacy","0","uniform","0","undefined","0","left","94","94","94","0","0","94","94","0","0","NA","94","94","94","0","94","0","Sat Oct 24 21:31:04 2020","The main experiment item","yes","NA","SternbergTask.osexp","C:/Users/chelsea/OneDrive - Tarleton State University/psych 5316- adv/Sternberg test","no","mono","no","18","no","white","no","yes","768","legacy","82","11","C:/Users/chelsea/OneDrive - Tarleton State University/psych 5316- adv/Sternberg test/subject-2 JH.csv","legacy","6 9 7 4 5 1","Lentiform Loewenfeld","3.3.3","2","y","0","right","left","left","right","NA","1086","163467","1044761","1086","NA","2","legacy","6","1024","2","48000","-16","experiment","1","odd","9","2145486","2141962","2143273","31471","1324563","2143277","2128396","31499","279799","NA","2147493","2148584","2144282","194969","2147493","NA","Sternberg Task","72","104417","95","yes","1024"
"76.04166666666667","76.04166666666667","1099.1979166666667","1099.1979166666667","black","experiment","legacy","legacy","legacy","0","uniform","1","undefined","1","right","95","95","95","0","0","95","95","0","0","NA","95","95","95","0","95","0","Sat Oct 24 21:31:04 2020","The main experiment item","yes","NA","SternbergTask.osexp","C:/Users/chelsea/OneDrive - Tarleton State University/psych 5316- adv/Sternberg test","no","mono","no","18","no","white","no","yes","768","legacy","83","11","C:/Users/chelsea/OneDrive - Tarleton State University/psych 5316- adv/Sternberg test/subject-2 JH.csv","legacy","8 9","Lentiform Loewenfeld","3.3.3","0","n","0","right","left","left","right","NA","1106","163467","1044761","1106","NA","2","legacy","2","1024","2","48000","-16","experiment","1","odd","5","2152148","2141962","2149935","31471","1324563","2149940","2148641","31499","279799","NA","2154154","2155265","2150944","194969","2154154","NA","Sternberg Task","73","105523","96","yes","1024"
"76.28865979381443","76.28865979381443","1102.278350515464","1102.278350515464","black","experiment","legacy","legacy","legacy","0","uniform","1","undefined","1","right","96","96","96","0","0","96","96","0","0","NA","96","96","96","0","96","0","Sat Oct 24 21:31:04 2020","The main experiment item","yes","NA","SternbergTask.osexp","C:/Users/chelsea/OneDrive - Tarleton State University/psych 5316- adv/Sternberg test","no","mono","no","18","no","white","no","yes","768","legacy","84","11","C:/Users/chelsea/OneDrive - Tarleton State University/psych 5316- adv/Sternberg test/subject-2 JH.csv","legacy","2 8 9 4 1","Lentiform Loewenfeld","3.3.3","0","n","0","right","left","left","right","NA","1398","163467","1044761","1398","NA","2","legacy","5","1024","2","48000","-16","experiment","1","odd","5","2158830","2155320","2156614","31471","1324563","2156622","2148641","31499","279799","NA","2160835","2162239","2157625","194969","2160834","NA","Sternberg Task","74","106921","97","yes","1024"
"76.53061224489795","76.53061224489795","1099.2142857142858","1099.2142857142858","black","experiment","legacy","legacy","legacy","0","uniform","1","undefined","1","right","97","97","97","0","0","97","97","0","0","NA","97","97","97","0","97","0","Sat Oct 24 21:31:04 2020","The main experiment item","yes","NA","SternbergTask.osexp","C:/Users/chelsea/OneDrive - Tarleton State University/psych 5316- adv/Sternberg test","no","mono","no","18","no","white","no","yes","768","legacy","85","11","C:/Users/chelsea/OneDrive - Tarleton State University/psych 5316- adv/Sternberg test/subject-2 JH.csv","legacy","7 1 5 6 3","Lentiform Loewenfeld","3.3.3","0","n","0","right","left","left","right","NA","802","163467","1044761","802","NA","2","legacy","5","1024","2","48000","-16","experiment","1","odd","8","2240791","2162296","2163598","31471","1324563","2238580","2148641","31499","279799","NA","2242796","2243603","2239586","194969","2242796","NA","Sternberg Task","75","107723","98","yes","1024"
"76.76767676767676","76.76767676767676","1097.2222222222222","1097.2222222222222","black","experiment","legacy","legacy","legacy","0","uniform","1","undefined","1","right","98","98","98","0","0","98","98","0","0","NA","98","98","98","0","98","0","Sat Oct 24 21:31:04 2020","The main experiment item","yes","NA","SternbergTask.osexp","C:/Users/chelsea/OneDrive - Tarleton State University/psych 5316- adv/Sternberg test","no","mono","no","18","no","white","no","yes","768","legacy","86","11","C:/Users/chelsea/OneDrive - Tarleton State University/psych 5316- adv/Sternberg test/subject-2 JH.csv","legacy","9 8 2 7 4","Lentiform Loewenfeld","3.3.3","0","n","0","right","left","left","right","NA","902","163467","1044761","902","NA","2","legacy","5","1024","2","48000","-16","experiment","1","odd","5","2247213","2243664","2244999","31471","1324563","2245004","2148641","31499","279799","NA","2249217","2250126","2246009","194969","2249217","NA","Sternberg Task","76","108625","99","yes","1024"
"77","77","1097.45","1097.45","black","experiment","legacy","legacy","legacy","0","uniform","1","undefined","1","left","99","99","99","0","0","99","99","0","0","NA","99","99","99","0","99","0","Sat Oct 24 21:31:04 2020","The main experiment item","yes","NA","SternbergTask.osexp","C:/Users/chelsea/OneDrive - Tarleton State University/psych 5316- adv/Sternberg test","no","mono","no","18","no","white","no","yes","768","legacy","87","11","C:/Users/chelsea/OneDrive - Tarleton State University/psych 5316- adv/Sternberg test/subject-2 JH.csv","legacy","8 1 6","Lentiform Loewenfeld","3.3.3","3","y","0","left","left","left","left","NA","1120","163467","1044761","1120","NA","2","legacy","3","1024","2","48000","-16","experiment","1","odd","6","2253711","2250186","2251490","31471","1324563","2251500","2148641","31499","279799","NA","2255716","2256842","2252506","194969","2255716","NA","Sternberg Task","77","109745","100","yes","1024"
