"acc","accuracy","average_response_time","avg_rt","background","block","canvas_backend","clock_backend","color_backend","compensation","coordinates","correct","correct_instruction1","correct_keyboard_response","correct_response","count_ISI","count_correctFeedback","count_expSequence","count_experiment","count_experimentLoop","count_fixation","count_incorrectFeedback","count_instruction1","count_instructions2","count_keyboard_response","count_logger","count_memorySet","count_practiceLoop","count_probe","count_thankYou","datetime","description","disable_garbage_collection","experiment_file","experiment_path","font_bold","font_family","font_italic","font_size","font_underline","foreground","form_clicks","fullscreen","height","keyboard_backend","live_row","live_row_practiceLoop","logfile","mouse_backend","numberSet","opensesame_codename","opensesame_version","posInSet","present","repeat_cycle","response","response_instruction1","response_instructions2","response_keyboard_response","response_thankYou","response_time","response_time_instruction1","response_time_instructions2","response_time_keyboard_response","response_time_thankYou","round_decimals","sampler_backend","setSize","sound_buf_size","sound_channels","sound_freq","sound_sample_size","start","subject_nr","subject_parity","target","time_ISI","time_correctFeedback","time_expSequence","time_experiment","time_experimentLoop","time_fixation","time_incorrectFeedback","time_instruction1","time_instructions2","time_keyboard_response","time_logger","time_memorySet","time_practiceLoop","time_probe","time_thankYou","title","total_correct","total_response_time","total_responses","uniform_coordinates","width"
"100","100","1018","1018","black","practice","legacy","legacy","legacy","0","uniform","1","undefined","1","right","0","0","0","0","0","0","0","0","0","0","0","0","0","0","0","10/25/20 15:58:05","The main experiment item","yes","SternbergTask.osexp","C:\Users\Jennifer Wright\Desktop\PSYC5613\STERNBERGTASK","no","mono","no","18","no","white","no","yes","768","legacy","0","0","C:/Users/Jennifer Wright/Desktop/PSYC5613/STERNBERGTASK/bw-subject-3.csv","legacy","3 1 9 4","Lentiform Loewenfeld","3.3.3","0","n","0","right","left","NA","right","NA","1018","93938","NA","1018","NA","2","legacy","4","1024","2","48000","-16","experiment","3","odd","6","103499","NA","101284","4882","NA","101291","NA","4891","NA","105504","106523","102295","98832","105503","NA","SternbergTask","1","1018","1","yes","1024"
"100","100","748","748","black","practice","legacy","legacy","legacy","0","uniform","1","undefined","1","right","1","1","1","0","0","1","1","0","0","1","1","1","0","1","0","10/25/20 15:58:05","The main experiment item","yes","SternbergTask.osexp","C:\Users\Jennifer Wright\Desktop\PSYC5613\STERNBERGTASK","no","mono","no","18","no","white","no","yes","768","legacy","1","1","C:/Users/Jennifer Wright/Desktop/PSYC5613/STERNBERGTASK/bw-subject-3.csv","legacy","5","Lentiform Loewenfeld","3.3.3","0","n","0","right","left","NA","right","NA","478","93938","NA","478","NA","2","legacy","1","1024","2","48000","-16","experiment","3","odd","3","110243","106788","108018","4882","NA","108023","NA","4891","NA","112248","112727","109033","98832","112247","NA","SternbergTask","2","1496","2","yes","1024"
"100","100","745.666666667","745.666666667","black","practice","legacy","legacy","legacy","0","uniform","1","undefined","1","right","2","2","2","0","0","2","2","0","0","2","2","2","0","2","0","10/25/20 15:58:05","The main experiment item","yes","SternbergTask.osexp","C:\Users\Jennifer Wright\Desktop\PSYC5613\STERNBERGTASK","no","mono","no","18","no","white","no","yes","768","legacy","2","2","C:/Users/Jennifer Wright/Desktop/PSYC5613/STERNBERGTASK/bw-subject-3.csv","legacy","9 6 7 4 5","Lentiform Loewenfeld","3.3.3","0","n","0","right","left","NA","right","NA","741","93938","NA","741","NA","2","legacy","5","1024","2","48000","-16","experiment","3","odd","3","116214","112756","113999","4882","NA","114004","NA","4891","NA","118219","118961","115010","98832","118218","NA","SternbergTask","3","2237","3","yes","1024"
"100","100","722.25","722.25","black","practice","legacy","legacy","legacy","0","uniform","1","undefined","1","left","3","3","3","0","0","3","3","0","0","3","3","3","0","3","0","10/25/20 15:58:05","The main experiment item","yes","SternbergTask.osexp","C:\Users\Jennifer Wright\Desktop\PSYC5613\STERNBERGTASK","no","mono","no","18","no","white","no","yes","768","legacy","3","3","C:/Users/Jennifer Wright/Desktop/PSYC5613/STERNBERGTASK/bw-subject-3.csv","legacy","1 5 2 9","Lentiform Loewenfeld","3.3.3","2","y","0","left","left","NA","left","NA","652","93938","NA","652","NA","2","legacy","4","1024","2","48000","-16","experiment","3","odd","5","122453","118999","120239","4882","NA","120245","NA","4891","NA","124459","125112","121249","98832","124459","NA","SternbergTask","4","2889","4","yes","1024"
"100","100","747.4","747.4","black","practice","legacy","legacy","legacy","0","uniform","1","undefined","1","left","4","4","4","0","0","4","4","0","0","4","4","4","0","4","0","10/25/20 15:58:05","The main experiment item","yes","SternbergTask.osexp","C:\Users\Jennifer Wright\Desktop\PSYC5613\STERNBERGTASK","no","mono","no","18","no","white","no","yes","768","legacy","4","4","C:/Users/Jennifer Wright/Desktop/PSYC5613/STERNBERGTASK/bw-subject-3.csv","legacy","2 9 4","Lentiform Loewenfeld","3.3.3","3","y","0","left","left","NA","left","NA","848","93938","NA","848","NA","2","legacy","3","1024","2","48000","-16","experiment","3","odd","4","128608","125153","126387","4882","NA","126392","NA","4891","NA","130613","131462","127398","98832","130613","NA","SternbergTask","5","3737","5","yes","1024"
"100","100","763.833333333","763.833333333","black","practice","legacy","legacy","legacy","0","uniform","1","undefined","1","left","5","5","5","0","0","5","5","0","0","5","5","5","0","5","0","10/25/20 15:58:05","The main experiment item","yes","SternbergTask.osexp","C:\Users\Jennifer Wright\Desktop\PSYC5613\STERNBERGTASK","no","mono","no","18","no","white","no","yes","768","legacy","5","5","C:/Users/Jennifer Wright/Desktop/PSYC5613/STERNBERGTASK/bw-subject-3.csv","legacy","4 8","Lentiform Loewenfeld","3.3.3","1","y","0","left","left","NA","left","NA","846","93938","NA","846","NA","2","legacy","2","1024","2","48000","-16","experiment","3","odd","4","134950","131496","132737","4882","NA","132742","NA","4891","NA","136955","137802","133746","98832","136955","NA","SternbergTask","6","4583","6","yes","1024"
"100","100","752.857142857","752.857142857","black","practice","legacy","legacy","legacy","0","uniform","1","undefined","1","left","6","6","6","0","0","6","6","0","0","6","6","6","0","6","0","10/25/20 15:58:05","The main experiment item","yes","SternbergTask.osexp","C:\Users\Jennifer Wright\Desktop\PSYC5613\STERNBERGTASK","no","mono","no","18","no","white","no","yes","768","legacy","6","6","C:/Users/Jennifer Wright/Desktop/PSYC5613/STERNBERGTASK/bw-subject-3.csv","legacy","4 3 1 7 9 8","Lentiform Loewenfeld","3.3.3","1","y","0","left","left","NA","left","NA","687","93938","NA","687","NA","2","legacy","6","1024","2","48000","-16","experiment","3","odd","4","141289","137840","139073","4882","NA","139079","NA","4891","NA","143295","143983","140085","98832","143294","NA","SternbergTask","7","5270","7","yes","1024"
"100","100","776.5","776.5","black","practice","legacy","legacy","legacy","0","uniform","1","undefined","1","right","7","7","7","0","0","7","7","0","0","7","7","7","0","7","0","10/25/20 15:58:05","The main experiment item","yes","SternbergTask.osexp","C:\Users\Jennifer Wright\Desktop\PSYC5613\STERNBERGTASK","no","mono","no","18","no","white","no","yes","768","legacy","7","7","C:/Users/Jennifer Wright/Desktop/PSYC5613/STERNBERGTASK/bw-subject-3.csv","legacy","5 7 8 4 1 2","Lentiform Loewenfeld","3.3.3","0","n","0","right","left","NA","right","NA","942","93938","NA","942","NA","2","legacy","6","1024","2","48000","-16","experiment","3","odd","6","147467","144017","145251","4882","NA","145256","NA","4891","NA","149476","150419","146262","98832","149476","NA","SternbergTask","8","6212","8","yes","1024"
"100","100","838.777777778","838.777777778","black","practice","legacy","legacy","legacy","0","uniform","1","undefined","1","left","8","8","8","0","0","8","8","0","0","8","8","8","0","8","0","10/25/20 15:58:05","The main experiment item","yes","SternbergTask.osexp","C:\Users\Jennifer Wright\Desktop\PSYC5613\STERNBERGTASK","no","mono","no","18","no","white","no","yes","768","legacy","8","8","C:/Users/Jennifer Wright/Desktop/PSYC5613/STERNBERGTASK/bw-subject-3.csv","legacy","1 7 9 8 5","Lentiform Loewenfeld","3.3.3","4","y","0","left","left","NA","left","NA","1337","93938","NA","1337","NA","2","legacy","5","1024","2","48000","-16","experiment","3","odd","8","153903","150447","151684","4882","NA","151690","NA","4891","NA","155908","157247","152697","98832","155907","NA","SternbergTask","9","7549","9","yes","1024"
"100","100","869.1","869.1","black","practice","legacy","legacy","legacy","0","uniform","1","undefined","1","right","9","9","9","0","0","9","9","0","0","9","9","9","0","9","0","10/25/20 15:58:05","The main experiment item","yes","SternbergTask.osexp","C:\Users\Jennifer Wright\Desktop\PSYC5613\STERNBERGTASK","no","mono","no","18","no","white","no","yes","768","legacy","9","9","C:/Users/Jennifer Wright/Desktop/PSYC5613/STERNBERGTASK/bw-subject-3.csv","legacy","2 1","Lentiform Loewenfeld","3.3.3","0","n","0","right","left","NA","right","NA","1142","93938","NA","1142","NA","2","legacy","2","1024","2","48000","-16","experiment","3","odd","5","160734","157278","158516","4882","NA","158521","NA","4891","NA","162739","163882","159529","98832","162738","NA","SternbergTask","10","8691","10","yes","1024"
"100","100","855.363636364","855.363636364","black","practice","legacy","legacy","legacy","0","uniform","1","undefined","1","right","10","10","10","0","0","10","10","0","0","10","10","10","0","10","0","10/25/20 15:58:05","The main experiment item","yes","SternbergTask.osexp","C:\Users\Jennifer Wright\Desktop\PSYC5613\STERNBERGTASK","no","mono","no","18","no","white","no","yes","768","legacy","10","10","C:/Users/Jennifer Wright/Desktop/PSYC5613/STERNBERGTASK/bw-subject-3.csv","legacy","4 1 5","Lentiform Loewenfeld","3.3.3","0","n","0","right","left","NA","right","NA","718","93938","NA","718","NA","2","legacy","3","1024","2","48000","-16","experiment","3","odd","2","167406","163958","165188","4882","NA","165194","NA","4891","NA","169410","170129","166200","98832","169410","NA","SternbergTask","11","9409","11","yes","1024"
"100","100","857.583333333","857.583333333","black","practice","legacy","legacy","legacy","0","uniform","1","undefined","1","left","11","11","11","0","0","11","11","0","0","11","11","11","0","11","0","10/25/20 15:58:05","The main experiment item","yes","SternbergTask.osexp","C:\Users\Jennifer Wright\Desktop\PSYC5613\STERNBERGTASK","no","mono","no","18","no","white","no","yes","768","legacy","11","11","C:/Users/Jennifer Wright/Desktop/PSYC5613/STERNBERGTASK/bw-subject-3.csv","legacy","6","Lentiform Loewenfeld","3.3.3","1","y","0","left","left","NA","left","NA","882","93938","NA","882","NA","2","legacy","1","1024","2","48000","-16","experiment","3","odd","6","173617","170164","171396","4882","NA","171401","NA","4891","NA","175624","176507","172412","98832","175623","NA","SternbergTask","12","10291","12","yes","1024"
"100","100","892.923076923","892.923076923","black","experiment","legacy","legacy","legacy","0","uniform","1","undefined","1","right","12","12","12","0","0","12","12","0","0","12","12","12","0","12","0","10/25/20 15:58:05","The main experiment item","yes","SternbergTask.osexp","C:\Users\Jennifer Wright\Desktop\PSYC5613\STERNBERGTASK","no","mono","no","18","no","white","no","yes","768","legacy","0","11","C:/Users/Jennifer Wright/Desktop/PSYC5613/STERNBERGTASK/bw-subject-3.csv","legacy","1 4 9 3","Lentiform Loewenfeld","3.3.3","0","n","0","right","left","right","right","NA","1317","93938","4344","1317","NA","2","legacy","4","1024","2","48000","-16","experiment","3","odd","5","184481","176540","182261","4882","181954","182267","NA","4891","177608","186488","187807","183274","98832","186488","NA","SternbergTask","13","11608","13","yes","1024"
"100","100","909.857142857","909.857142857","black","experiment","legacy","legacy","legacy","0","uniform","1","undefined","1","left","13","13","13","0","0","13","13","0","0","13","13","13","0","13","0","10/25/20 15:58:05","The main experiment item","yes","SternbergTask.osexp","C:\Users\Jennifer Wright\Desktop\PSYC5613\STERNBERGTASK","no","mono","no","18","no","white","no","yes","768","legacy","1","11","C:/Users/Jennifer Wright/Desktop/PSYC5613/STERNBERGTASK/bw-subject-3.csv","legacy","9 4 2","Lentiform Loewenfeld","3.3.3","1","y","0","left","left","right","left","NA","1130","93938","4344","1130","NA","2","legacy","3","1024","2","48000","-16","experiment","3","odd","9","191292","187843","189078","4882","181954","189083","NA","4891","177608","193299","194430","190087","98832","193298","NA","SternbergTask","14","12738","14","yes","1024"
"100","100","918","918","black","experiment","legacy","legacy","legacy","0","uniform","1","undefined","1","left","14","14","14","0","0","14","14","0","0","14","14","14","0","14","0","10/25/20 15:58:05","The main experiment item","yes","SternbergTask.osexp","C:\Users\Jennifer Wright\Desktop\PSYC5613\STERNBERGTASK","no","mono","no","18","no","white","no","yes","768","legacy","2","11","C:/Users/Jennifer Wright/Desktop/PSYC5613/STERNBERGTASK/bw-subject-3.csv","legacy","5 7 3 6 2","Lentiform Loewenfeld","3.3.3","5","y","0","left","left","right","left","NA","1032","93938","4344","1032","NA","2","legacy","5","1024","2","48000","-16","experiment","3","odd","2","197910","194462","195694","4882","181954","195699","NA","4891","177608","199920","200953","196703","98832","199919","NA","SternbergTask","15","13770","15","yes","1024"
"100","100","908.1875","908.1875","black","experiment","legacy","legacy","legacy","0","uniform","1","undefined","1","left","15","15","15","0","0","15","15","0","0","15","15","15","0","15","0","10/25/20 15:58:05","The main experiment item","yes","SternbergTask.osexp","C:\Users\Jennifer Wright\Desktop\PSYC5613\STERNBERGTASK","no","mono","no","18","no","white","no","yes","768","legacy","3","11","C:/Users/Jennifer Wright/Desktop/PSYC5613/STERNBERGTASK/bw-subject-3.csv","legacy","6 1 2","Lentiform Loewenfeld","3.3.3","3","y","0","left","left","right","left","NA","761","93938","4344","761","NA","2","legacy","3","1024","2","48000","-16","experiment","3","odd","2","204426","200980","202208","4882","181954","202214","NA","4891","177608","206438","207201","203218","98832","206437","NA","SternbergTask","16","14531","16","yes","1024"
"100","100","936.411764706","936.411764706","black","experiment","legacy","legacy","legacy","0","uniform","1","undefined","1","right","16","16","16","0","0","16","16","0","0","16","16","16","0","16","0","10/25/20 15:58:05","The main experiment item","yes","SternbergTask.osexp","C:\Users\Jennifer Wright\Desktop\PSYC5613\STERNBERGTASK","no","mono","no","18","no","white","no","yes","768","legacy","4","11","C:/Users/Jennifer Wright/Desktop/PSYC5613/STERNBERGTASK/bw-subject-3.csv","legacy","1 8 7","Lentiform Loewenfeld","3.3.3","0","n","0","right","left","right","right","NA","1388","93938","4344","1388","NA","2","legacy","3","1024","2","48000","-16","experiment","3","odd","4","210697","207236","208473","4882","181954","208478","NA","4891","177608","212702","214091","209488","98832","212702","NA","SternbergTask","17","15919","17","yes","1024"
"100","100","937.611111111","937.611111111","black","experiment","legacy","legacy","legacy","0","uniform","1","undefined","1","left","17","17","17","0","0","17","17","0","0","17","17","17","0","17","0","10/25/20 15:58:05","The main experiment item","yes","SternbergTask.osexp","C:\Users\Jennifer Wright\Desktop\PSYC5613\STERNBERGTASK","no","mono","no","18","no","white","no","yes","768","legacy","5","11","C:/Users/Jennifer Wright/Desktop/PSYC5613/STERNBERGTASK/bw-subject-3.csv","legacy","8 7 3","Lentiform Loewenfeld","3.3.3","1","y","0","left","left","right","left","NA","958","93938","4344","958","NA","2","legacy","3","1024","2","48000","-16","experiment","3","odd","8","217597","214145","215377","4882","181954","215383","NA","4891","177608","219608","220568","216388","98832","219608","NA","SternbergTask","18","16877","18","yes","1024"
"100","100","934.315789474","934.315789474","black","experiment","legacy","legacy","legacy","0","uniform","1","undefined","1","right","18","18","18","0","0","18","18","0","0","18","18","18","0","18","0","10/25/20 15:58:05","The main experiment item","yes","SternbergTask.osexp","C:\Users\Jennifer Wright\Desktop\PSYC5613\STERNBERGTASK","no","mono","no","18","no","white","no","yes","768","legacy","6","11","C:/Users/Jennifer Wright/Desktop/PSYC5613/STERNBERGTASK/bw-subject-3.csv","legacy","8 4 3 5","Lentiform Loewenfeld","3.3.3","0","n","0","right","left","right","right","NA","875","93938","4344","875","NA","2","legacy","4","1024","2","48000","-16","experiment","3","odd","6","224085","220633","221864","4882","181954","221869","NA","4891","177608","226089","226966","222876","98832","226089","NA","SternbergTask","19","17752","19","yes","1024"
"100","100","946.85","946.85","black","experiment","legacy","legacy","legacy","0","uniform","1","undefined","1","right","19","19","19","0","0","19","19","0","0","19","19","19","0","19","0","10/25/20 15:58:05","The main experiment item","yes","SternbergTask.osexp","C:\Users\Jennifer Wright\Desktop\PSYC5613\STERNBERGTASK","no","mono","no","18","no","white","no","yes","768","legacy","7","11","C:/Users/Jennifer Wright/Desktop/PSYC5613/STERNBERGTASK/bw-subject-3.csv","legacy","1 7 8 3 9","Lentiform Loewenfeld","3.3.3","0","n","0","right","left","right","right","NA","1185","93938","4344","1185","NA","2","legacy","5","1024","2","48000","-16","experiment","3","odd","2","230495","227031","228278","4882","181954","228284","NA","4891","177608","232500","233687","229291","98832","232500","NA","SternbergTask","20","18937","20","yes","1024"
"100","100","941.857142857","941.857142857","black","experiment","legacy","legacy","legacy","0","uniform","1","undefined","1","right","20","20","20","0","0","20","20","0","0","20","20","20","0","20","0","10/25/20 15:58:05","The main experiment item","yes","SternbergTask.osexp","C:\Users\Jennifer Wright\Desktop\PSYC5613\STERNBERGTASK","no","mono","no","18","no","white","no","yes","768","legacy","8","11","C:/Users/Jennifer Wright/Desktop/PSYC5613/STERNBERGTASK/bw-subject-3.csv","legacy","6 8 4","Lentiform Loewenfeld","3.3.3","0","n","0","right","left","right","right","NA","842","93938","4344","842","NA","2","legacy","3","1024","2","48000","-16","experiment","3","odd","1","237193","233739","234977","4882","181954","234982","NA","4891","177608","239198","240042","235988","98832","239198","NA","SternbergTask","21","19779","21","yes","1024"
"95.4545454545","95.4545454545","973.909090909","973.909090909","black","experiment","legacy","legacy","legacy","0","uniform","0","undefined","0","right","21","21","21","0","0","21","21","0","0","21","21","21","0","21","0","10/25/20 15:58:05","The main experiment item","yes","SternbergTask.osexp","C:\Users\Jennifer Wright\Desktop\PSYC5613\STERNBERGTASK","no","mono","no","18","no","white","no","yes","768","legacy","9","11","C:/Users/Jennifer Wright/Desktop/PSYC5613/STERNBERGTASK/bw-subject-3.csv","legacy","2 8 9 4 1","Lentiform Loewenfeld","3.3.3","0","n","0","left","left","right","left","NA","1647","93938","4344","1647","NA","2","legacy","5","1024","2","48000","-16","experiment","3","odd","5","243533","240082","241318","4882","181954","241324","NA","4891","177608","245539","247188","242328","98832","245539","NA","SternbergTask","21","21426","22","yes","1024"
"91.3043478261","91.3043478261","971.956521739","971.956521739","black","experiment","legacy","legacy","legacy","0","uniform","0","undefined","0","right","22","22","22","0","0","22","22","0","0","22","22","22","0","22","0","10/25/20 15:58:05","The main experiment item","yes","SternbergTask.osexp","C:\Users\Jennifer Wright\Desktop\PSYC5613\STERNBERGTASK","no","mono","no","18","no","white","no","yes","768","legacy","10","11","C:/Users/Jennifer Wright/Desktop/PSYC5613/STERNBERGTASK/bw-subject-3.csv","legacy","6 9 4 5 2","Lentiform Loewenfeld","3.3.3","0","n","0","left","left","right","left","NA","929","93938","4344","929","NA","2","legacy","5","1024","2","48000","-16","experiment","3","odd","1","250669","240082","248454","4882","181954","248460","247222","4891","177608","252673","253604","249465","98832","252673","NA","SternbergTask","21","22355","23","yes","1024"
"87.5","87.5","967","967","black","experiment","legacy","legacy","legacy","0","uniform","0","undefined","0","left","23","23","23","0","0","23","23","0","0","23","23","23","0","23","0","10/25/20 15:58:05","The main experiment item","yes","SternbergTask.osexp","C:\Users\Jennifer Wright\Desktop\PSYC5613\STERNBERGTASK","no","mono","no","18","no","white","no","yes","768","legacy","11","11","C:/Users/Jennifer Wright/Desktop/PSYC5613/STERNBERGTASK/bw-subject-3.csv","legacy","8 3","Lentiform Loewenfeld","3.3.3","2","y","0","right","left","right","right","NA","853","93938","4344","853","NA","2","legacy","2","1024","2","48000","-16","experiment","3","odd","3","257095","240082","254880","4882","181954","254885","253643","4891","177608","259101","259956","255890","98832","259100","NA","SternbergTask","21","23208","24","yes","1024"
"88","88","983.56","983.56","black","experiment","legacy","legacy","legacy","0","uniform","1","undefined","1","left","24","24","24","0","0","24","24","0","0","24","24","24","0","24","0","10/25/20 15:58:05","The main experiment item","yes","SternbergTask.osexp","C:\Users\Jennifer Wright\Desktop\PSYC5613\STERNBERGTASK","no","mono","no","18","no","white","no","yes","768","legacy","12","11","C:/Users/Jennifer Wright/Desktop/PSYC5613/STERNBERGTASK/bw-subject-3.csv","legacy","7 1 8 5 6 2","Lentiform Loewenfeld","3.3.3","2","y","0","left","left","right","left","NA","1381","93938","4344","1381","NA","2","legacy","6","1024","2","48000","-16","experiment","3","odd","1","263437","240082","261222","4882","181954","261228","259995","4891","177608","265443","266826","262232","98832","265443","NA","SternbergTask","22","24589","25","yes","1024"
"88.4615384615","88.4615384615","971.269230769","971.269230769","black","experiment","legacy","legacy","legacy","0","uniform","1","undefined","1","right","25","25","25","0","0","25","25","0","0","25","25","25","0","25","0","10/25/20 15:58:05","The main experiment item","yes","SternbergTask.osexp","C:\Users\Jennifer Wright\Desktop\PSYC5613\STERNBERGTASK","no","mono","no","18","no","white","no","yes","768","legacy","13","11","C:/Users/Jennifer Wright/Desktop/PSYC5613/STERNBERGTASK/bw-subject-3.csv","legacy","2 7 5","Lentiform Loewenfeld","3.3.3","0","n","0","right","left","right","right","NA","664","93938","4344","664","NA","2","legacy","3","1024","2","48000","-16","experiment","3","odd","8","270361","266916","268145","4882","181954","268150","259995","4891","177608","272367","273033","269156","98832","272367","NA","SternbergTask","23","25253","26","yes","1024"
"85.1851851852","85.1851851852","997.703703704","997.703703704","black","experiment","legacy","legacy","legacy","0","uniform","0","undefined","0","right","26","26","26","0","0","26","26","0","0","26","26","26","0","26","0","10/25/20 15:58:05","The main experiment item","yes","SternbergTask.osexp","C:\Users\Jennifer Wright\Desktop\PSYC5613\STERNBERGTASK","no","mono","no","18","no","white","no","yes","768","legacy","14","11","C:/Users/Jennifer Wright/Desktop/PSYC5613/STERNBERGTASK/bw-subject-3.csv","legacy","2 8 6 3 1","Lentiform Loewenfeld","3.3.3","0","n","0","left","left","right","left","NA","1685","93938","4344","1685","NA","2","legacy","5","1024","2","48000","-16","experiment","3","odd","7","276552","273093","274331","4882","181954","274337","259995","4891","177608","278559","280246","275345","98832","278559","NA","SternbergTask","23","26938","27","yes","1024"
"85.7142857143","85.7142857143","1023.85714286","1023.85714286","black","experiment","legacy","legacy","legacy","0","uniform","1","undefined","1","right","27","27","27","0","0","27","27","0","0","27","27","27","0","27","0","10/25/20 15:58:05","The main experiment item","yes","SternbergTask.osexp","C:\Users\Jennifer Wright\Desktop\PSYC5613\STERNBERGTASK","no","mono","no","18","no","white","no","yes","768","legacy","15","11","C:/Users/Jennifer Wright/Desktop/PSYC5613/STERNBERGTASK/bw-subject-3.csv","legacy","8 9","Lentiform Loewenfeld","3.3.3","0","n","0","right","left","right","right","NA","1730","93938","4344","1730","NA","2","legacy","2","1024","2","48000","-16","experiment","3","odd","5","283726","273093","281508","4882","181954","281513","280275","4891","177608","285731","287463","282519","98832","285731","NA","SternbergTask","24","28668","28","yes","1024"
"86.2068965517","86.2068965517","1036.37931034","1036.37931034","black","experiment","legacy","legacy","legacy","0","uniform","1","undefined","1","left","28","28","28","0","0","28","28","0","0","28","28","28","0","28","0","10/25/20 15:58:05","The main experiment item","yes","SternbergTask.osexp","C:\Users\Jennifer Wright\Desktop\PSYC5613\STERNBERGTASK","no","mono","no","18","no","white","no","yes","768","legacy","16","11","C:/Users/Jennifer Wright/Desktop/PSYC5613/STERNBERGTASK/bw-subject-3.csv","legacy","5 7 8 2 3 8","Lentiform Loewenfeld","3.3.3","5","y","0","left","left","right","left","NA","1387","93938","4344","1387","NA","2","legacy","6","1024","2","48000","-16","experiment","3","odd","3","290973","287525","288759","4882","181954","288765","280275","4891","177608","292978","294367","289769","98832","292977","NA","SternbergTask","25","30055","29","yes","1024"
"86.6666666667","86.6666666667","1036.23333333","1036.23333333","black","experiment","legacy","legacy","legacy","0","uniform","1","undefined","1","left","29","29","29","0","0","29","29","0","0","29","29","29","0","29","0","10/25/20 15:58:05","The main experiment item","yes","SternbergTask.osexp","C:\Users\Jennifer Wright\Desktop\PSYC5613\STERNBERGTASK","no","mono","no","18","no","white","no","yes","768","legacy","17","11","C:/Users/Jennifer Wright/Desktop/PSYC5613/STERNBERGTASK/bw-subject-3.csv","legacy","5 2 6","Lentiform Loewenfeld","3.3.3","2","y","0","left","left","right","left","NA","1032","93938","4344","1032","NA","2","legacy","3","1024","2","48000","-16","experiment","3","odd","2","297854","294400","295635","4882","181954","295640","280275","4891","177608","299859","300893","296650","98832","299858","NA","SternbergTask","26","31087","30","yes","1024"
"87.0967741935","87.0967741935","1036.5483871","1036.5483871","black","experiment","legacy","legacy","legacy","0","uniform","1","undefined","1","right","30","30","30","0","0","30","30","0","0","30","30","30","0","30","0","10/25/20 15:58:05","The main experiment item","yes","SternbergTask.osexp","C:\Users\Jennifer Wright\Desktop\PSYC5613\STERNBERGTASK","no","mono","no","18","no","white","no","yes","768","legacy","18","11","C:/Users/Jennifer Wright/Desktop/PSYC5613/STERNBERGTASK/bw-subject-3.csv","legacy","7 1 5 6 3","Lentiform Loewenfeld","3.3.3","0","n","0","right","left","right","right","NA","1046","93938","4344","1046","NA","2","legacy","5","1024","2","48000","-16","experiment","3","odd","8","304372","300927","302158","4882","181954","302163","280275","4891","177608","306377","307425","303167","98832","306376","NA","SternbergTask","27","32133","31","yes","1024"
"87.5","87.5","1030.09375","1030.09375","black","experiment","legacy","legacy","legacy","0","uniform","1","undefined","1","left","31","31","31","0","0","31","31","0","0","31","31","31","0","31","0","10/25/20 15:58:05","The main experiment item","yes","SternbergTask.osexp","C:\Users\Jennifer Wright\Desktop\PSYC5613\STERNBERGTASK","no","mono","no","18","no","white","no","yes","768","legacy","19","11","C:/Users/Jennifer Wright/Desktop/PSYC5613/STERNBERGTASK/bw-subject-3.csv","legacy","3 4","Lentiform Loewenfeld","3.3.3","1","y","0","left","left","right","left","NA","830","93938","4344","830","NA","2","legacy","2","1024","2","48000","-16","experiment","3","odd","3","310921","307470","308703","4882","181954","308709","280275","4891","177608","312926","313758","309715","98832","312925","NA","SternbergTask","28","32963","32","yes","1024"
"87.8787878788","87.8787878788","1053","1053","black","experiment","legacy","legacy","legacy","0","uniform","1","undefined","1","right","32","32","32","0","0","32","32","0","0","32","32","32","0","32","0","10/25/20 15:58:05","The main experiment item","yes","SternbergTask.osexp","C:\Users\Jennifer Wright\Desktop\PSYC5613\STERNBERGTASK","no","mono","no","18","no","white","no","yes","768","legacy","20","11","C:/Users/Jennifer Wright/Desktop/PSYC5613/STERNBERGTASK/bw-subject-3.csv","legacy","7 6 4 8 1 2","Lentiform Loewenfeld","3.3.3","0","n","0","right","left","right","right","NA","1786","93938","4344","1786","NA","2","legacy","6","1024","2","48000","-16","experiment","3","odd","9","317235","313783","315013","4882","181954","315020","280275","4891","177608","319241","321029","316026","98832","319240","NA","SternbergTask","29","34749","33","yes","1024"
"88.2352941176","88.2352941176","1051.44117647","1051.44117647","black","experiment","legacy","legacy","legacy","0","uniform","1","undefined","1","left","33","33","33","0","0","33","33","0","0","33","33","33","0","33","0","10/25/20 15:58:05","The main experiment item","yes","SternbergTask.osexp","C:\Users\Jennifer Wright\Desktop\PSYC5613\STERNBERGTASK","no","mono","no","18","no","white","no","yes","768","legacy","21","11","C:/Users/Jennifer Wright/Desktop/PSYC5613/STERNBERGTASK/bw-subject-3.csv","legacy","7 1 3","Lentiform Loewenfeld","3.3.3","2","y","0","left","left","right","left","NA","1000","93938","4344","1000","NA","2","legacy","3","1024","2","48000","-16","experiment","3","odd","1","324503","321056","322286","4882","181954","322292","280275","4891","177608","326511","327514","323299","98832","326511","NA","SternbergTask","30","35749","34","yes","1024"
"88.5714285714","88.5714285714","1059.48571429","1059.48571429","black","experiment","legacy","legacy","legacy","0","uniform","1","undefined","1","right","34","34","34","0","0","34","34","0","0","34","34","34","0","34","0","10/25/20 15:58:05","The main experiment item","yes","SternbergTask.osexp","C:\Users\Jennifer Wright\Desktop\PSYC5613\STERNBERGTASK","no","mono","no","18","no","white","no","yes","768","legacy","22","11","C:/Users/Jennifer Wright/Desktop/PSYC5613/STERNBERGTASK/bw-subject-3.csv","legacy","9 5 3 2 8 6","Lentiform Loewenfeld","3.3.3","0","n","0","right","left","right","right","NA","1333","93938","4344","1333","NA","2","legacy","6","1024","2","48000","-16","experiment","3","odd","7","330992","327543","328776","4882","181954","328782","280275","4891","177608","332996","334331","329786","98832","332996","NA","SternbergTask","31","37082","35","yes","1024"
"88.8888888889","88.8888888889","1053.27777778","1053.27777778","black","experiment","legacy","legacy","legacy","0","uniform","1","undefined","1","left","35","35","35","0","0","35","35","0","0","35","35","35","0","35","0","10/25/20 15:58:05","The main experiment item","yes","SternbergTask.osexp","C:\Users\Jennifer Wright\Desktop\PSYC5613\STERNBERGTASK","no","mono","no","18","no","white","no","yes","768","legacy","23","11","C:/Users/Jennifer Wright/Desktop/PSYC5613/STERNBERGTASK/bw-subject-3.csv","legacy","8 9 5 6 7","Lentiform Loewenfeld","3.3.3","1","y","0","left","left","right","left","NA","836","93938","4344","836","NA","2","legacy","5","1024","2","48000","-16","experiment","3","odd","8","337835","334387","335620","4882","181954","335625","280275","4891","177608","339840","340678","336631","98832","339839","NA","SternbergTask","32","37918","36","yes","1024"
"89.1891891892","89.1891891892","1049","1049","black","experiment","legacy","legacy","legacy","0","uniform","1","undefined","1","left","36","36","36","0","0","36","36","0","0","36","36","36","0","36","0","10/25/20 15:58:05","The main experiment item","yes","SternbergTask.osexp","C:\Users\Jennifer Wright\Desktop\PSYC5613\STERNBERGTASK","no","mono","no","18","no","white","no","yes","768","legacy","24","11","C:/Users/Jennifer Wright/Desktop/PSYC5613/STERNBERGTASK/bw-subject-3.csv","legacy","7","Lentiform Loewenfeld","3.3.3","1","y","0","left","left","right","left","NA","895","93938","4344","895","NA","2","legacy","1","1024","2","48000","-16","experiment","3","odd","7","344173","340724","341956","4882","181954","341962","280275","4891","177608","346178","347075","342969","98832","346178","NA","SternbergTask","33","38813","37","yes","1024"
"89.4736842105","89.4736842105","1045.73684211","1045.73684211","black","experiment","legacy","legacy","legacy","0","uniform","1","undefined","1","left","37","37","37","0","0","37","37","0","0","37","37","37","0","37","0","10/25/20 15:58:05","The main experiment item","yes","SternbergTask.osexp","C:\Users\Jennifer Wright\Desktop\PSYC5613\STERNBERGTASK","no","mono","no","18","no","white","no","yes","768","legacy","25","11","C:/Users/Jennifer Wright/Desktop/PSYC5613/STERNBERGTASK/bw-subject-3.csv","legacy","6 2","Lentiform Loewenfeld","3.3.3","1","y","0","left","left","right","left","NA","925","93938","4344","925","NA","2","legacy","2","1024","2","48000","-16","experiment","3","odd","6","350555","347104","348340","4882","181954","348346","280275","4891","177608","352563","353490","349350","98832","352562","NA","SternbergTask","34","39738","38","yes","1024"
"87.1794871795","87.1794871795","1070.20512821","1070.20512821","black","experiment","legacy","legacy","legacy","0","uniform","0","undefined","0","right","38","38","38","0","0","38","38","0","0","38","38","38","0","38","0","10/25/20 15:58:05","The main experiment item","yes","SternbergTask.osexp","C:\Users\Jennifer Wright\Desktop\PSYC5613\STERNBERGTASK","no","mono","no","18","no","white","no","yes","768","legacy","26","11","C:/Users/Jennifer Wright/Desktop/PSYC5613/STERNBERGTASK/bw-subject-3.csv","legacy","1 5 3 2 8","Lentiform Loewenfeld","3.3.3","0","n","0","None","left","right","None","NA","2000","93938","4344","2000","NA","2","legacy","5","1024","2","48000","-16","experiment","3","odd","4","356998","353542","354783","4882","181954","354789","280275","4891","177608","359004","361005","355793","98832","359003","NA","SternbergTask","34","41738","39","yes","1024"
"85","85","1063.625","1063.625","black","experiment","legacy","legacy","legacy","0","uniform","0","undefined","0","right","39","39","39","0","0","39","39","0","0","39","39","39","0","39","0","10/25/20 15:58:05","The main experiment item","yes","SternbergTask.osexp","C:\Users\Jennifer Wright\Desktop\PSYC5613\STERNBERGTASK","no","mono","no","18","no","white","no","yes","768","legacy","27","11","C:/Users/Jennifer Wright/Desktop/PSYC5613/STERNBERGTASK/bw-subject-3.csv","legacy","1 7 5 2 9","Lentiform Loewenfeld","3.3.3","0","n","0","left","left","right","left","NA","807","93938","4344","807","NA","2","legacy","5","1024","2","48000","-16","experiment","3","odd","3","364521","353542","362303","4882","181954","362309","361063","4891","177608","366525","367334","363313","98832","366525","NA","SternbergTask","34","42545","40","yes","1024"
"85.3658536585","85.3658536585","1081","1081","black","experiment","legacy","legacy","legacy","0","uniform","1","undefined","1","right","40","40","40","0","0","40","40","0","0","40","40","40","0","40","0","10/25/20 15:58:05","The main experiment item","yes","SternbergTask.osexp","C:\Users\Jennifer Wright\Desktop\PSYC5613\STERNBERGTASK","no","mono","no","18","no","white","no","yes","768","legacy","28","11","C:/Users/Jennifer Wright/Desktop/PSYC5613/STERNBERGTASK/bw-subject-3.csv","legacy","1 7 5 2","Lentiform Loewenfeld","3.3.3","0","n","0","right","left","right","right","NA","1776","93938","4344","1776","NA","2","legacy","4","1024","2","48000","-16","experiment","3","odd","3","370811","353542","368595","4882","181954","368600","367361","4891","177608","372817","374595","369605","98832","372816","NA","SternbergTask","35","44321","41","yes","1024"
"83.3333333333","83.3333333333","1102.88095238","1102.88095238","black","experiment","legacy","legacy","legacy","0","uniform","0","undefined","0","right","41","41","41","0","0","41","41","0","0","41","41","41","0","41","0","10/25/20 15:58:05","The main experiment item","yes","SternbergTask.osexp","C:\Users\Jennifer Wright\Desktop\PSYC5613\STERNBERGTASK","no","mono","no","18","no","white","no","yes","768","legacy","29","11","C:/Users/Jennifer Wright/Desktop/PSYC5613/STERNBERGTASK/bw-subject-3.csv","legacy","7 9","Lentiform Loewenfeld","3.3.3","0","n","0","None","left","right","None","NA","2000","93938","4344","2000","NA","2","legacy","2","1024","2","48000","-16","experiment","3","odd","1","378076","374625","375862","4882","181954","375867","367361","4891","177608","380081","382082","376872","98832","380081","NA","SternbergTask","35","46321","42","yes","1024"
"81.3953488372","81.3953488372","1120.88372093","1120.88372093","black","experiment","legacy","legacy","legacy","0","uniform","0","undefined","0","left","42","42","42","0","0","42","42","0","0","42","42","42","0","42","0","10/25/20 15:58:05","The main experiment item","yes","SternbergTask.osexp","C:\Users\Jennifer Wright\Desktop\PSYC5613\STERNBERGTASK","no","mono","no","18","no","white","no","yes","768","legacy","30","11","C:/Users/Jennifer Wright/Desktop/PSYC5613/STERNBERGTASK/bw-subject-3.csv","legacy","9 3 8 2 1 4","Lentiform Loewenfeld","3.3.3","3","y","0","right","left","right","right","NA","1877","93938","4344","1877","NA","2","legacy","6","1024","2","48000","-16","experiment","3","odd","8","385571","374625","383346","4882","181954","383351","382108","4891","177608","387577","389456","384358","98832","387576","NA","SternbergTask","35","48198","43","yes","1024"
"81.8181818182","81.8181818182","1112.09090909","1112.09090909","black","experiment","legacy","legacy","legacy","0","uniform","1","undefined","1","left","43","43","43","0","0","43","43","0","0","43","43","43","0","43","0","10/25/20 15:58:05","The main experiment item","yes","SternbergTask.osexp","C:\Users\Jennifer Wright\Desktop\PSYC5613\STERNBERGTASK","no","mono","no","18","no","white","no","yes","768","legacy","31","11","C:/Users/Jennifer Wright/Desktop/PSYC5613/STERNBERGTASK/bw-subject-3.csv","legacy","9 1 6 7 8","Lentiform Loewenfeld","3.3.3","1","y","0","left","left","right","left","NA","734","93938","4344","734","NA","2","legacy","5","1024","2","48000","-16","experiment","3","odd","9","392955","374625","390740","4882","181954","390745","389502","4891","177608","394960","395697","391750","98832","394959","NA","SternbergTask","36","48932","44","yes","1024"
"82.2222222222","82.2222222222","1111.77777778","1111.77777778","black","experiment","legacy","legacy","legacy","0","uniform","1","undefined","1","right","44","44","44","0","0","44","44","0","0","44","44","44","0","44","0","10/25/20 15:58:05","The main experiment item","yes","SternbergTask.osexp","C:\Users\Jennifer Wright\Desktop\PSYC5613\STERNBERGTASK","no","mono","no","18","no","white","no","yes","768","legacy","32","11","C:/Users/Jennifer Wright/Desktop/PSYC5613/STERNBERGTASK/bw-subject-3.csv","legacy","2 8 7 9 5 3","Lentiform Loewenfeld","3.3.3","0","n","0","right","left","right","right","NA","1098","93938","4344","1098","NA","2","legacy","6","1024","2","48000","-16","experiment","3","odd","6","399176","395723","396961","4882","181954","396967","389502","4891","177608","401182","402283","397972","98832","401182","NA","SternbergTask","37","50030","45","yes","1024"
"82.6086956522","82.6086956522","1106.30434783","1106.30434783","black","experiment","legacy","legacy","legacy","0","uniform","1","undefined","1","right","45","45","45","0","0","45","45","0","0","45","45","45","0","45","0","10/25/20 15:58:05","The main experiment item","yes","SternbergTask.osexp","C:\Users\Jennifer Wright\Desktop\PSYC5613\STERNBERGTASK","no","mono","no","18","no","white","no","yes","768","legacy","33","11","C:/Users/Jennifer Wright/Desktop/PSYC5613/STERNBERGTASK/bw-subject-3.csv","legacy","6 7 5 9","Lentiform Loewenfeld","3.3.3","0","n","0","right","left","right","right","NA","860","93938","4344","860","NA","2","legacy","4","1024","2","48000","-16","experiment","3","odd","2","405766","402320","403550","4882","181954","403556","389502","4891","177608","407776","408638","404562","98832","407776","NA","SternbergTask","38","50890","46","yes","1024"
"82.9787234043","82.9787234043","1102.85106383","1102.85106383","black","experiment","legacy","legacy","legacy","0","uniform","1","undefined","1","right","46","46","46","0","0","46","46","0","0","46","46","46","0","46","0","10/25/20 15:58:05","The main experiment item","yes","SternbergTask.osexp","C:\Users\Jennifer Wright\Desktop\PSYC5613\STERNBERGTASK","no","mono","no","18","no","white","no","yes","768","legacy","34","11","C:/Users/Jennifer Wright/Desktop/PSYC5613/STERNBERGTASK/bw-subject-3.csv","legacy","8 5 7 3 6","Lentiform Loewenfeld","3.3.3","0","n","0","right","left","right","right","NA","944","93938","4344","944","NA","2","legacy","5","1024","2","48000","-16","experiment","3","odd","9","412117","408664","409898","4882","181954","409903","389502","4891","177608","414124","415070","410910","98832","414124","NA","SternbergTask","39","51834","47","yes","1024"
"83.3333333333","83.3333333333","1107.16666667","1107.16666667","black","experiment","legacy","legacy","legacy","0","uniform","1","undefined","1","right","47","47","47","0","0","47","47","0","0","47","47","47","0","47","0","10/25/20 15:58:05","The main experiment item","yes","SternbergTask.osexp","C:\Users\Jennifer Wright\Desktop\PSYC5613\STERNBERGTASK","no","mono","no","18","no","white","no","yes","768","legacy","35","11","C:/Users/Jennifer Wright/Desktop/PSYC5613/STERNBERGTASK/bw-subject-3.csv","legacy","8 6 3 4 7","Lentiform Loewenfeld","3.3.3","0","n","0","right","left","right","right","NA","1310","93938","4344","1310","NA","2","legacy","5","1024","2","48000","-16","experiment","3","odd","1","418543","415096","416327","4882","181954","416332","389502","4891","177608","420548","421861","417336","98832","420548","NA","SternbergTask","40","53144","48","yes","1024"
"83.6734693878","83.6734693878","1104.85714286","1104.85714286","black","experiment","legacy","legacy","legacy","0","uniform","1","undefined","1","left","48","48","48","0","0","48","48","0","0","48","48","48","0","48","0","10/25/20 15:58:05","The main experiment item","yes","SternbergTask.osexp","C:\Users\Jennifer Wright\Desktop\PSYC5613\STERNBERGTASK","no","mono","no","18","no","white","no","yes","768","legacy","36","11","C:/Users/Jennifer Wright/Desktop/PSYC5613/STERNBERGTASK/bw-subject-3.csv","legacy","4 1 8 7 5","Lentiform Loewenfeld","3.3.3","3","y","0","left","left","right","left","NA","994","93938","4344","994","NA","2","legacy","5","1024","2","48000","-16","experiment","3","odd","8","425335","421889","423116","4882","181954","423121","389502","4891","177608","427341","428337","424127","98832","427341","NA","SternbergTask","41","54138","49","yes","1024"
"84","84","1101.24","1101.24","black","experiment","legacy","legacy","legacy","0","uniform","1","undefined","1","left","49","49","49","0","0","49","49","0","0","49","49","49","0","49","0","10/25/20 15:58:05","The main experiment item","yes","SternbergTask.osexp","C:\Users\Jennifer Wright\Desktop\PSYC5613\STERNBERGTASK","no","mono","no","18","no","white","no","yes","768","legacy","37","11","C:/Users/Jennifer Wright/Desktop/PSYC5613/STERNBERGTASK/bw-subject-3.csv","legacy","6 7 8 5","Lentiform Loewenfeld","3.3.3","3","y","0","left","left","right","left","NA","924","93938","4344","924","NA","2","legacy","4","1024","2","48000","-16","experiment","3","odd","8","431814","428364","429597","4882","181954","429603","389502","4891","177608","433822","434748","430609","98832","433821","NA","SternbergTask","42","55062","50","yes","1024"
"84.3137254902","84.3137254902","1111.05882353","1111.05882353","black","experiment","legacy","legacy","legacy","0","uniform","1","undefined","1","right","50","50","50","0","0","50","50","0","0","50","50","50","0","50","0","10/25/20 15:58:05","The main experiment item","yes","SternbergTask.osexp","C:\Users\Jennifer Wright\Desktop\PSYC5613\STERNBERGTASK","no","mono","no","18","no","white","no","yes","768","legacy","38","11","C:/Users/Jennifer Wright/Desktop/PSYC5613/STERNBERGTASK/bw-subject-3.csv","legacy","7 9 1 6","Lentiform Loewenfeld","3.3.3","0","n","0","right","left","right","right","NA","1602","93938","4344","1602","NA","2","legacy","4","1024","2","48000","-16","experiment","3","odd","4","438245","434796","436030","4882","181954","436036","389502","4891","177608","440258","441863","437041","98832","440258","NA","SternbergTask","43","56664","51","yes","1024"
"84.6153846154","84.6153846154","1104.59615385","1104.59615385","black","experiment","legacy","legacy","legacy","0","uniform","1","undefined","1","left","51","51","51","0","0","51","51","0","0","51","51","51","0","51","0","10/25/20 15:58:05","The main experiment item","yes","SternbergTask.osexp","C:\Users\Jennifer Wright\Desktop\PSYC5613\STERNBERGTASK","no","mono","no","18","no","white","no","yes","768","legacy","39","11","C:/Users/Jennifer Wright/Desktop/PSYC5613/STERNBERGTASK/bw-subject-3.csv","legacy","4 9 7 8 5 3","Lentiform Loewenfeld","3.3.3","4","y","0","left","left","right","left","NA","775","93938","4344","775","NA","2","legacy","6","1024","2","48000","-16","experiment","3","odd","8","445335","441886","443120","4882","181954","443126","389502","4891","177608","447341","448119","444131","98832","447340","NA","SternbergTask","44","57439","52","yes","1024"
"84.9056603774","84.9056603774","1099.71698113","1099.71698113","black","experiment","legacy","legacy","legacy","0","uniform","1","undefined","1","right","52","52","52","0","0","52","52","0","0","52","52","52","0","52","0","10/25/20 15:58:05","The main experiment item","yes","SternbergTask.osexp","C:\Users\Jennifer Wright\Desktop\PSYC5613\STERNBERGTASK","no","mono","no","18","no","white","no","yes","768","legacy","40","11","C:/Users/Jennifer Wright/Desktop/PSYC5613/STERNBERGTASK/bw-subject-3.csv","legacy","5 3 8 7 2 4","Lentiform Loewenfeld","3.3.3","0","n","0","right","left","right","right","NA","846","93938","4344","846","NA","2","legacy","6","1024","2","48000","-16","experiment","3","odd","9","451594","448150","449380","4882","181954","449385","389502","4891","177608","453598","454446","450389","98832","453598","NA","SternbergTask","45","58285","53","yes","1024"
"85.1851851852","85.1851851852","1094.2037037","1094.2037037","black","experiment","legacy","legacy","legacy","0","uniform","1","undefined","1","left","53","53","53","0","0","53","53","0","0","53","53","53","0","53","0","10/25/20 15:58:05","The main experiment item","yes","SternbergTask.osexp","C:\Users\Jennifer Wright\Desktop\PSYC5613\STERNBERGTASK","no","mono","no","18","no","white","no","yes","768","legacy","41","11","C:/Users/Jennifer Wright/Desktop/PSYC5613/STERNBERGTASK/bw-subject-3.csv","legacy","6 7 9 3 1 2","Lentiform Loewenfeld","3.3.3","1","y","0","left","left","right","left","NA","802","93938","4344","802","NA","2","legacy","6","1024","2","48000","-16","experiment","3","odd","6","457921","454471","455707","4882","181954","455712","389502","4891","177608","459926","460730","456716","98832","459925","NA","SternbergTask","46","59087","54","yes","1024"
"85.4545454545","85.4545454545","1088.81818182","1088.81818182","black","experiment","legacy","legacy","legacy","0","uniform","1","undefined","1","left","54","54","54","0","0","54","54","0","0","54","54","54","0","54","0","10/25/20 15:58:05","The main experiment item","yes","SternbergTask.osexp","C:\Users\Jennifer Wright\Desktop\PSYC5613\STERNBERGTASK","no","mono","no","18","no","white","no","yes","768","legacy","42","11","C:/Users/Jennifer Wright/Desktop/PSYC5613/STERNBERGTASK/bw-subject-3.csv","legacy","7 8 6 3 1","Lentiform Loewenfeld","3.3.3","5","y","0","left","left","right","left","NA","798","93938","4344","798","NA","2","legacy","5","1024","2","48000","-16","experiment","3","odd","1","464233","460782","462017","4882","181954","462023","389502","4891","177608","466238","467038","463027","98832","466237","NA","SternbergTask","47","59885","55","yes","1024"
"85.7142857143","85.7142857143","1081.10714286","1081.10714286","black","experiment","legacy","legacy","legacy","0","uniform","1","undefined","1","left","55","55","55","0","0","55","55","0","0","55","55","55","0","55","0","10/25/20 15:58:05","The main experiment item","yes","SternbergTask.osexp","C:\Users\Jennifer Wright\Desktop\PSYC5613\STERNBERGTASK","no","mono","no","18","no","white","no","yes","768","legacy","43","11","C:/Users/Jennifer Wright/Desktop/PSYC5613/STERNBERGTASK/bw-subject-3.csv","legacy","4","Lentiform Loewenfeld","3.3.3","1","y","0","left","left","right","left","NA","657","93938","4344","657","NA","2","legacy","1","1024","2","48000","-16","experiment","3","odd","4","470509","467064","468294","4882","181954","468300","389502","4891","177608","472514","473174","469304","98832","472514","NA","SternbergTask","48","60542","56","yes","1024"
"85.9649122807","85.9649122807","1075.71929825","1075.71929825","black","experiment","legacy","legacy","legacy","0","uniform","1","undefined","1","left","56","56","56","0","0","56","56","0","0","56","56","56","0","56","0","10/25/20 15:58:05","The main experiment item","yes","SternbergTask.osexp","C:\Users\Jennifer Wright\Desktop\PSYC5613\STERNBERGTASK","no","mono","no","18","no","white","no","yes","768","legacy","44","11","C:/Users/Jennifer Wright/Desktop/PSYC5613/STERNBERGTASK/bw-subject-3.csv","legacy","4 7 6 8 2 3","Lentiform Loewenfeld","3.3.3","6","y","0","left","left","right","left","NA","774","93938","4344","774","NA","2","legacy","6","1024","2","48000","-16","experiment","3","odd","3","476656","473201","474441","4882","181954","474447","389502","4891","177608","478661","479438","475451","98832","478661","NA","SternbergTask","49","61316","57","yes","1024"
"84.4827586207","84.4827586207","1091.65517241","1091.65517241","black","experiment","legacy","legacy","legacy","0","uniform","0","undefined","0","left","57","57","57","0","0","57","57","0","0","57","57","57","0","57","0","10/25/20 15:58:05","The main experiment item","yes","SternbergTask.osexp","C:\Users\Jennifer Wright\Desktop\PSYC5613\STERNBERGTASK","no","mono","no","18","no","white","no","yes","768","legacy","45","11","C:/Users/Jennifer Wright/Desktop/PSYC5613/STERNBERGTASK/bw-subject-3.csv","legacy","3 2 1 4 7","Lentiform Loewenfeld","3.3.3","2","y","0","None","left","right","None","NA","2000","93938","4344","2000","NA","2","legacy","5","1024","2","48000","-16","experiment","3","odd","2","482952","479503","480737","4882","181954","480742","389502","4891","177608","484958","486960","481748","98832","484957","NA","SternbergTask","49","63316","58","yes","1024"
"83.0508474576","83.0508474576","1084.28813559","1084.28813559","black","experiment","legacy","legacy","legacy","0","uniform","0","undefined","0","right","58","58","58","0","0","58","58","0","0","58","58","58","0","58","0","10/25/20 15:58:05","The main experiment item","yes","SternbergTask.osexp","C:\Users\Jennifer Wright\Desktop\PSYC5613\STERNBERGTASK","no","mono","no","18","no","white","no","yes","768","legacy","46","11","C:/Users/Jennifer Wright/Desktop/PSYC5613/STERNBERGTASK/bw-subject-3.csv","legacy","1 4 3 6 5","Lentiform Loewenfeld","3.3.3","0","n","0","left","left","right","left","NA","657","93938","4344","657","NA","2","legacy","5","1024","2","48000","-16","experiment","3","odd","8","490462","479503","488244","4882","181954","488249","487007","4891","177608","492468","493128","489258","98832","492467","NA","SternbergTask","49","63973","59","yes","1024"
"83.3333333333","83.3333333333","1081.01666667","1081.01666667","black","experiment","legacy","legacy","legacy","0","uniform","1","undefined","1","right","59","59","59","0","0","59","59","0","0","59","59","59","0","59","0","10/25/20 15:58:05","The main experiment item","yes","SternbergTask.osexp","C:\Users\Jennifer Wright\Desktop\PSYC5613\STERNBERGTASK","no","mono","no","18","no","white","no","yes","768","legacy","47","11","C:/Users/Jennifer Wright/Desktop/PSYC5613/STERNBERGTASK/bw-subject-3.csv","legacy","6 2 9 3 8 4","Lentiform Loewenfeld","3.3.3","0","n","0","right","left","right","right","NA","888","93938","4344","888","NA","2","legacy","6","1024","2","48000","-16","experiment","3","odd","1","496602","479503","494385","4882","181954","494390","493149","4891","177608","498610","499501","495398","98832","498609","NA","SternbergTask","50","64861","60","yes","1024"
"81.9672131148","81.9672131148","1074.62295082","1074.62295082","black","experiment","legacy","legacy","legacy","0","uniform","0","undefined","0","left","60","60","60","0","0","60","60","0","0","60","60","60","0","60","0","10/25/20 15:58:05","The main experiment item","yes","SternbergTask.osexp","C:\Users\Jennifer Wright\Desktop\PSYC5613\STERNBERGTASK","no","mono","no","18","no","white","no","yes","768","legacy","48","11","C:/Users/Jennifer Wright/Desktop/PSYC5613/STERNBERGTASK/bw-subject-3.csv","legacy","9 6 2 4 1","Lentiform Loewenfeld","3.3.3","4","y","0","right","left","right","right","NA","691","93938","4344","691","NA","2","legacy","5","1024","2","48000","-16","experiment","3","odd","4","502977","499526","500759","4882","181954","500764","493149","4891","177608","504982","505676","501771","98832","504982","NA","SternbergTask","50","65552","61","yes","1024"
"82.2580645161","82.2580645161","1078.20967742","1078.20967742","black","experiment","legacy","legacy","legacy","0","uniform","1","undefined","1","right","61","61","61","0","0","61","61","0","0","61","61","61","0","61","0","10/25/20 15:58:05","The main experiment item","yes","SternbergTask.osexp","C:\Users\Jennifer Wright\Desktop\PSYC5613\STERNBERGTASK","no","mono","no","18","no","white","no","yes","768","legacy","49","11","C:/Users/Jennifer Wright/Desktop/PSYC5613/STERNBERGTASK/bw-subject-3.csv","legacy","5","Lentiform Loewenfeld","3.3.3","0","n","0","right","left","right","right","NA","1297","93938","4344","1297","NA","2","legacy","1","1024","2","48000","-16","experiment","3","odd","8","509156","499526","506939","4882","181954","506944","505703","4891","177608","511160","512459","507949","98832","511160","NA","SternbergTask","51","66849","62","yes","1024"
"82.5396825397","82.5396825397","1083.71428571","1083.71428571","black","experiment","legacy","legacy","legacy","0","uniform","1","undefined","1","right","62","62","62","0","0","62","62","0","0","62","62","62","0","62","0","10/25/20 15:58:05","The main experiment item","yes","SternbergTask.osexp","C:\Users\Jennifer Wright\Desktop\PSYC5613\STERNBERGTASK","no","mono","no","18","no","white","no","yes","768","legacy","50","11","C:/Users/Jennifer Wright/Desktop/PSYC5613/STERNBERGTASK/bw-subject-3.csv","legacy","3 9 8 1 6 4","Lentiform Loewenfeld","3.3.3","0","n","0","right","left","right","right","NA","1425","93938","4344","1425","NA","2","legacy","6","1024","2","48000","-16","experiment","3","odd","7","515944","512489","513729","4882","181954","513735","505703","4891","177608","517950","519378","514740","98832","517950","NA","SternbergTask","52","68274","63","yes","1024"
"82.8125","82.8125","1080.828125","1080.828125","black","experiment","legacy","legacy","legacy","0","uniform","1","undefined","1","right","63","63","63","0","0","63","63","0","0","63","63","63","0","63","0","10/25/20 15:58:05","The main experiment item","yes","SternbergTask.osexp","C:\Users\Jennifer Wright\Desktop\PSYC5613\STERNBERGTASK","no","mono","no","18","no","white","no","yes","768","legacy","51","11","C:/Users/Jennifer Wright/Desktop/PSYC5613/STERNBERGTASK/bw-subject-3.csv","legacy","7 8 6 1","Lentiform Loewenfeld","3.3.3","0","n","0","right","left","right","right","NA","899","93938","4344","899","NA","2","legacy","4","1024","2","48000","-16","experiment","3","odd","3","522853","519404","520634","4882","181954","520639","505703","4891","177608","524859","525761","521646","98832","524859","NA","SternbergTask","53","69173","64","yes","1024"
"83.0769230769","83.0769230769","1078.58461538","1078.58461538","black","experiment","legacy","legacy","legacy","0","uniform","1","undefined","1","left","64","64","64","0","0","64","64","0","0","64","64","64","0","64","0","10/25/20 15:58:05","The main experiment item","yes","SternbergTask.osexp","C:\Users\Jennifer Wright\Desktop\PSYC5613\STERNBERGTASK","no","mono","no","18","no","white","no","yes","768","legacy","52","11","C:/Users/Jennifer Wright/Desktop/PSYC5613/STERNBERGTASK/bw-subject-3.csv","legacy","9 8 4","Lentiform Loewenfeld","3.3.3","1","y","0","left","left","right","left","NA","935","93938","4344","935","NA","2","legacy","3","1024","2","48000","-16","experiment","3","odd","9","529266","525813","527048","4882","181954","527053","505703","4891","177608","531271","532209","528059","98832","531270","NA","SternbergTask","54","70108","65","yes","1024"
"81.8181818182","81.8181818182","1092.54545455","1092.54545455","black","experiment","legacy","legacy","legacy","0","uniform","0","undefined","0","left","65","65","65","0","0","65","65","0","0","65","65","65","0","65","0","10/25/20 15:58:05","The main experiment item","yes","SternbergTask.osexp","C:\Users\Jennifer Wright\Desktop\PSYC5613\STERNBERGTASK","no","mono","no","18","no","white","no","yes","768","legacy","53","11","C:/Users/Jennifer Wright/Desktop/PSYC5613/STERNBERGTASK/bw-subject-3.csv","legacy","8","Lentiform Loewenfeld","3.3.3","1","y","0","None","left","right","None","NA","2000","93938","4344","2000","NA","2","legacy","1","1024","2","48000","-16","experiment","3","odd","8","535720","532262","533502","4882","181954","533508","505703","4891","177608","537725","539727","534512","98832","537724","NA","SternbergTask","54","72108","66","yes","1024"
"82.0895522388","82.0895522388","1089.3880597","1089.3880597","black","experiment","legacy","legacy","legacy","0","uniform","1","undefined","1","right","66","66","66","0","0","66","66","0","0","66","66","66","0","66","0","10/25/20 15:58:05","The main experiment item","yes","SternbergTask.osexp","C:\Users\Jennifer Wright\Desktop\PSYC5613\STERNBERGTASK","no","mono","no","18","no","white","no","yes","768","legacy","54","11","C:/Users/Jennifer Wright/Desktop/PSYC5613/STERNBERGTASK/bw-subject-3.csv","legacy","1 4 9 2 5","Lentiform Loewenfeld","3.3.3","0","n","0","right","left","right","right","NA","881","93938","4344","881","NA","2","legacy","5","1024","2","48000","-16","experiment","3","odd","7","543220","532262","541006","4882","181954","541011","539772","4891","177608","545226","546110","542015","98832","545226","NA","SternbergTask","55","72989","67","yes","1024"
"80.8823529412","80.8823529412","1102.79411765","1102.79411765","black","experiment","legacy","legacy","legacy","0","uniform","0","undefined","0","right","67","67","67","0","0","67","67","0","0","67","67","67","0","67","0","10/25/20 15:58:05","The main experiment item","yes","SternbergTask.osexp","C:\Users\Jennifer Wright\Desktop\PSYC5613\STERNBERGTASK","no","mono","no","18","no","white","no","yes","768","legacy","55","11","C:/Users/Jennifer Wright/Desktop/PSYC5613/STERNBERGTASK/bw-subject-3.csv","legacy","2 3 8 5 6 7","Lentiform Loewenfeld","3.3.3","0","n","0","None","left","right","None","NA","2001","93938","4344","2001","NA","2","legacy","6","1024","2","48000","-16","experiment","3","odd","1","549590","546131","547375","4882","181954","547381","539772","4891","177608","551595","553598","548386","98832","551595","NA","SternbergTask","55","74990","68","yes","1024"
"81.1594202899","81.1594202899","1097.84057971","1097.84057971","black","experiment","legacy","legacy","legacy","0","uniform","1","undefined","1","right","68","68","68","0","0","68","68","0","0","68","68","68","0","68","0","10/25/20 15:58:05","The main experiment item","yes","SternbergTask.osexp","C:\Users\Jennifer Wright\Desktop\PSYC5613\STERNBERGTASK","no","mono","no","18","no","white","no","yes","768","legacy","56","11","C:/Users/Jennifer Wright/Desktop/PSYC5613/STERNBERGTASK/bw-subject-3.csv","legacy","2 6 4 3 9","Lentiform Loewenfeld","3.3.3","0","n","0","right","left","right","right","NA","761","93938","4344","761","NA","2","legacy","5","1024","2","48000","-16","experiment","3","odd","1","557141","546131","554918","4882","181954","554924","553671","4891","177608","559149","559914","555928","98832","559148","NA","SternbergTask","56","75751","69","yes","1024"
"81.4285714286","81.4285714286","1094.38571429","1094.38571429","black","experiment","legacy","legacy","legacy","0","uniform","1","undefined","1","right","69","69","69","0","0","69","69","0","0","69","69","69","0","69","0","10/25/20 15:58:05","The main experiment item","yes","SternbergTask.osexp","C:\Users\Jennifer Wright\Desktop\PSYC5613\STERNBERGTASK","no","mono","no","18","no","white","no","yes","768","legacy","57","11","C:/Users/Jennifer Wright/Desktop/PSYC5613/STERNBERGTASK/bw-subject-3.csv","legacy","4 2 6 9","Lentiform Loewenfeld","3.3.3","0","n","0","right","left","right","right","NA","856","93938","4344","856","NA","2","legacy","4","1024","2","48000","-16","experiment","3","odd","7","563422","559969","561200","4882","181954","561206","553671","4891","177608","565433","566292","562216","98832","565432","NA","SternbergTask","57","76607","70","yes","1024"
"81.6901408451","81.6901408451","1093.30985915","1093.30985915","black","experiment","legacy","legacy","legacy","0","uniform","1","undefined","1","left","70","70","70","0","0","70","70","0","0","70","70","70","0","70","0","10/25/20 15:58:05","The main experiment item","yes","SternbergTask.osexp","C:\Users\Jennifer Wright\Desktop\PSYC5613\STERNBERGTASK","no","mono","no","18","no","white","no","yes","768","legacy","58","11","C:/Users/Jennifer Wright/Desktop/PSYC5613/STERNBERGTASK/bw-subject-3.csv","legacy","6 9 3 1","Lentiform Loewenfeld","3.3.3","4","y","0","left","left","right","left","NA","1018","93938","4344","1018","NA","2","legacy","4","1024","2","48000","-16","experiment","3","odd","1","569799","566351","567576","4882","181954","567581","553671","4891","177608","571805","572827","568592","98832","571805","NA","SternbergTask","58","77625","71","yes","1024"
"81.9444444444","81.9444444444","1092.88888889","1092.88888889","black","experiment","legacy","legacy","legacy","0","uniform","1","undefined","1","left","71","71","71","0","0","71","71","0","0","71","71","71","0","71","0","10/25/20 15:58:05","The main experiment item","yes","SternbergTask.osexp","C:\Users\Jennifer Wright\Desktop\PSYC5613\STERNBERGTASK","no","mono","no","18","no","white","no","yes","768","legacy","59","11","C:/Users/Jennifer Wright/Desktop/PSYC5613/STERNBERGTASK/bw-subject-3.csv","legacy","9 3 1 2 5","Lentiform Loewenfeld","3.3.3","4","y","0","left","left","right","left","NA","1063","93938","4344","1063","NA","2","legacy","5","1024","2","48000","-16","experiment","3","odd","2","576336","572885","574112","4882","181954","574117","553671","4891","177608","578343","579409","575130","98832","578343","NA","SternbergTask","59","78688","72","yes","1024"
"82.1917808219","82.1917808219","1091.4109589","1091.4109589","black","experiment","legacy","legacy","legacy","0","uniform","1","undefined","1","right","72","72","72","0","0","72","72","0","0","72","72","72","0","72","0","10/25/20 15:58:05","The main experiment item","yes","SternbergTask.osexp","C:\Users\Jennifer Wright\Desktop\PSYC5613\STERNBERGTASK","no","mono","no","18","no","white","no","yes","768","legacy","60","11","C:/Users/Jennifer Wright/Desktop/PSYC5613/STERNBERGTASK/bw-subject-3.csv","legacy","9 7 4 5 8","Lentiform Loewenfeld","3.3.3","0","n","0","right","left","right","right","NA","985","93938","4344","985","NA","2","legacy","5","1024","2","48000","-16","experiment","3","odd","6","582903","579462","580686","4882","181954","580691","553671","4891","177608","584910","585899","581697","98832","584909","NA","SternbergTask","60","79673","73","yes","1024"
"82.4324324324","82.4324324324","1087.21621622","1087.21621622","black","experiment","legacy","legacy","legacy","0","uniform","1","undefined","1","right","73","73","73","0","0","73","73","0","0","73","73","73","0","73","0","10/25/20 15:58:05","The main experiment item","yes","SternbergTask.osexp","C:\Users\Jennifer Wright\Desktop\PSYC5613\STERNBERGTASK","no","mono","no","18","no","white","no","yes","768","legacy","61","11","C:/Users/Jennifer Wright/Desktop/PSYC5613/STERNBERGTASK/bw-subject-3.csv","legacy","6 9 4 5 3 2","Lentiform Loewenfeld","3.3.3","0","n","0","right","left","right","right","NA","781","93938","4344","781","NA","2","legacy","6","1024","2","48000","-16","experiment","3","odd","8","589424","585975","587207","4882","181954","587212","553671","4891","177608","591432","592216","588217","98832","591431","NA","SternbergTask","61","80454","74","yes","1024"
"82.6666666667","82.6666666667","1087.01333333","1087.01333333","black","experiment","legacy","legacy","legacy","0","uniform","1","undefined","1","left","74","74","74","0","0","74","74","0","0","74","74","74","0","74","0","10/25/20 15:58:05","The main experiment item","yes","SternbergTask.osexp","C:\Users\Jennifer Wright\Desktop\PSYC5613\STERNBERGTASK","no","mono","no","18","no","white","no","yes","768","legacy","62","11","C:/Users/Jennifer Wright/Desktop/PSYC5613/STERNBERGTASK/bw-subject-3.csv","legacy","2 8 5 1","Lentiform Loewenfeld","3.3.3","4","y","0","left","left","right","left","NA","1072","93938","4344","1072","NA","2","legacy","4","1024","2","48000","-16","experiment","3","odd","1","595715","592270","593496","4882","181954","593502","553671","4891","177608","597723","598798","594510","98832","597722","NA","SternbergTask","62","81526","75","yes","1024"
"82.8947368421","82.8947368421","1087.47368421","1087.47368421","black","experiment","legacy","legacy","legacy","0","uniform","1","undefined","1","left","75","75","75","0","0","75","75","0","0","75","75","75","0","75","0","10/25/20 15:58:05","The main experiment item","yes","SternbergTask.osexp","C:\Users\Jennifer Wright\Desktop\PSYC5613\STERNBERGTASK","no","mono","no","18","no","white","no","yes","768","legacy","63","11","C:/Users/Jennifer Wright/Desktop/PSYC5613/STERNBERGTASK/bw-subject-3.csv","legacy","5 2 9 6 1 7","Lentiform Loewenfeld","3.3.3","3","y","0","left","left","right","left","NA","1122","93938","4344","1122","NA","2","legacy","6","1024","2","48000","-16","experiment","3","odd","9","602312","598858","600096","4882","181954","600101","553671","4891","177608","604319","605444","601105","98832","604319","NA","SternbergTask","63","82648","76","yes","1024"
"81.8181818182","81.8181818182","1099.32467532","1099.32467532","black","experiment","legacy","legacy","legacy","0","uniform","0","undefined","0","right","76","76","76","0","0","76","76","0","0","76","76","76","0","76","0","10/25/20 15:58:05","The main experiment item","yes","SternbergTask.osexp","C:\Users\Jennifer Wright\Desktop\PSYC5613\STERNBERGTASK","no","mono","no","18","no","white","no","yes","768","legacy","64","11","C:/Users/Jennifer Wright/Desktop/PSYC5613/STERNBERGTASK/bw-subject-3.csv","legacy","9 8 2 7 4","Lentiform Loewenfeld","3.3.3","0","n","0","None","left","right","None","NA","2000","93938","4344","2000","NA","2","legacy","5","1024","2","48000","-16","experiment","3","odd","5","608958","605506","606734","4882","181954","606739","553671","4891","177608","610964","612966","607751","98832","610964","NA","SternbergTask","63","84648","77","yes","1024"
"80.7692307692","80.7692307692","1110.87179487","1110.87179487","black","experiment","legacy","legacy","legacy","0","uniform","0","undefined","0","right","77","77","77","0","0","77","77","0","0","77","77","77","0","77","0","10/25/20 15:58:05","The main experiment item","yes","SternbergTask.osexp","C:\Users\Jennifer Wright\Desktop\PSYC5613\STERNBERGTASK","no","mono","no","18","no","white","no","yes","768","legacy","65","11","C:/Users/Jennifer Wright/Desktop/PSYC5613/STERNBERGTASK/bw-subject-3.csv","legacy","3 4 2","Lentiform Loewenfeld","3.3.3","0","n","0","None","left","right","None","NA","2000","93938","4344","2000","NA","2","legacy","3","1024","2","48000","-16","experiment","3","odd","5","616510","605506","614283","4882","181954","614290","613029","4891","177608","618517","620519","615296","98832","618516","NA","SternbergTask","63","86648","78","yes","1024"
"79.746835443","79.746835443","1122.12658228","1122.12658228","black","experiment","legacy","legacy","legacy","0","uniform","0","undefined","0","right","78","78","78","0","0","78","78","0","0","78","78","78","0","78","0","10/25/20 15:58:05","The main experiment item","yes","SternbergTask.osexp","C:\Users\Jennifer Wright\Desktop\PSYC5613\STERNBERGTASK","no","mono","no","18","no","white","no","yes","768","legacy","66","11","C:/Users/Jennifer Wright/Desktop/PSYC5613/STERNBERGTASK/bw-subject-3.csv","legacy","9","Lentiform Loewenfeld","3.3.3","0","n","0","None","left","right","None","NA","2000","93938","4344","2000","NA","2","legacy","1","1024","2","48000","-16","experiment","3","odd","6","624017","605506","621799","4882","181954","621805","620578","4891","177608","626023","628025","622811","98832","626023","NA","SternbergTask","63","88648","79","yes","1024"
"80","80","1118.2375","1118.2375","black","experiment","legacy","legacy","legacy","0","uniform","1","undefined","1","left","79","79","79","0","0","79","79","0","0","79","79","79","0","79","0","10/25/20 15:58:05","The main experiment item","yes","SternbergTask.osexp","C:\Users\Jennifer Wright\Desktop\PSYC5613\STERNBERGTASK","no","mono","no","18","no","white","no","yes","768","legacy","67","11","C:/Users/Jennifer Wright/Desktop/PSYC5613/STERNBERGTASK/bw-subject-3.csv","legacy","6 9 7 4 5 1","Lentiform Loewenfeld","3.3.3","2","y","0","left","left","right","left","NA","811","93938","4344","811","NA","2","legacy","6","1024","2","48000","-16","experiment","3","odd","9","631551","605506","629328","4882","181954","629334","628095","4891","177608","633559","634373","630339","98832","633558","NA","SternbergTask","64","89459","80","yes","1024"
"80.2469135802","80.2469135802","1113.33333333","1113.33333333","black","experiment","legacy","legacy","legacy","0","uniform","1","undefined","1","left","80","80","80","0","0","80","80","0","0","80","80","80","0","80","0","10/25/20 15:58:05","The main experiment item","yes","SternbergTask.osexp","C:\Users\Jennifer Wright\Desktop\PSYC5613\STERNBERGTASK","no","mono","no","18","no","white","no","yes","768","legacy","68","11","C:/Users/Jennifer Wright/Desktop/PSYC5613/STERNBERGTASK/bw-subject-3.csv","legacy","6 8 9 3 4 9","Lentiform Loewenfeld","3.3.3","5","y","0","left","left","right","left","NA","721","93938","4344","721","NA","2","legacy","6","1024","2","48000","-16","experiment","3","odd","4","637865","634427","635647","4882","181954","635653","628095","4891","177608","639875","640600","636658","98832","639875","NA","SternbergTask","65","90180","81","yes","1024"
"79.2682926829","79.2682926829","1124.14634146","1124.14634146","black","experiment","legacy","legacy","legacy","0","uniform","0","undefined","0","left","81","81","81","0","0","81","81","0","0","81","81","81","0","81","0","10/25/20 15:58:05","The main experiment item","yes","SternbergTask.osexp","C:\Users\Jennifer Wright\Desktop\PSYC5613\STERNBERGTASK","no","mono","no","18","no","white","no","yes","768","legacy","69","11","C:/Users/Jennifer Wright/Desktop/PSYC5613/STERNBERGTASK/bw-subject-3.csv","legacy","8 5 3 7 4 6","Lentiform Loewenfeld","3.3.3","6","y","0","None","left","right","None","NA","2000","93938","4344","2000","NA","2","legacy","6","1024","2","48000","-16","experiment","3","odd","6","644115","640668","641897","4882","181954","641902","628095","4891","177608","646122","648124","642909","98832","646121","NA","SternbergTask","65","92180","82","yes","1024"
"79.5180722892","79.5180722892","1122.12048193","1122.12048193","black","experiment","legacy","legacy","legacy","0","uniform","1","undefined","1","right","82","82","82","0","0","82","82","0","0","82","82","82","0","82","0","10/25/20 15:58:05","The main experiment item","yes","SternbergTask.osexp","C:\Users\Jennifer Wright\Desktop\PSYC5613\STERNBERGTASK","no","mono","no","18","no","white","no","yes","768","legacy","70","11","C:/Users/Jennifer Wright/Desktop/PSYC5613/STERNBERGTASK/bw-subject-3.csv","legacy","2 5 1 4","Lentiform Loewenfeld","3.3.3","0","n","0","right","left","right","right","NA","956","93938","4344","956","NA","2","legacy","4","1024","2","48000","-16","experiment","3","odd","6","651641","640668","649421","4882","181954","649426","648202","4891","177608","653649","654609","650435","98832","653648","NA","SternbergTask","66","93136","83","yes","1024"
"79.7619047619","79.7619047619","1122.03571429","1122.03571429","black","experiment","legacy","legacy","legacy","0","uniform","1","undefined","1","left","83","83","83","0","0","83","83","0","0","83","83","83","0","83","0","10/25/20 15:58:05","The main experiment item","yes","SternbergTask.osexp","C:\Users\Jennifer Wright\Desktop\PSYC5613\STERNBERGTASK","no","mono","no","18","no","white","no","yes","768","legacy","71","11","C:/Users/Jennifer Wright/Desktop/PSYC5613/STERNBERGTASK/bw-subject-3.csv","legacy","3 5 9 6 2 4","Lentiform Loewenfeld","3.3.3","1","y","0","left","left","right","left","NA","1115","93938","4344","1115","NA","2","legacy","6","1024","2","48000","-16","experiment","3","odd","3","658106","654659","655888","4882","181954","655893","648202","4891","177608","660114","661234","656899","98832","660114","NA","SternbergTask","67","94251","84","yes","1024"
"80","80","1121.78823529","1121.78823529","black","experiment","legacy","legacy","legacy","0","uniform","1","undefined","1","right","84","84","84","0","0","84","84","0","0","84","84","84","0","84","0","10/25/20 15:58:05","The main experiment item","yes","SternbergTask.osexp","C:\Users\Jennifer Wright\Desktop\PSYC5613\STERNBERGTASK","no","mono","no","18","no","white","no","yes","768","legacy","72","11","C:/Users/Jennifer Wright/Desktop/PSYC5613/STERNBERGTASK/bw-subject-3.csv","legacy","8 5 4 2 9 6","Lentiform Loewenfeld","3.3.3","0","n","0","right","left","right","right","NA","1101","93938","4344","1101","NA","2","legacy","6","1024","2","48000","-16","experiment","3","odd","3","664760","661317","662542","4882","181954","662548","648202","4891","177608","666766","667870","663554","98832","666766","NA","SternbergTask","68","95352","85","yes","1024"
"80.2325581395","80.2325581395","1119.02325581","1119.02325581","black","experiment","legacy","legacy","legacy","0","uniform","1","undefined","1","right","85","85","85","0","0","85","85","0","0","85","85","85","0","85","0","10/25/20 15:58:05","The main experiment item","yes","SternbergTask.osexp","C:\Users\Jennifer Wright\Desktop\PSYC5613\STERNBERGTASK","no","mono","no","18","no","white","no","yes","768","legacy","73","11","C:/Users/Jennifer Wright/Desktop/PSYC5613/STERNBERGTASK/bw-subject-3.csv","legacy","6 8","Lentiform Loewenfeld","3.3.3","0","n","0","right","left","right","right","NA","884","93938","4344","884","NA","2","legacy","2","1024","2","48000","-16","experiment","3","odd","9","671367","667923","669148","4882","181954","669154","648202","4891","177608","673373","674260","670161","98832","673372","NA","SternbergTask","69","96236","86","yes","1024"
"80.4597701149","80.4597701149","1117.59770115","1117.59770115","black","experiment","legacy","legacy","legacy","0","uniform","1","undefined","1","left","86","86","86","0","0","86","86","0","0","86","86","86","0","86","0","10/25/20 15:58:05","The main experiment item","yes","SternbergTask.osexp","C:\Users\Jennifer Wright\Desktop\PSYC5613\STERNBERGTASK","no","mono","no","18","no","white","no","yes","768","legacy","74","11","C:/Users/Jennifer Wright/Desktop/PSYC5613/STERNBERGTASK/bw-subject-3.csv","legacy","7 2 3","Lentiform Loewenfeld","3.3.3","3","y","0","left","left","right","left","NA","995","93938","4344","995","NA","2","legacy","3","1024","2","48000","-16","experiment","3","odd","3","677777","674326","675557","4882","181954","675563","648202","4891","177608","679783","680782","676569","98832","679783","NA","SternbergTask","70","97231","87","yes","1024"
"80.6818181818","80.6818181818","1115.76136364","1115.76136364","black","experiment","legacy","legacy","legacy","0","uniform","1","undefined","1","left","87","87","87","0","0","87","87","0","0","87","87","87","0","87","0","10/25/20 15:58:05","The main experiment item","yes","SternbergTask.osexp","C:\Users\Jennifer Wright\Desktop\PSYC5613\STERNBERGTASK","no","mono","no","18","no","white","no","yes","768","legacy","75","11","C:/Users/Jennifer Wright/Desktop/PSYC5613/STERNBERGTASK/bw-subject-3.csv","legacy","2 5 4 8 7","Lentiform Loewenfeld","3.3.3","3","y","0","left","left","right","left","NA","956","93938","4344","956","NA","2","legacy","5","1024","2","48000","-16","experiment","3","odd","4","684259","680819","682042","4882","181954","682047","648202","4891","177608","686265","687225","683053","98832","686265","NA","SternbergTask","71","98187","88","yes","1024"
"80.8988764045","80.8988764045","1115.28089888","1115.28089888","black","experiment","legacy","legacy","legacy","0","uniform","1","undefined","1","left","88","88","88","0","0","88","88","0","0","88","88","88","0","88","0","10/25/20 15:58:05","The main experiment item","yes","SternbergTask.osexp","C:\Users\Jennifer Wright\Desktop\PSYC5613\STERNBERGTASK","no","mono","no","18","no","white","no","yes","768","legacy","76","11","C:/Users/Jennifer Wright/Desktop/PSYC5613/STERNBERGTASK/bw-subject-3.csv","legacy","4 6 5 8","Lentiform Loewenfeld","3.3.3","1","y","0","left","left","right","left","NA","1073","93938","4344","1073","NA","2","legacy","4","1024","2","48000","-16","experiment","3","odd","4","690743","687285","688516","4882","181954","688521","648202","4891","177608","692749","693826","689530","98832","692749","NA","SternbergTask","72","99260","89","yes","1024"
"81.1111111111","81.1111111111","1113.92222222","1113.92222222","black","experiment","legacy","legacy","legacy","0","uniform","1","undefined","1","right","89","89","89","0","0","89","89","0","0","89","89","89","0","89","0","10/25/20 15:58:05","The main experiment item","yes","SternbergTask.osexp","C:\Users\Jennifer Wright\Desktop\PSYC5613\STERNBERGTASK","no","mono","no","18","no","white","no","yes","768","legacy","77","11","C:/Users/Jennifer Wright/Desktop/PSYC5613/STERNBERGTASK/bw-subject-3.csv","legacy","1 6 4","Lentiform Loewenfeld","3.3.3","0","n","0","right","left","right","right","NA","993","93938","4344","993","NA","2","legacy","3","1024","2","48000","-16","experiment","3","odd","7","697343","693893","695121","4882","181954","695126","648202","4891","177608","699351","700347","696136","98832","699350","NA","SternbergTask","73","100253","90","yes","1024"
"81.3186813187","81.3186813187","1111.51648352","1111.51648352","black","experiment","legacy","legacy","legacy","0","uniform","1","undefined","1","right","90","90","90","0","0","90","90","0","0","90","90","90","0","90","0","10/25/20 15:58:05","The main experiment item","yes","SternbergTask.osexp","C:\Users\Jennifer Wright\Desktop\PSYC5613\STERNBERGTASK","no","mono","no","18","no","white","no","yes","768","legacy","78","11","C:/Users/Jennifer Wright/Desktop/PSYC5613/STERNBERGTASK/bw-subject-3.csv","legacy","8 2 1 4 5 9","Lentiform Loewenfeld","3.3.3","0","n","0","right","left","right","right","NA","895","93938","4344","895","NA","2","legacy","6","1024","2","48000","-16","experiment","3","odd","7","703866","700426","701644","4882","181954","701649","648202","4891","177608","705872","706771","702656","98832","705872","NA","SternbergTask","74","101148","91","yes","1024"
"81.5217391304","81.5217391304","1108.47826087","1108.47826087","black","experiment","legacy","legacy","legacy","0","uniform","1","undefined","1","right","91","91","91","0","0","91","91","0","0","91","91","91","0","91","0","10/25/20 15:58:05","The main experiment item","yes","SternbergTask.osexp","C:\Users\Jennifer Wright\Desktop\PSYC5613\STERNBERGTASK","no","mono","no","18","no","white","no","yes","768","legacy","79","11","C:/Users/Jennifer Wright/Desktop/PSYC5613/STERNBERGTASK/bw-subject-3.csv","legacy","5 7 3","Lentiform Loewenfeld","3.3.3","0","n","0","right","left","right","right","NA","832","93938","4344","832","NA","2","legacy","3","1024","2","48000","-16","experiment","3","odd","9","710277","706837","708057","4882","181954","708062","648202","4891","177608","712283","713119","709071","98832","712283","NA","SternbergTask","75","101980","92","yes","1024"
"80.6451612903","80.6451612903","1118.06451613","1118.06451613","black","experiment","legacy","legacy","legacy","0","uniform","0","undefined","0","left","92","92","92","0","0","92","92","0","0","92","92","92","0","92","0","10/25/20 15:58:05","The main experiment item","yes","SternbergTask.osexp","C:\Users\Jennifer Wright\Desktop\PSYC5613\STERNBERGTASK","no","mono","no","18","no","white","no","yes","768","legacy","80","11","C:/Users/Jennifer Wright/Desktop/PSYC5613/STERNBERGTASK/bw-subject-3.csv","legacy","3 5 4 7","Lentiform Loewenfeld","3.3.3","1","y","0","None","left","right","None","NA","2000","93938","4344","2000","NA","2","legacy","4","1024","2","48000","-16","experiment","3","odd","3","716590","713143","714374","4882","181954","714379","648202","4891","177608","718597","720600","715384","98832","718596","NA","SternbergTask","75","103980","93","yes","1024"
"79.7872340426","79.7872340426","1126.9893617","1126.9893617","black","experiment","legacy","legacy","legacy","0","uniform","0","undefined","0","left","93","93","93","0","0","93","93","0","0","93","93","93","0","93","0","10/25/20 15:58:05","The main experiment item","yes","SternbergTask.osexp","C:\Users\Jennifer Wright\Desktop\PSYC5613\STERNBERGTASK","no","mono","no","18","no","white","no","yes","768","legacy","81","11","C:/Users/Jennifer Wright/Desktop/PSYC5613/STERNBERGTASK/bw-subject-3.csv","legacy","4 6 2 5 1","Lentiform Loewenfeld","3.3.3","5","y","0","right","left","right","right","NA","1957","93938","4344","1957","NA","2","legacy","5","1024","2","48000","-16","experiment","3","odd","1","724105","713143","721884","4882","181954","721889","720661","4891","177608","726112","728073","722893","98832","726111","NA","SternbergTask","75","105937","94","yes","1024"
"80","80","1128.37894737","1128.37894737","black","experiment","legacy","legacy","legacy","0","uniform","1","undefined","1","right","94","94","94","0","0","94","94","0","0","94","94","94","0","94","0","10/25/20 15:58:05","The main experiment item","yes","SternbergTask.osexp","C:\Users\Jennifer Wright\Desktop\PSYC5613\STERNBERGTASK","no","mono","no","18","no","white","no","yes","768","legacy","82","11","C:/Users/Jennifer Wright/Desktop/PSYC5613/STERNBERGTASK/bw-subject-3.csv","legacy","6 9 5","Lentiform Loewenfeld","3.3.3","0","n","0","right","left","right","right","NA","1259","93938","4344","1259","NA","2","legacy","3","1024","2","48000","-16","experiment","3","odd","8","731588","713143","729365","4882","181954","729370","728146","4891","177608","733594","734857","730376","98832","733594","NA","SternbergTask","76","107196","95","yes","1024"
"80.2083333333","80.2083333333","1137.33333333","1137.33333333","black","experiment","legacy","legacy","legacy","0","uniform","1","undefined","1","right","95","95","95","0","0","95","95","0","0","95","95","95","0","95","0","10/25/20 15:58:05","The main experiment item","yes","SternbergTask.osexp","C:\Users\Jennifer Wright\Desktop\PSYC5613\STERNBERGTASK","no","mono","no","18","no","white","no","yes","768","legacy","83","11","C:/Users/Jennifer Wright/Desktop/PSYC5613/STERNBERGTASK/bw-subject-3.csv","legacy","7 1","Lentiform Loewenfeld","3.3.3","0","n","0","right","left","right","right","NA","1988","93938","4344","1988","NA","2","legacy","2","1024","2","48000","-16","experiment","3","odd","8","738362","734923","736144","4882","181954","736149","728146","4891","177608","740377","742369","737156","98832","740376","NA","SternbergTask","77","109184","96","yes","1024"
"79.381443299","79.381443299","1146.22680412","1146.22680412","black","experiment","legacy","legacy","legacy","0","uniform","0","undefined","0","left","96","96","96","0","0","96","96","0","0","96","96","96","0","96","0","10/25/20 15:58:05","The main experiment item","yes","SternbergTask.osexp","C:\Users\Jennifer Wright\Desktop\PSYC5613\STERNBERGTASK","no","mono","no","18","no","white","no","yes","768","legacy","84","11","C:/Users/Jennifer Wright/Desktop/PSYC5613/STERNBERGTASK/bw-subject-3.csv","legacy","8 9 6 1","Lentiform Loewenfeld","3.3.3","2","y","0","None","left","right","None","NA","2000","93938","4344","2000","NA","2","legacy","4","1024","2","48000","-16","experiment","3","odd","9","745879","742438","743658","4882","181954","743663","728146","4891","177608","747886","749889","744670","98832","747886","NA","SternbergTask","77","111184","97","yes","1024"
"79.5918367347","79.5918367347","1143.02040816","1143.02040816","black","experiment","legacy","legacy","legacy","0","uniform","1","undefined","1","right","97","97","97","0","0","97","97","0","0","97","97","97","0","97","0","10/25/20 15:58:05","The main experiment item","yes","SternbergTask.osexp","C:\Users\Jennifer Wright\Desktop\PSYC5613\STERNBERGTASK","no","mono","no","18","no","white","no","yes","768","legacy","85","11","C:/Users/Jennifer Wright/Desktop/PSYC5613/STERNBERGTASK/bw-subject-3.csv","legacy","4 8 1 2","Lentiform Loewenfeld","3.3.3","0","n","0","right","left","right","right","NA","832","93938","4344","832","NA","2","legacy","4","1024","2","48000","-16","experiment","3","odd","7","753404","742438","751180","4882","181954","751185","749954","4891","177608","755410","756245","752197","98832","755410","NA","SternbergTask","78","112016","98","yes","1024"
"78.7878787879","78.7878787879","1142.02020202","1142.02020202","black","experiment","legacy","legacy","legacy","0","uniform","0","undefined","0","left","98","98","98","0","0","98","98","0","0","98","98","98","0","98","0","10/25/20 15:58:05","The main experiment item","yes","SternbergTask.osexp","C:\Users\Jennifer Wright\Desktop\PSYC5613\STERNBERGTASK","no","mono","no","18","no","white","no","yes","768","legacy","86","11","C:/Users/Jennifer Wright/Desktop/PSYC5613/STERNBERGTASK/bw-subject-3.csv","legacy","9 5 3 8 4","Lentiform Loewenfeld","3.3.3","1","y","0","right","left","right","right","NA","1044","93938","4344","1044","NA","2","legacy","5","1024","2","48000","-16","experiment","3","odd","9","759759","756308","757538","4882","181954","757543","749954","4891","177608","761764","762811","758549","98832","761764","NA","SternbergTask","78","113060","99","yes","1024"
"79","79","1137.58","1137.58","black","experiment","legacy","legacy","legacy","0","uniform","1","undefined","1","right","99","99","99","0","0","99","99","0","0","99","99","99","0","99","0","10/25/20 15:58:05","The main experiment item","yes","SternbergTask.osexp","C:\Users\Jennifer Wright\Desktop\PSYC5613\STERNBERGTASK","no","mono","no","18","no","white","no","yes","768","legacy","87","11","C:/Users/Jennifer Wright/Desktop/PSYC5613/STERNBERGTASK/bw-subject-3.csv","legacy","5 9 2 3","Lentiform Loewenfeld","3.3.3","0","n","0","right","left","right","right","NA","698","93938","4344","698","NA","2","legacy","4","1024","2","48000","-16","experiment","3","odd","8","766328","756308","764111","4882","181954","764116","762887","4891","177608","768339","769041","765122","98832","768338","NA","SternbergTask","79","113758","100","yes","1024"
"79.2079207921","79.2079207921","1133.17821782","1133.17821782","black","experiment","legacy","legacy","legacy","0","uniform","1","undefined","1","left","100","100","100","0","0","100","100","0","0","100","100","100","0","100","0","10/25/20 15:58:05","The main experiment item","yes","SternbergTask.osexp","C:\Users\Jennifer Wright\Desktop\PSYC5613\STERNBERGTASK","no","mono","no","18","no","white","no","yes","768","legacy","88","11","C:/Users/Jennifer Wright/Desktop/PSYC5613/STERNBERGTASK/bw-subject-3.csv","legacy","2 3","Lentiform Loewenfeld","3.3.3","1","y","0","left","left","right","left","NA","693","93938","4344","693","NA","2","legacy","2","1024","2","48000","-16","experiment","3","odd","2","772545","769105","770327","4882","181954","770333","762887","4891","177608","774557","775254","771339","98832","774557","NA","SternbergTask","80","114451","101","yes","1024"
"79.4117647059","79.4117647059","1130.59803922","1130.59803922","black","experiment","legacy","legacy","legacy","0","uniform","1","undefined","1","left","101","101","101","0","0","101","101","0","0","101","101","101","0","101","0","10/25/20 15:58:05","The main experiment item","yes","SternbergTask.osexp","C:\Users\Jennifer Wright\Desktop\PSYC5613\STERNBERGTASK","no","mono","no","18","no","white","no","yes","768","legacy","89","11","C:/Users/Jennifer Wright/Desktop/PSYC5613/STERNBERGTASK/bw-subject-3.csv","legacy","2 4 6 9","Lentiform Loewenfeld","3.3.3","3","y","0","left","left","right","left","NA","870","93938","4344","870","NA","2","legacy","4","1024","2","48000","-16","experiment","3","odd","6","778774","775324","776556","4882","181954","776561","762887","4891","177608","780780","781654","777568","98832","780780","NA","SternbergTask","81","115321","102","yes","1024"
"79.6116504854","79.6116504854","1134","1134","black","experiment","legacy","legacy","legacy","0","uniform","1","undefined","1","left","102","102","102","0","0","102","102","0","0","102","102","102","0","102","0","10/25/20 15:58:05","The main experiment item","yes","SternbergTask.osexp","C:\Users\Jennifer Wright\Desktop\PSYC5613\STERNBERGTASK","no","mono","no","18","no","white","no","yes","768","legacy","90","11","C:/Users/Jennifer Wright/Desktop/PSYC5613/STERNBERGTASK/bw-subject-3.csv","legacy","3 9 7 6 4","Lentiform Loewenfeld","3.3.3","3","y","0","left","left","right","left","NA","1481","93938","4344","1481","NA","2","legacy","5","1024","2","48000","-16","experiment","3","odd","7","785175","781725","782957","4882","181954","782962","762887","4891","177608","787186","788670","783969","98832","787185","NA","SternbergTask","82","116802","103","yes","1024"
"79.8076923077","79.8076923077","1135.25961538","1135.25961538","black","experiment","legacy","legacy","legacy","0","uniform","1","undefined","1","right","103","103","103","0","0","103","103","0","0","103","103","103","0","103","0","10/25/20 15:58:05","The main experiment item","yes","SternbergTask.osexp","C:\Users\Jennifer Wright\Desktop\PSYC5613\STERNBERGTASK","no","mono","no","18","no","white","no","yes","768","legacy","91","11","C:/Users/Jennifer Wright/Desktop/PSYC5613/STERNBERGTASK/bw-subject-3.csv","legacy","7 3 2 8","Lentiform Loewenfeld","3.3.3","0","n","0","right","left","right","right","NA","1265","93938","4344","1265","NA","2","legacy","4","1024","2","48000","-16","experiment","3","odd","4","792274","788824","790055","4882","181954","790061","762887","4891","177608","794280","795549","791067","98832","794280","NA","SternbergTask","83","118067","104","yes","1024"
"79.0476190476","79.0476190476","1131.83809524","1131.83809524","black","experiment","legacy","legacy","legacy","0","uniform","0","undefined","0","left","104","104","104","0","0","104","104","0","0","104","104","104","0","104","0","10/25/20 15:58:05","The main experiment item","yes","SternbergTask.osexp","C:\Users\Jennifer Wright\Desktop\PSYC5613\STERNBERGTASK","no","mono","no","18","no","white","no","yes","768","legacy","92","11","C:/Users/Jennifer Wright/Desktop/PSYC5613/STERNBERGTASK/bw-subject-3.csv","legacy","4 3 2 5 8","Lentiform Loewenfeld","3.3.3","2","y","0","right","left","right","right","NA","776","93938","4344","776","NA","2","legacy","5","1024","2","48000","-16","experiment","3","odd","3","799058","795616","796841","4882","181954","796846","762887","4891","177608","801065","801845","797851","98832","801065","NA","SternbergTask","83","118843","105","yes","1024"
"79.2452830189","79.2452830189","1128.19811321","1128.19811321","black","experiment","legacy","legacy","legacy","0","uniform","1","undefined","1","left","105","105","105","0","0","105","105","0","0","105","105","105","0","105","0","10/25/20 15:58:05","The main experiment item","yes","SternbergTask.osexp","C:\Users\Jennifer Wright\Desktop\PSYC5613\STERNBERGTASK","no","mono","no","18","no","white","no","yes","768","legacy","93","11","C:/Users/Jennifer Wright/Desktop/PSYC5613/STERNBERGTASK/bw-subject-3.csv","legacy","2 4 8 5 1 3","Lentiform Loewenfeld","3.3.3","1","y","0","left","left","right","left","NA","746","93938","4344","746","NA","2","legacy","6","1024","2","48000","-16","experiment","3","odd","2","805366","795616","803142","4882","181954","803147","801917","4891","177608","807373","808123","804153","98832","807373","NA","SternbergTask","84","119589","106","yes","1024"
"79.4392523364","79.4392523364","1127.1682243","1127.1682243","black","experiment","legacy","legacy","legacy","0","uniform","1","undefined","1","right","106","106","106","0","0","106","106","0","0","106","106","106","0","106","0","10/25/20 15:58:05","The main experiment item","yes","SternbergTask.osexp","C:\Users\Jennifer Wright\Desktop\PSYC5613\STERNBERGTASK","no","mono","no","18","no","white","no","yes","768","legacy","94","11","C:/Users/Jennifer Wright/Desktop/PSYC5613/STERNBERGTASK/bw-subject-3.csv","legacy","1 3 2 6 9","Lentiform Loewenfeld","3.3.3","0","n","0","right","left","right","right","NA","1018","93938","4344","1018","NA","2","legacy","5","1024","2","48000","-16","experiment","3","odd","5","811630","808190","809412","4882","181954","809417","801917","4891","177608","813639","814661","810421","98832","813638","NA","SternbergTask","85","120607","107","yes","1024"
"79.6296296296","79.6296296296","1128.13888889","1128.13888889","black","experiment","legacy","legacy","legacy","0","uniform","1","undefined","1","right","107","107","107","0","0","107","107","0","0","107","107","107","0","107","0","10/25/20 15:58:05","The main experiment item","yes","SternbergTask.osexp","C:\Users\Jennifer Wright\Desktop\PSYC5613\STERNBERGTASK","no","mono","no","18","no","white","no","yes","768","legacy","95","11","C:/Users/Jennifer Wright/Desktop/PSYC5613/STERNBERGTASK/bw-subject-3.csv","legacy","2 8 9","Lentiform Loewenfeld","3.3.3","0","n","0","right","left","right","right","NA","1232","93938","4344","1232","NA","2","legacy","3","1024","2","48000","-16","experiment","3","odd","6","818168","814713","815943","4882","181954","815949","801917","4891","177608","820175","821411","816955","98832","820175","NA","SternbergTask","86","121839","108","yes","1024"
"79.8165137615","79.8165137615","1123.95412844","1123.95412844","black","experiment","legacy","legacy","legacy","0","uniform","1","undefined","1","left","108","108","108","0","0","108","108","0","0","108","108","108","0","108","0","10/25/20 15:58:05","The main experiment item","yes","SternbergTask.osexp","C:\Users\Jennifer Wright\Desktop\PSYC5613\STERNBERGTASK","no","mono","no","18","no","white","no","yes","768","legacy","96","11","C:/Users/Jennifer Wright/Desktop/PSYC5613/STERNBERGTASK/bw-subject-3.csv","legacy","8 5 4 7 3 1","Lentiform Loewenfeld","3.3.3","2","y","0","left","left","right","left","NA","672","93938","4344","672","NA","2","legacy","6","1024","2","48000","-16","experiment","3","odd","5","824934","821488","822712","4882","181954","822717","801917","4891","177608","826943","827618","823723","98832","826943","NA","SternbergTask","87","122511","109","yes","1024"
"80","80","1121.51818182","1121.51818182","black","experiment","legacy","legacy","legacy","0","uniform","1","undefined","1","left","109","109","109","0","0","109","109","0","0","109","109","109","0","109","0","10/25/20 15:58:05","The main experiment item","yes","SternbergTask.osexp","C:\Users\Jennifer Wright\Desktop\PSYC5613\STERNBERGTASK","no","mono","no","18","no","white","no","yes","768","legacy","97","11","C:/Users/Jennifer Wright/Desktop/PSYC5613/STERNBERGTASK/bw-subject-3.csv","legacy","3 9 6 2","Lentiform Loewenfeld","3.3.3","4","y","0","left","left","right","left","NA","856","93938","4344","856","NA","2","legacy","4","1024","2","48000","-16","experiment","3","odd","2","831137","827685","828920","4882","181954","828925","801917","4891","177608","833144","834004","829931","98832","833143","NA","SternbergTask","88","123367","110","yes","1024"
"80.1801801802","80.1801801802","1117.28828829","1117.28828829","black","experiment","legacy","legacy","legacy","0","uniform","1","undefined","1","right","110","110","110","0","0","110","110","0","0","110","110","110","0","110","0","10/25/20 15:58:05","The main experiment item","yes","SternbergTask.osexp","C:\Users\Jennifer Wright\Desktop\PSYC5613\STERNBERGTASK","no","mono","no","18","no","white","no","yes","768","legacy","98","11","C:/Users/Jennifer Wright/Desktop/PSYC5613/STERNBERGTASK/bw-subject-3.csv","legacy","1 6 4 3 9 7","Lentiform Loewenfeld","3.3.3","0","n","0","right","left","right","right","NA","652","93938","4344","652","NA","2","legacy","6","1024","2","48000","-16","experiment","3","odd","8","837519","834072","835301","4882","181954","835306","801917","4891","177608","839529","840185","836313","98832","839529","NA","SternbergTask","89","124019","111","yes","1024"
"80.3571428571","80.3571428571","1114.5","1114.5","black","experiment","legacy","legacy","legacy","0","uniform","1","undefined","1","left","111","111","111","0","0","111","111","0","0","111","111","111","0","111","0","10/25/20 15:58:05","The main experiment item","yes","SternbergTask.osexp","C:\Users\Jennifer Wright\Desktop\PSYC5613\STERNBERGTASK","no","mono","no","18","no","white","no","yes","768","legacy","99","11","C:/Users/Jennifer Wright/Desktop/PSYC5613/STERNBERGTASK/bw-subject-3.csv","legacy","8 1 6","Lentiform Loewenfeld","3.3.3","3","y","0","left","left","right","left","NA","805","93938","4344","805","NA","2","legacy","3","1024","2","48000","-16","experiment","3","odd","6","843702","840251","841480","4882","181954","841486","801917","4891","177608","845707","846516","842493","98832","845707","NA","SternbergTask","90","124824","112","yes","1024"
"80.5309734513","80.5309734513","1111.02654867","1111.02654867","black","experiment","legacy","legacy","legacy","0","uniform","1","undefined","1","right","112","112","112","0","0","112","112","0","0","112","112","112","0","112","0","10/25/20 15:58:05","The main experiment item","yes","SternbergTask.osexp","C:\Users\Jennifer Wright\Desktop\PSYC5613\STERNBERGTASK","no","mono","no","18","no","white","no","yes","768","legacy","100","11","C:/Users/Jennifer Wright/Desktop/PSYC5613/STERNBERGTASK/bw-subject-3.csv","legacy","7 1 8 4 9 3","Lentiform Loewenfeld","3.3.3","0","n","0","right","left","right","right","NA","722","93938","4344","722","NA","2","legacy","6","1024","2","48000","-16","experiment","3","odd","6","850041","846592","847824","4882","181954","847830","801917","4891","177608","852047","852773","848834","98832","852047","NA","SternbergTask","91","125546","113","yes","1024"
