"acc","accuracy","average_response_time","avg_rt","background","block","canvas_backend","clock_backend","color_backend","correct","correct_instruction1_sketchpad","correct_keyboard_response","correct_response","count_ISI_sketchpad","count_correct_sketchpad","count_exp_sequence","count_experiment","count_experiment_loop","count_fixation_sketchpad","count_incorrect_sketchpad","count_instruction1_sketchpad","count_instructions2_sketchpad","count_keyboard_response","count_memoryset_sketchpad","count_new_logger","count_practice_loop","count_probe_sketchpad","count_thankyou_sketchpad","datetime","description","disable_garbage_collection","experiment_file","experiment_path","font_bold","font_family","font_italic","font_size","font_underline","foreground","form_clicks","fullscreen","height","keyboard_backend","live_row","live_row_practice_loop","logfile","mouse_backend","numberSet","opensesame_codename","opensesame_version","posInSet","present","repeat_cycle","response","response_instruction1_sketchpad","response_instructions2_sketchpad","response_keyboard_response","response_thankyou_sketchpad","response_time","response_time_instruction1_sketchpad","response_time_instructions2_sketchpad","response_time_keyboard_response","response_time_thankyou_sketchpad","round_decimals","sampler_backend","setSize","sound_buf_size","sound_channels","sound_freq","sound_sample_size","start","subject_nr","subject_parity","target","time_ISI_sketchpad","time_correct_sketchpad","time_exp_sequence","time_experiment","time_experiment_loop","time_fixation_sketchpad","time_incorrect_sketchpad","time_instruction1_sketchpad","time_instructions2_sketchpad","time_keyboard_response","time_memoryset_sketchpad","time_new_logger","time_practice_loop","time_probe_sketchpad","time_thankyou_sketchpad","title","total_correct","total_response_time","total_responses","width"
"0","0","717","717","#3d3846","practice","legacy","legacy","legacy","0","undefined","0","left","0","0","0","0","0","0","0","0","0","0","0","0","0","0","0","Tue Oct 17 03:29:23 2023","The main experiment item","True","Sternbergtask.osexp","C:\Users\kikip\OneDrive\Dokumente\QUANT HW","False","mono","False","18","no","white","no","yes","768","legacy","0","0","C:/Users/kikip/OneDrive/Dokumente/QUANT HW/LG-subject-4.csv","legacy","6","Melodramatic Milgram","4.0.5","1","y","0","right","right","NA","right","NA","717.0","14258","NA","717","NA","2","legacy","1","1024","2","48000","-16","experiment","4","even","6","19995","NA","17790","2781","NA","17793","NA","2787","NA","21997","18794","22714","17047","21997","NA","Sternberg task ","0","717.0","1","1024"
"50","50","668","668","#3d3846","practice","legacy","legacy","legacy","1","undefined","1","right","1","1","1","0","0","1","1","0","0","1","1","1","0","1","0","Tue Oct 17 03:29:23 2023","The main experiment item","True","Sternbergtask.osexp","C:\Users\kikip\OneDrive\Dokumente\QUANT HW","False","mono","False","18","no","white","no","yes","768","legacy","1","1","C:/Users/kikip/OneDrive/Dokumente/QUANT HW/LG-subject-4.csv","legacy","5","Melodramatic Milgram","4.0.5","0","n","0","right","right","NA","right","NA","619.0","14258","NA","619","NA","2","legacy","1","1024","2","48000","-16","experiment","4","even","3","26061","NA","23857","2781","NA","23859","22779","2787","NA","28063","24860","28683","17047","28062","NA","Sternberg task ","1","1336.0","2","1024"
"66","66","662","662","#3d3846","practice","legacy","legacy","legacy","1","undefined","1","left","2","2","2","0","0","2","2","0","0","2","2","2","0","2","0","Tue Oct 17 03:29:23 2023","The main experiment item","True","Sternbergtask.osexp","C:\Users\kikip\OneDrive\Dokumente\QUANT HW","False","mono","False","18","no","white","no","yes","768","legacy","2","2","C:/Users/kikip/OneDrive/Dokumente/QUANT HW/LG-subject-4.csv","legacy","4 8","Melodramatic Milgram","4.0.5","1","y","0","left","right","NA","left","NA","650.0","14258","NA","650","NA","2","legacy","2","1024","2","48000","-16","experiment","4","even","4","31973","28690","29768","2781","NA","29770","22779","2787","NA","33975","30771","34626","17047","33975","NA","Sternberg task ","2","1986.0","3","1024"
"50","50","768","768","#3d3846","practice","legacy","legacy","legacy","0","undefined","0","right","3","3","3","0","0","3","3","0","0","3","3","3","0","3","0","Tue Oct 17 03:29:23 2023","The main experiment item","True","Sternbergtask.osexp","C:\Users\kikip\OneDrive\Dokumente\QUANT HW","False","mono","False","18","no","white","no","yes","768","legacy","3","3","C:/Users/kikip/OneDrive/Dokumente/QUANT HW/LG-subject-4.csv","legacy","4 1 5","Melodramatic Milgram","4.0.5","0","n","0","left","right","NA","left","NA","1089.0","14258","NA","1089","NA","2","legacy","3","1024","2","48000","-16","experiment","4","even","2","37913","34634","35709","2781","NA","35711","22779","2787","NA","39915","36712","41005","17047","39914","NA","Sternberg task ","2","3075.0","4","1024"
"60","60","718","718","#3d3846","practice","legacy","legacy","legacy","1","undefined","1","left","4","4","4","0","0","4","4","0","0","4","4","4","0","4","0","Tue Oct 17 03:29:23 2023","The main experiment item","True","Sternbergtask.osexp","C:\Users\kikip\OneDrive\Dokumente\QUANT HW","False","mono","False","18","no","white","no","yes","768","legacy","4","4","C:/Users/kikip/OneDrive/Dokumente/QUANT HW/LG-subject-4.csv","legacy","2 9 4","Melodramatic Milgram","4.0.5","3","y","0","left","right","NA","left","NA","517.0","14258","NA","517","NA","2","legacy","3","1024","2","48000","-16","experiment","4","even","4","44291","34634","42087","2781","NA","42089","41011","2787","NA","46292","43090","46810","17047","46292","NA","Sternberg task ","3","3592.0","5","1024"
"66","66","737","737","#3d3846","practice","legacy","legacy","legacy","1","undefined","1","left","5","5","5","0","0","5","5","0","0","5","5","5","0","5","0","Tue Oct 17 03:29:23 2023","The main experiment item","True","Sternbergtask.osexp","C:\Users\kikip\OneDrive\Dokumente\QUANT HW","False","mono","False","18","no","white","no","yes","768","legacy","5","5","C:/Users/kikip/OneDrive/Dokumente/QUANT HW/LG-subject-4.csv","legacy","1 5 2 9","Melodramatic Milgram","4.0.5","2","y","0","left","right","NA","left","NA","832.0","14258","NA","832","NA","2","legacy","4","1024","2","48000","-16","experiment","4","even","5","50093","46817","47889","2781","NA","47891","41011","2787","NA","52094","48892","52927","17047","52094","NA","Sternberg task ","4","4424.0","6","1024"
"71","71","792","792","#3d3846","practice","legacy","legacy","legacy","1","undefined","1","right","6","6","6","0","0","6","6","0","0","6","6","6","0","6","0","Tue Oct 17 03:29:23 2023","The main experiment item","True","Sternbergtask.osexp","C:\Users\kikip\OneDrive\Dokumente\QUANT HW","False","mono","False","18","no","white","no","yes","768","legacy","6","6","C:/Users/kikip/OneDrive/Dokumente/QUANT HW/LG-subject-4.csv","legacy","9 6 7 4 5","Melodramatic Milgram","4.0.5","0","n","0","right","right","NA","right","NA","1123.0","14258","NA","1123","NA","2","legacy","5","1024","2","48000","-16","experiment","4","even","3","56211","52931","54007","2781","NA","54009","41011","2787","NA","58213","55010","59337","17047","58212","NA","Sternberg task ","5","5547.0","7","1024"
"75","75","745","745","#3d3846","practice","legacy","legacy","legacy","1","undefined","1","right","7","7","7","0","0","7","7","0","0","7","7","7","0","7","0","Tue Oct 17 03:29:23 2023","The main experiment item","True","Sternbergtask.osexp","C:\Users\kikip\OneDrive\Dokumente\QUANT HW","False","mono","False","18","no","white","no","yes","768","legacy","7","7","C:/Users/kikip/OneDrive/Dokumente/QUANT HW/LG-subject-4.csv","legacy","2 1","Melodramatic Milgram","4.0.5","0","n","0","right","right","NA","right","NA","418.0","14258","NA","418","NA","2","legacy","2","1024","2","48000","-16","experiment","4","even","5","62638","59345","60434","2781","NA","60436","41011","2787","NA","64640","61437","65059","17047","64639","NA","Sternberg task ","6","5965.0","8","1024"
"66","66","732","732","#3d3846","practice","legacy","legacy","legacy","0","undefined","0","left","8","8","8","0","0","8","8","0","0","8","8","8","0","8","0","Tue Oct 17 03:29:23 2023","The main experiment item","True","Sternbergtask.osexp","C:\Users\kikip\OneDrive\Dokumente\QUANT HW","False","mono","False","18","no","white","no","yes","768","legacy","8","8","C:/Users/kikip/OneDrive/Dokumente/QUANT HW/LG-subject-4.csv","legacy","1 7 9 8 5","Melodramatic Milgram","4.0.5","4","y","0","right","right","NA","right","NA","625.0","14258","NA","625","NA","2","legacy","5","1024","2","48000","-16","experiment","4","even","8","68345","65063","66141","2781","NA","66143","41011","2787","NA","70346","67144","70972","17047","70346","NA","Sternberg task ","6","6590.0","9","1024"
"70","70","856","856","#3d3846","practice","legacy","legacy","legacy","1","undefined","1","right","9","9","9","0","0","9","9","0","0","9","9","9","0","9","0","Tue Oct 17 03:29:23 2023","The main experiment item","True","Sternbergtask.osexp","C:\Users\kikip\OneDrive\Dokumente\QUANT HW","False","mono","False","18","no","white","no","yes","768","legacy","9","9","C:/Users/kikip/OneDrive/Dokumente/QUANT HW/LG-subject-4.csv","legacy","5 7 8 4 1 2","Melodramatic Milgram","4.0.5","0","n","0","right","right","NA","right","NA","1979.0","14258","NA","1979","NA","2","legacy","6","1024","2","48000","-16","experiment","4","even","6","74259","65063","72055","2781","NA","72057","70979","2787","NA","76260","73058","78240","17047","76260","NA","Sternberg task ","7","8569.0","10","1024"
"72","72","857","857","#3d3846","practice","legacy","legacy","legacy","1","undefined","1","left","10","10","10","0","0","10","10","0","0","10","10","10","0","10","0","Tue Oct 17 03:29:23 2023","The main experiment item","True","Sternbergtask.osexp","C:\Users\kikip\OneDrive\Dokumente\QUANT HW","False","mono","False","18","no","white","no","yes","768","legacy","10","10","C:/Users/kikip/OneDrive/Dokumente/QUANT HW/LG-subject-4.csv","legacy","4 3 1 7 9 8","Melodramatic Milgram","4.0.5","1","y","0","left","right","NA","left","NA","868.0","14258","NA","868","NA","2","legacy","6","1024","2","48000","-16","experiment","4","even","4","81525","78244","79321","2781","NA","79323","70979","2787","NA","83526","80324","84395","17047","83526","NA","Sternberg task ","8","9437.0","11","1024"
"75","75","888","888","#3d3846","practice","legacy","legacy","legacy","1","undefined","1","right","11","11","11","0","0","11","11","0","0","11","11","11","0","11","0","Tue Oct 17 03:29:23 2023","The main experiment item","True","Sternbergtask.osexp","C:\Users\kikip\OneDrive\Dokumente\QUANT HW","False","mono","False","18","no","white","no","yes","768","legacy","11","11","C:/Users/kikip/OneDrive/Dokumente/QUANT HW/LG-subject-4.csv","legacy","3 1 9 4","Melodramatic Milgram","4.0.5","0","n","0","right","right","NA","right","NA","1225.0","14258","NA","1225","NA","2","legacy","4","1024","2","48000","-16","experiment","4","even","6","87679","84400","85474","2781","NA","85476","70979","2787","NA","89681","86478","90907","17047","89681","NA","Sternberg task ","9","10662.0","12","1024"
"69","69","889","889","#3d3846","experiment","legacy","legacy","legacy","0","undefined","0","left","12","12","12","0","0","12","12","0","0","12","12","12","0","12","0","Tue Oct 17 03:29:23 2023","The main experiment item","True","Sternbergtask.osexp","C:\Users\kikip\OneDrive\Dokumente\QUANT HW","False","mono","False","18","no","white","no","yes","768","legacy","0","11","C:/Users/kikip/OneDrive/Dokumente/QUANT HW/LG-subject-4.csv","legacy","6 8 9 3 4 9","Melodramatic Milgram","4.0.5","5","y","0","right","right","right","right","NA","903.0","14258","5951","903","NA","2","legacy","6","1024","2","48000","-16","experiment","4","even","4","100310","90912","98104","2781","97865","98107","70979","2787","91913","102312","99109","103216","17047","102311","NA","Sternberg task ","9","11565.0","13","1024"
"71","71","858","858","#3d3846","experiment","legacy","legacy","legacy","1","undefined","1","left","13","13","13","0","0","13","13","0","0","13","13","13","0","13","0","Tue Oct 17 03:29:23 2023","The main experiment item","True","Sternbergtask.osexp","C:\Users\kikip\OneDrive\Dokumente\QUANT HW","False","mono","False","18","no","white","no","yes","768","legacy","1","11","C:/Users/kikip/OneDrive/Dokumente/QUANT HW/LG-subject-4.csv","legacy","7 1 3","Melodramatic Milgram","4.0.5","2","y","0","left","right","right","left","NA","458.0","14258","5951","458","NA","2","legacy","3","1024","2","48000","-16","experiment","4","even","1","106498","90912","104294","2781","97865","104296","103220","2787","91913","108500","105297","108959","17047","108500","NA","Sternberg task ","10","12023.0","14","1024"
"73","73","834","834","#3d3846","experiment","legacy","legacy","legacy","1","undefined","1","right","14","14","14","0","0","14","14","0","0","14","14","14","0","14","0","Tue Oct 17 03:29:23 2023","The main experiment item","True","Sternbergtask.osexp","C:\Users\kikip\OneDrive\Dokumente\QUANT HW","False","mono","False","18","no","white","no","yes","768","legacy","2","11","C:/Users/kikip/OneDrive/Dokumente/QUANT HW/LG-subject-4.csv","legacy","1 6 4","Melodramatic Milgram","4.0.5","0","n","0","right","right","right","right","NA","492.0","14258","5951","492","NA","2","legacy","3","1024","2","48000","-16","experiment","4","even","7","112243","108964","110039","2781","97865","110041","103220","2787","91913","114244","111042","114737","17047","114244","NA","Sternberg task ","11","12515.0","15","1024"
"75","75","809","809","#3d3846","experiment","legacy","legacy","legacy","1","undefined","1","left","15","15","15","0","0","15","15","0","0","15","15","15","0","15","0","Tue Oct 17 03:29:23 2023","The main experiment item","True","Sternbergtask.osexp","C:\Users\kikip\OneDrive\Dokumente\QUANT HW","False","mono","False","18","no","white","no","yes","768","legacy","3","11","C:/Users/kikip/OneDrive/Dokumente/QUANT HW/LG-subject-4.csv","legacy","2 3","Melodramatic Milgram","4.0.5","1","y","0","left","right","right","left","NA","429.0","14258","5951","429","NA","2","legacy","2","1024","2","48000","-16","experiment","4","even","2","118025","114744","115821","2781","97865","115823","103220","2787","91913","120026","116824","120456","17047","120026","NA","Sternberg task ","12","12944.0","16","1024"
"70","70","823","823","#3d3846","experiment","legacy","legacy","legacy","0","undefined","0","left","16","16","16","0","0","16","16","0","0","16","16","16","0","16","0","Tue Oct 17 03:29:23 2023","The main experiment item","True","Sternbergtask.osexp","C:\Users\kikip\OneDrive\Dokumente\QUANT HW","False","mono","False","18","no","white","no","yes","768","legacy","4","11","C:/Users/kikip/OneDrive/Dokumente/QUANT HW/LG-subject-4.csv","legacy","6 9 7 4 5 1","Melodramatic Milgram","4.0.5","2","y","0","right","right","right","right","NA","1060.0","14258","5951","1060","NA","2","legacy","6","1024","2","48000","-16","experiment","4","even","9","123748","120463","121544","2781","97865","121546","103220","2787","91913","125750","122547","126811","17047","125749","NA","Sternberg task ","12","14004.0","17","1024"
"72","72","803","803","#3d3846","experiment","legacy","legacy","legacy","1","undefined","1","right","17","17","17","0","0","17","17","0","0","17","17","17","0","17","0","Tue Oct 17 03:29:23 2023","The main experiment item","True","Sternbergtask.osexp","C:\Users\kikip\OneDrive\Dokumente\QUANT HW","False","mono","False","18","no","white","no","yes","768","legacy","5","11","C:/Users/kikip/OneDrive/Dokumente/QUANT HW/LG-subject-4.csv","legacy","4 2 6 9","Melodramatic Milgram","4.0.5","0","n","0","right","right","right","right","NA","460.0","14258","5951","460","NA","2","legacy","4","1024","2","48000","-16","experiment","4","even","7","130096","120463","127892","2781","97865","127894","126819","2787","91913","132097","128895","132558","17047","132097","NA","Sternberg task ","13","14464.0","18","1024"
"73","73","821","821","#3d3846","experiment","legacy","legacy","legacy","1","undefined","1","right","18","18","18","0","0","18","18","0","0","18","18","18","0","18","0","Tue Oct 17 03:29:23 2023","The main experiment item","True","Sternbergtask.osexp","C:\Users\kikip\OneDrive\Dokumente\QUANT HW","False","mono","False","18","no","white","no","yes","768","legacy","6","11","C:/Users/kikip/OneDrive/Dokumente/QUANT HW/LG-subject-4.csv","legacy","2 5 1 4","Melodramatic Milgram","4.0.5","0","n","0","right","right","right","right","NA","1147.0","14258","5951","1147","NA","2","legacy","4","1024","2","48000","-16","experiment","4","even","6","135847","132566","133642","2781","97865","133644","126819","2787","91913","137849","134645","138997","17047","137849","NA","Sternberg task ","14","15611.0","19","1024"
"75","75","808","808","#3d3846","experiment","legacy","legacy","legacy","1","undefined","1","left","19","19","19","0","0","19","19","0","0","19","19","19","0","19","0","Tue Oct 17 03:29:23 2023","The main experiment item","True","Sternbergtask.osexp","C:\Users\kikip\OneDrive\Dokumente\QUANT HW","False","mono","False","18","no","white","no","yes","768","legacy","7","11","C:/Users/kikip/OneDrive/Dokumente/QUANT HW/LG-subject-4.csv","legacy","9 3 1 2 5","Melodramatic Milgram","4.0.5","4","y","0","left","right","right","left","NA","560.0","14258","5951","560","NA","2","legacy","5","1024","2","48000","-16","experiment","4","even","2","142279","139002","140075","2781","97865","140077","126819","2787","91913","144280","141078","144841","17047","144280","NA","Sternberg task ","15","16171.0","20","1024"
"76","76","816","816","#3d3846","experiment","legacy","legacy","legacy","1","undefined","1","left","20","20","20","0","0","20","20","0","0","20","20","20","0","20","0","Tue Oct 17 03:29:23 2023","The main experiment item","True","Sternbergtask.osexp","C:\Users\kikip\OneDrive\Dokumente\QUANT HW","False","mono","False","18","no","white","no","yes","768","legacy","8","11","C:/Users/kikip/OneDrive/Dokumente/QUANT HW/LG-subject-4.csv","legacy","7 2 3","Melodramatic Milgram","4.0.5","3","y","0","left","right","right","left","NA","970.0","14258","5951","970","NA","2","legacy","3","1024","2","48000","-16","experiment","4","even","3","148127","144849","145923","2781","97865","145925","126819","2787","91913","150129","146926","151100","17047","150129","NA","Sternberg task ","16","17141.0","21","1024"
"77","77","805","805","#3d3846","experiment","legacy","legacy","legacy","1","undefined","1","right","21","21","21","0","0","21","21","0","0","21","21","21","0","21","0","Tue Oct 17 03:29:23 2023","The main experiment item","True","Sternbergtask.osexp","C:\Users\kikip\OneDrive\Dokumente\QUANT HW","False","mono","False","18","no","white","no","yes","768","legacy","9","11","C:/Users/kikip/OneDrive/Dokumente/QUANT HW/LG-subject-4.csv","legacy","6 9 4 5 3 2","Melodramatic Milgram","4.0.5","0","n","0","right","right","right","right","NA","585.0","14258","5951","585","NA","2","legacy","6","1024","2","48000","-16","experiment","4","even","8","154386","151104","152182","2781","97865","152184","126819","2787","91913","156388","153185","156974","17047","156387","NA","Sternberg task ","17","17726.0","22","1024"
"78","78","796","796","#3d3846","experiment","legacy","legacy","legacy","1","undefined","1","left","22","22","22","0","0","22","22","0","0","22","22","22","0","22","0","Tue Oct 17 03:29:23 2023","The main experiment item","True","Sternbergtask.osexp","C:\Users\kikip\OneDrive\Dokumente\QUANT HW","False","mono","False","18","no","white","no","yes","768","legacy","10","11","C:/Users/kikip/OneDrive/Dokumente/QUANT HW/LG-subject-4.csv","legacy","3 5 9 6 2 4","Melodramatic Milgram","4.0.5","1","y","0","left","right","right","left","NA","604.0","14258","5951","604","NA","2","legacy","6","1024","2","48000","-16","experiment","4","even","3","160265","156981","158061","2781","97865","158063","126819","2787","91913","162267","159064","162872","17047","162267","NA","Sternberg task ","18","18330.0","23","1024"
"79","79","793","793","#3d3846","experiment","legacy","legacy","legacy","1","undefined","1","right","23","23","23","0","0","23","23","0","0","23","23","23","0","23","0","Tue Oct 17 03:29:23 2023","The main experiment item","True","Sternbergtask.osexp","C:\Users\kikip\OneDrive\Dokumente\QUANT HW","False","mono","False","18","no","white","no","yes","768","legacy","11","11","C:/Users/kikip/OneDrive/Dokumente/QUANT HW/LG-subject-4.csv","legacy","3 9 1","Melodramatic Milgram","4.0.5","0","n","0","right","right","right","right","NA","721.0","14258","5951","721","NA","2","legacy","3","1024","2","48000","-16","experiment","4","even","7","166173","162880","163969","2781","97865","163971","126819","2787","91913","168174","164972","168896","17047","168174","NA","Sternberg task ","19","19051.0","24","1024"
"80","80","786","786","#3d3846","experiment","legacy","legacy","legacy","1","undefined","1","left","24","24","24","0","0","24","24","0","0","24","24","24","0","24","0","Tue Oct 17 03:29:23 2023","The main experiment item","True","Sternbergtask.osexp","C:\Users\kikip\OneDrive\Dokumente\QUANT HW","False","mono","False","18","no","white","no","yes","768","legacy","12","11","C:/Users/kikip/OneDrive/Dokumente/QUANT HW/LG-subject-4.csv","legacy","9 1 7 2","Melodramatic Milgram","4.0.5","2","y","0","left","right","right","left","NA","608.0","14258","5951","608","NA","2","legacy","4","1024","2","48000","-16","experiment","4","even","1","172178","168900","169974","2781","97865","169976","126819","2787","91913","174180","170977","174790","17047","174180","NA","Sternberg task ","20","19659.0","25","1024"
"80","80","781","781","#3d3846","experiment","legacy","legacy","legacy","1","undefined","1","left","25","25","25","0","0","25","25","0","0","25","25","25","0","25","0","Tue Oct 17 03:29:23 2023","The main experiment item","True","Sternbergtask.osexp","C:\Users\kikip\OneDrive\Dokumente\QUANT HW","False","mono","False","18","no","white","no","yes","768","legacy","13","11","C:/Users/kikip/OneDrive/Dokumente/QUANT HW/LG-subject-4.csv","legacy","8 5 4 7 3 1","Melodramatic Milgram","4.0.5","2","y","0","left","right","right","left","NA","672.0","14258","5951","672","NA","2","legacy","6","1024","2","48000","-16","experiment","4","even","5","178081","174798","175877","2781","97865","175879","126819","2787","91913","180082","176880","180755","17047","180082","NA","Sternberg task ","21","20331.0","26","1024"
"77","77","781","781","#3d3846","experiment","legacy","legacy","legacy","0","undefined","0","left","26","26","26","0","0","26","26","0","0","26","26","26","0","26","0","Tue Oct 17 03:29:23 2023","The main experiment item","True","Sternbergtask.osexp","C:\Users\kikip\OneDrive\Dokumente\QUANT HW","False","mono","False","18","no","white","no","yes","768","legacy","14","11","C:/Users/kikip/OneDrive/Dokumente/QUANT HW/LG-subject-4.csv","legacy","9 3 8 2 1 4","Melodramatic Milgram","4.0.5","3","y","0","right","right","right","right","NA","762.0","14258","5951","762","NA","2","legacy","6","1024","2","48000","-16","experiment","4","even","8","184054","180762","181849","2781","97865","181851","126819","2787","91913","186056","182853","186819","17047","186056","NA","Sternberg task ","21","21093.0","27","1024"
"78","78","773","773","#3d3846","experiment","legacy","legacy","legacy","1","undefined","1","left","27","27","27","0","0","27","27","0","0","27","27","27","0","27","0","Tue Oct 17 03:29:23 2023","The main experiment item","True","Sternbergtask.osexp","C:\Users\kikip\OneDrive\Dokumente\QUANT HW","False","mono","False","18","no","white","no","yes","768","legacy","15","11","C:/Users/kikip/OneDrive/Dokumente/QUANT HW/LG-subject-4.csv","legacy","9 1 6 7 8","Melodramatic Milgram","4.0.5","1","y","0","left","right","right","left","NA","572.0","14258","5951","572","NA","2","legacy","5","1024","2","48000","-16","experiment","4","even","9","190102","180762","187898","2781","97865","187900","186826","2787","91913","192103","188901","192676","17047","192103","NA","Sternberg task ","22","21665.0","28","1024"
"79","79","770","770","#3d3846","experiment","legacy","legacy","legacy","1","undefined","1","right","28","28","28","0","0","28","28","0","0","28","28","28","0","28","0","Tue Oct 17 03:29:23 2023","The main experiment item","True","Sternbergtask.osexp","C:\Users\kikip\OneDrive\Dokumente\QUANT HW","False","mono","False","18","no","white","no","yes","768","legacy","16","11","C:/Users/kikip/OneDrive/Dokumente/QUANT HW/LG-subject-4.csv","legacy","4 1","Melodramatic Milgram","4.0.5","0","n","0","right","right","right","right","NA","666.0","14258","5951","666","NA","2","legacy","2","1024","2","48000","-16","experiment","4","even","6","195958","192684","193753","2781","97865","193755","186826","2787","91913","197959","194756","198626","17047","197959","NA","Sternberg task ","23","22331.0","29","1024"
"80","80","760","760","#3d3846","experiment","legacy","legacy","legacy","1","undefined","1","left","29","29","29","0","0","29","29","0","0","29","29","29","0","29","0","Tue Oct 17 03:29:23 2023","The main experiment item","True","Sternbergtask.osexp","C:\Users\kikip\OneDrive\Dokumente\QUANT HW","False","mono","False","18","no","white","no","yes","768","legacy","17","11","C:/Users/kikip/OneDrive/Dokumente/QUANT HW/LG-subject-4.csv","legacy","3 5 4 7","Melodramatic Milgram","4.0.5","1","y","0","left","right","right","left","NA","469.0","14258","5951","469","NA","2","legacy","4","1024","2","48000","-16","experiment","4","even","3","201912","198631","199707","2781","97865","199709","186826","2787","91913","203913","200711","204383","17047","203913","NA","Sternberg task ","24","22800.0","30","1024"
"80","80","756","756","#3d3846","experiment","legacy","legacy","legacy","1","undefined","1","left","30","30","30","0","0","30","30","0","0","30","30","30","0","30","0","Tue Oct 17 03:29:23 2023","The main experiment item","True","Sternbergtask.osexp","C:\Users\kikip\OneDrive\Dokumente\QUANT HW","False","mono","False","18","no","white","no","yes","768","legacy","18","11","C:/Users/kikip/OneDrive/Dokumente/QUANT HW/LG-subject-4.csv","legacy","6 5","Melodramatic Milgram","4.0.5","2","y","0","left","right","right","left","NA","644.0","14258","5951","644","NA","2","legacy","2","1024","2","48000","-16","experiment","4","even","5","207677","204388","205472","2781","97865","205475","186826","2787","91913","209678","206476","210323","17047","209678","NA","Sternberg task ","25","23444.0","31","1024"
"81","81","760","760","#3d3846","experiment","legacy","legacy","legacy","1","undefined","1","right","31","31","31","0","0","31","31","0","0","31","31","31","0","31","0","Tue Oct 17 03:29:23 2023","The main experiment item","True","Sternbergtask.osexp","C:\Users\kikip\OneDrive\Dokumente\QUANT HW","False","mono","False","18","no","white","no","yes","768","legacy","19","11","C:/Users/kikip/OneDrive/Dokumente/QUANT HW/LG-subject-4.csv","legacy","4 8 1 2","Melodramatic Milgram","4.0.5","0","n","0","right","right","right","right","NA","879.0","14258","5951","879","NA","2","legacy","4","1024","2","48000","-16","experiment","4","even","7","213626","210331","211422","2781","97865","211424","186826","2787","91913","215627","212425","216507","17047","215627","NA","Sternberg task ","26","24323.0","32","1024"
"81","81","773","773","#3d3846","experiment","legacy","legacy","legacy","1","undefined","1","right","32","32","32","0","0","32","32","0","0","32","32","32","0","32","0","Tue Oct 17 03:29:23 2023","The main experiment item","True","Sternbergtask.osexp","C:\Users\kikip\OneDrive\Dokumente\QUANT HW","False","mono","False","18","no","white","no","yes","768","legacy","20","11","C:/Users/kikip/OneDrive/Dokumente/QUANT HW/LG-subject-4.csv","legacy","5 7 3","Melodramatic Milgram","4.0.5","0","n","0","right","right","right","right","NA","1188.0","14258","5951","1188","NA","2","legacy","3","1024","2","48000","-16","experiment","4","even","9","219798","216511","217594","2781","97865","217596","186826","2787","91913","221800","218597","222989","17047","221800","NA","Sternberg task ","27","25511.0","33","1024"
"82","82","772","772","#3d3846","experiment","legacy","legacy","legacy","1","undefined","1","right","33","33","33","0","0","33","33","0","0","33","33","33","0","33","0","Tue Oct 17 03:29:23 2023","The main experiment item","True","Sternbergtask.osexp","C:\Users\kikip\OneDrive\Dokumente\QUANT HW","False","mono","False","18","no","white","no","yes","768","legacy","21","11","C:/Users/kikip/OneDrive/Dokumente/QUANT HW/LG-subject-4.csv","legacy","8 5 4 2 9 6","Melodramatic Milgram","4.0.5","0","n","0","right","right","right","right","NA","751.0","14258","5951","751","NA","2","legacy","6","1024","2","48000","-16","experiment","4","even","3","226276","222997","224070","2781","97865","224073","186826","2787","91913","228277","225074","229029","17047","228277","NA","Sternberg task ","28","26262.0","34","1024"
"82","82","767","767","#3d3846","experiment","legacy","legacy","legacy","1","undefined","1","left","34","34","34","0","0","34","34","0","0","34","34","34","0","34","0","Tue Oct 17 03:29:23 2023","The main experiment item","True","Sternbergtask.osexp","C:\Users\kikip\OneDrive\Dokumente\QUANT HW","False","mono","False","18","no","white","no","yes","768","legacy","22","11","C:/Users/kikip/OneDrive/Dokumente/QUANT HW/LG-subject-4.csv","legacy","2 3 7 4","Melodramatic Milgram","4.0.5","1","y","0","left","right","right","left","NA","605.0","14258","5951","605","NA","2","legacy","4","1024","2","48000","-16","experiment","4","even","2","232321","229033","230115","2781","97865","230117","186826","2787","91913","234322","231119","234928","17047","234322","NA","Sternberg task ","29","26867.0","35","1024"
"83","83","764","764","#3d3846","experiment","legacy","legacy","legacy","1","undefined","1","right","35","35","35","0","0","35","35","0","0","35","35","35","0","35","0","Tue Oct 17 03:29:23 2023","The main experiment item","True","Sternbergtask.osexp","C:\Users\kikip\OneDrive\Dokumente\QUANT HW","False","mono","False","18","no","white","no","yes","768","legacy","23","11","C:/Users/kikip/OneDrive/Dokumente/QUANT HW/LG-subject-4.csv","legacy","7 1 5 6 3","Melodramatic Milgram","4.0.5","0","n","0","right","right","right","right","NA","660.0","14258","5951","660","NA","2","legacy","5","1024","2","48000","-16","experiment","4","even","8","238214","234935","236010","2781","97865","236012","186826","2787","91913","240216","237013","240877","17047","240216","NA","Sternberg task ","30","27527.0","36","1024"
"83","83","759","759","#3d3846","experiment","legacy","legacy","legacy","1","undefined","1","left","36","36","36","0","0","36","36","0","0","36","36","36","0","36","0","Tue Oct 17 03:29:23 2023","The main experiment item","True","Sternbergtask.osexp","C:\Users\kikip\OneDrive\Dokumente\QUANT HW","False","mono","False","18","no","white","no","yes","768","legacy","24","11","C:/Users/kikip/OneDrive/Dokumente/QUANT HW/LG-subject-4.csv","legacy","4 1 8 7 5","Melodramatic Milgram","4.0.5","3","y","0","left","right","right","left","NA","587.0","14258","5951","587","NA","2","legacy","5","1024","2","48000","-16","experiment","4","even","8","244175","240881","241970","2781","97865","241972","186826","2787","91913","246176","242973","246764","17047","246176","NA","Sternberg task ","31","28114.0","37","1024"
"84","84","758","758","#3d3846","experiment","legacy","legacy","legacy","1","undefined","1","right","37","37","37","0","0","37","37","0","0","37","37","37","0","37","0","Tue Oct 17 03:29:23 2023","The main experiment item","True","Sternbergtask.osexp","C:\Users\kikip\OneDrive\Dokumente\QUANT HW","False","mono","False","18","no","white","no","yes","768","legacy","25","11","C:/Users/kikip/OneDrive/Dokumente/QUANT HW/LG-subject-4.csv","legacy","9 7 4 5 8","Melodramatic Milgram","4.0.5","0","n","0","right","right","right","right","NA","702.0","14258","5951","702","NA","2","legacy","5","1024","2","48000","-16","experiment","4","even","6","250056","246772","247851","2781","97865","247853","186826","2787","91913","252058","248855","252762","17047","252058","NA","Sternberg task ","32","28816.0","38","1024"
"84","84","759","759","#3d3846","experiment","legacy","legacy","legacy","1","undefined","1","right","38","38","38","0","0","38","38","0","0","38","38","38","0","38","0","Tue Oct 17 03:29:23 2023","The main experiment item","True","Sternbergtask.osexp","C:\Users\kikip\OneDrive\Dokumente\QUANT HW","False","mono","False","18","no","white","no","yes","768","legacy","26","11","C:/Users/kikip/OneDrive/Dokumente/QUANT HW/LG-subject-4.csv","legacy","9 5 3 2 8 6","Melodramatic Milgram","4.0.5","0","n","0","right","right","right","right","NA","812.0","14258","5951","812","NA","2","legacy","6","1024","2","48000","-16","experiment","4","even","7","256063","252770","253859","2781","97865","253861","186826","2787","91913","258064","254862","258877","17047","258064","NA","Sternberg task ","33","29628.0","39","1024"
"85","85","759","759","#3d3846","experiment","legacy","legacy","legacy","1","undefined","1","left","39","39","39","0","0","39","39","0","0","39","39","39","0","39","0","Tue Oct 17 03:29:23 2023","The main experiment item","True","Sternbergtask.osexp","C:\Users\kikip\OneDrive\Dokumente\QUANT HW","False","mono","False","18","no","white","no","yes","768","legacy","27","11","C:/Users/kikip/OneDrive/Dokumente/QUANT HW/LG-subject-4.csv","legacy","3 5 7 1","Melodramatic Milgram","4.0.5","3","y","0","left","right","right","left","NA","748.0","14258","5951","748","NA","2","legacy","4","1024","2","48000","-16","experiment","4","even","7","262161","258882","259957","2781","97865","259959","186826","2787","91913","264163","260960","264912","17047","264163","NA","Sternberg task ","34","30376.0","40","1024"
"85","85","755","755","#3d3846","experiment","legacy","legacy","legacy","1","undefined","1","left","40","40","40","0","0","40","40","0","0","40","40","40","0","40","0","Tue Oct 17 03:29:23 2023","The main experiment item","True","Sternbergtask.osexp","C:\Users\kikip\OneDrive\Dokumente\QUANT HW","False","mono","False","18","no","white","no","yes","768","legacy","28","11","C:/Users/kikip/OneDrive/Dokumente/QUANT HW/LG-subject-4.csv","legacy","9 6 2 4 1","Melodramatic Milgram","4.0.5","4","y","0","left","right","right","left","NA","602.0","14258","5951","602","NA","2","legacy","5","1024","2","48000","-16","experiment","4","even","4","268196","264920","265991","2781","97865","265994","186826","2787","91913","270197","266995","270800","17047","270197","NA","Sternberg task ","35","30978.0","41","1024"
"83","83","764","764","#3d3846","experiment","legacy","legacy","legacy","0","undefined","0","left","41","41","41","0","0","41","41","0","0","41","41","41","0","41","0","Tue Oct 17 03:29:23 2023","The main experiment item","True","Sternbergtask.osexp","C:\Users\kikip\OneDrive\Dokumente\QUANT HW","False","mono","False","18","no","white","no","yes","768","legacy","29","11","C:/Users/kikip/OneDrive/Dokumente/QUANT HW/LG-subject-4.csv","legacy","6 9 3 1","Melodramatic Milgram","4.0.5","4","y","0","right","right","right","right","NA","1144.0","14258","5951","1144","NA","2","legacy","4","1024","2","48000","-16","experiment","4","even","1","274086","270805","271881","2781","97865","271883","186826","2787","91913","276089","272885","277234","17047","276088","NA","Sternberg task ","35","32122.0","42","1024"
"83","83","766","766","#3d3846","experiment","legacy","legacy","legacy","1","undefined","1","left","42","42","42","0","0","42","42","0","0","42","42","42","0","42","0","Tue Oct 17 03:29:23 2023","The main experiment item","True","Sternbergtask.osexp","C:\Users\kikip\OneDrive\Dokumente\QUANT HW","False","mono","False","18","no","white","no","yes","768","legacy","30","11","C:/Users/kikip/OneDrive/Dokumente/QUANT HW/LG-subject-4.csv","legacy","9 4 2","Melodramatic Milgram","4.0.5","1","y","0","left","right","right","left","NA","851.0","14258","5951","851","NA","2","legacy","3","1024","2","48000","-16","experiment","4","even","9","280520","270805","278316","2781","97865","278318","277242","2787","91913","282521","279319","283373","17047","282521","NA","Sternberg task ","36","32973.0","43","1024"
"84","84","771","771","#3d3846","experiment","legacy","legacy","legacy","1","undefined","1","right","43","43","43","0","0","43","43","0","0","43","43","43","0","43","0","Tue Oct 17 03:29:23 2023","The main experiment item","True","Sternbergtask.osexp","C:\Users\kikip\OneDrive\Dokumente\QUANT HW","False","mono","False","18","no","white","no","yes","768","legacy","31","11","C:/Users/kikip/OneDrive/Dokumente/QUANT HW/LG-subject-4.csv","legacy","3 4 2","Melodramatic Milgram","4.0.5","0","n","0","right","right","right","right","NA","989.0","14258","5951","989","NA","2","legacy","3","1024","2","48000","-16","experiment","4","even","5","286660","283378","284456","2781","97865","284458","277242","2787","91913","288662","285459","289653","17047","288662","NA","Sternberg task ","37","33962.0","44","1024"
"84","84","780","780","#3d3846","experiment","legacy","legacy","legacy","1","undefined","1","right","44","44","44","0","0","44","44","0","0","44","44","44","0","44","0","Tue Oct 17 03:29:23 2023","The main experiment item","True","Sternbergtask.osexp","C:\Users\kikip\OneDrive\Dokumente\QUANT HW","False","mono","False","18","no","white","no","yes","768","legacy","32","11","C:/Users/kikip/OneDrive/Dokumente/QUANT HW/LG-subject-4.csv","legacy","7 9 1 6","Melodramatic Milgram","4.0.5","0","n","0","right","right","right","right","NA","1141.0","14258","5951","1141","NA","2","legacy","4","1024","2","48000","-16","experiment","4","even","4","292939","289661","290735","2781","97865","290737","277242","2787","91913","294940","291738","296082","17047","294940","NA","Sternberg task ","38","35103.0","45","1024"
"84","84","773","773","#3d3846","experiment","legacy","legacy","legacy","1","undefined","1","left","45","45","45","0","0","45","45","0","0","45","45","45","0","45","0","Tue Oct 17 03:29:23 2023","The main experiment item","True","Sternbergtask.osexp","C:\Users\kikip\OneDrive\Dokumente\QUANT HW","False","mono","False","18","no","white","no","yes","768","legacy","33","11","C:/Users/kikip/OneDrive/Dokumente/QUANT HW/LG-subject-4.csv","legacy","6 2","Melodramatic Milgram","4.0.5","1","y","0","left","right","right","left","NA","491.0","14258","5951","491","NA","2","legacy","2","1024","2","48000","-16","experiment","4","even","6","299373","296090","297168","2781","97865","297170","277242","2787","91913","301374","298171","301867","17047","301374","NA","Sternberg task ","39","35594.0","46","1024"
"85","85","774","774","#3d3846","experiment","legacy","legacy","legacy","1","undefined","1","right","46","46","46","0","0","46","46","0","0","46","46","46","0","46","0","Tue Oct 17 03:29:23 2023","The main experiment item","True","Sternbergtask.osexp","C:\Users\kikip\OneDrive\Dokumente\QUANT HW","False","mono","False","18","no","white","no","yes","768","legacy","34","11","C:/Users/kikip/OneDrive/Dokumente/QUANT HW/LG-subject-4.csv","legacy","7 1 8 4 9 3","Melodramatic Milgram","4.0.5","0","n","0","right","right","right","right","NA","785.0","14258","5951","785","NA","2","legacy","6","1024","2","48000","-16","experiment","4","even","6","305170","301874","302965","2781","97865","302968","277242","2787","91913","307171","303969","307957","17047","307171","NA","Sternberg task ","40","36379.0","47","1024"
"85","85","769","769","#3d3846","experiment","legacy","legacy","legacy","1","undefined","1","right","47","47","47","0","0","47","47","0","0","47","47","47","0","47","0","Tue Oct 17 03:29:23 2023","The main experiment item","True","Sternbergtask.osexp","C:\Users\kikip\OneDrive\Dokumente\QUANT HW","False","mono","False","18","no","white","no","yes","768","legacy","35","11","C:/Users/kikip/OneDrive/Dokumente/QUANT HW/LG-subject-4.csv","legacy","2 8 9 4 1","Melodramatic Milgram","4.0.5","0","n","0","right","right","right","right","NA","573.0","14258","5951","573","NA","2","legacy","5","1024","2","48000","-16","experiment","4","even","5","311240","307962","309036","2781","97865","309038","277242","2787","91913","313242","310039","313817","17047","313242","NA","Sternberg task ","41","36952.0","48","1024"
"85","85","768","768","#3d3846","experiment","legacy","legacy","legacy","1","undefined","1","left","48","48","48","0","0","48","48","0","0","48","48","48","0","48","0","Tue Oct 17 03:29:23 2023","The main experiment item","True","Sternbergtask.osexp","C:\Users\kikip\OneDrive\Dokumente\QUANT HW","False","mono","False","18","no","white","no","yes","768","legacy","36","11","C:/Users/kikip/OneDrive/Dokumente/QUANT HW/LG-subject-4.csv","legacy","7 6","Melodramatic Milgram","4.0.5","2","y","0","left","right","right","left","NA","702.0","14258","5951","702","NA","2","legacy","2","1024","2","48000","-16","experiment","4","even","6","317095","313821","314890","2781","97865","314892","277242","2787","91913","319096","315894","319800","17047","319096","NA","Sternberg task ","42","37654.0","49","1024"
"86","86","766","766","#3d3846","experiment","legacy","legacy","legacy","1","undefined","1","left","49","49","49","0","0","49","49","0","0","49","49","49","0","49","0","Tue Oct 17 03:29:23 2023","The main experiment item","True","Sternbergtask.osexp","C:\Users\kikip\OneDrive\Dokumente\QUANT HW","False","mono","False","18","no","white","no","yes","768","legacy","37","11","C:/Users/kikip/OneDrive/Dokumente/QUANT HW/LG-subject-4.csv","legacy","4 1 5","Melodramatic Milgram","4.0.5","2","y","0","left","right","right","left","NA","649.0","14258","5951","649","NA","2","legacy","3","1024","2","48000","-16","experiment","4","even","1","323086","319808","320881","2781","97865","320884","277242","2787","91913","325089","321885","325739","17047","325089","NA","Sternberg task ","43","38303.0","50","1024"
"86","86","761","761","#3d3846","experiment","legacy","legacy","legacy","1","undefined","1","left","50","50","50","0","0","50","50","0","0","50","50","50","0","50","0","Tue Oct 17 03:29:23 2023","The main experiment item","True","Sternbergtask.osexp","C:\Users\kikip\OneDrive\Dokumente\QUANT HW","False","mono","False","18","no","white","no","yes","768","legacy","38","11","C:/Users/kikip/OneDrive/Dokumente/QUANT HW/LG-subject-4.csv","legacy","7 4 2 6 3 5","Melodramatic Milgram","4.0.5","6","y","0","left","right","right","left","NA","526.0","14258","5951","526","NA","2","legacy","6","1024","2","48000","-16","experiment","4","even","5","329025","325744","326820","2781","97865","326822","277242","2787","91913","331026","327823","331553","17047","331026","NA","Sternberg task ","44","38829.0","51","1024"
"86","86","756","756","#3d3846","experiment","legacy","legacy","legacy","1","undefined","1","left","51","51","51","0","0","51","51","0","0","51","51","51","0","51","0","Tue Oct 17 03:29:23 2023","The main experiment item","True","Sternbergtask.osexp","C:\Users\kikip\OneDrive\Dokumente\QUANT HW","False","mono","False","18","no","white","no","yes","768","legacy","39","11","C:/Users/kikip/OneDrive/Dokumente/QUANT HW/LG-subject-4.csv","legacy","1 4 9 3 2 5","Melodramatic Milgram","4.0.5","3","y","0","left","right","right","left","NA","532.0","14258","5951","532","NA","2","legacy","6","1024","2","48000","-16","experiment","4","even","9","334850","331561","332646","2781","97865","332648","277242","2787","91913","336851","333649","337384","17047","336851","NA","Sternberg task ","45","39361.0","52","1024"
"86","86","756","756","#3d3846","experiment","legacy","legacy","legacy","1","undefined","1","right","52","52","52","0","0","52","52","0","0","52","52","52","0","52","0","Tue Oct 17 03:29:23 2023","The main experiment item","True","Sternbergtask.osexp","C:\Users\kikip\OneDrive\Dokumente\QUANT HW","False","mono","False","18","no","white","no","yes","768","legacy","40","11","C:/Users/kikip/OneDrive/Dokumente/QUANT HW/LG-subject-4.csv","legacy","6 9 4 5 2","Melodramatic Milgram","4.0.5","0","n","0","right","right","right","right","NA","710.0","14258","5951","710","NA","2","legacy","5","1024","2","48000","-16","experiment","4","even","1","340670","337391","338466","2781","97865","338468","277242","2787","91913","342671","339469","343382","17047","342671","NA","Sternberg task ","46","40071.0","53","1024"
"87","87","754","754","#3d3846","experiment","legacy","legacy","legacy","1","undefined","1","left","53","53","53","0","0","53","53","0","0","53","53","53","0","53","0","Tue Oct 17 03:29:23 2023","The main experiment item","True","Sternbergtask.osexp","C:\Users\kikip\OneDrive\Dokumente\QUANT HW","False","mono","False","18","no","white","no","yes","768","legacy","41","11","C:/Users/kikip/OneDrive/Dokumente/QUANT HW/LG-subject-4.csv","legacy","6 7 9 3 1 2","Melodramatic Milgram","4.0.5","1","y","0","left","right","right","left","NA","677.0","14258","5951","677","NA","2","legacy","6","1024","2","48000","-16","experiment","4","even","6","346684","343386","344480","2781","97865","344482","277242","2787","91913","348685","345483","349363","17047","348685","NA","Sternberg task ","47","40748.0","54","1024"
"87","87","752","752","#3d3846","experiment","legacy","legacy","legacy","1","undefined","1","right","54","54","54","0","0","54","54","0","0","54","54","54","0","54","0","Tue Oct 17 03:29:23 2023","The main experiment item","True","Sternbergtask.osexp","C:\Users\kikip\OneDrive\Dokumente\QUANT HW","False","mono","False","18","no","white","no","yes","768","legacy","42","11","C:/Users/kikip/OneDrive/Dokumente/QUANT HW/LG-subject-4.csv","legacy","4 2 7 6 1 3","Melodramatic Milgram","4.0.5","0","n","0","right","right","right","right","NA","631.0","14258","5951","631","NA","2","legacy","6","1024","2","48000","-16","experiment","4","even","8","352644","349367","350439","2781","97865","350441","277242","2787","91913","354647","351443","355280","17047","354647","NA","Sternberg task ","48","41379.0","55","1024"
"87","87","750","750","#3d3846","experiment","legacy","legacy","legacy","1","undefined","1","left","55","55","55","0","0","55","55","0","0","55","55","55","0","55","0","Tue Oct 17 03:29:23 2023","The main experiment item","True","Sternbergtask.osexp","C:\Users\kikip\OneDrive\Dokumente\QUANT HW","False","mono","False","18","no","white","no","yes","768","legacy","43","11","C:/Users/kikip/OneDrive/Dokumente/QUANT HW/LG-subject-4.csv","legacy","8 5 1 3 9","Melodramatic Milgram","4.0.5","4","y","0","left","right","right","left","NA","621.0","14258","5951","621","NA","2","legacy","5","1024","2","48000","-16","experiment","4","even","3","358567","355284","356362","2781","97865","356364","277242","2787","91913","360568","357366","361191","17047","360568","NA","Sternberg task ","49","42000.0","56","1024"
"85","85","747","747","#3d3846","experiment","legacy","legacy","legacy","0","undefined","0","right","56","56","56","0","0","56","56","0","0","56","56","56","0","56","0","Tue Oct 17 03:29:23 2023","The main experiment item","True","Sternbergtask.osexp","C:\Users\kikip\OneDrive\Dokumente\QUANT HW","False","mono","False","18","no","white","no","yes","768","legacy","44","11","C:/Users/kikip/OneDrive/Dokumente/QUANT HW/LG-subject-4.csv","legacy","5 3 2 6 9 8","Melodramatic Milgram","4.0.5","0","n","0","left","right","right","left","NA","610.0","14258","5951","610","NA","2","legacy","6","1024","2","48000","-16","experiment","4","even","4","364484","361195","362278","2781","97865","362281","277242","2787","91913","366485","363282","367096","17047","366485","NA","Sternberg task ","49","42610.0","57","1024"
"86","86","763","763","#3d3846","experiment","legacy","legacy","legacy","1","undefined","1","left","57","57","57","0","0","57","57","0","0","57","57","57","0","57","0","Tue Oct 17 03:29:23 2023","The main experiment item","True","Sternbergtask.osexp","C:\Users\kikip\OneDrive\Dokumente\QUANT HW","False","mono","False","18","no","white","no","yes","768","legacy","45","11","C:/Users/kikip/OneDrive/Dokumente/QUANT HW/LG-subject-4.csv","legacy","8 9 5 6 7","Melodramatic Milgram","4.0.5","1","y","0","left","right","right","left","NA","1670.0","14258","5951","1670","NA","2","legacy","5","1024","2","48000","-16","experiment","4","even","8","370377","361195","368172","2781","97865","368175","367104","2787","91913","372378","369176","374050","17047","372378","NA","Sternberg task ","50","44280.0","58","1024"
"84","84","762","762","#3d3846","experiment","legacy","legacy","legacy","0","undefined","0","right","58","58","58","0","0","58","58","0","0","58","58","58","0","58","0","Tue Oct 17 03:29:23 2023","The main experiment item","True","Sternbergtask.osexp","C:\Users\kikip\OneDrive\Dokumente\QUANT HW","False","mono","False","18","no","white","no","yes","768","legacy","46","11","C:/Users/kikip/OneDrive/Dokumente/QUANT HW/LG-subject-4.csv","legacy","1 7 5 2","Melodramatic Milgram","4.0.5","0","n","0","left","right","right","left","NA","689.0","14258","5951","689","NA","2","legacy","4","1024","2","48000","-16","experiment","4","even","3","377332","374054","375127","2781","97865","375130","367104","2787","91913","379334","376131","380024","17047","379334","NA","Sternberg task ","50","44969.0","59","1024"
"85","85","765","765","#3d3846","experiment","legacy","legacy","legacy","1","undefined","1","left","59","59","59","0","0","59","59","0","0","59","59","59","0","59","0","Tue Oct 17 03:29:23 2023","The main experiment item","True","Sternbergtask.osexp","C:\Users\kikip\OneDrive\Dokumente\QUANT HW","False","mono","False","18","no","white","no","yes","768","legacy","47","11","C:/Users/kikip/OneDrive/Dokumente/QUANT HW/LG-subject-4.csv","legacy","5 7 8 2 3 8","Melodramatic Milgram","4.0.5","5","y","0","left","right","right","left","NA","946.0","14258","5951","946","NA","2","legacy","6","1024","2","48000","-16","experiment","4","even","3","383305","374054","381100","2781","97865","381103","380028","2787","91913","385306","382104","386254","17047","385306","NA","Sternberg task ","51","45915.0","60","1024"
"83","83","785","785","#3d3846","experiment","legacy","legacy","legacy","0","undefined","0","left","60","60","60","0","0","60","60","0","0","60","60","60","0","60","0","Tue Oct 17 03:29:23 2023","The main experiment item","True","Sternbergtask.osexp","C:\Users\kikip\OneDrive\Dokumente\QUANT HW","False","mono","False","18","no","white","no","yes","768","legacy","48","11","C:/Users/kikip/OneDrive/Dokumente/QUANT HW/LG-subject-4.csv","legacy","8 9 5 7 1 6","Melodramatic Milgram","4.0.5","4","y","0","None","right","right","None","NA","2000.0","14258","5951","2000","NA","2","legacy","6","1024","2","48000","-16","experiment","4","even","7","389541","386261","387337","2781","97865","387339","380028","2787","91913","391543","388340","393544","17047","391543","NA","Sternberg task ","51","47915.0","61","1024"
"83","83","781","781","#3d3846","experiment","legacy","legacy","legacy","1","undefined","1","left","61","61","61","0","0","61","61","0","0","61","61","61","0","61","0","Tue Oct 17 03:29:23 2023","The main experiment item","True","Sternbergtask.osexp","C:\Users\kikip\OneDrive\Dokumente\QUANT HW","False","mono","False","18","no","white","no","yes","768","legacy","49","11","C:/Users/kikip/OneDrive/Dokumente/QUANT HW/LG-subject-4.csv","legacy","9 5 3 8 4","Melodramatic Milgram","4.0.5","1","y","0","left","right","right","left","NA","526.0","14258","5951","526","NA","2","legacy","5","1024","2","48000","-16","experiment","4","even","9","396843","386261","394639","2781","97865","394641","393548","2787","91913","398845","395642","399373","17047","398845","NA","Sternberg task ","52","48441.0","62","1024"
"84","84","778","778","#3d3846","experiment","legacy","legacy","legacy","1","undefined","1","left","62","62","62","0","0","62","62","0","0","62","62","62","0","62","0","Tue Oct 17 03:29:23 2023","The main experiment item","True","Sternbergtask.osexp","C:\Users\kikip\OneDrive\Dokumente\QUANT HW","False","mono","False","18","no","white","no","yes","768","legacy","50","11","C:/Users/kikip/OneDrive/Dokumente/QUANT HW/LG-subject-4.csv","legacy","3 4 9 6 2 9","Melodramatic Milgram","4.0.5","5","y","0","left","right","right","left","NA","605.0","14258","5951","605","NA","2","legacy","6","1024","2","48000","-16","experiment","4","even","2","402655","399377","400450","2781","97865","400452","393548","2787","91913","404656","401454","405262","17047","404656","NA","Sternberg task ","53","49046.0","63","1024"
"84","84","772","772","#3d3846","experiment","legacy","legacy","legacy","1","undefined","1","left","63","63","63","0","0","63","63","0","0","63","63","63","0","63","0","Tue Oct 17 03:29:23 2023","The main experiment item","True","Sternbergtask.osexp","C:\Users\kikip\OneDrive\Dokumente\QUANT HW","False","mono","False","18","no","white","no","yes","768","legacy","51","11","C:/Users/kikip/OneDrive/Dokumente/QUANT HW/LG-subject-4.csv","legacy","8","Melodramatic Milgram","4.0.5","1","y","0","left","right","right","left","NA","363.0","14258","5951","363","NA","2","legacy","1","1024","2","48000","-16","experiment","4","even","8","408560","405270","406354","2781","97865","406357","393548","2787","91913","410563","407358","410928","17047","410562","NA","Sternberg task ","54","49409.0","64","1024"
"84","84","782","782","#3d3846","experiment","legacy","legacy","legacy","1","undefined","1","right","64","64","64","0","0","64","64","0","0","64","64","64","0","64","0","Tue Oct 17 03:29:23 2023","The main experiment item","True","Sternbergtask.osexp","C:\Users\kikip\OneDrive\Dokumente\QUANT HW","False","mono","False","18","no","white","no","yes","768","legacy","52","11","C:/Users/kikip/OneDrive/Dokumente/QUANT HW/LG-subject-4.csv","legacy","6 7 5 9","Melodramatic Milgram","4.0.5","0","n","0","right","right","right","right","NA","1430.0","14258","5951","1430","NA","2","legacy","4","1024","2","48000","-16","experiment","4","even","2","414219","410935","412015","2781","97865","412017","393548","2787","91913","416221","413018","417653","17047","416220","NA","Sternberg task ","55","50839.0","65","1024"
"84","84","782","782","#3d3846","experiment","legacy","legacy","legacy","1","undefined","1","right","65","65","65","0","0","65","65","0","0","65","65","65","0","65","0","Tue Oct 17 03:29:23 2023","The main experiment item","True","Sternbergtask.osexp","C:\Users\kikip\OneDrive\Dokumente\QUANT HW","False","mono","False","18","no","white","no","yes","768","legacy","53","11","C:/Users/kikip/OneDrive/Dokumente/QUANT HW/LG-subject-4.csv","legacy","8 6 3 4 7","Melodramatic Milgram","4.0.5","0","n","0","right","right","right","right","NA","806.0","14258","5951","806","NA","2","legacy","5","1024","2","48000","-16","experiment","4","even","1","420952","417661","418747","2781","97865","418750","393548","2787","91913","422954","419751","423762","17047","422954","NA","Sternberg task ","56","51645.0","66","1024"
"85","85","780","780","#3d3846","experiment","legacy","legacy","legacy","1","undefined","1","left","66","66","66","0","0","66","66","0","0","66","66","66","0","66","0","Tue Oct 17 03:29:23 2023","The main experiment item","True","Sternbergtask.osexp","C:\Users\kikip\OneDrive\Dokumente\QUANT HW","False","mono","False","18","no","white","no","yes","768","legacy","54","11","C:/Users/kikip/OneDrive/Dokumente/QUANT HW/LG-subject-4.csv","legacy","4 6 5 8","Melodramatic Milgram","4.0.5","1","y","0","left","right","right","left","NA","642.0","14258","5951","642","NA","2","legacy","4","1024","2","48000","-16","experiment","4","even","4","427046","423766","424841","2781","97865","424843","393548","2787","91913","429047","425844","429690","17047","429047","NA","Sternberg task ","57","52287.0","67","1024"
"85","85","778","778","#3d3846","experiment","legacy","legacy","legacy","1","undefined","1","left","67","67","67","0","0","67","67","0","0","67","67","67","0","67","0","Tue Oct 17 03:29:23 2023","The main experiment item","True","Sternbergtask.osexp","C:\Users\kikip\OneDrive\Dokumente\QUANT HW","False","mono","False","18","no","white","no","yes","768","legacy","55","11","C:/Users/kikip/OneDrive/Dokumente/QUANT HW/LG-subject-4.csv","legacy","8 9 6 1","Melodramatic Milgram","4.0.5","2","y","0","left","right","right","left","NA","632.0","14258","5951","632","NA","2","legacy","4","1024","2","48000","-16","experiment","4","even","9","433009","429698","430805","2781","97865","430807","393548","2787","91913","435011","431808","435645","17047","435011","NA","Sternberg task ","58","52919.0","68","1024"
"85","85","778","778","#3d3846","experiment","legacy","legacy","legacy","1","undefined","1","right","68","68","68","0","0","68","68","0","0","68","68","68","0","68","0","Tue Oct 17 03:29:23 2023","The main experiment item","True","Sternbergtask.osexp","C:\Users\kikip\OneDrive\Dokumente\QUANT HW","False","mono","False","18","no","white","no","yes","768","legacy","56","11","C:/Users/kikip/OneDrive/Dokumente/QUANT HW/LG-subject-4.csv","legacy","7 9","Melodramatic Milgram","4.0.5","0","n","0","right","right","right","right","NA","786.0","14258","5951","786","NA","2","legacy","2","1024","2","48000","-16","experiment","4","even","1","438966","435653","436762","2781","97865","436764","393548","2787","91913","440967","437765","441755","17047","440967","NA","Sternberg task ","59","53705.0","69","1024"
"85","85","774","774","#3d3846","experiment","legacy","legacy","legacy","1","undefined","1","left","69","69","69","0","0","69","69","0","0","69","69","69","0","69","0","Tue Oct 17 03:29:23 2023","The main experiment item","True","Sternbergtask.osexp","C:\Users\kikip\OneDrive\Dokumente\QUANT HW","False","mono","False","18","no","white","no","yes","768","legacy","57","11","C:/Users/kikip/OneDrive/Dokumente/QUANT HW/LG-subject-4.csv","legacy","8 7 3","Melodramatic Milgram","4.0.5","1","y","0","left","right","right","left","NA","504.0","14258","5951","504","NA","2","legacy","3","1024","2","48000","-16","experiment","4","even","8","445038","441762","442834","2781","97865","442836","393548","2787","91913","447039","443837","447544","17047","447039","NA","Sternberg task ","60","54209.0","70","1024"
"85","85","772","772","#3d3846","experiment","legacy","legacy","legacy","1","undefined","1","left","70","70","70","0","0","70","70","0","0","70","70","70","0","70","0","Tue Oct 17 03:29:23 2023","The main experiment item","True","Sternbergtask.osexp","C:\Users\kikip\OneDrive\Dokumente\QUANT HW","False","mono","False","18","no","white","no","yes","768","legacy","58","11","C:/Users/kikip/OneDrive/Dokumente/QUANT HW/LG-subject-4.csv","legacy","5 2 9 6 1 7","Melodramatic Milgram","4.0.5","3","y","0","left","right","right","left","NA","614.0","14258","5951","614","NA","2","legacy","6","1024","2","48000","-16","experiment","4","even","9","450828","447549","448623","2781","97865","448625","393548","2787","91913","452830","449627","453445","17047","452830","NA","Sternberg task ","61","54823.0","71","1024"
"86","86","772","772","#3d3846","experiment","legacy","legacy","legacy","1","undefined","1","right","71","71","71","0","0","71","71","0","0","71","71","71","0","71","0","Tue Oct 17 03:29:23 2023","The main experiment item","True","Sternbergtask.osexp","C:\Users\kikip\OneDrive\Dokumente\QUANT HW","False","mono","False","18","no","white","no","yes","768","legacy","59","11","C:/Users/kikip/OneDrive/Dokumente/QUANT HW/LG-subject-4.csv","legacy","2 8 7 9 5 3","Melodramatic Milgram","4.0.5","0","n","0","right","right","right","right","NA","771.0","14258","5951","771","NA","2","legacy","6","1024","2","48000","-16","experiment","4","even","6","456730","453450","454524","2781","97865","454526","393548","2787","91913","458731","455529","459504","17047","458731","NA","Sternberg task ","62","55594.0","72","1024"
"86","86","770","770","#3d3846","experiment","legacy","legacy","legacy","1","undefined","1","right","72","72","72","0","0","72","72","0","0","72","72","72","0","72","0","Tue Oct 17 03:29:23 2023","The main experiment item","True","Sternbergtask.osexp","C:\Users\kikip\OneDrive\Dokumente\QUANT HW","False","mono","False","18","no","white","no","yes","768","legacy","60","11","C:/Users/kikip/OneDrive/Dokumente/QUANT HW/LG-subject-4.csv","legacy","9","Melodramatic Milgram","4.0.5","0","n","0","right","right","right","right","NA","621.0","14258","5951","621","NA","2","legacy","1","1024","2","48000","-16","experiment","4","even","6","462799","459508","460593","2781","97865","460595","393548","2787","91913","464801","461597","465424","17047","464800","NA","Sternberg task ","63","56215.0","73","1024"
"86","86","769","769","#3d3846","experiment","legacy","legacy","legacy","1","undefined","1","right","73","73","73","0","0","73","73","0","0","73","73","73","0","73","0","Tue Oct 17 03:29:23 2023","The main experiment item","True","Sternbergtask.osexp","C:\Users\kikip\OneDrive\Dokumente\QUANT HW","False","mono","False","18","no","white","no","yes","768","legacy","61","11","C:/Users/kikip/OneDrive/Dokumente/QUANT HW/LG-subject-4.csv","legacy","5 3 8 7 2 4","Melodramatic Milgram","4.0.5","0","n","0","right","right","right","right","NA","739.0","14258","5951","739","NA","2","legacy","6","1024","2","48000","-16","experiment","4","even","9","468710","465432","466505","2781","97865","466508","393548","2787","91913","470712","467509","471453","17047","470711","NA","Sternberg task ","64","56954.0","74","1024"
"86","86","768","768","#3d3846","experiment","legacy","legacy","legacy","1","undefined","1","right","74","74","74","0","0","74","74","0","0","74","74","74","0","74","0","Tue Oct 17 03:29:23 2023","The main experiment item","True","Sternbergtask.osexp","C:\Users\kikip\OneDrive\Dokumente\QUANT HW","False","mono","False","18","no","white","no","yes","768","legacy","62","11","C:/Users/kikip/OneDrive/Dokumente/QUANT HW/LG-subject-4.csv","legacy","6 3 1 7 9 8","Melodramatic Milgram","4.0.5","0","n","0","right","right","right","right","NA","647.0","14258","5951","647","NA","2","legacy","6","1024","2","48000","-16","experiment","4","even","4","474738","471458","472533","2781","97865","472536","393548","2787","91913","476739","473537","477388","17047","476739","NA","Sternberg task ","65","57601.0","75","1024"
"86","86","771","771","#3d3846","experiment","legacy","legacy","legacy","1","undefined","1","left","75","75","75","0","0","75","75","0","0","75","75","75","0","75","0","Tue Oct 17 03:29:23 2023","The main experiment item","True","Sternbergtask.osexp","C:\Users\kikip\OneDrive\Dokumente\QUANT HW","False","mono","False","18","no","white","no","yes","768","legacy","63","11","C:/Users/kikip/OneDrive/Dokumente/QUANT HW/LG-subject-4.csv","legacy","4 7 6 8 2 3","Melodramatic Milgram","4.0.5","6","y","0","left","right","right","left","NA","1061.0","14258","5951","1061","NA","2","legacy","6","1024","2","48000","-16","experiment","4","even","3","480682","477396","478477","2781","97865","478479","393548","2787","91913","482685","479481","483748","17047","482684","NA","Sternberg task ","66","58662.0","76","1024"
"87","87","779","779","#3d3846","experiment","legacy","legacy","legacy","1","undefined","1","right","76","76","76","0","0","76","76","0","0","76","76","76","0","76","0","Tue Oct 17 03:29:23 2023","The main experiment item","True","Sternbergtask.osexp","C:\Users\kikip\OneDrive\Dokumente\QUANT HW","False","mono","False","18","no","white","no","yes","768","legacy","64","11","C:/Users/kikip/OneDrive/Dokumente/QUANT HW/LG-subject-4.csv","legacy","2 7 5","Melodramatic Milgram","4.0.5","0","n","0","right","right","right","right","NA","1372.0","14258","5951","1372","NA","2","legacy","3","1024","2","48000","-16","experiment","4","even","8","487048","483752","484844","2781","97865","484846","393548","2787","91913","489049","485847","490423","17047","489049","NA","Sternberg task ","67","60034.0","77","1024"
"87","87","779","779","#3d3846","experiment","legacy","legacy","legacy","1","undefined","1","right","77","77","77","0","0","77","77","0","0","77","77","77","0","77","0","Tue Oct 17 03:29:23 2023","The main experiment item","True","Sternbergtask.osexp","C:\Users\kikip\OneDrive\Dokumente\QUANT HW","False","mono","False","18","no","white","no","yes","768","legacy","65","11","C:/Users/kikip/OneDrive/Dokumente/QUANT HW/LG-subject-4.csv","legacy","1 4 9 3","Melodramatic Milgram","4.0.5","0","n","0","right","right","right","right","NA","800.0","14258","5951","800","NA","2","legacy","4","1024","2","48000","-16","experiment","4","even","5","493704","490428","491499","2781","97865","491501","393548","2787","91913","495705","492503","496507","17047","495705","NA","Sternberg task ","68","60834.0","78","1024"
"87","87","777","777","#3d3846","experiment","legacy","legacy","legacy","1","undefined","1","right","78","78","78","0","0","78","78","0","0","78","78","78","0","78","0","Tue Oct 17 03:29:23 2023","The main experiment item","True","Sternbergtask.osexp","C:\Users\kikip\OneDrive\Dokumente\QUANT HW","False","mono","False","18","no","white","no","yes","768","legacy","66","11","C:/Users/kikip/OneDrive/Dokumente/QUANT HW/LG-subject-4.csv","legacy","9 8 2 7 4","Melodramatic Milgram","4.0.5","0","n","0","right","right","right","right","NA","615.0","14258","5951","615","NA","2","legacy","5","1024","2","48000","-16","experiment","4","even","5","499798","496514","497593","2781","97865","497595","393548","2787","91913","501799","498596","502416","17047","501799","NA","Sternberg task ","69","61449.0","79","1024"
"87","87","776","776","#3d3846","experiment","legacy","legacy","legacy","1","undefined","1","right","79","79","79","0","0","79","79","0","0","79","79","79","0","79","0","Tue Oct 17 03:29:23 2023","The main experiment item","True","Sternbergtask.osexp","C:\Users\kikip\OneDrive\Dokumente\QUANT HW","False","mono","False","18","no","white","no","yes","768","legacy","67","11","C:/Users/kikip/OneDrive/Dokumente/QUANT HW/LG-subject-4.csv","legacy","5 9 2 3","Melodramatic Milgram","4.0.5","0","n","0","right","right","right","right","NA","641.0","14258","5951","641","NA","2","legacy","4","1024","2","48000","-16","experiment","4","even","8","505698","502421","503494","2781","97865","503496","393548","2787","91913","507699","504497","508342","17047","507699","NA","Sternberg task ","70","62090.0","80","1024"
"87","87","773","773","#3d3846","experiment","legacy","legacy","legacy","1","undefined","1","right","80","80","80","0","0","80","80","0","0","80","80","80","0","80","0","Tue Oct 17 03:29:23 2023","The main experiment item","True","Sternbergtask.osexp","C:\Users\kikip\OneDrive\Dokumente\QUANT HW","False","mono","False","18","no","white","no","yes","768","legacy","68","11","C:/Users/kikip/OneDrive/Dokumente/QUANT HW/LG-subject-4.csv","legacy","1 4 3 6 5","Melodramatic Milgram","4.0.5","0","n","0","right","right","right","right","NA","534.0","14258","5951","534","NA","2","legacy","5","1024","2","48000","-16","experiment","4","even","8","511628","508347","509423","2781","97865","509426","393548","2787","91913","513629","510427","514165","17047","513629","NA","Sternberg task ","71","62624.0","81","1024"
"87","87","775","775","#3d3846","experiment","legacy","legacy","legacy","1","undefined","1","left","81","81","81","0","0","81","81","0","0","81","81","81","0","81","0","Tue Oct 17 03:29:23 2023","The main experiment item","True","Sternbergtask.osexp","C:\Users\kikip\OneDrive\Dokumente\QUANT HW","False","mono","False","18","no","white","no","yes","768","legacy","69","11","C:/Users/kikip/OneDrive/Dokumente/QUANT HW/LG-subject-4.csv","legacy","2 8 5 1","Melodramatic Milgram","4.0.5","4","y","0","left","right","right","left","NA","927.0","14258","5951","927","NA","2","legacy","4","1024","2","48000","-16","experiment","4","even","1","517454","514173","515249","2781","97865","515252","393548","2787","91913","519455","516253","520385","17047","519455","NA","Sternberg task ","72","63551.0","82","1024"
"87","87","774","774","#3d3846","experiment","legacy","legacy","legacy","1","undefined","1","right","82","82","82","0","0","82","82","0","0","82","82","82","0","82","0","Tue Oct 17 03:29:23 2023","The main experiment item","True","Sternbergtask.osexp","C:\Users\kikip\OneDrive\Dokumente\QUANT HW","False","mono","False","18","no","white","no","yes","768","legacy","70","11","C:/Users/kikip/OneDrive/Dokumente/QUANT HW/LG-subject-4.csv","legacy","1 6 4 3 9 7","Melodramatic Milgram","4.0.5","0","n","0","right","right","right","right","NA","767.0","14258","5951","767","NA","2","legacy","6","1024","2","48000","-16","experiment","4","even","8","523674","520390","521470","2781","97865","521472","393548","2787","91913","525675","522473","526444","17047","525675","NA","Sternberg task ","73","64318.0","83","1024"
"88","88","775","775","#3d3846","experiment","legacy","legacy","legacy","1","undefined","1","right","83","83","83","0","0","83","83","0","0","83","83","83","0","83","0","Tue Oct 17 03:29:23 2023","The main experiment item","True","Sternbergtask.osexp","C:\Users\kikip\OneDrive\Dokumente\QUANT HW","False","mono","False","18","no","white","no","yes","768","legacy","71","11","C:/Users/kikip/OneDrive/Dokumente/QUANT HW/LG-subject-4.csv","legacy","8 9","Melodramatic Milgram","4.0.5","0","n","0","right","right","right","right","NA","806.0","14258","5951","806","NA","2","legacy","2","1024","2","48000","-16","experiment","4","even","5","529755","526451","527551","2781","97865","527553","393548","2787","91913","531757","528554","532564","17047","531756","NA","Sternberg task ","74","65124.0","84","1024"
"88","88","776","776","#3d3846","experiment","legacy","legacy","legacy","1","undefined","1","right","84","84","84","0","0","84","84","0","0","84","84","84","0","84","0","Tue Oct 17 03:29:23 2023","The main experiment item","True","Sternbergtask.osexp","C:\Users\kikip\OneDrive\Dokumente\QUANT HW","False","mono","False","18","no","white","no","yes","768","legacy","72","11","C:/Users/kikip/OneDrive/Dokumente/QUANT HW/LG-subject-4.csv","legacy","8 5 7 3 6","Melodramatic Milgram","4.0.5","0","n","0","right","right","right","right","NA","896.0","14258","5951","896","NA","2","legacy","5","1024","2","48000","-16","experiment","4","even","9","535848","532569","533642","2781","97865","533645","393548","2787","91913","537850","534647","538747","17047","537849","NA","Sternberg task ","75","66020.0","85","1024"
"88","88","775","775","#3d3846","experiment","legacy","legacy","legacy","1","undefined","1","right","85","85","85","0","0","85","85","0","0","85","85","85","0","85","0","Tue Oct 17 03:29:23 2023","The main experiment item","True","Sternbergtask.osexp","C:\Users\kikip\OneDrive\Dokumente\QUANT HW","False","mono","False","18","no","white","no","yes","768","legacy","73","11","C:/Users/kikip/OneDrive/Dokumente/QUANT HW/LG-subject-4.csv","legacy","1 4 9 2 5","Melodramatic Milgram","4.0.5","0","n","0","right","right","right","right","NA","659.0","14258","5951","659","NA","2","legacy","5","1024","2","48000","-16","experiment","4","even","7","542031","538755","539827","2781","97865","539829","393548","2787","91913","544033","540830","544693","17047","544033","NA","Sternberg task ","76","66679.0","86","1024"
"88","88","773","773","#3d3846","experiment","legacy","legacy","legacy","1","undefined","1","right","86","86","86","0","0","86","86","0","0","86","86","86","0","86","0","Tue Oct 17 03:29:23 2023","The main experiment item","True","Sternbergtask.osexp","C:\Users\kikip\OneDrive\Dokumente\QUANT HW","False","mono","False","18","no","white","no","yes","768","legacy","74","11","C:/Users/kikip/OneDrive/Dokumente/QUANT HW/LG-subject-4.csv","legacy","1 3 2 6 9","Melodramatic Milgram","4.0.5","0","n","0","right","right","right","right","NA","589.0","14258","5951","589","NA","2","legacy","5","1024","2","48000","-16","experiment","4","even","5","547975","544698","545771","2781","97865","545773","393548","2787","91913","549976","546774","550566","17047","549976","NA","Sternberg task ","77","67268.0","87","1024"
"88","88","771","771","#3d3846","experiment","legacy","legacy","legacy","1","undefined","1","left","87","87","87","0","0","87","87","0","0","87","87","87","0","87","0","Tue Oct 17 03:29:23 2023","The main experiment item","True","Sternbergtask.osexp","C:\Users\kikip\OneDrive\Dokumente\QUANT HW","False","mono","False","18","no","white","no","yes","768","legacy","75","11","C:/Users/kikip/OneDrive/Dokumente/QUANT HW/LG-subject-4.csv","legacy","4 3 2 5 8","Melodramatic Milgram","4.0.5","2","y","0","left","right","right","left","NA","589.0","14258","5951","589","NA","2","legacy","5","1024","2","48000","-16","experiment","4","even","3","553854","550571","551649","2781","97865","551651","393548","2787","91913","555855","552652","556446","17047","555855","NA","Sternberg task ","78","67857.0","88","1024"
"87","87","769","769","#3d3846","experiment","legacy","legacy","legacy","0","undefined","0","left","88","88","88","0","0","88","88","0","0","88","88","88","0","88","0","Tue Oct 17 03:29:23 2023","The main experiment item","True","Sternbergtask.osexp","C:\Users\kikip\OneDrive\Dokumente\QUANT HW","False","mono","False","18","no","white","no","yes","768","legacy","76","11","C:/Users/kikip/OneDrive/Dokumente/QUANT HW/LG-subject-4.csv","legacy","5 7 3 6 2","Melodramatic Milgram","4.0.5","5","y","0","right","right","right","right","NA","664.0","14258","5951","664","NA","2","legacy","5","1024","2","48000","-16","experiment","4","even","2","559734","556453","557529","2781","97865","557531","393548","2787","91913","561735","558533","562400","17047","561735","NA","Sternberg task ","78","68521.0","89","1024"
"87","87","768","768","#3d3846","experiment","legacy","legacy","legacy","1","undefined","1","left","89","89","89","0","0","89","89","0","0","89","89","89","0","89","0","Tue Oct 17 03:29:23 2023","The main experiment item","True","Sternbergtask.osexp","C:\Users\kikip\OneDrive\Dokumente\QUANT HW","False","mono","False","18","no","white","no","yes","768","legacy","77","11","C:/Users/kikip/OneDrive/Dokumente/QUANT HW/LG-subject-4.csv","legacy","7 8 6 3 1","Melodramatic Milgram","4.0.5","5","y","0","left","right","right","left","NA","653.0","14258","5951","653","NA","2","legacy","5","1024","2","48000","-16","experiment","4","even","1","565700","556453","563495","2781","97865","563498","562408","2787","91913","567702","564499","568357","17047","567702","NA","Sternberg task ","79","69174.0","90","1024"
"87","87","767","767","#3d3846","experiment","legacy","legacy","legacy","1","undefined","1","left","90","90","90","0","0","90","90","0","0","90","90","90","0","90","0","Tue Oct 17 03:29:23 2023","The main experiment item","True","Sternbergtask.osexp","C:\Users\kikip\OneDrive\Dokumente\QUANT HW","False","mono","False","18","no","white","no","yes","768","legacy","78","11","C:/Users/kikip/OneDrive/Dokumente/QUANT HW/LG-subject-4.csv","legacy","7 8 4 6 9 5","Melodramatic Milgram","4.0.5","4","y","0","left","right","right","left","NA","629.0","14258","5951","629","NA","2","legacy","6","1024","2","48000","-16","experiment","4","even","6","571642","568362","569438","2781","97865","569440","562408","2787","91913","573644","570441","574275","17047","573643","NA","Sternberg task ","80","69803.0","91","1024"
"88","88","767","767","#3d3846","experiment","legacy","legacy","legacy","1","undefined","1","right","91","91","91","0","0","91","91","0","0","91","91","91","0","91","0","Tue Oct 17 03:29:23 2023","The main experiment item","True","Sternbergtask.osexp","C:\Users\kikip\OneDrive\Dokumente\QUANT HW","False","mono","False","18","no","white","no","yes","768","legacy","79","11","C:/Users/kikip/OneDrive/Dokumente/QUANT HW/LG-subject-4.csv","legacy","1 8 7","Melodramatic Milgram","4.0.5","0","n","0","right","right","right","right","NA","778.0","14258","5951","778","NA","2","legacy","3","1024","2","48000","-16","experiment","4","even","4","577605","574282","575400","2781","97865","575403","562408","2787","91913","579606","576404","580385","17047","579606","NA","Sternberg task ","81","70581.0","92","1024"
"87","87","771","771","#3d3846","experiment","legacy","legacy","legacy","0","undefined","0","right","92","92","92","0","0","92","92","0","0","92","92","92","0","92","0","Tue Oct 17 03:29:23 2023","The main experiment item","True","Sternbergtask.osexp","C:\Users\kikip\OneDrive\Dokumente\QUANT HW","False","mono","False","18","no","white","no","yes","768","legacy","80","11","C:/Users/kikip/OneDrive/Dokumente/QUANT HW/LG-subject-4.csv","legacy","8 2 1 4 5 9","Melodramatic Milgram","4.0.5","0","n","0","left","right","right","left","NA","1132.0","14258","5951","1132","NA","2","legacy","6","1024","2","48000","-16","experiment","4","even","7","583669","580391","581465","2781","97865","581467","562408","2787","91913","585671","582468","586805","17047","585670","NA","Sternberg task ","81","71713.0","93","1024"
"87","87","770","770","#3d3846","experiment","legacy","legacy","legacy","1","undefined","1","left","93","93","93","0","0","93","93","0","0","93","93","93","0","93","0","Tue Oct 17 03:29:23 2023","The main experiment item","True","Sternbergtask.osexp","C:\Users\kikip\OneDrive\Dokumente\QUANT HW","False","mono","False","18","no","white","no","yes","768","legacy","81","11","C:/Users/kikip/OneDrive/Dokumente/QUANT HW/LG-subject-4.csv","legacy","9 8 4","Melodramatic Milgram","4.0.5","1","y","0","left","right","right","left","NA","677.0","14258","5951","677","NA","2","legacy","3","1024","2","48000","-16","experiment","4","even","9","590159","580391","587950","2781","97865","587955","586813","2787","91913","592160","588956","592838","17047","592160","NA","Sternberg task ","82","72390.0","94","1024"
"87","87","766","766","#3d3846","experiment","legacy","legacy","legacy","1","undefined","1","left","94","94","94","0","0","94","94","0","0","94","94","94","0","94","0","Tue Oct 17 03:29:23 2023","The main experiment item","True","Sternbergtask.osexp","C:\Users\kikip\OneDrive\Dokumente\QUANT HW","False","mono","False","18","no","white","no","yes","768","legacy","82","11","C:/Users/kikip/OneDrive/Dokumente/QUANT HW/LG-subject-4.csv","legacy","8 3","Melodramatic Milgram","4.0.5","2","y","0","left","right","right","left","NA","455.0","14258","5951","455","NA","2","legacy","2","1024","2","48000","-16","experiment","4","even","3","596126","592844","593921","2781","97865","593924","586813","2787","91913","598128","594925","598585","17047","598128","NA","Sternberg task ","83","72845.0","95","1024"
"86","86","779","779","#3d3846","experiment","legacy","legacy","legacy","0","undefined","0","right","95","95","95","0","0","95","95","0","0","95","95","95","0","95","0","Tue Oct 17 03:29:23 2023","The main experiment item","True","Sternbergtask.osexp","C:\Users\kikip\OneDrive\Dokumente\QUANT HW","False","mono","False","18","no","white","no","yes","768","legacy","83","11","C:/Users/kikip/OneDrive/Dokumente/QUANT HW/LG-subject-4.csv","legacy","2 6 4 3 9","Melodramatic Milgram","4.0.5","0","n","0","None","right","right","None","NA","2000.0","14258","5951","2000","NA","2","legacy","5","1024","2","48000","-16","experiment","4","even","1","601872","598592","599668","2781","97865","599670","586813","2787","91913","603873","600671","605874","17047","603873","NA","Sternberg task ","83","74845.0","96","1024"
"86","86","779","779","#3d3846","experiment","legacy","legacy","legacy","1","undefined","1","right","96","96","96","0","0","96","96","0","0","96","96","96","0","96","0","Tue Oct 17 03:29:23 2023","The main experiment item","True","Sternbergtask.osexp","C:\Users\kikip\OneDrive\Dokumente\QUANT HW","False","mono","False","18","no","white","no","yes","768","legacy","84","11","C:/Users/kikip/OneDrive/Dokumente/QUANT HW/LG-subject-4.csv","legacy","7 3 2 8","Melodramatic Milgram","4.0.5","0","n","0","right","right","right","right","NA","796.0","14258","5951","796","NA","2","legacy","4","1024","2","48000","-16","experiment","4","even","4","609154","598592","606950","2781","97865","606952","605883","2787","91913","611155","607953","611952","17047","611155","NA","Sternberg task ","84","75641.0","97","1024"
"86","86","784","784","#3d3846","experiment","legacy","legacy","legacy","1","undefined","1","left","97","97","97","0","0","97","97","0","0","97","97","97","0","97","0","Tue Oct 17 03:29:23 2023","The main experiment item","True","Sternbergtask.osexp","C:\Users\kikip\OneDrive\Dokumente\QUANT HW","False","mono","False","18","no","white","no","yes","768","legacy","85","11","C:/Users/kikip/OneDrive/Dokumente/QUANT HW/LG-subject-4.csv","legacy","2 5 4 8 7","Melodramatic Milgram","4.0.5","3","y","0","left","right","right","left","NA","1195.0","14258","5951","1195","NA","2","legacy","5","1024","2","48000","-16","experiment","4","even","4","615233","611957","613029","2781","97865","613031","605883","2787","91913","617235","614032","618432","17047","617234","NA","Sternberg task ","85","76836.0","98","1024"
"86","86","782","782","#3d3846","experiment","legacy","legacy","legacy","1","undefined","1","left","98","98","98","0","0","98","98","0","0","98","98","98","0","98","0","Tue Oct 17 03:29:23 2023","The main experiment item","True","Sternbergtask.osexp","C:\Users\kikip\OneDrive\Dokumente\QUANT HW","False","mono","False","18","no","white","no","yes","768","legacy","86","11","C:/Users/kikip/OneDrive/Dokumente/QUANT HW/LG-subject-4.csv","legacy","6 1 2","Melodramatic Milgram","4.0.5","3","y","0","left","right","right","left","NA","606.0","14258","5951","606","NA","2","legacy","3","1024","2","48000","-16","experiment","4","even","2","621733","618437","619529","2781","97865","619531","605883","2787","91913","623734","620532","624342","17047","623734","NA","Sternberg task ","86","77442.0","99","1024"
"87","87","780","780","#3d3846","experiment","legacy","legacy","legacy","1","undefined","1","left","99","99","99","0","0","99","99","0","0","99","99","99","0","99","0","Tue Oct 17 03:29:23 2023","The main experiment item","True","Sternbergtask.osexp","C:\Users\kikip\OneDrive\Dokumente\QUANT HW","False","mono","False","18","no","white","no","yes","768","legacy","87","11","C:/Users/kikip/OneDrive/Dokumente/QUANT HW/LG-subject-4.csv","legacy","2 4 8 5 1 3","Melodramatic Milgram","4.0.5","1","y","0","left","right","right","left","NA","578.0","14258","5951","578","NA","2","legacy","6","1024","2","48000","-16","experiment","4","even","2","627635","624349","625431","2781","97865","625433","605883","2787","91913","629637","626434","630217","17047","629637","NA","Sternberg task ","87","78020.0","100","1024"
"87","87","778","778","#3d3846","experiment","legacy","legacy","legacy","1","undefined","1","right","100","100","100","0","0","100","100","0","0","100","100","100","0","100","0","Tue Oct 17 03:29:23 2023","The main experiment item","True","Sternbergtask.osexp","C:\Users\kikip\OneDrive\Dokumente\QUANT HW","False","mono","False","18","no","white","no","yes","768","legacy","88","11","C:/Users/kikip/OneDrive/Dokumente/QUANT HW/LG-subject-4.csv","legacy","3 4 9 6 7 8","Melodramatic Milgram","4.0.5","0","n","0","right","right","right","right","NA","654.0","14258","5951","654","NA","2","legacy","6","1024","2","48000","-16","experiment","4","even","2","633500","630222","631296","2781","97865","631298","605883","2787","91913","635501","632299","636156","17047","635501","NA","Sternberg task ","88","78674.0","101","1024"
"87","87","781","781","#3d3846","experiment","legacy","legacy","legacy","1","undefined","1","right","101","101","101","0","0","101","101","0","0","101","101","101","0","101","0","Tue Oct 17 03:29:23 2023","The main experiment item","True","Sternbergtask.osexp","C:\Users\kikip\OneDrive\Dokumente\QUANT HW","False","mono","False","18","no","white","no","yes","768","legacy","89","11","C:/Users/kikip/OneDrive/Dokumente/QUANT HW/LG-subject-4.csv","legacy","6 9 5","Melodramatic Milgram","4.0.5","0","n","0","right","right","right","right","NA","1000.0","14258","5951","1000","NA","2","legacy","3","1024","2","48000","-16","experiment","4","even","8","639438","636161","637234","2781","97865","637236","605883","2787","91913","641440","638237","642441","17047","641440","NA","Sternberg task ","89","79674.0","102","1024"
"87","87","780","780","#3d3846","experiment","legacy","legacy","legacy","1","undefined","1","left","102","102","102","0","0","102","102","0","0","102","102","102","0","102","0","Tue Oct 17 03:29:23 2023","The main experiment item","True","Sternbergtask.osexp","C:\Users\kikip\OneDrive\Dokumente\QUANT HW","False","mono","False","18","no","white","no","yes","768","legacy","90","11","C:/Users/kikip/OneDrive/Dokumente/QUANT HW/LG-subject-4.csv","legacy","8 1 6","Melodramatic Milgram","4.0.5","3","y","0","left","right","right","left","NA","689.0","14258","5951","689","NA","2","legacy","3","1024","2","48000","-16","experiment","4","even","6","645731","642450","643527","2781","97865","643529","605883","2787","91913","647732","644530","648423","17047","647732","NA","Sternberg task ","90","80363.0","103","1024"
"87","87","781","781","#3d3846","experiment","legacy","legacy","legacy","1","undefined","1","left","103","103","103","0","0","103","103","0","0","103","103","103","0","103","0","Tue Oct 17 03:29:23 2023","The main experiment item","True","Sternbergtask.osexp","C:\Users\kikip\OneDrive\Dokumente\QUANT HW","False","mono","False","18","no","white","no","yes","768","legacy","91","11","C:/Users/kikip/OneDrive/Dokumente/QUANT HW/LG-subject-4.csv","legacy","8 5 3 7 4 6","Melodramatic Milgram","4.0.5","6","y","0","left","right","right","left","NA","891.0","14258","5951","891","NA","2","legacy","6","1024","2","48000","-16","experiment","4","even","6","651707","648427","649502","2781","97865","649504","605883","2787","91913","653709","650505","654602","17047","653708","NA","Sternberg task ","91","81254.0","104","1024"
"87","87","779","779","#3d3846","experiment","legacy","legacy","legacy","1","undefined","1","right","104","104","104","0","0","104","104","0","0","104","104","104","0","104","0","Tue Oct 17 03:29:23 2023","The main experiment item","True","Sternbergtask.osexp","C:\Users\kikip\OneDrive\Dokumente\QUANT HW","False","mono","False","18","no","white","no","yes","768","legacy","92","11","C:/Users/kikip/OneDrive/Dokumente/QUANT HW/LG-subject-4.csv","legacy","1 5 3 2 8","Melodramatic Milgram","4.0.5","0","n","0","right","right","right","right","NA","640.0","14258","5951","640","NA","2","legacy","5","1024","2","48000","-16","experiment","4","even","4","657888","654610","655684","2781","97865","655686","605883","2787","91913","659889","656687","660531","17047","659889","NA","Sternberg task ","92","81894.0","105","1024"
"87","87","776","776","#3d3846","experiment","legacy","legacy","legacy","1","undefined","1","left","105","105","105","0","0","105","105","0","0","105","105","105","0","105","0","Tue Oct 17 03:29:23 2023","The main experiment item","True","Sternbergtask.osexp","C:\Users\kikip\OneDrive\Dokumente\QUANT HW","False","mono","False","18","no","white","no","yes","768","legacy","93","11","C:/Users/kikip/OneDrive/Dokumente/QUANT HW/LG-subject-4.csv","legacy","7","Melodramatic Milgram","4.0.5","1","y","0","left","right","right","left","NA","424.0","14258","5951","424","NA","2","legacy","1","1024","2","48000","-16","experiment","4","even","7","663817","660536","661613","2781","97865","661615","605883","2787","91913","665820","662616","666246","17047","665820","NA","Sternberg task ","93","82318.0","106","1024"
"87","87","775","775","#3d3846","experiment","legacy","legacy","legacy","1","undefined","1","right","106","106","106","0","0","106","106","0","0","106","106","106","0","106","0","Tue Oct 17 03:29:23 2023","The main experiment item","True","Sternbergtask.osexp","C:\Users\kikip\OneDrive\Dokumente\QUANT HW","False","mono","False","18","no","white","no","yes","768","legacy","94","11","C:/Users/kikip/OneDrive/Dokumente/QUANT HW/LG-subject-4.csv","legacy","1","Melodramatic Milgram","4.0.5","0","n","0","right","right","right","right","NA","618.0","14258","5951","618","NA","2","legacy","1","1024","2","48000","-16","experiment","4","even","7","669546","666250","667341","2781","97865","667343","605883","2787","91913","671548","668345","672168","17047","671547","NA","Sternberg task ","94","82936.0","107","1024"
"87","87","773","773","#3d3846","experiment","legacy","legacy","legacy","1","undefined","1","right","107","107","107","0","0","107","107","0","0","107","107","107","0","107","0","Tue Oct 17 03:29:23 2023","The main experiment item","True","Sternbergtask.osexp","C:\Users\kikip\OneDrive\Dokumente\QUANT HW","False","mono","False","18","no","white","no","yes","768","legacy","95","11","C:/Users/kikip/OneDrive/Dokumente/QUANT HW/LG-subject-4.csv","legacy","6 8 4","Melodramatic Milgram","4.0.5","0","n","0","right","right","right","right","NA","550.0","14258","5951","550","NA","2","legacy","3","1024","2","48000","-16","experiment","4","even","1","675468","672175","673264","2781","97865","673266","605883","2787","91913","677469","674267","678021","17047","677469","NA","Sternberg task ","95","83486.0","108","1024"
"88","88","770","770","#3d3846","experiment","legacy","legacy","legacy","1","undefined","1","right","108","108","108","0","0","108","108","0","0","108","108","108","0","108","0","Tue Oct 17 03:29:23 2023","The main experiment item","True","Sternbergtask.osexp","C:\Users\kikip\OneDrive\Dokumente\QUANT HW","False","mono","False","18","no","white","no","yes","768","legacy","96","11","C:/Users/kikip/OneDrive/Dokumente/QUANT HW/LG-subject-4.csv","legacy","8 4 3 9","Melodramatic Milgram","4.0.5","0","n","0","right","right","right","right","NA","531.0","14258","5951","531","NA","2","legacy","4","1024","2","48000","-16","experiment","4","even","5","681308","678029","679104","2781","97865","679106","605883","2787","91913","683309","680107","683842","17047","683309","NA","Sternberg task ","96","84017.0","109","1024"
"88","88","771","771","#3d3846","experiment","legacy","legacy","legacy","1","undefined","1","right","109","109","109","0","0","109","109","0","0","109","109","109","0","109","0","Tue Oct 17 03:29:23 2023","The main experiment item","True","Sternbergtask.osexp","C:\Users\kikip\OneDrive\Dokumente\QUANT HW","False","mono","False","18","no","white","no","yes","768","legacy","97","11","C:/Users/kikip/OneDrive/Dokumente/QUANT HW/LG-subject-4.csv","legacy","5","Melodramatic Milgram","4.0.5","0","n","0","right","right","right","right","NA","830.0","14258","5951","830","NA","2","legacy","1","1024","2","48000","-16","experiment","4","even","8","687128","683846","684924","2781","97865","684926","605883","2787","91913","689129","685927","689961","17047","689129","NA","Sternberg task ","97","84847.0","110","1024"
"87","87","782","782","#3d3846","experiment","legacy","legacy","legacy","0","undefined","0","left","110","110","110","0","0","110","110","0","0","110","110","110","0","110","0","Tue Oct 17 03:29:23 2023","The main experiment item","True","Sternbergtask.osexp","C:\Users\kikip\OneDrive\Dokumente\QUANT HW","False","mono","False","18","no","white","no","yes","768","legacy","98","11","C:/Users/kikip/OneDrive/Dokumente/QUANT HW/LG-subject-4.csv","legacy","2 4 6 9","Melodramatic Milgram","4.0.5","3","y","0","None","right","right","None","NA","2000.0","14258","5951","2000","NA","2","legacy","4","1024","2","48000","-16","experiment","4","even","6","693247","689965","691043","2781","97865","691045","605883","2787","91913","695249","692046","697251","17047","695249","NA","Sternberg task ","97","86847.0","111","1024"
"87","87","785","785","#3d3846","experiment","legacy","legacy","legacy","1","undefined","1","left","111","111","111","0","0","111","111","0","0","111","111","111","0","111","0","Tue Oct 17 03:29:23 2023","The main experiment item","True","Sternbergtask.osexp","C:\Users\kikip\OneDrive\Dokumente\QUANT HW","False","mono","False","18","no","white","no","yes","768","legacy","99","11","C:/Users/kikip/OneDrive/Dokumente/QUANT HW/LG-subject-4.csv","legacy","3 2 1 4 7","Melodramatic Milgram","4.0.5","2","y","0","left","right","right","left","NA","1178.0","14258","5951","1178","NA","2","legacy","5","1024","2","48000","-16","experiment","4","even","2","700538","689965","698334","2781","97865","698336","697259","2787","91913","702540","699337","703720","17047","702540","NA","Sternberg task ","98","88025.0","112","1024"
"86","86","791","791","#3d3846","experiment","legacy","legacy","legacy","0","undefined","0","right","112","112","112","0","0","112","112","0","0","112","112","112","0","112","0","Tue Oct 17 03:29:23 2023","The main experiment item","True","Sternbergtask.osexp","C:\Users\kikip\OneDrive\Dokumente\QUANT HW","False","mono","False","18","no","white","no","yes","768","legacy","100","11","C:/Users/kikip/OneDrive/Dokumente/QUANT HW/LG-subject-4.csv","legacy","8 4 3 5","Melodramatic Milgram","4.0.5","0","n","0","left","right","right","left","NA","1386.0","14258","5951","1386","NA","2","legacy","4","1024","2","48000","-16","experiment","4","even","6","707022","703728","704816","2781","97865","704818","697259","2787","91913","709023","705820","710411","17047","709023","NA","Sternberg task ","98","89411.0","113","1024"
"85","85","801","801","#3d3846","experiment","legacy","legacy","legacy","0","undefined","0","right","113","113","113","0","0","113","113","0","0","113","113","113","0","113","0","Tue Oct 17 03:29:23 2023","The main experiment item","True","Sternbergtask.osexp","C:\Users\kikip\OneDrive\Dokumente\QUANT HW","False","mono","False","18","no","white","no","yes","768","legacy","101","11","C:/Users/kikip/OneDrive/Dokumente/QUANT HW/LG-subject-4.csv","legacy","2 3 8 5 6 7","Melodramatic Milgram","4.0.5","0","n","0","None","right","right","None","NA","2000.0","14258","5951","2000","NA","2","legacy","6","1024","2","48000","-16","experiment","4","even","1","713723","703728","711518","2781","97865","711521","710416","2787","91913","715724","712522","717725","17047","715724","NA","Sternberg task ","98","91411.0","114","1024"
"85","85","812","812","#3d3846","experiment","legacy","legacy","legacy","0","undefined","0","left","114","114","114","0","0","114","114","0","0","114","114","114","0","114","0","Tue Oct 17 03:29:23 2023","The main experiment item","True","Sternbergtask.osexp","C:\Users\kikip\OneDrive\Dokumente\QUANT HW","False","mono","False","18","no","white","no","yes","768","legacy","102","11","C:/Users/kikip/OneDrive/Dokumente/QUANT HW/LG-subject-4.csv","legacy","4 6 2 5 1","Melodramatic Milgram","4.0.5","5","y","0","None","right","right","None","NA","2000.0","14258","5951","2000","NA","2","legacy","5","1024","2","48000","-16","experiment","4","even","1","721027","703728","718822","2781","97865","718824","717733","2787","91913","723028","719826","725029","17047","723028","NA","Sternberg task ","98","93411.0","115","1024"
"84","84","810","810","#3d3846","experiment","legacy","legacy","legacy","0","undefined","0","right","115","115","115","0","0","115","115","0","0","115","115","115","0","115","0","Tue Oct 17 03:29:23 2023","The main experiment item","True","Sternbergtask.osexp","C:\Users\kikip\OneDrive\Dokumente\QUANT HW","False","mono","False","18","no","white","no","yes","768","legacy","103","11","C:/Users/kikip/OneDrive/Dokumente/QUANT HW/LG-subject-4.csv","legacy","6 2 9 3 8 4","Melodramatic Milgram","4.0.5","0","n","0","left","right","right","left","NA","599.0","14258","5951","599","NA","2","legacy","6","1024","2","48000","-16","experiment","4","even","1","728323","703728","726119","2781","97865","726121","725033","2787","91913","730324","727122","730925","17047","730324","NA","Sternberg task ","98","94010.0","116","1024"
"83","83","820","820","#3d3846","experiment","legacy","legacy","legacy","0","undefined","0","right","116","116","116","0","0","116","116","0","0","116","116","116","0","116","0","Tue Oct 17 03:29:23 2023","The main experiment item","True","Sternbergtask.osexp","C:\Users\kikip\OneDrive\Dokumente\QUANT HW","False","mono","False","18","no","white","no","yes","768","legacy","104","11","C:/Users/kikip/OneDrive/Dokumente/QUANT HW/LG-subject-4.csv","legacy","3 9 8 1 6 4","Melodramatic Milgram","4.0.5","0","n","0","None","right","right","None","NA","2000.0","14258","5951","2000","NA","2","legacy","6","1024","2","48000","-16","experiment","4","even","7","734212","703728","732006","2781","97865","732009","730933","2787","91913","736213","733010","738214","17047","736213","NA","Sternberg task ","98","96010.0","117","1024"
"83","83","820","820","#3d3846","experiment","legacy","legacy","legacy","0","undefined","0","left","117","117","117","0","0","117","117","0","0","117","117","117","0","117","0","Tue Oct 17 03:29:23 2023","The main experiment item","True","Sternbergtask.osexp","C:\Users\kikip\OneDrive\Dokumente\QUANT HW","False","mono","False","18","no","white","no","yes","768","legacy","105","11","C:/Users/kikip/OneDrive/Dokumente/QUANT HW/LG-subject-4.csv","legacy","5 2 6","Melodramatic Milgram","4.0.5","2","y","0","right","right","right","right","NA","848.0","14258","5951","848","NA","2","legacy","3","1024","2","48000","-16","experiment","4","even","2","741500","703728","739296","2781","97865","739298","738222","2787","91913","743502","740299","744352","17047","743501","NA","Sternberg task ","98","96858.0","118","1024"
"82","82","819","819","#3d3846","experiment","legacy","legacy","legacy","0","undefined","0","right","118","118","118","0","0","118","118","0","0","118","118","118","0","118","0","Tue Oct 17 03:29:23 2023","The main experiment item","True","Sternbergtask.osexp","C:\Users\kikip\OneDrive\Dokumente\QUANT HW","False","mono","False","18","no","white","no","yes","768","legacy","106","11","C:/Users/kikip/OneDrive/Dokumente/QUANT HW/LG-subject-4.csv","legacy","2 8 6 3 1","Melodramatic Milgram","4.0.5","0","n","0","left","right","right","left","NA","612.0","14258","5951","612","NA","2","legacy","5","1024","2","48000","-16","experiment","4","even","7","747640","703728","745435","2781","97865","745438","744360","2787","91913","749641","746439","750255","17047","749641","NA","Sternberg task ","98","97470.0","119","1024"
"82","82","818","818","#3d3846","experiment","legacy","legacy","legacy","1","undefined","1","left","119","119","119","0","0","119","119","0","0","119","119","119","0","119","0","Tue Oct 17 03:29:23 2023","The main experiment item","True","Sternbergtask.osexp","C:\Users\kikip\OneDrive\Dokumente\QUANT HW","False","mono","False","18","no","white","no","yes","768","legacy","107","11","C:/Users/kikip/OneDrive/Dokumente/QUANT HW/LG-subject-4.csv","legacy","4","Melodramatic Milgram","4.0.5","1","y","0","left","right","right","left","NA","766.0","14258","5951","766","NA","2","legacy","1","1024","2","48000","-16","experiment","4","even","4","753534","703728","751329","2781","97865","751331","750262","2787","91913","755536","752332","756304","17047","755535","NA","Sternberg task ","99","98236.0","120","1024"
"82","82","817","817","#3d3846","experiment","legacy","legacy","legacy","1","undefined","1","left","120","120","120","0","0","120","120","0","0","120","120","120","0","120","0","Tue Oct 17 03:29:23 2023","The main experiment item","True","Sternbergtask.osexp","C:\Users\kikip\OneDrive\Dokumente\QUANT HW","False","mono","False","18","no","white","no","yes","768","legacy","108","11","C:/Users/kikip/OneDrive/Dokumente/QUANT HW/LG-subject-4.csv","legacy","3 9 7 6 4","Melodramatic Milgram","4.0.5","3","y","0","left","right","right","left","NA","691.0","14258","5951","691","NA","2","legacy","5","1024","2","48000","-16","experiment","4","even","7","759595","756309","757390","2781","97865","757392","750262","2787","91913","761596","758394","762289","17047","761596","NA","Sternberg task ","100","98927.0","121","1024"
