"acc","accuracy","average_response_time","avg_rt","background","block","canvas_backend","clock_backend","color_backend","compensation","coordinates","correct","correct_instruction1","correct_keyboard_response","correct_response","count_ISI","count_correctFeedback","count_expSequence","count_experiment","count_experimentLoop","count_fixation","count_incorrectFeedback","count_instruction1","count_instruction2","count_keyboard_response","count_logger","count_memorySet","count_practiceLoop","count_probe","count_thankYou","datetime","description","disable_garbage_collection","experiment_file","experiment_path","font_bold","font_family","font_italic","font_size","font_underline","foreground","form_clicks","fullscreen","height","keyboard_backend","live_row","live_row_practiceLoop","logfile","mouse_backend","numberSet","opensesame_codename","opensesame_version","posInSet","present","repeat_cycle","response","response_instruction1","response_instruction2","response_keyboard_response","response_thankYou","response_time","response_time_instruction1","response_time_instruction2","response_time_keyboard_response","response_time_thankYou","round_decimals","sampler_backend","setSize","sound_buf_size","sound_channels","sound_freq","sound_sample_size","start","subject_nr","subject_parity","target","time_ISI","time_correctFeedback","time_expSequence","time_experiment","time_experimentLoop","time_fixation","time_incorrectFeedback","time_instruction1","time_instruction2","time_keyboard_response","time_logger","time_memorySet","time_practiceLoop","time_probe","time_thankYou","title","total_correct","total_response_time","total_responses","uniform_coordinates","width"
"0","0","1035","1035","black","practice","legacy","legacy","legacy","0","uniform","0","undefined","0","right","0","0","0","0","0","0","0","0","0","0","0","0","0","0","0","Wed Oct 14 14:51:42 2020","The main experiment item","yes","Sterbergtask.osexp","C:\Users\Colton\OneDrive\Desktop","no","mono","no","18","no","white","no","yes","768","legacy","0","0","C:/Users/Colton/OneDrive/Desktop/CS-subject-1-LAB 3.1.csv","legacy","2 1","Lentiform Loewenfeld","3.3.3","0","n","0","left","left","NA","left","NA","1035","63955","NA","1035","NA","2","legacy","2","1024","2","48000","-16","experiment","1","odd","5","75681","NA","73463","6799","NA","73470","NA","6809","NA","77688","78724","74475","70767","77687","NA","Sterberg task","0","1035","1","yes","1024"
"50","50","1100.5","1100.5","black","practice","legacy","legacy","legacy","0","uniform","1","undefined","1","left","1","1","1","0","0","1","1","0","0","1","1","1","0","1","0","Wed Oct 14 14:51:42 2020","The main experiment item","yes","Sterbergtask.osexp","C:\Users\Colton\OneDrive\Desktop","no","mono","no","18","no","white","no","yes","768","legacy","1","1","C:/Users/Colton/OneDrive/Desktop/CS-subject-1-LAB 3.1.csv","legacy","4 8","Lentiform Loewenfeld","3.3.3","1","y","0","left","left","NA","left","NA","1166","63955","NA","1166","NA","2","legacy","2","1024","2","48000","-16","experiment","1","odd","4","82485","NA","80266","6799","NA","80272","78997","6809","NA","84493","85661","81278","70767","84493","NA","Sterberg task","1","2201","2","yes","1024"
"66.66666666666667","66.66666666666667","945.6666666666666","945.6666666666666","black","practice","legacy","legacy","legacy","0","uniform","1","undefined","1","left","2","2","2","0","0","2","2","0","0","2","2","2","0","2","0","Wed Oct 14 14:51:42 2020","The main experiment item","yes","Sterbergtask.osexp","C:\Users\Colton\OneDrive\Desktop","no","mono","no","18","no","white","no","yes","768","legacy","2","2","C:/Users/Colton/OneDrive/Desktop/CS-subject-1-LAB 3.1.csv","legacy","2 9 4","Lentiform Loewenfeld","3.3.3","3","y","0","left","left","NA","left","NA","636","63955","NA","636","NA","2","legacy","3","1024","2","48000","-16","experiment","1","odd","4","89217","85722","86997","6799","NA","87003","78997","6809","NA","91224","91863","88009","70767","91223","NA","Sterberg task","2","2837","3","yes","1024"
"75","75","895.25","895.25","black","practice","legacy","legacy","legacy","0","uniform","1","undefined","1","right","3","3","3","0","0","3","3","0","0","3","3","3","0","3","0","Wed Oct 14 14:51:42 2020","The main experiment item","yes","Sterbergtask.osexp","C:\Users\Colton\OneDrive\Desktop","no","mono","no","18","no","white","no","yes","768","legacy","3","3","C:/Users/Colton/OneDrive/Desktop/CS-subject-1-LAB 3.1.csv","legacy","9 6 7 4 5","Lentiform Loewenfeld","3.3.3","0","n","0","right","left","NA","right","NA","744","63955","NA","744","NA","2","legacy","5","1024","2","48000","-16","experiment","1","odd","3","95422","91922","93201","6799","NA","93207","78997","6809","NA","97428","98173","94218","70767","97427","NA","Sterberg task","3","3581","4","yes","1024"
"60","60","941.2","941.2","black","practice","legacy","legacy","legacy","0","uniform","0","undefined","0","right","4","4","4","0","0","4","4","0","0","4","4","4","0","4","0","Wed Oct 14 14:51:42 2020","The main experiment item","yes","Sterbergtask.osexp","C:\Users\Colton\OneDrive\Desktop","no","mono","no","18","no","white","no","yes","768","legacy","4","4","C:/Users/Colton/OneDrive/Desktop/CS-subject-1-LAB 3.1.csv","legacy","3 1 9 4","Lentiform Loewenfeld","3.3.3","0","n","0","left","left","NA","left","NA","1125","63955","NA","1125","NA","2","legacy","4","1024","2","48000","-16","experiment","1","odd","6","101713","98233","99496","6799","NA","99502","78997","6809","NA","103719","104847","100506","70767","103719","NA","Sterberg task","3","4706","5","yes","1024"
"66.66666666666667","66.66666666666667","944.5","944.5","black","practice","legacy","legacy","legacy","0","uniform","1","undefined","1","left","5","5","5","0","0","5","5","0","0","5","5","5","0","5","0","Wed Oct 14 14:51:42 2020","The main experiment item","yes","Sterbergtask.osexp","C:\Users\Colton\OneDrive\Desktop","no","mono","no","18","no","white","no","yes","768","legacy","5","5","C:/Users/Colton/OneDrive/Desktop/CS-subject-1-LAB 3.1.csv","legacy","1 5 2 9","Lentiform Loewenfeld","3.3.3","2","y","0","left","left","NA","left","NA","961","63955","NA","961","NA","2","legacy","4","1024","2","48000","-16","experiment","1","odd","5","108372","98233","106157","6799","NA","106162","104882","6809","NA","110379","111341","107167","70767","110379","NA","Sterberg task","4","5667","6","yes","1024"
"71.42857142857143","71.42857142857143","916.7142857142857","916.7142857142857","black","practice","legacy","legacy","legacy","0","uniform","1","undefined","1","right","6","6","6","0","0","6","6","0","0","6","6","6","0","6","0","Wed Oct 14 14:51:42 2020","The main experiment item","yes","Sterbergtask.osexp","C:\Users\Colton\OneDrive\Desktop","no","mono","no","18","no","white","no","yes","768","legacy","6","6","C:/Users/Colton/OneDrive/Desktop/CS-subject-1-LAB 3.1.csv","legacy","4 1 5","Lentiform Loewenfeld","3.3.3","0","n","0","right","left","NA","right","NA","750","63955","NA","750","NA","2","legacy","3","1024","2","48000","-16","experiment","1","odd","2","114856","111367","112638","6799","NA","112644","104882","6809","NA","116862","117614","113649","70767","116862","NA","Sterberg task","5","6417","7","yes","1024"
"75","75","919.125","919.125","black","practice","legacy","legacy","legacy","0","uniform","1","undefined","1","left","7","7","7","0","0","7","7","0","0","7","7","7","0","7","0","Wed Oct 14 14:51:42 2020","The main experiment item","yes","Sterbergtask.osexp","C:\Users\Colton\OneDrive\Desktop","no","mono","no","18","no","white","no","yes","768","legacy","7","7","C:/Users/Colton/OneDrive/Desktop/CS-subject-1-LAB 3.1.csv","legacy","1 7 9 8 5","Lentiform Loewenfeld","3.3.3","4","y","0","left","left","NA","left","NA","936","63955","NA","936","NA","2","legacy","5","1024","2","48000","-16","experiment","1","odd","8","121167","117678","118949","6799","NA","118954","104882","6809","NA","123172","124110","119961","70767","123172","NA","Sterberg task","6","7353","8","yes","1024"
"77.77777777777777","77.77777777777777","895.6666666666666","895.6666666666666","black","practice","legacy","legacy","legacy","0","uniform","1","undefined","1","right","8","8","8","0","0","8","8","0","0","8","8","8","0","8","0","Wed Oct 14 14:51:42 2020","The main experiment item","yes","Sterbergtask.osexp","C:\Users\Colton\OneDrive\Desktop","no","mono","no","18","no","white","no","yes","768","legacy","8","8","C:/Users/Colton/OneDrive/Desktop/CS-subject-1-LAB 3.1.csv","legacy","5","Lentiform Loewenfeld","3.3.3","0","n","0","right","left","NA","right","NA","708","63955","NA","708","NA","2","legacy","1","1024","2","48000","-16","experiment","1","odd","3","127630","124145","125415","6799","NA","125420","104882","6809","NA","129638","130348","126426","70767","129637","NA","Sterberg task","7","8061","9","yes","1024"
"80","80","898.8","898.8","black","practice","legacy","legacy","legacy","0","uniform","1","undefined","1","right","9","9","9","0","0","9","9","0","0","9","9","9","0","9","0","Wed Oct 14 14:51:42 2020","The main experiment item","yes","Sterbergtask.osexp","C:\Users\Colton\OneDrive\Desktop","no","mono","no","18","no","white","no","yes","768","legacy","9","9","C:/Users/Colton/OneDrive/Desktop/CS-subject-1-LAB 3.1.csv","legacy","5 7 8 4 1 2","Lentiform Loewenfeld","3.3.3","0","n","0","right","left","NA","right","NA","927","63955","NA","927","NA","2","legacy","6","1024","2","48000","-16","experiment","1","odd","6","133908","130402","131685","6799","NA","131691","104882","6809","NA","135918","136847","132698","70767","135918","NA","Sterberg task","8","8988","10","yes","1024"
"81.81818181818181","81.81818181818181","858","858","black","practice","legacy","legacy","legacy","0","uniform","1","undefined","1","left","10","10","10","0","0","10","10","0","0","10","10","10","0","10","0","Wed Oct 14 14:51:42 2020","The main experiment item","yes","Sterbergtask.osexp","C:\Users\Colton\OneDrive\Desktop","no","mono","no","18","no","white","no","yes","768","legacy","10","10","C:/Users/Colton/OneDrive/Desktop/CS-subject-1-LAB 3.1.csv","legacy","6","Lentiform Loewenfeld","3.3.3","1","y","0","left","left","NA","left","NA","450","63955","NA","450","NA","2","legacy","1","1024","2","48000","-16","experiment","1","odd","6","140389","136901","138169","6799","NA","138175","104882","6809","NA","142396","142848","139180","70767","142396","NA","Sterberg task","9","9438","11","yes","1024"
"83.33333333333333","83.33333333333333","854.5","854.5","black","practice","legacy","legacy","legacy","0","uniform","1","undefined","1","left","11","11","11","0","0","11","11","0","0","11","11","11","0","11","0","Wed Oct 14 14:51:42 2020","The main experiment item","yes","Sterbergtask.osexp","C:\Users\Colton\OneDrive\Desktop","no","mono","no","18","no","white","no","yes","768","legacy","11","11","C:/Users/Colton/OneDrive/Desktop/CS-subject-1-LAB 3.1.csv","legacy","4 3 1 7 9 8","Lentiform Loewenfeld","3.3.3","1","y","0","left","left","NA","left","NA","816","63955","NA","816","NA","2","legacy","6","1024","2","48000","-16","experiment","1","odd","4","146392","142902","144172","6799","NA","144178","104882","6809","NA","148397","149216","145184","70767","148397","NA","Sterberg task","10","10254","12","yes","1024"
"84.61538461538461","84.61538461538461","851.2307692307693","851.2307692307693","black","experiment","legacy","legacy","legacy","0","uniform","1","undefined","1","right","12","12","12","0","0","12","12","0","0","12","12","12","0","12","0","Wed Oct 14 14:51:42 2020","The main experiment item","yes","Sterbergtask.osexp","C:\Users\Colton\OneDrive\Desktop","no","mono","no","18","no","white","no","yes","768","legacy","0","11","C:/Users/Colton/OneDrive/Desktop/CS-subject-1-LAB 3.1.csv","legacy","1 3 2 6 9","Lentiform Loewenfeld","3.3.3","0","n","0","right","left","right","right","NA","812","63955","11544","812","NA","2","legacy","5","1024","2","48000","-16","experiment","1","odd","5","164424","149268","162207","6799","161916","162213","104882","6809","150370","166429","167243","163218","70767","166429","NA","Sterberg task","11","11066","13","yes","1024"
"78.57142857142857","78.57142857142857","845.7857142857143","845.7857142857143","black","experiment","legacy","legacy","legacy","0","uniform","0","undefined","0","right","13","13","13","0","0","13","13","0","0","13","13","13","0","13","0","Wed Oct 14 14:51:42 2020","The main experiment item","yes","Sterbergtask.osexp","C:\Users\Colton\OneDrive\Desktop","no","mono","no","18","no","white","no","yes","768","legacy","1","11","C:/Users/Colton/OneDrive/Desktop/CS-subject-1-LAB 3.1.csv","legacy","8 5 7 3 6","Lentiform Loewenfeld","3.3.3","0","n","0","left","left","right","left","NA","775","63955","11544","775","NA","2","legacy","5","1024","2","48000","-16","experiment","1","odd","9","170762","167268","168539","6799","161916","168545","104882","6809","150370","172768","173545","169552","70767","172768","NA","Sterberg task","11","11841","14","yes","1024"
"80","80","834.8666666666667","834.8666666666667","black","experiment","legacy","legacy","legacy","0","uniform","1","undefined","1","right","14","14","14","0","0","14","14","0","0","14","14","14","0","14","0","Wed Oct 14 14:51:42 2020","The main experiment item","yes","Sterbergtask.osexp","C:\Users\Colton\OneDrive\Desktop","no","mono","no","18","no","white","no","yes","768","legacy","2","11","C:/Users/Colton/OneDrive/Desktop/CS-subject-1-LAB 3.1.csv","legacy","2 8 6 3 1","Lentiform Loewenfeld","3.3.3","0","n","0","right","left","right","right","NA","682","63955","11544","682","NA","2","legacy","5","1024","2","48000","-16","experiment","1","odd","7","177095","167268","174873","6799","161916","174880","173602","6809","150370","179104","179788","175886","70767","179103","NA","Sterberg task","12","12523","15","yes","1024"
"81.25","81.25","825.4375","825.4375","black","experiment","legacy","legacy","legacy","0","uniform","1","undefined","1","left","15","15","15","0","0","15","15","0","0","15","15","15","0","15","0","Wed Oct 14 14:51:42 2020","The main experiment item","yes","Sterbergtask.osexp","C:\Users\Colton\OneDrive\Desktop","no","mono","no","18","no","white","no","yes","768","legacy","3","11","C:/Users/Colton/OneDrive/Desktop/CS-subject-1-LAB 3.1.csv","legacy","5 7 3 6 2","Lentiform Loewenfeld","3.3.3","5","y","0","left","left","right","left","NA","684","63955","11544","684","NA","2","legacy","5","1024","2","48000","-16","experiment","1","odd","2","183314","179824","181096","6799","161916","181102","173602","6809","150370","185319","186005","182108","70767","185319","NA","Sterberg task","13","13207","16","yes","1024"
"76.47058823529412","76.47058823529412","825.3529411764706","825.3529411764706","black","experiment","legacy","legacy","legacy","0","uniform","0","undefined","0","right","16","16","16","0","0","16","16","0","0","16","16","16","0","16","0","Wed Oct 14 14:51:42 2020","The main experiment item","yes","Sterbergtask.osexp","C:\Users\Colton\OneDrive\Desktop","no","mono","no","18","no","white","no","yes","768","legacy","4","11","C:/Users/Colton/OneDrive/Desktop/CS-subject-1-LAB 3.1.csv","legacy","8 5 4 2 9 6","Lentiform Loewenfeld","3.3.3","0","n","0","left","left","right","left","NA","824","63955","11544","824","NA","2","legacy","6","1024","2","48000","-16","experiment","1","odd","3","189544","186047","187319","6799","161916","187325","173602","6809","150370","191550","192376","188337","70767","191550","NA","Sterberg task","13","14031","17","yes","1024"
"77.77777777777777","77.77777777777777","808.3333333333334","808.3333333333334","black","experiment","legacy","legacy","legacy","0","uniform","1","undefined","1","left","17","17","17","0","0","17","17","0","0","17","17","17","0","17","0","Wed Oct 14 14:51:42 2020","The main experiment item","yes","Sterbergtask.osexp","C:\Users\Colton\OneDrive\Desktop","no","mono","no","18","no","white","no","yes","768","legacy","5","11","C:/Users/Colton/OneDrive/Desktop/CS-subject-1-LAB 3.1.csv","legacy","8","Lentiform Loewenfeld","3.3.3","1","y","0","left","left","right","left","NA","519","63955","11544","519","NA","2","legacy","1","1024","2","48000","-16","experiment","1","odd","8","195915","186047","193697","6799","161916","193703","192436","6809","150370","197920","198441","194708","70767","197920","NA","Sterberg task","14","14550","18","yes","1024"
"78.94736842105263","78.94736842105263","804.6842105263158","804.6842105263158","black","experiment","legacy","legacy","legacy","0","uniform","1","undefined","1","right","18","18","18","0","0","18","18","0","0","18","18","18","0","18","0","Wed Oct 14 14:51:42 2020","The main experiment item","yes","Sterbergtask.osexp","C:\Users\Colton\OneDrive\Desktop","no","mono","no","18","no","white","no","yes","768","legacy","6","11","C:/Users/Colton/OneDrive/Desktop/CS-subject-1-LAB 3.1.csv","legacy","3 4 2","Lentiform Loewenfeld","3.3.3","0","n","0","right","left","right","right","NA","739","63955","11544","739","NA","2","legacy","3","1024","2","48000","-16","experiment","1","odd","5","201986","198501","199768","6799","161916","199774","192436","6809","150370","203993","204735","200780","70767","203993","NA","Sterberg task","15","15289","19","yes","1024"
"80","80","798.7","798.7","black","experiment","legacy","legacy","legacy","0","uniform","1","undefined","1","left","19","19","19","0","0","19","19","0","0","19","19","19","0","19","0","Wed Oct 14 14:51:42 2020","The main experiment item","yes","Sterbergtask.osexp","C:\Users\Colton\OneDrive\Desktop","no","mono","no","18","no","white","no","yes","768","legacy","7","11","C:/Users/Colton/OneDrive/Desktop/CS-subject-1-LAB 3.1.csv","legacy","3 4","Lentiform Loewenfeld","3.3.3","1","y","0","left","left","right","left","NA","685","63955","11544","685","NA","2","legacy","2","1024","2","48000","-16","experiment","1","odd","3","208290","204804","206071","6799","161916","206077","192436","6809","150370","210297","210984","207083","70767","210296","NA","Sterberg task","16","15974","20","yes","1024"
"80.95238095238095","80.95238095238095","798.5714285714286","798.5714285714286","black","experiment","legacy","legacy","legacy","0","uniform","1","undefined","1","right","20","20","20","0","0","20","20","0","0","20","20","20","0","20","0","Wed Oct 14 14:51:42 2020","The main experiment item","yes","Sterbergtask.osexp","C:\Users\Colton\OneDrive\Desktop","no","mono","no","18","no","white","no","yes","768","legacy","8","11","C:/Users/Colton/OneDrive/Desktop/CS-subject-1-LAB 3.1.csv","legacy","5 3 2 6 9 8","Lentiform Loewenfeld","3.3.3","0","n","0","right","left","right","right","NA","796","63955","11544","796","NA","2","legacy","6","1024","2","48000","-16","experiment","1","odd","4","214518","211025","212294","6799","161916","212300","192436","6809","150370","216522","217320","213307","70767","216522","NA","Sterberg task","17","16770","21","yes","1024"
"81.81818181818181","81.81818181818181","806.1818181818181","806.1818181818181","black","experiment","legacy","legacy","legacy","0","uniform","1","undefined","1","right","21","21","21","0","0","21","21","0","0","21","21","21","0","21","0","Wed Oct 14 14:51:42 2020","The main experiment item","yes","Sterbergtask.osexp","C:\Users\Colton\OneDrive\Desktop","no","mono","no","18","no","white","no","yes","768","legacy","9","11","C:/Users/Colton/OneDrive/Desktop/CS-subject-1-LAB 3.1.csv","legacy","2 8 9 4 1","Lentiform Loewenfeld","3.3.3","0","n","0","right","left","right","right","NA","966","63955","11544","966","NA","2","legacy","5","1024","2","48000","-16","experiment","1","odd","5","220841","217348","218617","6799","161916","218623","192436","6809","150370","222849","223818","219630","70767","222848","NA","Sterberg task","18","17736","22","yes","1024"
"82.6086956521739","82.6086956521739","812.5652173913044","812.5652173913044","black","experiment","legacy","legacy","legacy","0","uniform","1","undefined","1","left","22","22","22","0","0","22","22","0","0","22","22","22","0","22","0","Wed Oct 14 14:51:42 2020","The main experiment item","yes","Sterbergtask.osexp","C:\Users\Colton\OneDrive\Desktop","no","mono","no","18","no","white","no","yes","768","legacy","10","11","C:/Users/Colton/OneDrive/Desktop/CS-subject-1-LAB 3.1.csv","legacy","3 4 9 6 2 9","Lentiform Loewenfeld","3.3.3","5","y","0","left","left","right","left","NA","953","63955","11544","953","NA","2","legacy","6","1024","2","48000","-16","experiment","1","odd","2","227369","223881","225150","6799","161916","225156","192436","6809","150370","229380","230335","226162","70767","229380","NA","Sterberg task","19","18689","23","yes","1024"
"83.33333333333333","83.33333333333333","806.5833333333334","806.5833333333334","black","experiment","legacy","legacy","legacy","0","uniform","1","undefined","1","right","23","23","23","0","0","23","23","0","0","23","23","23","0","23","0","Wed Oct 14 14:51:42 2020","The main experiment item","yes","Sterbergtask.osexp","C:\Users\Colton\OneDrive\Desktop","no","mono","no","18","no","white","no","yes","768","legacy","11","11","C:/Users/Colton/OneDrive/Desktop/CS-subject-1-LAB 3.1.csv","legacy","6 9 7 3 8 2","Lentiform Loewenfeld","3.3.3","0","n","0","right","left","right","right","NA","669","63955","11544","669","NA","2","legacy","6","1024","2","48000","-16","experiment","1","odd","5","233858","230370","231640","6799","161916","231646","192436","6809","150370","235865","236536","232652","70767","235864","NA","Sterberg task","20","19358","24","yes","1024"
"84","84","802","802","black","experiment","legacy","legacy","legacy","0","uniform","1","undefined","1","left","24","24","24","0","0","24","24","0","0","24","24","24","0","24","0","Wed Oct 14 14:51:42 2020","The main experiment item","yes","Sterbergtask.osexp","C:\Users\Colton\OneDrive\Desktop","no","mono","no","18","no","white","no","yes","768","legacy","12","11","C:/Users/Colton/OneDrive/Desktop/CS-subject-1-LAB 3.1.csv","legacy","2 5 4 8 7","Lentiform Loewenfeld","3.3.3","3","y","0","left","left","right","left","NA","692","63955","11544","692","NA","2","legacy","5","1024","2","48000","-16","experiment","1","odd","4","240084","236593","237863","6799","161916","237870","192436","6809","150370","242091","242785","238876","70767","242091","NA","Sterberg task","21","20050","25","yes","1024"
"84.61538461538461","84.61538461538461","804.3846153846154","804.3846153846154","black","experiment","legacy","legacy","legacy","0","uniform","1","undefined","1","left","25","25","25","0","0","25","25","0","0","25","25","25","0","25","0","Wed Oct 14 14:51:42 2020","The main experiment item","yes","Sterbergtask.osexp","C:\Users\Colton\OneDrive\Desktop","no","mono","no","18","no","white","no","yes","768","legacy","13","11","C:/Users/Colton/OneDrive/Desktop/CS-subject-1-LAB 3.1.csv","legacy","7 8 4 6 9 5","Lentiform Loewenfeld","3.3.3","4","y","0","left","left","right","left","NA","864","63955","11544","864","NA","2","legacy","6","1024","2","48000","-16","experiment","1","odd","6","246305","242814","244083","6799","161916","244089","192436","6809","150370","248312","249179","245098","70767","248311","NA","Sterberg task","22","20914","26","yes","1024"
"85.18518518518519","85.18518518518519","799.7777777777778","799.7777777777778","black","experiment","legacy","legacy","legacy","0","uniform","1","undefined","1","right","26","26","26","0","0","26","26","0","0","26","26","26","0","26","0","Wed Oct 14 14:51:42 2020","The main experiment item","yes","Sterbergtask.osexp","C:\Users\Colton\OneDrive\Desktop","no","mono","no","18","no","white","no","yes","768","legacy","14","11","C:/Users/Colton/OneDrive/Desktop/CS-subject-1-LAB 3.1.csv","legacy","4 8 1 2","Lentiform Loewenfeld","3.3.3","0","n","0","right","left","right","right","NA","680","63955","11544","680","NA","2","legacy","4","1024","2","48000","-16","experiment","1","odd","7","252721","249237","250502","6799","161916","250508","192436","6809","150370","254727","255409","251513","70767","254726","NA","Sterberg task","23","21594","27","yes","1024"
"85.71428571428571","85.71428571428571","790.0357142857143","790.0357142857143","black","experiment","legacy","legacy","legacy","0","uniform","1","undefined","1","left","27","27","27","0","0","27","27","0","0","27","27","27","0","27","0","Wed Oct 14 14:51:42 2020","The main experiment item","yes","Sterbergtask.osexp","C:\Users\Colton\OneDrive\Desktop","no","mono","no","18","no","white","no","yes","768","legacy","15","11","C:/Users/Colton/OneDrive/Desktop/CS-subject-1-LAB 3.1.csv","legacy","6 8 9 3 4 9","Lentiform Loewenfeld","3.3.3","5","y","0","left","left","right","left","NA","527","63955","11544","527","NA","2","legacy","6","1024","2","48000","-16","experiment","1","odd","4","258927","255438","256707","6799","161916","256713","192436","6809","150370","260933","261463","257722","70767","260933","NA","Sterberg task","24","22121","28","yes","1024"
"86.20689655172414","86.20689655172414","783.2068965517242","783.2068965517242","black","experiment","legacy","legacy","legacy","0","uniform","1","undefined","1","left","28","28","28","0","0","28","28","0","0","28","28","28","0","28","0","Wed Oct 14 14:51:42 2020","The main experiment item","yes","Sterbergtask.osexp","C:\Users\Colton\OneDrive\Desktop","no","mono","no","18","no","white","no","yes","768","legacy","16","11","C:/Users/Colton/OneDrive/Desktop/CS-subject-1-LAB 3.1.csv","legacy","4 9 7 8 5 3","Lentiform Loewenfeld","3.3.3","4","y","0","left","left","right","left","NA","592","63955","11544","592","NA","2","legacy","6","1024","2","48000","-16","experiment","1","odd","8","264998","261526","262781","6799","161916","262788","192436","6809","150370","267004","267598","263793","70767","267004","NA","Sterberg task","25","22713","29","yes","1024"
"86.66666666666667","86.66666666666667","782.8","782.8","black","experiment","legacy","legacy","legacy","0","uniform","1","undefined","1","right","29","29","29","0","0","29","29","0","0","29","29","29","0","29","0","Wed Oct 14 14:51:42 2020","The main experiment item","yes","Sterbergtask.osexp","C:\Users\Colton\OneDrive\Desktop","no","mono","no","18","no","white","no","yes","768","legacy","17","11","C:/Users/Colton/OneDrive/Desktop/CS-subject-1-LAB 3.1.csv","legacy","7 8 6 1","Lentiform Loewenfeld","3.3.3","0","n","0","right","left","right","right","NA","771","63955","11544","771","NA","2","legacy","4","1024","2","48000","-16","experiment","1","odd","3","271125","267627","268903","6799","161916","268909","192436","6809","150370","273131","273905","269916","70767","273131","NA","Sterberg task","26","23484","30","yes","1024"
"87.09677419354838","87.09677419354838","781.258064516129","781.258064516129","black","experiment","legacy","legacy","legacy","0","uniform","1","undefined","1","left","30","30","30","0","0","30","30","0","0","30","30","30","0","30","0","Wed Oct 14 14:51:42 2020","The main experiment item","yes","Sterbergtask.osexp","C:\Users\Colton\OneDrive\Desktop","no","mono","no","18","no","white","no","yes","768","legacy","18","11","C:/Users/Colton/OneDrive/Desktop/CS-subject-1-LAB 3.1.csv","legacy","4 1 5","Lentiform Loewenfeld","3.3.3","2","y","0","left","left","right","left","NA","735","63955","11544","735","NA","2","legacy","3","1024","2","48000","-16","experiment","1","odd","1","277452","273960","275232","6799","161916","275237","192436","6809","150370","279458","280195","276245","70767","279458","NA","Sterberg task","27","24219","31","yes","1024"
"87.5","87.5","777.28125","777.28125","black","experiment","legacy","legacy","legacy","0","uniform","1","undefined","1","right","31","31","31","0","0","31","31","0","0","31","31","31","0","31","0","Wed Oct 14 14:51:42 2020","The main experiment item","yes","Sterbergtask.osexp","C:\Users\Colton\OneDrive\Desktop","no","mono","no","18","no","white","no","yes","768","legacy","19","11","C:/Users/Colton/OneDrive/Desktop/CS-subject-1-LAB 3.1.csv","legacy","6 3 1 7 9 8","Lentiform Loewenfeld","3.3.3","0","n","0","right","left","right","right","NA","654","63955","11544","654","NA","2","legacy","6","1024","2","48000","-16","experiment","1","odd","4","283745","280248","281523","6799","161916","281529","192436","6809","150370","285754","286410","282539","70767","285754","NA","Sterberg task","28","24873","32","yes","1024"
"87.87878787878788","87.87878787878788","769.1212121212121","769.1212121212121","black","experiment","legacy","legacy","legacy","0","uniform","1","undefined","1","left","32","32","32","0","0","32","32","0","0","32","32","32","0","32","0","Wed Oct 14 14:51:42 2020","The main experiment item","yes","Sterbergtask.osexp","C:\Users\Colton\OneDrive\Desktop","no","mono","no","18","no","white","no","yes","768","legacy","20","11","C:/Users/Colton/OneDrive/Desktop/CS-subject-1-LAB 3.1.csv","legacy","8 7 3","Lentiform Loewenfeld","3.3.3","1","y","0","left","left","right","left","NA","508","63955","11544","508","NA","2","legacy","3","1024","2","48000","-16","experiment","1","odd","8","289973","286475","287757","6799","161916","287762","192436","6809","150370","291978","292489","288768","70767","291978","NA","Sterberg task","29","25381","33","yes","1024"
"88.23529411764706","88.23529411764706","767.8823529411765","767.8823529411765","black","experiment","legacy","legacy","legacy","0","uniform","1","undefined","1","right","33","33","33","0","0","33","33","0","0","33","33","33","0","33","0","Wed Oct 14 14:51:42 2020","The main experiment item","yes","Sterbergtask.osexp","C:\Users\Colton\OneDrive\Desktop","no","mono","no","18","no","white","no","yes","768","legacy","21","11","C:/Users/Colton/OneDrive/Desktop/CS-subject-1-LAB 3.1.csv","legacy","2 8 9","Lentiform Loewenfeld","3.3.3","0","n","0","right","left","right","right","NA","727","63955","11544","727","NA","2","legacy","3","1024","2","48000","-16","experiment","1","odd","6","296031","292549","293813","6799","161916","293819","192436","6809","150370","298038","298768","294825","70767","298037","NA","Sterberg task","30","26108","34","yes","1024"
"85.71428571428571","85.71428571428571","759.2","759.2","black","experiment","legacy","legacy","legacy","0","uniform","0","undefined","0","right","34","34","34","0","0","34","34","0","0","34","34","34","0","34","0","Wed Oct 14 14:51:42 2020","The main experiment item","yes","Sterbergtask.osexp","C:\Users\Colton\OneDrive\Desktop","no","mono","no","18","no","white","no","yes","768","legacy","22","11","C:/Users/Colton/OneDrive/Desktop/CS-subject-1-LAB 3.1.csv","legacy","8 6 3 4 7","Lentiform Loewenfeld","3.3.3","0","n","0","left","left","right","left","NA","464","63955","11544","464","NA","2","legacy","5","1024","2","48000","-16","experiment","1","odd","1","302308","298804","300084","6799","161916","300090","192436","6809","150370","304314","304781","301097","70767","304313","NA","Sterberg task","30","26572","35","yes","1024"
"86.11111111111111","86.11111111111111","761.8611111111111","761.8611111111111","black","experiment","legacy","legacy","legacy","0","uniform","1","undefined","1","right","35","35","35","0","0","35","35","0","0","35","35","35","0","35","0","Wed Oct 14 14:51:42 2020","The main experiment item","yes","Sterbergtask.osexp","C:\Users\Colton\OneDrive\Desktop","no","mono","no","18","no","white","no","yes","768","legacy","23","11","C:/Users/Colton/OneDrive/Desktop/CS-subject-1-LAB 3.1.csv","legacy","4 2 7 6 1 3","Lentiform Loewenfeld","3.3.3","0","n","0","right","left","right","right","NA","855","63955","11544","855","NA","2","legacy","6","1024","2","48000","-16","experiment","1","odd","8","308334","298804","306115","6799","161916","306121","304842","6809","150370","310339","311196","307127","70767","310339","NA","Sterberg task","31","27427","36","yes","1024"
"86.48648648648648","86.48648648648648","757.9459459459459","757.9459459459459","black","experiment","legacy","legacy","legacy","0","uniform","1","undefined","1","right","36","36","36","0","0","36","36","0","0","36","36","36","0","36","0","Wed Oct 14 14:51:42 2020","The main experiment item","yes","Sterbergtask.osexp","C:\Users\Colton\OneDrive\Desktop","no","mono","no","18","no","white","no","yes","768","legacy","24","11","C:/Users/Colton/OneDrive/Desktop/CS-subject-1-LAB 3.1.csv","legacy","1 4 9 2 5","Lentiform Loewenfeld","3.3.3","0","n","0","right","left","right","right","NA","617","63955","11544","617","NA","2","legacy","5","1024","2","48000","-16","experiment","1","odd","7","314730","311228","312505","6799","161916","312511","304842","6809","150370","316737","317357","313523","70767","316736","NA","Sterberg task","32","28044","37","yes","1024"
"86.84210526315789","86.84210526315789","756.2631578947369","756.2631578947369","black","experiment","legacy","legacy","legacy","0","uniform","1","undefined","1","left","37","37","37","0","0","37","37","0","0","37","37","37","0","37","0","Wed Oct 14 14:51:42 2020","The main experiment item","yes","Sterbergtask.osexp","C:\Users\Colton\OneDrive\Desktop","no","mono","no","18","no","white","no","yes","768","legacy","25","11","C:/Users/Colton/OneDrive/Desktop/CS-subject-1-LAB 3.1.csv","legacy","6 1 2","Lentiform Loewenfeld","3.3.3","3","y","0","left","left","right","left","NA","694","63955","11544","694","NA","2","legacy","3","1024","2","48000","-16","experiment","1","odd","2","320904","317416","318686","6799","161916","318692","304842","6809","150370","322911","323608","319698","70767","322910","NA","Sterberg task","33","28738","38","yes","1024"
"87.17948717948718","87.17948717948718","751.4615384615385","751.4615384615385","black","experiment","legacy","legacy","legacy","0","uniform","1","undefined","1","right","38","38","38","0","0","38","38","0","0","38","38","38","0","38","0","Wed Oct 14 14:51:42 2020","The main experiment item","yes","Sterbergtask.osexp","C:\Users\Colton\OneDrive\Desktop","no","mono","no","18","no","white","no","yes","768","legacy","26","11","C:/Users/Colton/OneDrive/Desktop/CS-subject-1-LAB 3.1.csv","legacy","2 3 8 5 6 7","Lentiform Loewenfeld","3.3.3","0","n","0","right","left","right","right","NA","569","63955","11544","569","NA","2","legacy","6","1024","2","48000","-16","experiment","1","odd","1","327126","323639","324907","6799","161916","324913","304842","6809","150370","329133","329705","325919","70767","329132","NA","Sterberg task","34","29307","39","yes","1024"
"87.5","87.5","754.4","754.4","black","experiment","legacy","legacy","legacy","0","uniform","1","undefined","1","right","39","39","39","0","0","39","39","0","0","39","39","39","0","39","0","Wed Oct 14 14:51:42 2020","The main experiment item","yes","Sterbergtask.osexp","C:\Users\Colton\OneDrive\Desktop","no","mono","no","18","no","white","no","yes","768","legacy","27","11","C:/Users/Colton/OneDrive/Desktop/CS-subject-1-LAB 3.1.csv","legacy","3 4 9 6 7 8","Lentiform Loewenfeld","3.3.3","0","n","0","right","left","right","right","NA","869","63955","11544","869","NA","2","legacy","6","1024","2","48000","-16","experiment","1","odd","2","333247","329761","331024","6799","161916","331030","304842","6809","150370","335257","336129","332039","70767","335256","NA","Sterberg task","35","30176","40","yes","1024"
"85.36585365853658","85.36585365853658","784.780487804878","784.780487804878","black","experiment","legacy","legacy","legacy","0","uniform","0","undefined","0","left","40","40","40","0","0","40","40","0","0","40","40","40","0","40","0","Wed Oct 14 14:51:42 2020","The main experiment item","yes","Sterbergtask.osexp","C:\Users\Colton\OneDrive\Desktop","no","mono","no","18","no","white","no","yes","768","legacy","28","11","C:/Users/Colton/OneDrive/Desktop/CS-subject-1-LAB 3.1.csv","legacy","8 3","Lentiform Loewenfeld","3.3.3","2","y","0","None","left","right","None","NA","2000","63955","11544","2000","NA","2","legacy","2","1024","2","48000","-16","experiment","1","odd","3","339673","336184","337448","6799","161916","337454","304842","6809","150370","1999765","2001766","338464","70767","341679","NA","Sterberg task","35","32176","41","yes","1024"
"85.71428571428571","85.71428571428571","783.452380952381","783.452380952381","black","experiment","legacy","legacy","legacy","0","uniform","1","undefined","1","right","41","41","41","0","0","41","41","0","0","41","41","41","0","41","0","Wed Oct 14 14:51:42 2020","The main experiment item","yes","Sterbergtask.osexp","C:\Users\Colton\OneDrive\Desktop","no","mono","no","18","no","white","no","yes","768","legacy","29","11","C:/Users/Colton/OneDrive/Desktop/CS-subject-1-LAB 3.1.csv","legacy","1 5 3 2 8","Lentiform Loewenfeld","3.3.3","0","n","0","right","left","right","right","NA","729","63955","11544","729","NA","2","legacy","5","1024","2","48000","-16","experiment","1","odd","4","2005441","336184","2003218","6799","161916","2003223","2001850","6809","150370","2007449","2008180","2004235","70767","2007448","NA","Sterberg task","36","32905","42","yes","1024"
"83.72093023255815","83.72093023255815","781.046511627907","781.046511627907","black","experiment","legacy","legacy","legacy","0","uniform","0","undefined","0","left","42","42","42","0","0","42","42","0","0","42","42","42","0","42","0","Wed Oct 14 14:51:42 2020","The main experiment item","yes","Sterbergtask.osexp","C:\Users\Colton\OneDrive\Desktop","no","mono","no","18","no","white","no","yes","768","legacy","30","11","C:/Users/Colton/OneDrive/Desktop/CS-subject-1-LAB 3.1.csv","legacy","9 5 3 8 4","Lentiform Loewenfeld","3.3.3","1","y","0","right","left","right","right","NA","680","63955","11544","680","NA","2","legacy","5","1024","2","48000","-16","experiment","1","odd","9","2011705","2008216","2009488","6799","161916","2009493","2001850","6809","150370","2013713","2014396","2010499","70767","2013712","NA","Sterberg task","36","33585","43","yes","1024"
"84.0909090909091","84.0909090909091","778.1818181818181","778.1818181818181","black","experiment","legacy","legacy","legacy","0","uniform","1","undefined","1","right","43","43","43","0","0","43","43","0","0","43","43","43","0","43","0","Wed Oct 14 14:51:42 2020","The main experiment item","yes","Sterbergtask.osexp","C:\Users\Colton\OneDrive\Desktop","no","mono","no","18","no","white","no","yes","768","legacy","31","11","C:/Users/Colton/OneDrive/Desktop/CS-subject-1-LAB 3.1.csv","legacy","2 5 1 4","Lentiform Loewenfeld","3.3.3","0","n","0","right","left","right","right","NA","655","63955","11544","655","NA","2","legacy","4","1024","2","48000","-16","experiment","1","odd","6","2017944","2008216","2015728","6799","161916","2015733","2014460","6809","150370","2019951","2020609","2016737","70767","2019951","NA","Sterberg task","37","34240","44","yes","1024"
"84.44444444444444","84.44444444444444","772.4222222222222","772.4222222222222","black","experiment","legacy","legacy","legacy","0","uniform","1","undefined","1","left","44","44","44","0","0","44","44","0","0","44","44","44","0","44","0","Wed Oct 14 14:51:42 2020","The main experiment item","yes","Sterbergtask.osexp","C:\Users\Colton\OneDrive\Desktop","no","mono","no","18","no","white","no","yes","768","legacy","32","11","C:/Users/Colton/OneDrive/Desktop/CS-subject-1-LAB 3.1.csv","legacy","6 7 8 5","Lentiform Loewenfeld","3.3.3","3","y","0","left","left","right","left","NA","519","63955","11544","519","NA","2","legacy","4","1024","2","48000","-16","experiment","1","odd","8","2024154","2020671","2021937","6799","161916","2021943","2014460","6809","150370","2026161","2026684","2022948","70767","2026161","NA","Sterberg task","38","34759","45","yes","1024"
"84.78260869565217","84.78260869565217","771.1739130434783","771.1739130434783","black","experiment","legacy","legacy","legacy","0","uniform","1","undefined","1","left","45","45","45","0","0","45","45","0","0","45","45","45","0","45","0","Wed Oct 14 14:51:42 2020","The main experiment item","yes","Sterbergtask.osexp","C:\Users\Colton\OneDrive\Desktop","no","mono","no","18","no","white","no","yes","768","legacy","33","11","C:/Users/Colton/OneDrive/Desktop/CS-subject-1-LAB 3.1.csv","legacy","3 9 6 2","Lentiform Loewenfeld","3.3.3","4","y","0","left","left","right","left","NA","715","63955","11544","715","NA","2","legacy","4","1024","2","48000","-16","experiment","1","odd","2","2030223","2026739","2028005","6799","161916","2028011","2014460","6809","150370","2032228","2032945","2029016","70767","2032228","NA","Sterberg task","39","35474","46","yes","1024"
"85.1063829787234","85.1063829787234","767.5106382978723","767.5106382978723","black","experiment","legacy","legacy","legacy","0","uniform","1","undefined","1","left","46","46","46","0","0","46","46","0","0","46","46","46","0","46","0","Wed Oct 14 14:51:42 2020","The main experiment item","yes","Sterbergtask.osexp","C:\Users\Colton\OneDrive\Desktop","no","mono","no","18","no","white","no","yes","768","legacy","34","11","C:/Users/Colton/OneDrive/Desktop/CS-subject-1-LAB 3.1.csv","legacy","8 9 6 1","Lentiform Loewenfeld","3.3.3","2","y","0","left","left","right","left","NA","599","63955","11544","599","NA","2","legacy","4","1024","2","48000","-16","experiment","1","odd","9","2036493","2033005","2034274","6799","161916","2034280","2014460","6809","150370","2038500","2039102","2035286","70767","2038500","NA","Sterberg task","40","36073","47","yes","1024"
"85.41666666666667","85.41666666666667","762.4583333333334","762.4583333333334","black","experiment","legacy","legacy","legacy","0","uniform","1","undefined","1","left","47","47","47","0","0","47","47","0","0","47","47","47","0","47","0","Wed Oct 14 14:51:42 2020","The main experiment item","yes","Sterbergtask.osexp","C:\Users\Colton\OneDrive\Desktop","no","mono","no","18","no","white","no","yes","768","legacy","35","11","C:/Users/Colton/OneDrive/Desktop/CS-subject-1-LAB 3.1.csv","legacy","6 5","Lentiform Loewenfeld","3.3.3","2","y","0","left","left","right","left","NA","525","63955","11544","525","NA","2","legacy","2","1024","2","48000","-16","experiment","1","odd","5","2042669","2039161","2040445","6799","161916","2040451","2014460","6809","150370","2044676","2045204","2041458","70767","2044676","NA","Sterberg task","41","36598","48","yes","1024"
"85.71428571428571","85.71428571428571","761.8367346938776","761.8367346938776","black","experiment","legacy","legacy","legacy","0","uniform","1","undefined","1","right","48","48","48","0","0","48","48","0","0","48","48","48","0","48","0","Wed Oct 14 14:51:42 2020","The main experiment item","yes","Sterbergtask.osexp","C:\Users\Colton\OneDrive\Desktop","no","mono","no","18","no","white","no","yes","768","legacy","36","11","C:/Users/Colton/OneDrive/Desktop/CS-subject-1-LAB 3.1.csv","legacy","3 9 8 1 6 4","Lentiform Loewenfeld","3.3.3","0","n","0","right","left","right","right","NA","732","63955","11544","732","NA","2","legacy","6","1024","2","48000","-16","experiment","1","odd","7","2048752","2045262","2046530","6799","161916","2046536","2014460","6809","150370","2050759","2051494","2047545","70767","2050758","NA","Sterberg task","42","37330","49","yes","1024"
"86","86","760.5","760.5","black","experiment","legacy","legacy","legacy","0","uniform","1","undefined","1","left","49","49","49","0","0","49","49","0","0","49","49","49","0","49","0","Wed Oct 14 14:51:42 2020","The main experiment item","yes","Sterbergtask.osexp","C:\Users\Colton\OneDrive\Desktop","no","mono","no","18","no","white","no","yes","768","legacy","37","11","C:/Users/Colton/OneDrive/Desktop/CS-subject-1-LAB 3.1.csv","legacy","8 5 4 7 3 1","Lentiform Loewenfeld","3.3.3","2","y","0","left","left","right","left","NA","695","63955","11544","695","NA","2","legacy","6","1024","2","48000","-16","experiment","1","odd","5","2055014","2051528","2052792","6799","161916","2052798","2014460","6809","150370","2057022","2057720","2053809","70767","2057021","NA","Sterberg task","43","38025","50","yes","1024"
"86.27450980392157","86.27450980392157","760.5294117647059","760.5294117647059","black","experiment","legacy","legacy","legacy","0","uniform","1","undefined","1","right","50","50","50","0","0","50","50","0","0","50","50","50","0","50","0","Wed Oct 14 14:51:42 2020","The main experiment item","yes","Sterbergtask.osexp","C:\Users\Colton\OneDrive\Desktop","no","mono","no","18","no","white","no","yes","768","legacy","38","11","C:/Users/Colton/OneDrive/Desktop/CS-subject-1-LAB 3.1.csv","legacy","8 9","Lentiform Loewenfeld","3.3.3","0","n","0","right","left","right","right","NA","762","63955","11544","762","NA","2","legacy","2","1024","2","48000","-16","experiment","1","odd","5","2061275","2057795","2059056","6799","161916","2059062","2014460","6809","150370","2063283","2064049","2060069","70767","2063283","NA","Sterberg task","44","38787","51","yes","1024"
"86.53846153846153","86.53846153846153","755.5384615384615","755.5384615384615","black","experiment","legacy","legacy","legacy","0","uniform","1","undefined","1","left","51","51","51","0","0","51","51","0","0","51","51","51","0","51","0","Wed Oct 14 14:51:42 2020","The main experiment item","yes","Sterbergtask.osexp","C:\Users\Colton\OneDrive\Desktop","no","mono","no","18","no","white","no","yes","768","legacy","39","11","C:/Users/Colton/OneDrive/Desktop/CS-subject-1-LAB 3.1.csv","legacy","2 6 1 7 4","Lentiform Loewenfeld","3.3.3","2","y","0","left","left","right","left","NA","501","63955","11544","501","NA","2","legacy","5","1024","2","48000","-16","experiment","1","odd","6","2067589","2064106","2065371","6799","161916","2065377","2014460","6809","150370","2069595","2070099","2066383","70767","2069595","NA","Sterberg task","45","39288","52","yes","1024"
"86.79245283018868","86.79245283018868","752.811320754717","752.811320754717","black","experiment","legacy","legacy","legacy","0","uniform","1","undefined","1","left","52","52","52","0","0","52","52","0","0","52","52","52","0","52","0","Wed Oct 14 14:51:42 2020","The main experiment item","yes","Sterbergtask.osexp","C:\Users\Colton\OneDrive\Desktop","no","mono","no","18","no","white","no","yes","768","legacy","40","11","C:/Users/Colton/OneDrive/Desktop/CS-subject-1-LAB 3.1.csv","legacy","8 9 5 7 1 6","Lentiform Loewenfeld","3.3.3","4","y","0","left","left","right","left","NA","611","63955","11544","611","NA","2","legacy","6","1024","2","48000","-16","experiment","1","odd","7","2073670","2070177","2071450","6799","161916","2071456","2014460","6809","150370","2075677","2076291","2072462","70767","2075677","NA","Sterberg task","46","39899","53","yes","1024"
"87.03703703703704","87.03703703703704","750.7777777777778","750.7777777777778","black","experiment","legacy","legacy","legacy","0","uniform","1","undefined","1","right","53","53","53","0","0","53","53","0","0","53","53","53","0","53","0","Wed Oct 14 14:51:42 2020","The main experiment item","yes","Sterbergtask.osexp","C:\Users\Colton\OneDrive\Desktop","no","mono","no","18","no","white","no","yes","768","legacy","41","11","C:/Users/Colton/OneDrive/Desktop/CS-subject-1-LAB 3.1.csv","legacy","1 7 8 3 9","Lentiform Loewenfeld","3.3.3","0","n","0","right","left","right","right","NA","643","63955","11544","643","NA","2","legacy","5","1024","2","48000","-16","experiment","1","odd","2","2079842","2076351","2077618","6799","161916","2077624","2014460","6809","150370","2081853","2082499","2078632","70767","2081852","NA","Sterberg task","47","40542","54","yes","1024"
"87.27272727272727","87.27272727272727","750.2181818181818","750.2181818181818","black","experiment","legacy","legacy","legacy","0","uniform","1","undefined","1","left","54","54","54","0","0","54","54","0","0","54","54","54","0","54","0","Wed Oct 14 14:51:42 2020","The main experiment item","yes","Sterbergtask.osexp","C:\Users\Colton\OneDrive\Desktop","no","mono","no","18","no","white","no","yes","768","legacy","42","11","C:/Users/Colton/OneDrive/Desktop/CS-subject-1-LAB 3.1.csv","legacy","9 8 4","Lentiform Loewenfeld","3.3.3","1","y","0","left","left","right","left","NA","720","63955","11544","720","NA","2","legacy","3","1024","2","48000","-16","experiment","1","odd","9","2086044","2082562","2083822","6799","161916","2083827","2014460","6809","150370","2088051","2088774","2084834","70767","2088050","NA","Sterberg task","48","41262","55","yes","1024"
"87.5","87.5","748.2142857142857","748.2142857142857","black","experiment","legacy","legacy","legacy","0","uniform","1","undefined","1","right","55","55","55","0","0","55","55","0","0","55","55","55","0","55","0","Wed Oct 14 14:51:42 2020","The main experiment item","yes","Sterbergtask.osexp","C:\Users\Colton\OneDrive\Desktop","no","mono","no","18","no","white","no","yes","768","legacy","43","11","C:/Users/Colton/OneDrive/Desktop/CS-subject-1-LAB 3.1.csv","legacy","7 1 8 4 9 3","Lentiform Loewenfeld","3.3.3","0","n","0","right","left","right","right","NA","638","63955","11544","638","NA","2","legacy","6","1024","2","48000","-16","experiment","1","odd","6","2092319","2088829","2090103","6799","161916","2090109","2014460","6809","150370","2094324","2094964","2091114","70767","2094323","NA","Sterberg task","49","41900","56","yes","1024"
"87.71929824561404","87.71929824561404","743.280701754386","743.280701754386","black","experiment","legacy","legacy","legacy","0","uniform","1","undefined","1","left","56","56","56","0","0","56","56","0","0","56","56","56","0","56","0","Wed Oct 14 14:51:42 2020","The main experiment item","yes","Sterbergtask.osexp","C:\Users\Colton\OneDrive\Desktop","no","mono","no","18","no","white","no","yes","768","legacy","44","11","C:/Users/Colton/OneDrive/Desktop/CS-subject-1-LAB 3.1.csv","legacy","5 7 8 2 3 8","Lentiform Loewenfeld","3.3.3","5","y","0","left","left","right","left","NA","467","63955","11544","467","NA","2","legacy","6","1024","2","48000","-16","experiment","1","odd","3","2098487","2094995","2096267","6799","161916","2096272","2014460","6809","150370","2100491","2100961","2097280","70767","2100491","NA","Sterberg task","50","42367","57","yes","1024"
"87.93103448275862","87.93103448275862","743.7931034482758","743.7931034482758","black","experiment","legacy","legacy","legacy","0","uniform","1","undefined","1","left","57","57","57","0","0","57","57","0","0","57","57","57","0","57","0","Wed Oct 14 14:51:42 2020","The main experiment item","yes","Sterbergtask.osexp","C:\Users\Colton\OneDrive\Desktop","no","mono","no","18","no","white","no","yes","768","legacy","45","11","C:/Users/Colton/OneDrive/Desktop/CS-subject-1-LAB 3.1.csv","legacy","2 8 5 1","Lentiform Loewenfeld","3.3.3","4","y","0","left","left","right","left","NA","773","63955","11544","773","NA","2","legacy","4","1024","2","48000","-16","experiment","1","odd","1","2104503","2101007","2102283","6799","161916","2102289","2014460","6809","150370","2106510","2107286","2103295","70767","2106510","NA","Sterberg task","51","43140","58","yes","1024"
"88.13559322033899","88.13559322033899","740.1864406779661","740.1864406779661","black","experiment","legacy","legacy","legacy","0","uniform","1","undefined","1","left","58","58","58","0","0","58","58","0","0","58","58","58","0","58","0","Wed Oct 14 14:51:42 2020","The main experiment item","yes","Sterbergtask.osexp","C:\Users\Colton\OneDrive\Desktop","no","mono","no","18","no","white","no","yes","768","legacy","46","11","C:/Users/Colton/OneDrive/Desktop/CS-subject-1-LAB 3.1.csv","legacy","9 3 1 2 5","Lentiform Loewenfeld","3.3.3","4","y","0","left","left","right","left","NA","531","63955","11544","531","NA","2","legacy","5","1024","2","48000","-16","experiment","1","odd","2","2110820","2107319","2108602","6799","161916","2108608","2014460","6809","150370","2112827","2113362","2109615","70767","2112825","NA","Sterberg task","52","43671","59","yes","1024"
"88.33333333333333","88.33333333333333","735","735","black","experiment","legacy","legacy","legacy","0","uniform","1","undefined","1","left","59","59","59","0","0","59","59","0","0","59","59","59","0","59","0","Wed Oct 14 14:51:42 2020","The main experiment item","yes","Sterbergtask.osexp","C:\Users\Colton\OneDrive\Desktop","no","mono","no","18","no","white","no","yes","768","legacy","47","11","C:/Users/Colton/OneDrive/Desktop/CS-subject-1-LAB 3.1.csv","legacy","5 2 6","Lentiform Loewenfeld","3.3.3","2","y","0","left","left","right","left","NA","429","63955","11544","429","NA","2","legacy","3","1024","2","48000","-16","experiment","1","odd","2","2116912","2113419","2114694","6799","161916","2114700","2014460","6809","150370","2118920","2119353","2115706","70767","2118919","NA","Sterberg task","53","44100","60","yes","1024"
"88.52459016393442","88.52459016393442","731.8360655737705","731.8360655737705","black","experiment","legacy","legacy","legacy","0","uniform","1","undefined","1","right","60","60","60","0","0","60","60","0","0","60","60","60","0","60","0","Wed Oct 14 14:51:42 2020","The main experiment item","yes","Sterbergtask.osexp","C:\Users\Colton\OneDrive\Desktop","no","mono","no","18","no","white","no","yes","768","legacy","48","11","C:/Users/Colton/OneDrive/Desktop/CS-subject-1-LAB 3.1.csv","legacy","7 1","Lentiform Loewenfeld","3.3.3","0","n","0","right","left","right","right","NA","542","63955","11544","542","NA","2","legacy","2","1024","2","48000","-16","experiment","1","odd","8","2122919","2119430","2120696","6799","161916","2120702","2014460","6809","150370","2124924","2125470","2121712","70767","2124924","NA","Sterberg task","54","44642","61","yes","1024"
"88.70967741935483","88.70967741935483","729.4032258064516","729.4032258064516","black","experiment","legacy","legacy","legacy","0","uniform","1","undefined","1","left","61","61","61","0","0","61","61","0","0","61","61","61","0","61","0","Wed Oct 14 14:51:42 2020","The main experiment item","yes","Sterbergtask.osexp","C:\Users\Colton\OneDrive\Desktop","no","mono","no","18","no","white","no","yes","768","legacy","49","11","C:/Users/Colton/OneDrive/Desktop/CS-subject-1-LAB 3.1.csv","legacy","3 5 7 1","Lentiform Loewenfeld","3.3.3","3","y","0","left","left","right","left","NA","581","63955","11544","581","NA","2","legacy","4","1024","2","48000","-16","experiment","1","odd","7","2129019","2125530","2126794","6799","161916","2126801","2014460","6809","150370","2131024","2131609","2127807","70767","2131024","NA","Sterberg task","55","45223","62","yes","1024"
"88.88888888888889","88.88888888888889","728.2698412698413","728.2698412698413","black","experiment","legacy","legacy","legacy","0","uniform","1","undefined","1","left","62","62","62","0","0","62","62","0","0","62","62","62","0","62","0","Wed Oct 14 14:51:42 2020","The main experiment item","yes","Sterbergtask.osexp","C:\Users\Colton\OneDrive\Desktop","no","mono","no","18","no","white","no","yes","768","legacy","50","11","C:/Users/Colton/OneDrive/Desktop/CS-subject-1-LAB 3.1.csv","legacy","8 5 3 7 4 6","Lentiform Loewenfeld","3.3.3","6","y","0","left","left","right","left","NA","658","63955","11544","658","NA","2","legacy","6","1024","2","48000","-16","experiment","1","odd","6","2135155","2131664","2132937","6799","161916","2132943","2014460","6809","150370","2137161","2137823","2133949","70767","2137160","NA","Sterberg task","56","45881","63","yes","1024"
"89.0625","89.0625","725.234375","725.234375","black","experiment","legacy","legacy","legacy","0","uniform","1","undefined","1","right","63","63","63","0","0","63","63","0","0","63","63","63","0","63","0","Wed Oct 14 14:51:42 2020","The main experiment item","yes","Sterbergtask.osexp","C:\Users\Colton\OneDrive\Desktop","no","mono","no","18","no","white","no","yes","768","legacy","51","11","C:/Users/Colton/OneDrive/Desktop/CS-subject-1-LAB 3.1.csv","legacy","1 4 9 3","Lentiform Loewenfeld","3.3.3","0","n","0","right","left","right","right","NA","534","63955","11544","534","NA","2","legacy","4","1024","2","48000","-16","experiment","1","odd","5","2141362","2137885","2139145","6799","161916","2139150","2014460","6809","150370","2143369","2143907","2140155","70767","2143369","NA","Sterberg task","57","46415","64","yes","1024"
"89.23076923076923","89.23076923076923","723.0769230769231","723.0769230769231","black","experiment","legacy","legacy","legacy","0","uniform","1","undefined","1","left","64","64","64","0","0","64","64","0","0","64","64","64","0","64","0","Wed Oct 14 14:51:42 2020","The main experiment item","yes","Sterbergtask.osexp","C:\Users\Colton\OneDrive\Desktop","no","mono","no","18","no","white","no","yes","768","legacy","52","11","C:/Users/Colton/OneDrive/Desktop/CS-subject-1-LAB 3.1.csv","legacy","6 7 9 3 1 2","Lentiform Loewenfeld","3.3.3","1","y","0","left","left","right","left","NA","585","63955","11544","585","NA","2","legacy","6","1024","2","48000","-16","experiment","1","odd","6","2147452","2143964","2145233","6799","161916","2145239","2014460","6809","150370","2149459","2150048","2146245","70767","2149458","NA","Sterberg task","58","47000","65","yes","1024"
"89.39393939393939","89.39393939393939","721.8181818181819","721.8181818181819","black","experiment","legacy","legacy","legacy","0","uniform","1","undefined","1","right","65","65","65","0","0","65","65","0","0","65","65","65","0","65","0","Wed Oct 14 14:51:42 2020","The main experiment item","yes","Sterbergtask.osexp","C:\Users\Colton\OneDrive\Desktop","no","mono","no","18","no","white","no","yes","768","legacy","53","11","C:/Users/Colton/OneDrive/Desktop/CS-subject-1-LAB 3.1.csv","legacy","5 2","Lentiform Loewenfeld","3.3.3","0","n","0","right","left","right","right","NA","640","63955","11544","640","NA","2","legacy","2","1024","2","48000","-16","experiment","1","odd","7","2153611","2150131","2151391","6799","161916","2151397","2014460","6809","150370","2155616","2156259","2152405","70767","2155616","NA","Sterberg task","59","47640","66","yes","1024"
"89.55223880597015","89.55223880597015","718.7462686567164","718.7462686567164","black","experiment","legacy","legacy","legacy","0","uniform","1","undefined","1","left","66","66","66","0","0","66","66","0","0","66","66","66","0","66","0","Wed Oct 14 14:51:42 2020","The main experiment item","yes","Sterbergtask.osexp","C:\Users\Colton\OneDrive\Desktop","no","mono","no","18","no","white","no","yes","768","legacy","54","11","C:/Users/Colton/OneDrive/Desktop/CS-subject-1-LAB 3.1.csv","legacy","9 1 7 2","Lentiform Loewenfeld","3.3.3","2","y","0","left","left","right","left","NA","516","63955","11544","516","NA","2","legacy","4","1024","2","48000","-16","experiment","1","odd","1","2159805","2156320","2157583","6799","161916","2157589","2014460","6809","150370","2161811","2162331","2158595","70767","2161811","NA","Sterberg task","60","48156","67","yes","1024"
"89.70588235294117","89.70588235294117","716.6029411764706","716.6029411764706","black","experiment","legacy","legacy","legacy","0","uniform","1","undefined","1","left","67","67","67","0","0","67","67","0","0","67","67","67","0","67","0","Wed Oct 14 14:51:42 2020","The main experiment item","yes","Sterbergtask.osexp","C:\Users\Colton\OneDrive\Desktop","no","mono","no","18","no","white","no","yes","768","legacy","55","11","C:/Users/Colton/OneDrive/Desktop/CS-subject-1-LAB 3.1.csv","legacy","3 9 7 6 4","Lentiform Loewenfeld","3.3.3","3","y","0","left","left","right","left","NA","573","63955","11544","573","NA","2","legacy","5","1024","2","48000","-16","experiment","1","odd","7","2165882","2162390","2163661","6799","161916","2163667","2014460","6809","150370","2167889","2168465","2164674","70767","2167888","NA","Sterberg task","61","48729","68","yes","1024"
"89.85507246376811","89.85507246376811","717.2173913043479","717.2173913043479","black","experiment","legacy","legacy","legacy","0","uniform","1","undefined","1","left","68","68","68","0","0","68","68","0","0","68","68","68","0","68","0","Wed Oct 14 14:51:42 2020","The main experiment item","yes","Sterbergtask.osexp","C:\Users\Colton\OneDrive\Desktop","no","mono","no","18","no","white","no","yes","768","legacy","56","11","C:/Users/Colton/OneDrive/Desktop/CS-subject-1-LAB 3.1.csv","legacy","4 7 6 8 2 3","Lentiform Loewenfeld","3.3.3","6","y","0","left","left","right","left","NA","759","63955","11544","759","NA","2","legacy","6","1024","2","48000","-16","experiment","1","odd","3","2172015","2168531","2169795","6799","161916","2169801","2014460","6809","150370","2174021","2174783","2170808","70767","2174021","NA","Sterberg task","62","49488","69","yes","1024"
"90","90","713.2571428571429","713.2571428571429","black","experiment","legacy","legacy","legacy","0","uniform","1","undefined","1","left","69","69","69","0","0","69","69","0","0","69","69","69","0","69","0","Wed Oct 14 14:51:42 2020","The main experiment item","yes","Sterbergtask.osexp","C:\Users\Colton\OneDrive\Desktop","no","mono","no","18","no","white","no","yes","768","legacy","57","11","C:/Users/Colton/OneDrive/Desktop/CS-subject-1-LAB 3.1.csv","legacy","3 5 4 7","Lentiform Loewenfeld","3.3.3","1","y","0","left","left","right","left","NA","440","63955","11544","440","NA","2","legacy","4","1024","2","48000","-16","experiment","1","odd","3","2178308","2174821","2176090","6799","161916","2176096","2014460","6809","150370","2180314","2180757","2177102","70767","2180314","NA","Sterberg task","63","49928","70","yes","1024"
"90.14084507042253","90.14084507042253","710.9295774647887","710.9295774647887","black","experiment","legacy","legacy","legacy","0","uniform","1","undefined","1","left","70","70","70","0","0","70","70","0","0","70","70","70","0","70","0","Wed Oct 14 14:51:42 2020","The main experiment item","yes","Sterbergtask.osexp","C:\Users\Colton\OneDrive\Desktop","no","mono","no","18","no","white","no","yes","768","legacy","58","11","C:/Users/Colton/OneDrive/Desktop/CS-subject-1-LAB 3.1.csv","legacy","3 2 1 4 7","Lentiform Loewenfeld","3.3.3","2","y","0","left","left","right","left","NA","548","63955","11544","548","NA","2","legacy","5","1024","2","48000","-16","experiment","1","odd","2","2184311","2180821","2182091","6799","161916","2182097","2014460","6809","150370","2186316","2186868","2183105","70767","2186316","NA","Sterberg task","64","50476","71","yes","1024"
"88.88888888888889","88.88888888888889","714.5416666666666","714.5416666666666","black","experiment","legacy","legacy","legacy","0","uniform","0","undefined","0","left","71","71","71","0","0","71","71","0","0","71","71","71","0","71","0","Wed Oct 14 14:51:42 2020","The main experiment item","yes","Sterbergtask.osexp","C:\Users\Colton\OneDrive\Desktop","no","mono","no","18","no","white","no","yes","768","legacy","59","11","C:/Users/Colton/OneDrive/Desktop/CS-subject-1-LAB 3.1.csv","legacy","1 4 9 3 2 5","Lentiform Loewenfeld","3.3.3","3","y","0","right","left","right","right","NA","971","63955","11544","971","NA","2","legacy","6","1024","2","48000","-16","experiment","1","odd","9","2190423","2186931","2188204","6799","161916","2188210","2014460","6809","150370","2192430","2193405","2189216","70767","2192430","NA","Sterberg task","64","51447","72","yes","1024"
"89.04109589041096","89.04109589041096","710.6712328767123","710.6712328767123","black","experiment","legacy","legacy","legacy","0","uniform","1","undefined","1","left","72","72","72","0","0","72","72","0","0","72","72","72","0","72","0","Wed Oct 14 14:51:42 2020","The main experiment item","yes","Sterbergtask.osexp","C:\Users\Colton\OneDrive\Desktop","no","mono","no","18","no","white","no","yes","768","legacy","60","11","C:/Users/Colton/OneDrive/Desktop/CS-subject-1-LAB 3.1.csv","legacy","7 6","Lentiform Loewenfeld","3.3.3","2","y","0","left","left","right","left","NA","432","63955","11544","432","NA","2","legacy","2","1024","2","48000","-16","experiment","1","odd","6","2196941","2186931","2194717","6799","161916","2194723","2193443","6809","150370","2198946","2199382","2195735","70767","2198946","NA","Sterberg task","65","51879","73","yes","1024"
"87.83783783783784","87.83783783783784","708.7702702702703","708.7702702702703","black","experiment","legacy","legacy","legacy","0","uniform","0","undefined","0","right","73","73","73","0","0","73","73","0","0","73","73","73","0","73","0","Wed Oct 14 14:51:42 2020","The main experiment item","yes","Sterbergtask.osexp","C:\Users\Colton\OneDrive\Desktop","no","mono","no","18","no","white","no","yes","768","legacy","61","11","C:/Users/Colton/OneDrive/Desktop/CS-subject-1-LAB 3.1.csv","legacy","5 3 8 7 2 4","Lentiform Loewenfeld","3.3.3","0","n","0","left","left","right","left","NA","570","63955","11544","570","NA","2","legacy","6","1024","2","48000","-16","experiment","1","odd","9","2202929","2199443","2200711","6799","161916","2200716","2193443","6809","150370","2204935","2205509","2201722","70767","2204935","NA","Sterberg task","65","52449","74","yes","1024"
"88","88","707.5333333333333","707.5333333333333","black","experiment","legacy","legacy","legacy","0","uniform","1","undefined","1","left","74","74","74","0","0","74","74","0","0","74","74","74","0","74","0","Wed Oct 14 14:51:42 2020","The main experiment item","yes","Sterbergtask.osexp","C:\Users\Colton\OneDrive\Desktop","no","mono","no","18","no","white","no","yes","768","legacy","62","11","C:/Users/Colton/OneDrive/Desktop/CS-subject-1-LAB 3.1.csv","legacy","4 6 5 8","Lentiform Loewenfeld","3.3.3","1","y","0","left","left","right","left","NA","616","63955","11544","616","NA","2","legacy","4","1024","2","48000","-16","experiment","1","odd","4","2209054","2199443","2206837","6799","161916","2206843","2205565","6809","150370","2211065","2211685","2207847","70767","2211064","NA","Sterberg task","66","53065","75","yes","1024"
"86.84210526315789","86.84210526315789","707","707","black","experiment","legacy","legacy","legacy","0","uniform","0","undefined","0","right","75","75","75","0","0","75","75","0","0","75","75","75","0","75","0","Wed Oct 14 14:51:42 2020","The main experiment item","yes","Sterbergtask.osexp","C:\Users\Colton\OneDrive\Desktop","no","mono","no","18","no","white","no","yes","768","legacy","63","11","C:/Users/Colton/OneDrive/Desktop/CS-subject-1-LAB 3.1.csv","legacy","6 9 4 5 3 2","Lentiform Loewenfeld","3.3.3","0","n","0","left","left","right","left","NA","667","63955","11544","667","NA","2","legacy","6","1024","2","48000","-16","experiment","1","odd","8","2215225","2211743","2213003","6799","161916","2213008","2205565","6809","150370","2217233","2217903","2214015","70767","2217233","NA","Sterberg task","66","53732","76","yes","1024"
"87.01298701298701","87.01298701298701","705.4545454545455","705.4545454545455","black","experiment","legacy","legacy","legacy","0","uniform","1","undefined","1","right","76","76","76","0","0","76","76","0","0","76","76","76","0","76","0","Wed Oct 14 14:51:42 2020","The main experiment item","yes","Sterbergtask.osexp","C:\Users\Colton\OneDrive\Desktop","no","mono","no","18","no","white","no","yes","768","legacy","64","11","C:/Users/Colton/OneDrive/Desktop/CS-subject-1-LAB 3.1.csv","legacy","8 2 1 4 5 9","Lentiform Loewenfeld","3.3.3","0","n","0","right","left","right","right","NA","588","63955","11544","588","NA","2","legacy","6","1024","2","48000","-16","experiment","1","odd","7","2221465","2211743","2219248","6799","161916","2219254","2217979","6809","150370","2223471","2224062","2220260","70767","2223470","NA","Sterberg task","67","54320","77","yes","1024"
"87.17948717948718","87.17948717948718","702.7948717948718","702.7948717948718","black","experiment","legacy","legacy","legacy","0","uniform","1","undefined","1","left","77","77","77","0","0","77","77","0","0","77","77","77","0","77","0","Wed Oct 14 14:51:42 2020","The main experiment item","yes","Sterbergtask.osexp","C:\Users\Colton\OneDrive\Desktop","no","mono","no","18","no","white","no","yes","768","legacy","65","11","C:/Users/Colton/OneDrive/Desktop/CS-subject-1-LAB 3.1.csv","legacy","4","Lentiform Loewenfeld","3.3.3","1","y","0","left","left","right","left","NA","498","63955","11544","498","NA","2","legacy","1","1024","2","48000","-16","experiment","1","odd","4","2227649","2224137","2225434","6799","161916","2225439","2217979","6809","150370","2229657","2230158","2226444","70767","2229657","NA","Sterberg task","68","54818","78","yes","1024"
"87.34177215189874","87.34177215189874","700.3164556962025","700.3164556962025","black","experiment","legacy","legacy","legacy","0","uniform","1","undefined","1","left","78","78","78","0","0","78","78","0","0","78","78","78","0","78","0","Wed Oct 14 14:51:42 2020","The main experiment item","yes","Sterbergtask.osexp","C:\Users\Colton\OneDrive\Desktop","no","mono","no","18","no","white","no","yes","768","legacy","66","11","C:/Users/Colton/OneDrive/Desktop/CS-subject-1-LAB 3.1.csv","legacy","7 8 6 3 1","Lentiform Loewenfeld","3.3.3","5","y","0","left","left","right","left","NA","507","63955","11544","507","NA","2","legacy","5","1024","2","48000","-16","experiment","1","odd","1","2233717","2230222","2231494","6799","161916","2231500","2217979","6809","150370","2235723","2236233","2232506","70767","2235723","NA","Sterberg task","69","55325","79","yes","1024"
"87.5","87.5","700.875","700.875","black","experiment","legacy","legacy","legacy","0","uniform","1","undefined","1","right","79","79","79","0","0","79","79","0","0","79","79","79","0","79","0","Wed Oct 14 14:51:42 2020","The main experiment item","yes","Sterbergtask.osexp","C:\Users\Colton\OneDrive\Desktop","no","mono","no","18","no","white","no","yes","768","legacy","67","11","C:/Users/Colton/OneDrive/Desktop/CS-subject-1-LAB 3.1.csv","legacy","1 7 5 2 9","Lentiform Loewenfeld","3.3.3","0","n","0","right","left","right","right","NA","745","63955","11544","745","NA","2","legacy","5","1024","2","48000","-16","experiment","1","odd","3","2239780","2236288","2237558","6799","161916","2237563","2217979","6809","150370","2241787","2242535","2238570","70767","2241786","NA","Sterberg task","70","56070","80","yes","1024"
"87.65432098765432","87.65432098765432","700.2098765432099","700.2098765432099","black","experiment","legacy","legacy","legacy","0","uniform","1","undefined","1","right","80","80","80","0","0","80","80","0","0","80","80","80","0","80","0","Wed Oct 14 14:51:42 2020","The main experiment item","yes","Sterbergtask.osexp","C:\Users\Colton\OneDrive\Desktop","no","mono","no","18","no","white","no","yes","768","legacy","68","11","C:/Users/Colton/OneDrive/Desktop/CS-subject-1-LAB 3.1.csv","legacy","7 6 4 8 1 2","Lentiform Loewenfeld","3.3.3","0","n","0","right","left","right","right","NA","647","63955","11544","647","NA","2","legacy","6","1024","2","48000","-16","experiment","1","odd","9","2246073","2242588","2243857","6799","161916","2243862","2217979","6809","150370","2248085","2248736","2244867","70767","2248084","NA","Sterberg task","71","56717","81","yes","1024"
"87.8048780487805","87.8048780487805","699.3658536585366","699.3658536585366","black","experiment","legacy","legacy","legacy","0","uniform","1","undefined","1","right","81","81","81","0","0","81","81","0","0","81","81","81","0","81","0","Wed Oct 14 14:51:42 2020","The main experiment item","yes","Sterbergtask.osexp","C:\Users\Colton\OneDrive\Desktop","no","mono","no","18","no","white","no","yes","768","legacy","69","11","C:/Users/Colton/OneDrive/Desktop/CS-subject-1-LAB 3.1.csv","legacy","1 7 5 2","Lentiform Loewenfeld","3.3.3","0","n","0","right","left","right","right","NA","631","63955","11544","631","NA","2","legacy","4","1024","2","48000","-16","experiment","1","odd","3","2252288","2248800","2250065","6799","161916","2250071","2217979","6809","150370","2254297","2254933","2251078","70767","2254296","NA","Sterberg task","72","57348","82","yes","1024"
"87.95180722891567","87.95180722891567","698.3132530120482","698.3132530120482","black","experiment","legacy","legacy","legacy","0","uniform","1","undefined","1","right","82","82","82","0","0","82","82","0","0","82","82","82","0","82","0","Wed Oct 14 14:51:42 2020","The main experiment item","yes","Sterbergtask.osexp","C:\Users\Colton\OneDrive\Desktop","no","mono","no","18","no","white","no","yes","768","legacy","70","11","C:/Users/Colton/OneDrive/Desktop/CS-subject-1-LAB 3.1.csv","legacy","9 8 2 7 4","Lentiform Loewenfeld","3.3.3","0","n","0","right","left","right","right","NA","612","63955","11544","612","NA","2","legacy","5","1024","2","48000","-16","experiment","1","odd","5","2258465","2254967","2256246","6799","161916","2256252","2217979","6809","150370","2260472","2261088","2257259","70767","2260472","NA","Sterberg task","73","57960","83","yes","1024"
"88.0952380952381","88.0952380952381","697.9047619047619","697.9047619047619","black","experiment","legacy","legacy","legacy","0","uniform","1","undefined","1","right","83","83","83","0","0","83","83","0","0","83","83","83","0","83","0","Wed Oct 14 14:51:42 2020","The main experiment item","yes","Sterbergtask.osexp","C:\Users\Colton\OneDrive\Desktop","no","mono","no","18","no","white","no","yes","768","legacy","71","11","C:/Users/Colton/OneDrive/Desktop/CS-subject-1-LAB 3.1.csv","legacy","9","Lentiform Loewenfeld","3.3.3","0","n","0","right","left","right","right","NA","664","63955","11544","664","NA","2","legacy","1","1024","2","48000","-16","experiment","1","odd","6","2264637","2261144","2262412","6799","161916","2262418","2217979","6809","150370","2266648","2267316","2263424","70767","2266647","NA","Sterberg task","74","58624","84","yes","1024"
"88.23529411764706","88.23529411764706","696.1882352941177","696.1882352941177","black","experiment","legacy","legacy","legacy","0","uniform","1","undefined","1","right","84","84","84","0","0","84","84","0","0","84","84","84","0","84","0","Wed Oct 14 14:51:42 2020","The main experiment item","yes","Sterbergtask.osexp","C:\Users\Colton\OneDrive\Desktop","no","mono","no","18","no","white","no","yes","768","legacy","72","11","C:/Users/Colton/OneDrive/Desktop/CS-subject-1-LAB 3.1.csv","legacy","5 9 2 3","Lentiform Loewenfeld","3.3.3","0","n","0","right","left","right","right","NA","552","63955","11544","552","NA","2","legacy","4","1024","2","48000","-16","experiment","1","odd","8","2270860","2267357","2268639","6799","161916","2268644","2217979","6809","150370","2272866","2273423","2269652","70767","2272865","NA","Sterberg task","75","59176","85","yes","1024"
"88.37209302325581","88.37209302325581","696.2906976744187","696.2906976744187","black","experiment","legacy","legacy","legacy","0","uniform","1","undefined","1","right","85","85","85","0","0","85","85","0","0","85","85","85","0","85","0","Wed Oct 14 14:51:42 2020","The main experiment item","yes","Sterbergtask.osexp","C:\Users\Colton\OneDrive\Desktop","no","mono","no","18","no","white","no","yes","768","legacy","73","11","C:/Users/Colton/OneDrive/Desktop/CS-subject-1-LAB 3.1.csv","legacy","7 1 5 6 3","Lentiform Loewenfeld","3.3.3","0","n","0","right","left","right","right","NA","705","63955","11544","705","NA","2","legacy","5","1024","2","48000","-16","experiment","1","odd","8","2276962","2273478","2274741","6799","161916","2274747","2217979","6809","150370","2278970","2279679","2275754","70767","2278969","NA","Sterberg task","76","59881","86","yes","1024"
"88.50574712643679","88.50574712643679","695.551724137931","695.551724137931","black","experiment","legacy","legacy","legacy","0","uniform","1","undefined","1","right","86","86","86","0","0","86","86","0","0","86","86","86","0","86","0","Wed Oct 14 14:51:42 2020","The main experiment item","yes","Sterbergtask.osexp","C:\Users\Colton\OneDrive\Desktop","no","mono","no","18","no","white","no","yes","768","legacy","74","11","C:/Users/Colton/OneDrive/Desktop/CS-subject-1-LAB 3.1.csv","legacy","2 6 4 3 9","Lentiform Loewenfeld","3.3.3","0","n","0","right","left","right","right","NA","632","63955","11544","632","NA","2","legacy","5","1024","2","48000","-16","experiment","1","odd","1","2283231","2279734","2281007","6799","161916","2281014","2217979","6809","150370","2285238","2285875","2282024","70767","2285238","NA","Sterberg task","77","60513","87","yes","1024"
"88.63636363636364","88.63636363636364","692.5113636363636","692.5113636363636","black","experiment","legacy","legacy","legacy","0","uniform","1","undefined","1","left","87","87","87","0","0","87","87","0","0","87","87","87","0","87","0","Wed Oct 14 14:51:42 2020","The main experiment item","yes","Sterbergtask.osexp","C:\Users\Colton\OneDrive\Desktop","no","mono","no","18","no","white","no","yes","768","legacy","75","11","C:/Users/Colton/OneDrive/Desktop/CS-subject-1-LAB 3.1.csv","legacy","7 1 8 5 6 2","Lentiform Loewenfeld","3.3.3","2","y","0","left","left","right","left","NA","428","63955","11544","428","NA","2","legacy","6","1024","2","48000","-16","experiment","1","odd","1","2289434","2285935","2287216","6799","161916","2287221","2217979","6809","150370","2291442","2291874","2288228","70767","2291441","NA","Sterberg task","78","60941","88","yes","1024"
"88.76404494382022","88.76404494382022","689.6741573033707","689.6741573033707","black","experiment","legacy","legacy","legacy","0","uniform","1","undefined","1","left","88","88","88","0","0","88","88","0","0","88","88","88","0","88","0","Wed Oct 14 14:51:42 2020","The main experiment item","yes","Sterbergtask.osexp","C:\Users\Colton\OneDrive\Desktop","no","mono","no","18","no","white","no","yes","768","legacy","76","11","C:/Users/Colton/OneDrive/Desktop/CS-subject-1-LAB 3.1.csv","legacy","9 1 6 7 8","Lentiform Loewenfeld","3.3.3","1","y","0","left","left","right","left","NA","440","63955","11544","440","NA","2","legacy","5","1024","2","48000","-16","experiment","1","odd","9","2295425","2291935","2293203","6799","161916","2293209","2217979","6809","150370","2297429","2297873","2294219","70767","2297429","NA","Sterberg task","79","61381","89","yes","1024"
"88.88888888888889","88.88888888888889","688.5333333333333","688.5333333333333","black","experiment","legacy","legacy","legacy","0","uniform","1","undefined","1","right","89","89","89","0","0","89","89","0","0","89","89","89","0","89","0","Wed Oct 14 14:51:42 2020","The main experiment item","yes","Sterbergtask.osexp","C:\Users\Colton\OneDrive\Desktop","no","mono","no","18","no","white","no","yes","768","legacy","77","11","C:/Users/Colton/OneDrive/Desktop/CS-subject-1-LAB 3.1.csv","legacy","1 8 7","Lentiform Loewenfeld","3.3.3","0","n","0","right","left","right","right","NA","587","63955","11544","587","NA","2","legacy","3","1024","2","48000","-16","experiment","1","odd","4","2301425","2297934","2299201","6799","161916","2299207","2217979","6809","150370","2303429","2304020","2300219","70767","2303429","NA","Sterberg task","80","61968","90","yes","1024"
"89.01098901098901","89.01098901098901","688.8791208791209","688.8791208791209","black","experiment","legacy","legacy","legacy","0","uniform","1","undefined","1","right","90","90","90","0","0","90","90","0","0","90","90","90","0","90","0","Wed Oct 14 14:51:42 2020","The main experiment item","yes","Sterbergtask.osexp","C:\Users\Colton\OneDrive\Desktop","no","mono","no","18","no","white","no","yes","768","legacy","78","11","C:/Users/Colton/OneDrive/Desktop/CS-subject-1-LAB 3.1.csv","legacy","9 7 4 5 8","Lentiform Loewenfeld","3.3.3","0","n","0","right","left","right","right","NA","720","63955","11544","720","NA","2","legacy","5","1024","2","48000","-16","experiment","1","odd","6","2307566","2304079","2305347","6799","161916","2305353","2217979","6809","150370","2309574","2310298","2306360","70767","2309573","NA","Sterberg task","81","62688","91","yes","1024"
"89.1304347826087","89.1304347826087","687.1521739130435","687.1521739130435","black","experiment","legacy","legacy","legacy","0","uniform","1","undefined","1","right","91","91","91","0","0","91","91","0","0","91","91","91","0","91","0","Wed Oct 14 14:51:42 2020","The main experiment item","yes","Sterbergtask.osexp","C:\Users\Colton\OneDrive\Desktop","no","mono","no","18","no","white","no","yes","768","legacy","79","11","C:/Users/Colton/OneDrive/Desktop/CS-subject-1-LAB 3.1.csv","legacy","5 7 3","Lentiform Loewenfeld","3.3.3","0","n","0","right","left","right","right","NA","530","63955","11544","530","NA","2","legacy","3","1024","2","48000","-16","experiment","1","odd","9","2313844","2310356","2311622","6799","161916","2311628","2217979","6809","150370","2315850","2316384","2312638","70767","2315850","NA","Sterberg task","82","63218","92","yes","1024"
"88.17204301075269","88.17204301075269","687.989247311828","687.989247311828","black","experiment","legacy","legacy","legacy","0","uniform","0","undefined","0","left","92","92","92","0","0","92","92","0","0","92","92","92","0","92","0","Wed Oct 14 14:51:42 2020","The main experiment item","yes","Sterbergtask.osexp","C:\Users\Colton\OneDrive\Desktop","no","mono","no","18","no","white","no","yes","768","legacy","80","11","C:/Users/Colton/OneDrive/Desktop/CS-subject-1-LAB 3.1.csv","legacy","2 4 6 9","Lentiform Loewenfeld","3.3.3","3","y","0","right","left","right","right","NA","765","63955","11544","765","NA","2","legacy","4","1024","2","48000","-16","experiment","1","odd","6","2319928","2316446","2317707","6799","161916","2317713","2217979","6809","150370","2321935","2322705","2318719","70767","2321934","NA","Sterberg task","82","63983","93","yes","1024"
"88.29787234042553","88.29787234042553","685.5957446808511","685.5957446808511","black","experiment","legacy","legacy","legacy","0","uniform","1","undefined","1","left","93","93","93","0","0","93","93","0","0","93","93","93","0","93","0","Wed Oct 14 14:51:42 2020","The main experiment item","yes","Sterbergtask.osexp","C:\Users\Colton\OneDrive\Desktop","no","mono","no","18","no","white","no","yes","768","legacy","81","11","C:/Users/Colton/OneDrive/Desktop/CS-subject-1-LAB 3.1.csv","legacy","6 9 7 4 5 1","Lentiform Loewenfeld","3.3.3","2","y","0","left","left","right","left","NA","463","63955","11544","463","NA","2","legacy","6","1024","2","48000","-16","experiment","1","odd","9","2326222","2316446","2324001","6799","161916","2324007","2322736","6809","150370","2328228","2328695","2325013","70767","2328228","NA","Sterberg task","83","64446","94","yes","1024"
"88.42105263157895","88.42105263157895","684.8842105263158","684.8842105263158","black","experiment","legacy","legacy","legacy","0","uniform","1","undefined","1","right","94","94","94","0","0","94","94","0","0","94","94","94","0","94","0","Wed Oct 14 14:51:42 2020","The main experiment item","yes","Sterbergtask.osexp","C:\Users\Colton\OneDrive\Desktop","no","mono","no","18","no","white","no","yes","768","legacy","82","11","C:/Users/Colton/OneDrive/Desktop/CS-subject-1-LAB 3.1.csv","legacy","9 5 3 2 8 6","Lentiform Loewenfeld","3.3.3","0","n","0","right","left","right","right","NA","618","63955","11544","618","NA","2","legacy","6","1024","2","48000","-16","experiment","1","odd","7","2332245","2328759","2330024","6799","161916","2330030","2322736","6809","150370","2334251","2334873","2331040","70767","2334251","NA","Sterberg task","84","65064","95","yes","1024"
"88.54166666666667","88.54166666666667","684.5416666666666","684.5416666666666","black","experiment","legacy","legacy","legacy","0","uniform","1","undefined","1","right","95","95","95","0","0","95","95","0","0","95","95","95","0","95","0","Wed Oct 14 14:51:42 2020","The main experiment item","yes","Sterbergtask.osexp","C:\Users\Colton\OneDrive\Desktop","no","mono","no","18","no","white","no","yes","768","legacy","83","11","C:/Users/Colton/OneDrive/Desktop/CS-subject-1-LAB 3.1.csv","legacy","6 8","Lentiform Loewenfeld","3.3.3","0","n","0","right","left","right","right","NA","652","63955","11544","652","NA","2","legacy","2","1024","2","48000","-16","experiment","1","odd","9","2338420","2334935","2336198","6799","161916","2336205","2322736","6809","150370","2340427","2341083","2337214","70767","2340426","NA","Sterberg task","85","65716","96","yes","1024"
"88.65979381443299","88.65979381443299","684.0412371134021","684.0412371134021","black","experiment","legacy","legacy","legacy","0","uniform","1","undefined","1","right","96","96","96","0","0","96","96","0","0","96","96","96","0","96","0","Wed Oct 14 14:51:42 2020","The main experiment item","yes","Sterbergtask.osexp","C:\Users\Colton\OneDrive\Desktop","no","mono","no","18","no","white","no","yes","768","legacy","84","11","C:/Users/Colton/OneDrive/Desktop/CS-subject-1-LAB 3.1.csv","legacy","7 4 2 8 1 9","Lentiform Loewenfeld","3.3.3","0","n","0","right","left","right","right","NA","636","63955","11544","636","NA","2","legacy","6","1024","2","48000","-16","experiment","1","odd","5","2344636","2341146","2342417","6799","161916","2342423","2322736","6809","150370","2346645","2347286","2343429","70767","2346645","NA","Sterberg task","86","66352","97","yes","1024"
"88.77551020408163","88.77551020408163","684.6836734693877","684.6836734693877","black","experiment","legacy","legacy","legacy","0","uniform","1","undefined","1","right","97","97","97","0","0","97","97","0","0","97","97","97","0","97","0","Wed Oct 14 14:51:42 2020","The main experiment item","yes","Sterbergtask.osexp","C:\Users\Colton\OneDrive\Desktop","no","mono","no","18","no","white","no","yes","768","legacy","85","11","C:/Users/Colton/OneDrive/Desktop/CS-subject-1-LAB 3.1.csv","legacy","2 8 7 9 5 3","Lentiform Loewenfeld","3.3.3","0","n","0","right","left","right","right","NA","747","63955","11544","747","NA","2","legacy","6","1024","2","48000","-16","experiment","1","odd","6","2350824","2347338","2348602","6799","161916","2348608","2322736","6809","150370","2352831","2353582","2349615","70767","2352831","NA","Sterberg task","87","67099","98","yes","1024"
"88.88888888888889","88.88888888888889","683.4242424242424","683.4242424242424","black","experiment","legacy","legacy","legacy","0","uniform","1","undefined","1","right","98","98","98","0","0","98","98","0","0","98","98","98","0","98","0","Wed Oct 14 14:51:42 2020","The main experiment item","yes","Sterbergtask.osexp","C:\Users\Colton\OneDrive\Desktop","no","mono","no","18","no","white","no","yes","768","legacy","86","11","C:/Users/Colton/OneDrive/Desktop/CS-subject-1-LAB 3.1.csv","legacy","1 6 4 3 9 7","Lentiform Loewenfeld","3.3.3","0","n","0","right","left","right","right","NA","560","63955","11544","560","NA","2","legacy","6","1024","2","48000","-16","experiment","1","odd","8","2357105","2353614","2354887","6799","161916","2354892","2322736","6809","150370","2359111","2359676","2355899","70767","2359111","NA","Sterberg task","88","67659","99","yes","1024"
"89","89","683.01","683.01","black","experiment","legacy","legacy","legacy","0","uniform","1","undefined","1","left","99","99","99","0","0","99","99","0","0","99","99","99","0","99","0","Wed Oct 14 14:51:42 2020","The main experiment item","yes","Sterbergtask.osexp","C:\Users\Colton\OneDrive\Desktop","no","mono","no","18","no","white","no","yes","768","legacy","87","11","C:/Users/Colton/OneDrive/Desktop/CS-subject-1-LAB 3.1.csv","legacy","3 5 9 6 2 4","Lentiform Loewenfeld","3.3.3","1","y","0","left","left","right","left","NA","642","63955","11544","642","NA","2","legacy","6","1024","2","48000","-16","experiment","1","odd","3","2363219","2359714","2360999","6799","161916","2361005","2322736","6809","150370","2365224","2365871","2362012","70767","2365224","NA","Sterberg task","89","68301","100","yes","1024"
"89.10891089108911","89.10891089108911","681.059405940594","681.059405940594","black","experiment","legacy","legacy","legacy","0","uniform","1","undefined","1","left","100","100","100","0","0","100","100","0","0","100","100","100","0","100","0","Wed Oct 14 14:51:42 2020","The main experiment item","yes","Sterbergtask.osexp","C:\Users\Colton\OneDrive\Desktop","no","mono","no","18","no","white","no","yes","768","legacy","88","11","C:/Users/Colton/OneDrive/Desktop/CS-subject-1-LAB 3.1.csv","legacy","2 4 8 5 1 3","Lentiform Loewenfeld","3.3.3","1","y","0","left","left","right","left","NA","486","63955","11544","486","NA","2","legacy","6","1024","2","48000","-16","experiment","1","odd","2","2369428","2365927","2367203","6799","161916","2367209","2322736","6809","150370","2371434","2371925","2368220","70767","2371433","NA","Sterberg task","90","68787","101","yes","1024"
"89.2156862745098","89.2156862745098","679.7549019607843","679.7549019607843","black","experiment","legacy","legacy","legacy","0","uniform","1","undefined","1","left","101","101","101","0","0","101","101","0","0","101","101","101","0","101","0","Wed Oct 14 14:51:42 2020","The main experiment item","yes","Sterbergtask.osexp","C:\Users\Colton\OneDrive\Desktop","no","mono","no","18","no","white","no","yes","768","legacy","89","11","C:/Users/Colton/OneDrive/Desktop/CS-subject-1-LAB 3.1.csv","legacy","7","Lentiform Loewenfeld","3.3.3","1","y","0","left","left","right","left","NA","548","63955","11544","548","NA","2","legacy","1","1024","2","48000","-16","experiment","1","odd","7","2375472","2371981","2373255","6799","161916","2373261","2322736","6809","150370","2377478","2378031","2374267","70767","2377477","NA","Sterberg task","91","69335","102","yes","1024"
"89.32038834951456","89.32038834951456","678.1359223300971","678.1359223300971","black","experiment","legacy","legacy","legacy","0","uniform","1","undefined","1","right","102","102","102","0","0","102","102","0","0","102","102","102","0","102","0","Wed Oct 14 14:51:42 2020","The main experiment item","yes","Sterbergtask.osexp","C:\Users\Colton\OneDrive\Desktop","no","mono","no","18","no","white","no","yes","768","legacy","90","11","C:/Users/Colton/OneDrive/Desktop/CS-subject-1-LAB 3.1.csv","legacy","1 6 4","Lentiform Loewenfeld","3.3.3","0","n","0","right","left","right","right","NA","513","63955","11544","513","NA","2","legacy","3","1024","2","48000","-16","experiment","1","odd","7","2381588","2378070","2379371","6799","161916","2379377","2322736","6809","150370","2383594","2384111","2380383","70767","2383594","NA","Sterberg task","92","69848","103","yes","1024"
"89.42307692307692","89.42307692307692","678.3942307692307","678.3942307692307","black","experiment","legacy","legacy","legacy","0","uniform","1","undefined","1","left","103","103","103","0","0","103","103","0","0","103","103","103","0","103","0","Wed Oct 14 14:51:42 2020","The main experiment item","yes","Sterbergtask.osexp","C:\Users\Colton\OneDrive\Desktop","no","mono","no","18","no","white","no","yes","768","legacy","91","11","C:/Users/Colton/OneDrive/Desktop/CS-subject-1-LAB 3.1.csv","legacy","7 4 2 6 3 5","Lentiform Loewenfeld","3.3.3","6","y","0","left","left","right","left","NA","705","63955","11544","705","NA","2","legacy","6","1024","2","48000","-16","experiment","1","odd","5","2387728","2384240","2385506","6799","161916","2385512","2322736","6809","150370","2389737","2390446","2386518","70767","2389736","NA","Sterberg task","93","70553","104","yes","1024"
"89.52380952380952","89.52380952380952","676.6285714285714","676.6285714285714","black","experiment","legacy","legacy","legacy","0","uniform","1","undefined","1","right","104","104","104","0","0","104","104","0","0","104","104","104","0","104","0","Wed Oct 14 14:51:42 2020","The main experiment item","yes","Sterbergtask.osexp","C:\Users\Colton\OneDrive\Desktop","no","mono","no","18","no","white","no","yes","768","legacy","92","11","C:/Users/Colton/OneDrive/Desktop/CS-subject-1-LAB 3.1.csv","legacy","6 8 4","Lentiform Loewenfeld","3.3.3","0","n","0","right","left","right","right","NA","493","63955","11544","493","NA","2","legacy","3","1024","2","48000","-16","experiment","1","odd","1","2393962","2390481","2391744","6799","161916","2391750","2322736","6809","150370","2395967","2396465","2392757","70767","2395967","NA","Sterberg task","94","71046","105","yes","1024"
"89.62264150943396","89.62264150943396","675.8018867924528","675.8018867924528","black","experiment","legacy","legacy","legacy","0","uniform","1","undefined","1","right","105","105","105","0","0","105","105","0","0","105","105","105","0","105","0","Wed Oct 14 14:51:42 2020","The main experiment item","yes","Sterbergtask.osexp","C:\Users\Colton\OneDrive\Desktop","no","mono","no","18","no","white","no","yes","768","legacy","93","11","C:/Users/Colton/OneDrive/Desktop/CS-subject-1-LAB 3.1.csv","legacy","4 1","Lentiform Loewenfeld","3.3.3","0","n","0","right","left","right","right","NA","589","63955","11544","589","NA","2","legacy","2","1024","2","48000","-16","experiment","1","odd","6","2399984","2396493","2397763","6799","161916","2397768","2322736","6809","150370","2401991","2402585","2398775","70767","2401990","NA","Sterberg task","95","71635","106","yes","1024"
"88.78504672897196","88.78504672897196","674.0280373831775","674.0280373831775","black","experiment","legacy","legacy","legacy","0","uniform","0","undefined","0","right","106","106","106","0","0","106","106","0","0","106","106","106","0","106","0","Wed Oct 14 14:51:42 2020","The main experiment item","yes","Sterbergtask.osexp","C:\Users\Colton\OneDrive\Desktop","no","mono","no","18","no","white","no","yes","768","legacy","94","11","C:/Users/Colton/OneDrive/Desktop/CS-subject-1-LAB 3.1.csv","legacy","6 2 9 3 8 4","Lentiform Loewenfeld","3.3.3","0","n","0","left","left","right","left","NA","486","63955","11544","486","NA","2","legacy","6","1024","2","48000","-16","experiment","1","odd","1","2406143","2402648","2403914","6799","161916","2403919","2322736","6809","150370","2408149","2408639","2404932","70767","2408149","NA","Sterberg task","95","72121","107","yes","1024"
"87.96296296296296","87.96296296296296","672.2037037037037","672.2037037037037","black","experiment","legacy","legacy","legacy","0","uniform","0","undefined","0","left","107","107","107","0","0","107","107","0","0","107","107","107","0","107","0","Wed Oct 14 14:51:42 2020","The main experiment item","yes","Sterbergtask.osexp","C:\Users\Colton\OneDrive\Desktop","no","mono","no","18","no","white","no","yes","768","legacy","95","11","C:/Users/Colton/OneDrive/Desktop/CS-subject-1-LAB 3.1.csv","legacy","7 2 3","Lentiform Loewenfeld","3.3.3","3","y","0","right","left","right","right","NA","477","63955","11544","477","NA","2","legacy","3","1024","2","48000","-16","experiment","1","odd","3","2412209","2402648","2409990","6799","161916","2409995","2408728","6809","150370","2414216","2414698","2411003","70767","2414216","NA","Sterberg task","95","72598","108","yes","1024"
"87.1559633027523","87.1559633027523","670.954128440367","670.954128440367","black","experiment","legacy","legacy","legacy","0","uniform","0","undefined","0","right","108","108","108","0","0","108","108","0","0","108","108","108","0","108","0","Wed Oct 14 14:51:42 2020","The main experiment item","yes","Sterbergtask.osexp","C:\Users\Colton\OneDrive\Desktop","no","mono","no","18","no","white","no","yes","768","legacy","96","11","C:/Users/Colton/OneDrive/Desktop/CS-subject-1-LAB 3.1.csv","legacy","6 9 4 5 2","Lentiform Loewenfeld","3.3.3","0","n","0","left","left","right","left","NA","536","63955","11544","536","NA","2","legacy","5","1024","2","48000","-16","experiment","1","odd","1","2418241","2402648","2416022","6799","161916","2416027","2414761","6809","150370","2420250","2420791","2417035","70767","2420248","NA","Sterberg task","95","73134","109","yes","1024"
"87.27272727272727","87.27272727272727","670.8818181818182","670.8818181818182","black","experiment","legacy","legacy","legacy","0","uniform","1","undefined","1","left","109","109","109","0","0","109","109","0","0","109","109","109","0","109","0","Wed Oct 14 14:51:42 2020","The main experiment item","yes","Sterbergtask.osexp","C:\Users\Colton\OneDrive\Desktop","no","mono","no","18","no","white","no","yes","768","legacy","97","11","C:/Users/Colton/OneDrive/Desktop/CS-subject-1-LAB 3.1.csv","legacy","6 2","Lentiform Loewenfeld","3.3.3","1","y","0","left","left","right","left","NA","663","63955","11544","663","NA","2","legacy","2","1024","2","48000","-16","experiment","1","odd","6","2424349","2402648","2422128","6799","161916","2422134","2420861","6809","150370","2426356","2427024","2423140","70767","2426356","NA","Sterberg task","96","73797","110","yes","1024"
"87.38738738738739","87.38738738738739","670.3423423423424","670.3423423423424","black","experiment","legacy","legacy","legacy","0","uniform","1","undefined","1","right","110","110","110","0","0","110","110","0","0","110","110","110","0","110","0","Wed Oct 14 14:51:42 2020","The main experiment item","yes","Sterbergtask.osexp","C:\Users\Colton\OneDrive\Desktop","no","mono","no","18","no","white","no","yes","768","legacy","98","11","C:/Users/Colton/OneDrive/Desktop/CS-subject-1-LAB 3.1.csv","legacy","7 3 2 8","Lentiform Loewenfeld","3.3.3","0","n","0","right","left","right","right","NA","611","63955","11544","611","NA","2","legacy","4","1024","2","48000","-16","experiment","1","odd","4","2430570","2427081","2428347","6799","161916","2428353","2420861","6809","150370","2432578","2433194","2429359","70767","2432578","NA","Sterberg task","97","74408","111","yes","1024"
"87.5","87.5","668.4553571428571","668.4553571428571","black","experiment","legacy","legacy","legacy","0","uniform","1","undefined","1","left","111","111","111","0","0","111","111","0","0","111","111","111","0","111","0","Wed Oct 14 14:51:42 2020","The main experiment item","yes","Sterbergtask.osexp","C:\Users\Colton\OneDrive\Desktop","no","mono","no","18","no","white","no","yes","768","legacy","99","11","C:/Users/Colton/OneDrive/Desktop/CS-subject-1-LAB 3.1.csv","legacy","6 9 3 1","Lentiform Loewenfeld","3.3.3","4","y","0","left","left","right","left","NA","459","63955","11544","459","NA","2","legacy","4","1024","2","48000","-16","experiment","1","odd","1","2436818","2433332","2434598","6799","161916","2434604","2420861","6809","150370","2438827","2439291","2435611","70767","2438827","NA","Sterberg task","98","74867","112","yes","1024"
"87.61061946902655","87.61061946902655","668.3274336283185","668.3274336283185","black","experiment","legacy","legacy","legacy","0","uniform","1","undefined","1","left","112","112","112","0","0","112","112","0","0","112","112","112","0","112","0","Wed Oct 14 14:51:42 2020","The main experiment item","yes","Sterbergtask.osexp","C:\Users\Colton\OneDrive\Desktop","no","mono","no","18","no","white","no","yes","768","legacy","100","11","C:/Users/Colton/OneDrive/Desktop/CS-subject-1-LAB 3.1.csv","legacy","4 6 2 5 1","Lentiform Loewenfeld","3.3.3","5","y","0","left","left","right","left","NA","654","63955","11544","654","NA","2","legacy","5","1024","2","48000","-16","experiment","1","odd","1","2442835","2439349","2440613","6799","161916","2440619","2420861","6809","150370","2444842","2445501","2441625","70767","2444842","NA","Sterberg task","99","75521","113","yes","1024"
"87.71929824561404","87.71929824561404","667.4122807017544","667.4122807017544","black","experiment","legacy","legacy","legacy","0","uniform","1","undefined","1","left","113","113","113","0","0","113","113","0","0","113","113","113","0","113","0","Wed Oct 14 14:51:42 2020","The main experiment item","yes","Sterbergtask.osexp","C:\Users\Colton\OneDrive\Desktop","no","mono","no","18","no","white","no","yes","768","legacy","101","11","C:/Users/Colton/OneDrive/Desktop/CS-subject-1-LAB 3.1.csv","legacy","9 4 2","Lentiform Loewenfeld","3.3.3","1","y","0","left","left","right","left","NA","564","63955","11544","564","NA","2","legacy","3","1024","2","48000","-16","experiment","1","odd","9","2449019","2445528","2446800","6799","161916","2446806","2420861","6809","150370","2451024","2451594","2447813","70767","2451024","NA","Sterberg task","100","76085","114","yes","1024"
"87.82608695652173","87.82608695652173","665.6695652173913","665.6695652173913","black","experiment","legacy","legacy","legacy","0","uniform","1","undefined","1","left","114","114","114","0","0","114","114","0","0","114","114","114","0","114","0","Wed Oct 14 14:51:42 2020","The main experiment item","yes","Sterbergtask.osexp","C:\Users\Colton\OneDrive\Desktop","no","mono","no","18","no","white","no","yes","768","legacy","102","11","C:/Users/Colton/OneDrive/Desktop/CS-subject-1-LAB 3.1.csv","legacy","9 6 2 4 1","Lentiform Loewenfeld","3.3.3","4","y","0","left","left","right","left","NA","467","63955","11544","467","NA","2","legacy","5","1024","2","48000","-16","experiment","1","odd","4","2455127","2451638","2452905","6799","161916","2452911","2420861","6809","150370","2457135","2457608","2453917","70767","2457135","NA","Sterberg task","101","76552","115","yes","1024"
