"acc","accuracy","average_response_time","avg_rt","background","block","canvas_backend","clock_backend","color_backend","compensation","coordinates","correct","correct_instruction1","correct_keyboard_response","correct_response","count_ISI","count_correctFeedback","count_expSequence","count_experiment","count_experimentLoop","count_fixation","count_incorrectFeedback","count_instruction1","count_instructions2","count_keyboard_response","count_memorySet","count_new_logger","count_practiceLoop","count_probe","count_thankYou","datetime","description","disable_garbage_collection","experiment_file","experiment_path","font_bold","font_family","font_italic","font_size","font_underline","foreground","form_clicks","fullscreen","height","keyboard_backend","live_row","live_row_practiceLoop","logfile","mouse_backend","numberSet","opensesame_codename","opensesame_version","posInSet","present","repeat_cycle","response","response_instruction1","response_instructions2","response_keyboard_response","response_thankYou","response_time","response_time_instruction1","response_time_instructions2","response_time_keyboard_response","response_time_thankYou","round_decimals","sampler_backend","setSize","sound_buf_size","sound_channels","sound_freq","sound_sample_size","start","subject_nr","subject_parity","target","time_ISI","time_correctFeedback","time_expSequence","time_experiment","time_experimentLoop","time_fixation","time_incorrectFeedback","time_instruction1","time_instructions2","time_keyboard_response","time_memorySet","time_new_logger","time_practiceLoop","time_probe","time_thankYou","title","total_correct","total_response_time","total_responses","uniform_coordinates","width"
"100","100","508","508","black","practice","legacy","legacy","legacy","0","uniform","1","undefined","1","right","0","0","0","0","0","0","0","0","0","0","0","0","0","0","0","10/16/21 14:21:01","The main experiment item","yes","SternbergExperiment.osexp","C:\Users\katie\Documents\School\Quant Methods\Lab 3","no","mono","no","18","no","white","no","yes","768","legacy","0","0","C:/Users/katie/Documents/School/Quant Methods/Lab 3/KH-subject-1.csv","legacy","4 1 5","Lentiform Loewenfeld","3.3.9","0","n","0","right","left","NA","right","NA","508","5106","NA","508","NA","2","legacy","3","1024","2","48000","-16","experiment","1","odd","2","10334","NA","8122","2377","NA","8129","NA","2384","NA","12337","9131","12846","7491","12337","NA","Sternberg task","1","508","1","yes","1024"
"100","100","560","560","black","practice","legacy","legacy","legacy","0","uniform","1","undefined","1","left","1","1","1","0","0","1","1","0","0","1","1","1","0","1","0","10/16/21 14:21:01","The main experiment item","yes","SternbergExperiment.osexp","C:\Users\katie\Documents\School\Quant Methods\Lab 3","no","mono","no","18","no","white","no","yes","768","legacy","1","1","C:/Users/katie/Documents/School/Quant Methods/Lab 3/KH-subject-1.csv","legacy","4 8","Lentiform Loewenfeld","3.3.9","1","y","0","left","left","NA","left","NA","612","5106","NA","612","NA","2","legacy","2","1024","2","48000","-16","experiment","1","odd","4","16177","12886","13969","2377","NA","13971","NA","2384","NA","18181","14974","18793","7491","18180","NA","Sternberg task","2","1120","2","yes","1024"
"100","100","541.333333333","541.333333333","black","practice","legacy","legacy","legacy","0","uniform","1","undefined","1","right","2","2","2","0","0","2","2","0","0","2","2","2","0","2","0","10/16/21 14:21:01","The main experiment item","yes","SternbergExperiment.osexp","C:\Users\katie\Documents\School\Quant Methods\Lab 3","no","mono","no","18","no","white","no","yes","768","legacy","2","2","C:/Users/katie/Documents/School/Quant Methods/Lab 3/KH-subject-1.csv","legacy","2 1","Lentiform Loewenfeld","3.3.9","0","n","0","right","left","NA","right","NA","504","5106","NA","504","NA","2","legacy","2","1024","2","48000","-16","experiment","1","odd","5","22086","18799","19878","2377","NA","19880","NA","2384","NA","24088","20883","24592","7491","24088","NA","Sternberg task","3","1624","3","yes","1024"
"100","100","640.25","640.25","black","practice","legacy","legacy","legacy","0","uniform","1","undefined","1","left","3","3","3","0","0","3","3","0","0","3","3","3","0","3","0","10/16/21 14:21:01","The main experiment item","yes","SternbergExperiment.osexp","C:\Users\katie\Documents\School\Quant Methods\Lab 3","no","mono","no","18","no","white","no","yes","768","legacy","3","3","C:/Users/katie/Documents/School/Quant Methods/Lab 3/KH-subject-1.csv","legacy","2 9 4","Lentiform Loewenfeld","3.3.9","3","y","0","left","left","NA","left","NA","937","5106","NA","937","NA","2","legacy","3","1024","2","48000","-16","experiment","1","odd","4","27883","24598","25675","2377","NA","25677","NA","2384","NA","29888","26680","30826","7491","29887","NA","Sternberg task","4","2561","4","yes","1024"
"100","100","651.6","651.6","black","practice","legacy","legacy","legacy","0","uniform","1","undefined","1","right","4","4","4","0","0","4","4","0","0","4","4","4","0","4","0","10/16/21 14:21:01","The main experiment item","yes","SternbergExperiment.osexp","C:\Users\katie\Documents\School\Quant Methods\Lab 3","no","mono","no","18","no","white","no","yes","768","legacy","4","4","C:/Users/katie/Documents/School/Quant Methods/Lab 3/KH-subject-1.csv","legacy","9 6 7 4 5","Lentiform Loewenfeld","3.3.9","0","n","0","right","left","NA","right","NA","697","5106","NA","697","NA","2","legacy","5","1024","2","48000","-16","experiment","1","odd","3","34139","30830","31931","2377","NA","31933","NA","2384","NA","36142","32936","36842","7491","36142","NA","Sternberg task","5","3258","5","yes","1024"
"100","100","704","704","black","practice","legacy","legacy","legacy","0","uniform","1","undefined","1","right","5","5","5","0","0","5","5","0","0","5","5","5","0","5","0","10/16/21 14:21:01","The main experiment item","yes","SternbergExperiment.osexp","C:\Users\katie\Documents\School\Quant Methods\Lab 3","no","mono","no","18","no","white","no","yes","768","legacy","5","5","C:/Users/katie/Documents/School/Quant Methods/Lab 3/KH-subject-1.csv","legacy","3 1 9 4","Lentiform Loewenfeld","3.3.9","0","n","0","right","left","NA","right","NA","966","5106","NA","966","NA","2","legacy","4","1024","2","48000","-16","experiment","1","odd","6","40159","36854","37951","2377","NA","37953","NA","2384","NA","42162","38956","43128","7491","42162","NA","Sternberg task","6","4224","6","yes","1024"
"100","100","753.714285714","753.714285714","black","practice","legacy","legacy","legacy","0","uniform","1","undefined","1","left","6","6","6","0","0","6","6","0","0","6","6","6","0","6","0","10/16/21 14:21:01","The main experiment item","yes","SternbergExperiment.osexp","C:\Users\katie\Documents\School\Quant Methods\Lab 3","no","mono","no","18","no","white","no","yes","768","legacy","6","6","C:/Users/katie/Documents/School/Quant Methods/Lab 3/KH-subject-1.csv","legacy","1 7 9 8 5","Lentiform Loewenfeld","3.3.9","4","y","0","left","left","NA","left","NA","1052","5106","NA","1052","NA","2","legacy","5","1024","2","48000","-16","experiment","1","odd","8","46433","43142","44225","2377","NA","44227","NA","2384","NA","48436","45230","49488","7491","48436","NA","Sternberg task","7","5276","7","yes","1024"
"100","100","759.125","759.125","black","practice","legacy","legacy","legacy","0","uniform","1","undefined","1","left","7","7","7","0","0","7","7","0","0","7","7","7","0","7","0","10/16/21 14:21:01","The main experiment item","yes","SternbergExperiment.osexp","C:\Users\katie\Documents\School\Quant Methods\Lab 3","no","mono","no","18","no","white","no","yes","768","legacy","7","7","C:/Users/katie/Documents/School/Quant Methods/Lab 3/KH-subject-1.csv","legacy","1 5 2 9","Lentiform Loewenfeld","3.3.9","2","y","0","left","left","NA","left","NA","797","5106","NA","797","NA","2","legacy","4","1024","2","48000","-16","experiment","1","odd","5","52792","49502","50583","2377","NA","50586","NA","2384","NA","54796","51588","55594","7491","54795","NA","Sternberg task","8","6073","8","yes","1024"
"100","100","781.222222222","781.222222222","black","practice","legacy","legacy","legacy","0","uniform","1","undefined","1","left","8","8","8","0","0","8","8","0","0","8","8","8","0","8","0","10/16/21 14:21:01","The main experiment item","yes","SternbergExperiment.osexp","C:\Users\katie\Documents\School\Quant Methods\Lab 3","no","mono","no","18","no","white","no","yes","768","legacy","8","8","C:/Users/katie/Documents/School/Quant Methods/Lab 3/KH-subject-1.csv","legacy","4 3 1 7 9 8","Lentiform Loewenfeld","3.3.9","1","y","0","left","left","NA","left","NA","958","5106","NA","958","NA","2","legacy","6","1024","2","48000","-16","experiment","1","odd","4","58884","55599","56677","2377","NA","56678","NA","2384","NA","60889","57681","61848","7491","60889","NA","Sternberg task","9","7031","9","yes","1024"
"100","100","755.6","755.6","black","practice","legacy","legacy","legacy","0","uniform","1","undefined","1","left","9","9","9","0","0","9","9","0","0","9","9","9","0","9","0","10/16/21 14:21:01","The main experiment item","yes","SternbergExperiment.osexp","C:\Users\katie\Documents\School\Quant Methods\Lab 3","no","mono","no","18","no","white","no","yes","768","legacy","9","9","C:/Users/katie/Documents/School/Quant Methods/Lab 3/KH-subject-1.csv","legacy","6","Lentiform Loewenfeld","3.3.9","1","y","0","left","left","NA","left","NA","525","5106","NA","525","NA","2","legacy","1","1024","2","48000","-16","experiment","1","odd","6","65148","61854","62938","2377","NA","62940","NA","2384","NA","67151","63943","67677","7491","67151","NA","Sternberg task","10","7556","10","yes","1024"
"100","100","739.454545455","739.454545455","black","practice","legacy","legacy","legacy","0","uniform","1","undefined","1","right","10","10","10","0","0","10","10","0","0","10","10","10","0","10","0","10/16/21 14:21:01","The main experiment item","yes","SternbergExperiment.osexp","C:\Users\katie\Documents\School\Quant Methods\Lab 3","no","mono","no","18","no","white","no","yes","768","legacy","10","10","C:/Users/katie/Documents/School/Quant Methods/Lab 3/KH-subject-1.csv","legacy","5","Lentiform Loewenfeld","3.3.9","0","n","0","right","left","NA","right","NA","578","5106","NA","578","NA","2","legacy","1","1024","2","48000","-16","experiment","1","odd","3","70972","67689","68765","2377","NA","68767","NA","2384","NA","72975","69769","73553","7491","72975","NA","Sternberg task","11","8134","11","yes","1024"
"100","100","765.916666667","765.916666667","black","practice","legacy","legacy","legacy","0","uniform","1","undefined","1","right","11","11","11","0","0","11","11","0","0","11","11","11","0","11","0","10/16/21 14:21:01","The main experiment item","yes","SternbergExperiment.osexp","C:\Users\katie\Documents\School\Quant Methods\Lab 3","no","mono","no","18","no","white","no","yes","768","legacy","11","11","C:/Users/katie/Documents/School/Quant Methods/Lab 3/KH-subject-1.csv","legacy","5 7 8 4 1 2","Lentiform Loewenfeld","3.3.9","0","n","0","right","left","NA","right","NA","1057","5106","NA","1057","NA","2","legacy","6","1024","2","48000","-16","experiment","1","odd","6","76843","73558","74635","2377","NA","74637","NA","2384","NA","78846","75639","79904","7491","78846","NA","Sternberg task","12","9191","12","yes","1024"
"100","100","767.846153846","767.846153846","black","experiment","legacy","legacy","legacy","0","uniform","1","undefined","1","right","12","12","12","0","0","12","12","0","0","12","12","12","0","12","0","10/16/21 14:21:01","The main experiment item","yes","SternbergExperiment.osexp","C:\Users\katie\Documents\School\Quant Methods\Lab 3","no","mono","no","18","no","white","no","yes","768","legacy","0","11","C:/Users/katie/Documents/School/Quant Methods/Lab 3/KH-subject-1.csv","legacy","8 5 7 3 6","Lentiform Loewenfeld","3.3.9","0","n","0","right","left","left","right","NA","791","5106","2777","791","NA","2","legacy","5","1024","2","48000","-16","experiment","1","odd","9","86004","79918","83796","2377","83722","83798","NA","2384","80944","88009","84801","88801","7491","88007","NA","Sternberg task","13","9982","13","yes","1024"
"100","100","764.571428571","764.571428571","black","experiment","legacy","legacy","legacy","0","uniform","1","undefined","1","right","13","13","13","0","0","13","13","0","0","13","13","13","0","13","0","10/16/21 14:21:01","The main experiment item","yes","SternbergExperiment.osexp","C:\Users\katie\Documents\School\Quant Methods\Lab 3","no","mono","no","18","no","white","no","yes","768","legacy","1","11","C:/Users/katie/Documents/School/Quant Methods/Lab 3/KH-subject-1.csv","legacy","7 9 1 6","Lentiform Loewenfeld","3.3.9","0","n","0","right","left","left","right","NA","722","5106","2777","722","NA","2","legacy","4","1024","2","48000","-16","experiment","1","odd","4","92087","88805","89878","2377","83722","89880","NA","2384","80944","94091","90883","94813","7491","94090","NA","Sternberg task","14","10704","14","yes","1024"
"100","100","753.933333333","753.933333333","black","experiment","legacy","legacy","legacy","0","uniform","1","undefined","1","left","14","14","14","0","0","14","14","0","0","14","14","14","0","14","0","10/16/21 14:21:01","The main experiment item","yes","SternbergExperiment.osexp","C:\Users\katie\Documents\School\Quant Methods\Lab 3","no","mono","no","18","no","white","no","yes","768","legacy","2","11","C:/Users/katie/Documents/School/Quant Methods/Lab 3/KH-subject-1.csv","legacy","8 9 6 1","Lentiform Loewenfeld","3.3.9","2","y","0","left","left","left","left","NA","605","5106","2777","605","NA","2","legacy","4","1024","2","48000","-16","experiment","1","odd","9","98108","94826","95900","2377","83722","95902","NA","2384","80944","100111","96905","100717","7491","100111","NA","Sternberg task","15","11309","15","yes","1024"
"100","100","782.625","782.625","black","experiment","legacy","legacy","legacy","0","uniform","1","undefined","1","left","15","15","15","0","0","15","15","0","0","15","15","15","0","15","0","10/16/21 14:21:01","The main experiment item","yes","SternbergExperiment.osexp","C:\Users\katie\Documents\School\Quant Methods\Lab 3","no","mono","no","18","no","white","no","yes","768","legacy","3","11","C:/Users/katie/Documents/School/Quant Methods/Lab 3/KH-subject-1.csv","legacy","9 6 2 4 1","Lentiform Loewenfeld","3.3.9","4","y","0","left","left","left","left","NA","1213","5106","2777","1213","NA","2","legacy","5","1024","2","48000","-16","experiment","1","odd","4","104021","100729","101812","2377","83722","101814","NA","2384","80944","106024","102817","107238","7491","106024","NA","Sternberg task","16","12522","16","yes","1024"
"100","100","773","773","black","experiment","legacy","legacy","legacy","0","uniform","1","undefined","1","right","16","16","16","0","0","16","16","0","0","16","16","16","0","16","0","10/16/21 14:21:01","The main experiment item","yes","SternbergExperiment.osexp","C:\Users\katie\Documents\School\Quant Methods\Lab 3","no","mono","no","18","no","white","no","yes","768","legacy","4","11","C:/Users/katie/Documents/School/Quant Methods/Lab 3/KH-subject-1.csv","legacy","2 3 8 5 6 7","Lentiform Loewenfeld","3.3.9","0","n","0","right","left","left","right","NA","619","5106","2777","619","NA","2","legacy","6","1024","2","48000","-16","experiment","1","odd","1","110544","107253","108336","2377","83722","108337","NA","2384","80944","112546","109341","113166","7491","112546","NA","Sternberg task","17","13141","17","yes","1024"
"100","100","759.555555556","759.555555556","black","experiment","legacy","legacy","legacy","0","uniform","1","undefined","1","right","17","17","17","0","0","17","17","0","0","17","17","17","0","17","0","10/16/21 14:21:01","The main experiment item","yes","SternbergExperiment.osexp","C:\Users\katie\Documents\School\Quant Methods\Lab 3","no","mono","no","18","no","white","no","yes","768","legacy","5","11","C:/Users/katie/Documents/School/Quant Methods/Lab 3/KH-subject-1.csv","legacy","1 4 9 3","Lentiform Loewenfeld","3.3.9","0","n","0","right","left","left","right","NA","531","5106","2777","531","NA","2","legacy","4","1024","2","48000","-16","experiment","1","odd","5","116458","113172","114250","2377","83722","114252","NA","2384","80944","118461","115255","118993","7491","118461","NA","Sternberg task","18","13672","18","yes","1024"
"94.7368421053","94.7368421053","761.315789474","761.315789474","black","experiment","legacy","legacy","legacy","0","uniform","0","undefined","0","left","18","18","18","0","0","18","18","0","0","18","18","18","0","18","0","10/16/21 14:21:01","The main experiment item","yes","SternbergExperiment.osexp","C:\Users\katie\Documents\School\Quant Methods\Lab 3","no","mono","no","18","no","white","no","yes","768","legacy","6","11","C:/Users/katie/Documents/School/Quant Methods/Lab 3/KH-subject-1.csv","legacy","4 9 7 8 5 3","Lentiform Loewenfeld","3.3.9","4","y","0","right","left","left","right","NA","793","5106","2777","793","NA","2","legacy","6","1024","2","48000","-16","experiment","1","odd","8","122300","119006","120089","2377","83722","120092","NA","2384","80944","124303","121095","125097","7491","124303","NA","Sternberg task","18","14465","19","yes","1024"
"95","95","768.65","768.65","black","experiment","legacy","legacy","legacy","0","uniform","1","undefined","1","right","19","19","19","0","0","19","19","0","0","19","19","19","0","19","0","10/16/21 14:21:01","The main experiment item","yes","SternbergExperiment.osexp","C:\Users\katie\Documents\School\Quant Methods\Lab 3","no","mono","no","18","no","white","no","yes","768","legacy","7","11","C:/Users/katie/Documents/School/Quant Methods/Lab 3/KH-subject-1.csv","legacy","7 1 5 6 3","Lentiform Loewenfeld","3.3.9","0","n","0","right","left","left","right","NA","908","5106","2777","908","NA","2","legacy","5","1024","2","48000","-16","experiment","1","odd","8","128390","119006","126182","2377","83722","126184","125102","2384","80944","130393","127187","131302","7491","130393","NA","Sternberg task","19","15373","20","yes","1024"
"95.2380952381","95.2380952381","763.19047619","763.19047619","black","experiment","legacy","legacy","legacy","0","uniform","1","undefined","1","right","20","20","20","0","0","20","20","0","0","20","20","20","0","20","0","10/16/21 14:21:01","The main experiment item","yes","SternbergExperiment.osexp","C:\Users\katie\Documents\School\Quant Methods\Lab 3","no","mono","no","18","no","white","no","yes","768","legacy","8","11","C:/Users/katie/Documents/School/Quant Methods/Lab 3/KH-subject-1.csv","legacy","8 2 1 4 5 9","Lentiform Loewenfeld","3.3.9","0","n","0","right","left","left","right","NA","654","5106","2777","654","NA","2","legacy","6","1024","2","48000","-16","experiment","1","odd","7","134592","131307","132383","2377","83722","132385","125102","2384","80944","136595","133389","137251","7491","136595","NA","Sternberg task","20","16027","21","yes","1024"
"95.4545454545","95.4545454545","762.045454545","762.045454545","black","experiment","legacy","legacy","legacy","0","uniform","1","undefined","1","left","21","21","21","0","0","21","21","0","0","21","21","21","0","21","0","10/16/21 14:21:01","The main experiment item","yes","SternbergExperiment.osexp","C:\Users\katie\Documents\School\Quant Methods\Lab 3","no","mono","no","18","no","white","no","yes","768","legacy","9","11","C:/Users/katie/Documents/School/Quant Methods/Lab 3/KH-subject-1.csv","legacy","8 3","Lentiform Loewenfeld","3.3.9","2","y","0","left","left","left","left","NA","738","5106","2777","738","NA","2","legacy","2","1024","2","48000","-16","experiment","1","odd","3","140545","137255","138337","2377","83722","138340","125102","2384","80944","142549","139343","143288","7491","142549","NA","Sternberg task","21","16765","22","yes","1024"
"95.652173913","95.652173913","753.347826087","753.347826087","black","experiment","legacy","legacy","legacy","0","uniform","1","undefined","1","right","22","22","22","0","0","22","22","0","0","22","22","22","0","22","0","10/16/21 14:21:01","The main experiment item","yes","SternbergExperiment.osexp","C:\Users\katie\Documents\School\Quant Methods\Lab 3","no","mono","no","18","no","white","no","yes","768","legacy","10","11","C:/Users/katie/Documents/School/Quant Methods/Lab 3/KH-subject-1.csv","legacy","7 3 2 8","Lentiform Loewenfeld","3.3.9","0","n","0","right","left","left","right","NA","562","5106","2777","562","NA","2","legacy","4","1024","2","48000","-16","experiment","1","odd","4","146595","143300","144385","2377","83722","144388","125102","2384","80944","148599","145392","149161","7491","148599","NA","Sternberg task","22","17327","23","yes","1024"
"95.8333333333","95.8333333333","766.083333333","766.083333333","black","experiment","legacy","legacy","legacy","0","uniform","1","undefined","1","left","23","23","23","0","0","23","23","0","0","23","23","23","0","23","0","10/16/21 14:21:01","The main experiment item","yes","SternbergExperiment.osexp","C:\Users\katie\Documents\School\Quant Methods\Lab 3","no","mono","no","18","no","white","no","yes","768","legacy","11","11","C:/Users/katie/Documents/School/Quant Methods/Lab 3/KH-subject-1.csv","legacy","6 8 9 3 4 9","Lentiform Loewenfeld","3.3.9","5","y","0","left","left","left","left","NA","1059","5106","2777","1059","NA","2","legacy","6","1024","2","48000","-16","experiment","1","odd","4","152469","149173","150260","2377","83722","150262","125102","2384","80944","154471","151265","155531","7491","154471","NA","Sternberg task","23","18386","24","yes","1024"
"96","96","765.12","765.12","black","experiment","legacy","legacy","legacy","0","uniform","1","undefined","1","left","24","24","24","0","0","24","24","0","0","24","24","24","0","24","0","10/16/21 14:21:01","The main experiment item","yes","SternbergExperiment.osexp","C:\Users\katie\Documents\School\Quant Methods\Lab 3","no","mono","no","18","no","white","no","yes","768","legacy","12","11","C:/Users/katie/Documents/School/Quant Methods/Lab 3/KH-subject-1.csv","legacy","5 2 6","Lentiform Loewenfeld","3.3.9","2","y","0","left","left","left","left","NA","742","5106","2777","742","NA","2","legacy","3","1024","2","48000","-16","experiment","1","odd","2","158840","155544","156631","2377","83722","156633","125102","2384","80944","160845","157636","161588","7491","160844","NA","Sternberg task","24","19128","25","yes","1024"
"96.1538461538","96.1538461538","770.346153846","770.346153846","black","experiment","legacy","legacy","legacy","0","uniform","1","undefined","1","right","25","25","25","0","0","25","25","0","0","25","25","25","0","25","0","10/16/21 14:21:01","The main experiment item","yes","SternbergExperiment.osexp","C:\Users\katie\Documents\School\Quant Methods\Lab 3","no","mono","no","18","no","white","no","yes","768","legacy","13","11","C:/Users/katie/Documents/School/Quant Methods/Lab 3/KH-subject-1.csv","legacy","2 6 4 3 9","Lentiform Loewenfeld","3.3.9","0","n","0","right","left","left","right","NA","901","5106","2777","901","NA","2","legacy","5","1024","2","48000","-16","experiment","1","odd","1","164883","161602","162673","2377","83722","162675","125102","2384","80944","166886","163680","167788","7491","166886","NA","Sternberg task","25","20029","26","yes","1024"
"96.2962962963","96.2962962963","761.777777778","761.777777778","black","experiment","legacy","legacy","legacy","0","uniform","1","undefined","1","left","26","26","26","0","0","26","26","0","0","26","26","26","0","26","0","10/16/21 14:21:01","The main experiment item","yes","SternbergExperiment.osexp","C:\Users\katie\Documents\School\Quant Methods\Lab 3","no","mono","no","18","no","white","no","yes","768","legacy","14","11","C:/Users/katie/Documents/School/Quant Methods/Lab 3/KH-subject-1.csv","legacy","7 2 3","Lentiform Loewenfeld","3.3.9","3","y","0","left","left","left","left","NA","539","5106","2777","539","NA","2","legacy","3","1024","2","48000","-16","experiment","1","odd","3","171090","167801","168880","2377","83722","168883","125102","2384","80944","173092","169887","173632","7491","173092","NA","Sternberg task","26","20568","27","yes","1024"
"96.4285714286","96.4285714286","789.5","789.5","black","experiment","legacy","legacy","legacy","0","uniform","1","undefined","1","right","27","27","27","0","0","27","27","0","0","27","27","27","0","27","0","10/16/21 14:21:01","The main experiment item","yes","SternbergExperiment.osexp","C:\Users\katie\Documents\School\Quant Methods\Lab 3","no","mono","no","18","no","white","no","yes","768","legacy","15","11","C:/Users/katie/Documents/School/Quant Methods/Lab 3/KH-subject-1.csv","legacy","5 2","Lentiform Loewenfeld","3.3.9","0","n","0","right","left","left","right","NA","1538","5106","2777","1538","NA","2","legacy","2","1024","2","48000","-16","experiment","1","odd","7","176933","173636","174724","2377","83722","174727","125102","2384","80944","178936","175730","180476","7491","178936","NA","Sternberg task","27","22106","28","yes","1024"
"96.5517241379","96.5517241379","823.793103448","823.793103448","black","experiment","legacy","legacy","legacy","0","uniform","1","undefined","1","left","28","28","28","0","0","28","28","0","0","28","28","28","0","28","0","10/16/21 14:21:01","The main experiment item","yes","SternbergExperiment.osexp","C:\Users\katie\Documents\School\Quant Methods\Lab 3","no","mono","no","18","no","white","no","yes","768","legacy","16","11","C:/Users/katie/Documents/School/Quant Methods/Lab 3/KH-subject-1.csv","legacy","3 5 4 7","Lentiform Loewenfeld","3.3.9","1","y","0","left","left","left","left","NA","1784","5106","2777","1784","NA","2","legacy","4","1024","2","48000","-16","experiment","1","odd","3","183765","180482","181556","2377","83722","181559","125102","2384","80944","185769","182562","187554","7491","185769","NA","Sternberg task","28","23890","29","yes","1024"
"96.6666666667","96.6666666667","815.733333333","815.733333333","black","experiment","legacy","legacy","legacy","0","uniform","1","undefined","1","left","29","29","29","0","0","29","29","0","0","29","29","29","0","29","0","10/16/21 14:21:01","The main experiment item","yes","SternbergExperiment.osexp","C:\Users\katie\Documents\School\Quant Methods\Lab 3","no","mono","no","18","no","white","no","yes","768","legacy","17","11","C:/Users/katie/Documents/School/Quant Methods/Lab 3/KH-subject-1.csv","legacy","6 2","Lentiform Loewenfeld","3.3.9","1","y","0","left","left","left","left","NA","582","5106","2777","582","NA","2","legacy","2","1024","2","48000","-16","experiment","1","odd","6","190846","187560","188635","2377","83722","188638","125102","2384","80944","192850","189641","193433","7491","192850","NA","Sternberg task","29","24472","30","yes","1024"
"96.7741935484","96.7741935484","817.612903226","817.612903226","black","experiment","legacy","legacy","legacy","0","uniform","1","undefined","1","left","30","30","30","0","0","30","30","0","0","30","30","30","0","30","0","10/16/21 14:21:01","The main experiment item","yes","SternbergExperiment.osexp","C:\Users\katie\Documents\School\Quant Methods\Lab 3","no","mono","no","18","no","white","no","yes","768","legacy","18","11","C:/Users/katie/Documents/School/Quant Methods/Lab 3/KH-subject-1.csv","legacy","3 4 9 6 2 9","Lentiform Loewenfeld","3.3.9","5","y","0","left","left","left","left","NA","874","5106","2777","874","NA","2","legacy","6","1024","2","48000","-16","experiment","1","odd","2","196728","193444","194519","2377","83722","194522","125102","2384","80944","198731","195525","199607","7491","198731","NA","Sternberg task","30","25346","31","yes","1024"
"96.875","96.875","812.46875","812.46875","black","experiment","legacy","legacy","legacy","0","uniform","1","undefined","1","left","31","31","31","0","0","31","31","0","0","31","31","31","0","31","0","10/16/21 14:21:01","The main experiment item","yes","SternbergExperiment.osexp","C:\Users\katie\Documents\School\Quant Methods\Lab 3","no","mono","no","18","no","white","no","yes","768","legacy","19","11","C:/Users/katie/Documents/School/Quant Methods/Lab 3/KH-subject-1.csv","legacy","5 7 8 2 3 8","Lentiform Loewenfeld","3.3.9","5","y","0","left","left","left","left","NA","653","5106","2777","653","NA","2","legacy","6","1024","2","48000","-16","experiment","1","odd","3","202902","199620","200693","2377","83722","200695","125102","2384","80944","204905","201698","205558","7491","204905","NA","Sternberg task","31","25999","32","yes","1024"
"96.9696969697","96.9696969697","816.939393939","816.939393939","black","experiment","legacy","legacy","legacy","0","uniform","1","undefined","1","left","32","32","32","0","0","32","32","0","0","32","32","32","0","32","0","10/16/21 14:21:01","The main experiment item","yes","SternbergExperiment.osexp","C:\Users\katie\Documents\School\Quant Methods\Lab 3","no","mono","no","18","no","white","no","yes","768","legacy","20","11","C:/Users/katie/Documents/School/Quant Methods/Lab 3/KH-subject-1.csv","legacy","4 1 8 7 5","Lentiform Loewenfeld","3.3.9","3","y","0","left","left","left","left","NA","960","5106","2777","960","NA","2","legacy","5","1024","2","48000","-16","experiment","1","odd","8","208860","205571","206651","2377","83722","206654","125102","2384","80944","210863","207657","211823","7491","210863","NA","Sternberg task","32","26959","33","yes","1024"
"97.0588235294","97.0588235294","812.558823529","812.558823529","black","experiment","legacy","legacy","legacy","0","uniform","1","undefined","1","left","33","33","33","0","0","33","33","0","0","33","33","33","0","33","0","10/16/21 14:21:01","The main experiment item","yes","SternbergExperiment.osexp","C:\Users\katie\Documents\School\Quant Methods\Lab 3","no","mono","no","18","no","white","no","yes","768","legacy","21","11","C:/Users/katie/Documents/School/Quant Methods/Lab 3/KH-subject-1.csv","legacy","6 1 2","Lentiform Loewenfeld","3.3.9","3","y","0","left","left","left","left","NA","668","5106","2777","668","NA","2","legacy","3","1024","2","48000","-16","experiment","1","odd","2","215122","211835","212914","2377","83722","212916","125102","2384","80944","217125","213919","217793","7491","217125","NA","Sternberg task","33","27627","34","yes","1024"
"97.1428571429","97.1428571429","820.542857143","820.542857143","black","experiment","legacy","legacy","legacy","0","uniform","1","undefined","1","left","34","34","34","0","0","34","34","0","0","34","34","34","0","34","0","10/16/21 14:21:01","The main experiment item","yes","SternbergExperiment.osexp","C:\Users\katie\Documents\School\Quant Methods\Lab 3","no","mono","no","18","no","white","no","yes","768","legacy","22","11","C:/Users/katie/Documents/School/Quant Methods/Lab 3/KH-subject-1.csv","legacy","8 5 1 3 9","Lentiform Loewenfeld","3.3.9","4","y","0","left","left","left","left","NA","1092","5106","2777","1092","NA","2","legacy","5","1024","2","48000","-16","experiment","1","odd","3","221095","217799","218887","2377","83722","218889","125102","2384","80944","223099","219892","224192","7491","223098","NA","Sternberg task","34","28719","35","yes","1024"
"97.2222222222","97.2222222222","818.277777778","818.277777778","black","experiment","legacy","legacy","legacy","0","uniform","1","undefined","1","left","35","35","35","0","0","35","35","0","0","35","35","35","0","35","0","10/16/21 14:21:01","The main experiment item","yes","SternbergExperiment.osexp","C:\Users\katie\Documents\School\Quant Methods\Lab 3","no","mono","no","18","no","white","no","yes","768","legacy","23","11","C:/Users/katie/Documents/School/Quant Methods/Lab 3/KH-subject-1.csv","legacy","3 9 6 2","Lentiform Loewenfeld","3.3.9","4","y","0","left","left","left","left","NA","739","5106","2777","739","NA","2","legacy","4","1024","2","48000","-16","experiment","1","odd","2","227494","224204","225287","2377","83722","225288","125102","2384","80944","229497","226290","230236","7491","229497","NA","Sternberg task","35","29458","36","yes","1024"
"97.2972972973","97.2972972973","812.216216216","812.216216216","black","experiment","legacy","legacy","legacy","0","uniform","1","undefined","1","right","36","36","36","0","0","36","36","0","0","36","36","36","0","36","0","10/16/21 14:21:01","The main experiment item","yes","SternbergExperiment.osexp","C:\Users\katie\Documents\School\Quant Methods\Lab 3","no","mono","no","18","no","white","no","yes","768","legacy","24","11","C:/Users/katie/Documents/School/Quant Methods/Lab 3/KH-subject-1.csv","legacy","4 2 7 6 1 3","Lentiform Loewenfeld","3.3.9","0","n","0","right","left","left","right","NA","594","5106","2777","594","NA","2","legacy","6","1024","2","48000","-16","experiment","1","odd","8","233529","230248","231319","2377","83722","231321","125102","2384","80944","235533","232324","236128","7491","235532","NA","Sternberg task","36","30052","37","yes","1024"
"97.3684210526","97.3684210526","818.842105263","818.842105263","black","experiment","legacy","legacy","legacy","0","uniform","1","undefined","1","right","37","37","37","0","0","37","37","0","0","37","37","37","0","37","0","10/16/21 14:21:01","The main experiment item","yes","SternbergExperiment.osexp","C:\Users\katie\Documents\School\Quant Methods\Lab 3","no","mono","no","18","no","white","no","yes","768","legacy","25","11","C:/Users/katie/Documents/School/Quant Methods/Lab 3/KH-subject-1.csv","legacy","9 7 4 5 8","Lentiform Loewenfeld","3.3.9","0","n","0","right","left","left","right","NA","1064","5106","2777","1064","NA","2","legacy","5","1024","2","48000","-16","experiment","1","odd","6","239439","236135","237231","2377","83722","237232","125102","2384","80944","241443","238236","242508","7491","241443","NA","Sternberg task","37","31116","38","yes","1024"
"97.4358974359","97.4358974359","809.923076923","809.923076923","black","experiment","legacy","legacy","legacy","0","uniform","1","undefined","1","left","38","38","38","0","0","38","38","0","0","38","38","38","0","38","0","10/16/21 14:21:01","The main experiment item","yes","SternbergExperiment.osexp","C:\Users\katie\Documents\School\Quant Methods\Lab 3","no","mono","no","18","no","white","no","yes","768","legacy","26","11","C:/Users/katie/Documents/School/Quant Methods/Lab 3/KH-subject-1.csv","legacy","6 7 9 3 1 2","Lentiform Loewenfeld","3.3.9","1","y","0","left","left","left","left","NA","471","5106","2777","471","NA","2","legacy","6","1024","2","48000","-16","experiment","1","odd","6","245850","242522","243638","2377","83722","243643","125102","2384","80944","247853","244646","248325","7491","247853","NA","Sternberg task","38","31587","39","yes","1024"
"97.5","97.5","804.55","804.55","black","experiment","legacy","legacy","legacy","0","uniform","1","undefined","1","left","39","39","39","0","0","39","39","0","0","39","39","39","0","39","0","10/16/21 14:21:01","The main experiment item","yes","SternbergExperiment.osexp","C:\Users\katie\Documents\School\Quant Methods\Lab 3","no","mono","no","18","no","white","no","yes","768","legacy","27","11","C:/Users/katie/Documents/School/Quant Methods/Lab 3/KH-subject-1.csv","legacy","9 5 8 1","Lentiform Loewenfeld","3.3.9","2","y","0","left","left","left","left","NA","595","5106","2777","595","NA","2","legacy","4","1024","2","48000","-16","experiment","1","odd","5","251637","248339","249429","2377","83722","249431","125102","2384","80944","253640","250434","254236","7491","253640","NA","Sternberg task","39","32182","40","yes","1024"
"97.5609756098","97.5609756098","801.12195122","801.12195122","black","experiment","legacy","legacy","legacy","0","uniform","1","undefined","1","right","40","40","40","0","0","40","40","0","0","40","40","40","0","40","0","10/16/21 14:21:01","The main experiment item","yes","SternbergExperiment.osexp","C:\Users\katie\Documents\School\Quant Methods\Lab 3","no","mono","no","18","no","white","no","yes","768","legacy","28","11","C:/Users/katie/Documents/School/Quant Methods/Lab 3/KH-subject-1.csv","legacy","8 6 3 4 7","Lentiform Loewenfeld","3.3.9","0","n","0","right","left","left","right","NA","664","5106","2777","664","NA","2","legacy","5","1024","2","48000","-16","experiment","1","odd","1","257553","254249","255344","2377","83722","255346","125102","2384","80944","259556","256349","260221","7491","259556","NA","Sternberg task","40","32846","41","yes","1024"
"97.619047619","97.619047619","793.595238095","793.595238095","black","experiment","legacy","legacy","legacy","0","uniform","1","undefined","1","right","41","41","41","0","0","41","41","0","0","41","41","41","0","41","0","10/16/21 14:21:01","The main experiment item","yes","SternbergExperiment.osexp","C:\Users\katie\Documents\School\Quant Methods\Lab 3","no","mono","no","18","no","white","no","yes","768","legacy","29","11","C:/Users/katie/Documents/School/Quant Methods/Lab 3/KH-subject-1.csv","legacy","3 9 1","Lentiform Loewenfeld","3.3.9","0","n","0","right","left","left","right","NA","485","5106","2777","485","NA","2","legacy","3","1024","2","48000","-16","experiment","1","odd","7","263512","260227","261305","2377","83722","261307","125102","2384","80944","265514","262309","266000","7491","265514","NA","Sternberg task","41","33331","42","yes","1024"
"97.6744186047","97.6744186047","790.465116279","790.465116279","black","experiment","legacy","legacy","legacy","0","uniform","1","undefined","1","left","42","42","42","0","0","42","42","0","0","42","42","42","0","42","0","10/16/21 14:21:01","The main experiment item","yes","SternbergExperiment.osexp","C:\Users\katie\Documents\School\Quant Methods\Lab 3","no","mono","no","18","no","white","no","yes","768","legacy","30","11","C:/Users/katie/Documents/School/Quant Methods/Lab 3/KH-subject-1.csv","legacy","1 4 9 3 2 5","Lentiform Loewenfeld","3.3.9","3","y","0","left","left","left","left","NA","659","5106","2777","659","NA","2","legacy","6","1024","2","48000","-16","experiment","1","odd","9","269295","266004","267086","2377","83722","267089","125102","2384","80944","271298","268092","271958","7491","271298","NA","Sternberg task","42","33990","43","yes","1024"
"97.7272727273","97.7272727273","785.068181818","785.068181818","black","experiment","legacy","legacy","legacy","0","uniform","1","undefined","1","right","43","43","43","0","0","43","43","0","0","43","43","43","0","43","0","10/16/21 14:21:01","The main experiment item","yes","SternbergExperiment.osexp","C:\Users\katie\Documents\School\Quant Methods\Lab 3","no","mono","no","18","no","white","no","yes","768","legacy","31","11","C:/Users/katie/Documents/School/Quant Methods/Lab 3/KH-subject-1.csv","legacy","1 3 2 6 9","Lentiform Loewenfeld","3.3.9","0","n","0","right","left","left","right","NA","553","5106","2777","553","NA","2","legacy","5","1024","2","48000","-16","experiment","1","odd","5","275259","271970","273051","2377","83722","273053","125102","2384","80944","277262","274056","277816","7491","277262","NA","Sternberg task","43","34543","44","yes","1024"
"97.7777777778","97.7777777778","786.955555556","786.955555556","black","experiment","legacy","legacy","legacy","0","uniform","1","undefined","1","left","44","44","44","0","0","44","44","0","0","44","44","44","0","44","0","10/16/21 14:21:01","The main experiment item","yes","SternbergExperiment.osexp","C:\Users\katie\Documents\School\Quant Methods\Lab 3","no","mono","no","18","no","white","no","yes","768","legacy","32","11","C:/Users/katie/Documents/School/Quant Methods/Lab 3/KH-subject-1.csv","legacy","4 6 2 5 1","Lentiform Loewenfeld","3.3.9","5","y","0","left","left","left","left","NA","870","5106","2777","870","NA","2","legacy","5","1024","2","48000","-16","experiment","1","odd","1","281125","277829","278916","2377","83722","278918","125102","2384","80944","283129","279922","283999","7491","283129","NA","Sternberg task","44","35413","45","yes","1024"
"97.8260869565","97.8260869565","780.434782609","780.434782609","black","experiment","legacy","legacy","legacy","0","uniform","1","undefined","1","left","45","45","45","0","0","45","45","0","0","45","45","45","0","45","0","10/16/21 14:21:01","The main experiment item","yes","SternbergExperiment.osexp","C:\Users\katie\Documents\School\Quant Methods\Lab 3","no","mono","no","18","no","white","no","yes","768","legacy","33","11","C:/Users/katie/Documents/School/Quant Methods/Lab 3/KH-subject-1.csv","legacy","9 3 1 2 5","Lentiform Loewenfeld","3.3.9","4","y","0","left","left","left","left","NA","487","5106","2777","487","NA","2","legacy","5","1024","2","48000","-16","experiment","1","odd","2","287302","284004","285094","2377","83722","285096","125102","2384","80944","289304","286099","289792","7491","289304","NA","Sternberg task","45","35900","46","yes","1024"
"97.8723404255","97.8723404255","775.319148936","775.319148936","black","experiment","legacy","legacy","legacy","0","uniform","1","undefined","1","right","46","46","46","0","0","46","46","0","0","46","46","46","0","46","0","10/16/21 14:21:01","The main experiment item","yes","SternbergExperiment.osexp","C:\Users\katie\Documents\School\Quant Methods\Lab 3","no","mono","no","18","no","white","no","yes","768","legacy","34","11","C:/Users/katie/Documents/School/Quant Methods/Lab 3/KH-subject-1.csv","legacy","4 8 1 2","Lentiform Loewenfeld","3.3.9","0","n","0","right","left","left","right","NA","540","5106","2777","540","NA","2","legacy","4","1024","2","48000","-16","experiment","1","odd","7","293093","289804","290884","2377","83722","290886","125102","2384","80944","295096","291889","295636","7491","295096","NA","Sternberg task","46","36440","47","yes","1024"
"97.9166666667","97.9166666667","772.020833333","772.020833333","black","experiment","legacy","legacy","legacy","0","uniform","1","undefined","1","left","47","47","47","0","0","47","47","0","0","47","47","47","0","47","0","10/16/21 14:21:01","The main experiment item","yes","SternbergExperiment.osexp","C:\Users\katie\Documents\School\Quant Methods\Lab 3","no","mono","no","18","no","white","no","yes","768","legacy","35","11","C:/Users/katie/Documents/School/Quant Methods/Lab 3/KH-subject-1.csv","legacy","9 1 7 2","Lentiform Loewenfeld","3.3.9","2","y","0","left","left","left","left","NA","617","5106","2777","617","NA","2","legacy","4","1024","2","48000","-16","experiment","1","odd","1","298933","295647","296724","2377","83722","296727","125102","2384","80944","300936","297729","301554","7491","300936","NA","Sternberg task","47","37057","48","yes","1024"
"97.9591836735","97.9591836735","767.714285714","767.714285714","black","experiment","legacy","legacy","legacy","0","uniform","1","undefined","1","left","48","48","48","0","0","48","48","0","0","48","48","48","0","48","0","10/16/21 14:21:01","The main experiment item","yes","SternbergExperiment.osexp","C:\Users\katie\Documents\School\Quant Methods\Lab 3","no","mono","no","18","no","white","no","yes","768","legacy","36","11","C:/Users/katie/Documents/School/Quant Methods/Lab 3/KH-subject-1.csv","legacy","5 7 3 6 2","Lentiform Loewenfeld","3.3.9","5","y","0","left","left","left","left","NA","561","5106","2777","561","NA","2","legacy","5","1024","2","48000","-16","experiment","1","odd","2","304876","301567","302668","2377","83722","302670","125102","2384","80944","306879","303673","307441","7491","306879","NA","Sternberg task","48","37618","49","yes","1024"
"98","98","766.74","766.74","black","experiment","legacy","legacy","legacy","0","uniform","1","undefined","1","right","49","49","49","0","0","49","49","0","0","49","49","49","0","49","0","10/16/21 14:21:01","The main experiment item","yes","SternbergExperiment.osexp","C:\Users\katie\Documents\School\Quant Methods\Lab 3","no","mono","no","18","no","white","no","yes","768","legacy","37","11","C:/Users/katie/Documents/School/Quant Methods/Lab 3/KH-subject-1.csv","legacy","2 8 9","Lentiform Loewenfeld","3.3.9","0","n","0","right","left","left","right","NA","719","5106","2777","719","NA","2","legacy","3","1024","2","48000","-16","experiment","1","odd","6","310748","307445","308539","2377","83722","308541","125102","2384","80944","312751","309544","313470","7491","312751","NA","Sternberg task","49","38337","50","yes","1024"
"98.0392156863","98.0392156863","769.803921569","769.803921569","black","experiment","legacy","legacy","legacy","0","uniform","1","undefined","1","left","50","50","50","0","0","50","50","0","0","50","50","50","0","50","0","10/16/21 14:21:01","The main experiment item","yes","SternbergExperiment.osexp","C:\Users\katie\Documents\School\Quant Methods\Lab 3","no","mono","no","18","no","white","no","yes","768","legacy","38","11","C:/Users/katie/Documents/School/Quant Methods/Lab 3/KH-subject-1.csv","legacy","7 4 2 6 3 5","Lentiform Loewenfeld","3.3.9","6","y","0","left","left","left","left","NA","923","5106","2777","923","NA","2","legacy","6","1024","2","48000","-16","experiment","1","odd","5","316748","313474","314540","2377","83722","314542","125102","2384","80944","318751","315545","319676","7491","318751","NA","Sternberg task","50","39260","51","yes","1024"
"98.0769230769","98.0769230769","768.673076923","768.673076923","black","experiment","legacy","legacy","legacy","0","uniform","1","undefined","1","right","51","51","51","0","0","51","51","0","0","51","51","51","0","51","0","10/16/21 14:21:01","The main experiment item","yes","SternbergExperiment.osexp","C:\Users\katie\Documents\School\Quant Methods\Lab 3","no","mono","no","18","no","white","no","yes","768","legacy","39","11","C:/Users/katie/Documents/School/Quant Methods/Lab 3/KH-subject-1.csv","legacy","5 9 2 3","Lentiform Loewenfeld","3.3.9","0","n","0","right","left","left","right","NA","711","5106","2777","711","NA","2","legacy","4","1024","2","48000","-16","experiment","1","odd","8","322964","319682","320752","2377","83722","320757","125102","2384","80944","324967","321760","325680","7491","324967","NA","Sternberg task","51","39971","52","yes","1024"
"98.1132075472","98.1132075472","767.396226415","767.396226415","black","experiment","legacy","legacy","legacy","0","uniform","1","undefined","1","right","52","52","52","0","0","52","52","0","0","52","52","52","0","52","0","10/16/21 14:21:01","The main experiment item","yes","SternbergExperiment.osexp","C:\Users\katie\Documents\School\Quant Methods\Lab 3","no","mono","no","18","no","white","no","yes","768","legacy","40","11","C:/Users/katie/Documents/School/Quant Methods/Lab 3/KH-subject-1.csv","legacy","1 6 4 3 9 7","Lentiform Loewenfeld","3.3.9","0","n","0","right","left","left","right","NA","701","5106","2777","701","NA","2","legacy","6","1024","2","48000","-16","experiment","1","odd","8","329027","325692","326817","2377","83722","326820","125102","2384","80944","331031","327823","331733","7491","331030","NA","Sternberg task","52","40672","53","yes","1024"
"98.1481481481","98.1481481481","763.277777778","763.277777778","black","experiment","legacy","legacy","legacy","0","uniform","1","undefined","1","left","53","53","53","0","0","53","53","0","0","53","53","53","0","53","0","10/16/21 14:21:01","The main experiment item","yes","SternbergExperiment.osexp","C:\Users\katie\Documents\School\Quant Methods\Lab 3","no","mono","no","18","no","white","no","yes","768","legacy","41","11","C:/Users/katie/Documents/School/Quant Methods/Lab 3/KH-subject-1.csv","legacy","8 7 3","Lentiform Loewenfeld","3.3.9","1","y","0","left","left","left","left","NA","545","5106","2777","545","NA","2","legacy","3","1024","2","48000","-16","experiment","1","odd","8","335020","331738","332813","2377","83722","332814","125102","2384","80944","337024","333817","337570","7491","337024","NA","Sternberg task","53","41217","54","yes","1024"
"98.1818181818","98.1818181818","760.945454545","760.945454545","black","experiment","legacy","legacy","legacy","0","uniform","1","undefined","1","right","54","54","54","0","0","54","54","0","0","54","54","54","0","54","0","10/16/21 14:21:01","The main experiment item","yes","SternbergExperiment.osexp","C:\Users\katie\Documents\School\Quant Methods\Lab 3","no","mono","no","18","no","white","no","yes","768","legacy","42","11","C:/Users/katie/Documents/School/Quant Methods/Lab 3/KH-subject-1.csv","legacy","5 3 2 6 9 8","Lentiform Loewenfeld","3.3.9","0","n","0","right","left","left","right","NA","635","5106","2777","635","NA","2","legacy","6","1024","2","48000","-16","experiment","1","odd","4","340875","337574","338666","2377","83722","338668","125102","2384","80944","342878","339672","343513","7491","342878","NA","Sternberg task","54","41852","55","yes","1024"
"98.2142857143","98.2142857143","757.214285714","757.214285714","black","experiment","legacy","legacy","legacy","0","uniform","1","undefined","1","right","55","55","55","0","0","55","55","0","0","55","55","55","0","55","0","10/16/21 14:21:01","The main experiment item","yes","SternbergExperiment.osexp","C:\Users\katie\Documents\School\Quant Methods\Lab 3","no","mono","no","18","no","white","no","yes","768","legacy","43","11","C:/Users/katie/Documents/School/Quant Methods/Lab 3/KH-subject-1.csv","legacy","7 8 6 1","Lentiform Loewenfeld","3.3.9","0","n","0","right","left","left","right","NA","552","5106","2777","552","NA","2","legacy","4","1024","2","48000","-16","experiment","1","odd","3","346816","343526","344608","2377","83722","344610","125102","2384","80944","348819","345612","349373","7491","348819","NA","Sternberg task","55","42404","56","yes","1024"
"98.2456140351","98.2456140351","756.929824561","756.929824561","black","experiment","legacy","legacy","legacy","0","uniform","1","undefined","1","right","56","56","56","0","0","56","56","0","0","56","56","56","0","56","0","10/16/21 14:21:01","The main experiment item","yes","SternbergExperiment.osexp","C:\Users\katie\Documents\School\Quant Methods\Lab 3","no","mono","no","18","no","white","no","yes","768","legacy","44","11","C:/Users/katie/Documents/School/Quant Methods/Lab 3/KH-subject-1.csv","legacy","6 9 4 5 3 2","Lentiform Loewenfeld","3.3.9","0","n","0","right","left","left","right","NA","741","5106","2777","741","NA","2","legacy","6","1024","2","48000","-16","experiment","1","odd","8","352670","349386","350463","2377","83722","350464","125102","2384","80944","354673","351466","355414","7491","354673","NA","Sternberg task","56","43145","57","yes","1024"
"98.275862069","98.275862069","753.155172414","753.155172414","black","experiment","legacy","legacy","legacy","0","uniform","1","undefined","1","left","57","57","57","0","0","57","57","0","0","57","57","57","0","57","0","10/16/21 14:21:01","The main experiment item","yes","SternbergExperiment.osexp","C:\Users\katie\Documents\School\Quant Methods\Lab 3","no","mono","no","18","no","white","no","yes","768","legacy","45","11","C:/Users/katie/Documents/School/Quant Methods/Lab 3/KH-subject-1.csv","legacy","6 5","Lentiform Loewenfeld","3.3.9","2","y","0","left","left","left","left","NA","538","5106","2777","538","NA","2","legacy","2","1024","2","48000","-16","experiment","1","odd","5","358725","355426","356518","2377","83722","356520","125102","2384","80944","360729","357522","361268","7491","360728","NA","Sternberg task","57","43683","58","yes","1024"
"98.3050847458","98.3050847458","755.305084746","755.305084746","black","experiment","legacy","legacy","legacy","0","uniform","1","undefined","1","left","58","58","58","0","0","58","58","0","0","58","58","58","0","58","0","10/16/21 14:21:01","The main experiment item","yes","SternbergExperiment.osexp","C:\Users\katie\Documents\School\Quant Methods\Lab 3","no","mono","no","18","no","white","no","yes","768","legacy","46","11","C:/Users/katie/Documents/School/Quant Methods/Lab 3/KH-subject-1.csv","legacy","8 5 3 7 4 6","Lentiform Loewenfeld","3.3.9","6","y","0","left","left","left","left","NA","880","5106","2777","880","NA","2","legacy","6","1024","2","48000","-16","experiment","1","odd","6","364583","361281","362373","2377","83722","362375","125102","2384","80944","366586","363378","367467","7491","366586","NA","Sternberg task","58","44563","59","yes","1024"
"98.3333333333","98.3333333333","751.75","751.75","black","experiment","legacy","legacy","legacy","0","uniform","1","undefined","1","left","59","59","59","0","0","59","59","0","0","59","59","59","0","59","0","10/16/21 14:21:01","The main experiment item","yes","SternbergExperiment.osexp","C:\Users\katie\Documents\School\Quant Methods\Lab 3","no","mono","no","18","no","white","no","yes","768","legacy","47","11","C:/Users/katie/Documents/School/Quant Methods/Lab 3/KH-subject-1.csv","legacy","4 1 5","Lentiform Loewenfeld","3.3.9","2","y","0","left","left","left","left","NA","542","5106","2777","542","NA","2","legacy","3","1024","2","48000","-16","experiment","1","odd","1","370749","367472","368543","2377","83722","368546","125102","2384","80944","372751","369547","373294","7491","372751","NA","Sternberg task","59","45105","60","yes","1024"
"98.3606557377","98.3606557377","747.983606557","747.983606557","black","experiment","legacy","legacy","legacy","0","uniform","1","undefined","1","left","60","60","60","0","0","60","60","0","0","60","60","60","0","60","0","10/16/21 14:21:01","The main experiment item","yes","SternbergExperiment.osexp","C:\Users\katie\Documents\School\Quant Methods\Lab 3","no","mono","no","18","no","white","no","yes","768","legacy","48","11","C:/Users/katie/Documents/School/Quant Methods/Lab 3/KH-subject-1.csv","legacy","3 5 7 1","Lentiform Loewenfeld","3.3.9","3","y","0","left","left","left","left","NA","522","5106","2777","522","NA","2","legacy","4","1024","2","48000","-16","experiment","1","odd","7","376586","373300","374377","2377","83722","374380","125102","2384","80944","378589","375383","379112","7491","378589","NA","Sternberg task","60","45627","61","yes","1024"
"98.3870967742","98.3870967742","744.935483871","744.935483871","black","experiment","legacy","legacy","legacy","0","uniform","1","undefined","1","right","61","61","61","0","0","61","61","0","0","61","61","61","0","61","0","10/16/21 14:21:01","The main experiment item","yes","SternbergExperiment.osexp","C:\Users\katie\Documents\School\Quant Methods\Lab 3","no","mono","no","18","no","white","no","yes","768","legacy","49","11","C:/Users/katie/Documents/School/Quant Methods/Lab 3/KH-subject-1.csv","legacy","8 5 4 2 9 6","Lentiform Loewenfeld","3.3.9","0","n","0","right","left","left","right","NA","559","5106","2777","559","NA","2","legacy","6","1024","2","48000","-16","experiment","1","odd","3","382403","379118","380193","2377","83722","380195","125102","2384","80944","384406","381198","384965","7491","384406","NA","Sternberg task","61","46186","62","yes","1024"
"98.4126984127","98.4126984127","740.317460317","740.317460317","black","experiment","legacy","legacy","legacy","0","uniform","1","undefined","1","right","62","62","62","0","0","62","62","0","0","62","62","62","0","62","0","10/16/21 14:21:01","The main experiment item","yes","SternbergExperiment.osexp","C:\Users\katie\Documents\School\Quant Methods\Lab 3","no","mono","no","18","no","white","no","yes","768","legacy","50","11","C:/Users/katie/Documents/School/Quant Methods/Lab 3/KH-subject-1.csv","legacy","1 6 4","Lentiform Loewenfeld","3.3.9","0","n","0","right","left","left","right","NA","454","5106","2777","454","NA","2","legacy","3","1024","2","48000","-16","experiment","1","odd","7","388263","384971","386054","2377","83722","386056","125102","2384","80944","390268","387060","390725","7491","390268","NA","Sternberg task","62","46640","63","yes","1024"
"98.4375","98.4375","742.96875","742.96875","black","experiment","legacy","legacy","legacy","0","uniform","1","undefined","1","right","63","63","63","0","0","63","63","0","0","63","63","63","0","63","0","10/16/21 14:21:01","The main experiment item","yes","SternbergExperiment.osexp","C:\Users\katie\Documents\School\Quant Methods\Lab 3","no","mono","no","18","no","white","no","yes","768","legacy","51","11","C:/Users/katie/Documents/School/Quant Methods/Lab 3/KH-subject-1.csv","legacy","5","Lentiform Loewenfeld","3.3.9","0","n","0","right","left","left","right","NA","910","5106","2777","910","NA","2","legacy","1","1024","2","48000","-16","experiment","1","odd","8","394023","390738","391812","2377","83722","391817","125102","2384","80944","396026","392820","396937","7491","396026","NA","Sternberg task","63","47550","64","yes","1024"
"96.9230769231","96.9230769231","738.092307692","738.092307692","black","experiment","legacy","legacy","legacy","0","uniform","0","undefined","0","left","64","64","64","0","0","64","64","0","0","64","64","64","0","64","0","10/16/21 14:21:01","The main experiment item","yes","SternbergExperiment.osexp","C:\Users\katie\Documents\School\Quant Methods\Lab 3","no","mono","no","18","no","white","no","yes","768","legacy","52","11","C:/Users/katie/Documents/School/Quant Methods/Lab 3/KH-subject-1.csv","legacy","4","Lentiform Loewenfeld","3.3.9","1","y","0","right","left","left","right","NA","426","5106","2777","426","NA","2","legacy","1","1024","2","48000","-16","experiment","1","odd","4","400234","396949","398024","2377","83722","398027","125102","2384","80944","402237","399030","402665","7491","402237","NA","Sternberg task","63","47976","65","yes","1024"
"95.4545454545","95.4545454545","735.696969697","735.696969697","black","experiment","legacy","legacy","legacy","0","uniform","0","undefined","0","right","65","65","65","0","0","65","65","0","0","65","65","65","0","65","0","10/16/21 14:21:01","The main experiment item","yes","SternbergExperiment.osexp","C:\Users\katie\Documents\School\Quant Methods\Lab 3","no","mono","no","18","no","white","no","yes","768","legacy","53","11","C:/Users/katie/Documents/School/Quant Methods/Lab 3/KH-subject-1.csv","legacy","1 7 5 2","Lentiform Loewenfeld","3.3.9","0","n","0","left","left","left","left","NA","580","5106","2777","580","NA","2","legacy","4","1024","2","48000","-16","experiment","1","odd","3","405962","396949","403753","2377","83722","403755","402677","2384","80944","407965","404758","408546","7491","407965","NA","Sternberg task","63","48556","66","yes","1024"
"95.5223880597","95.5223880597","739.223880597","739.223880597","black","experiment","legacy","legacy","legacy","0","uniform","1","undefined","1","right","66","66","66","0","0","66","66","0","0","66","66","66","0","66","0","10/16/21 14:21:01","The main experiment item","yes","SternbergExperiment.osexp","C:\Users\katie\Documents\School\Quant Methods\Lab 3","no","mono","no","18","no","white","no","yes","768","legacy","54","11","C:/Users/katie/Documents/School/Quant Methods/Lab 3/KH-subject-1.csv","legacy","3 9 8 1 6 4","Lentiform Loewenfeld","3.3.9","0","n","0","right","left","left","right","NA","972","5106","2777","972","NA","2","legacy","6","1024","2","48000","-16","experiment","1","odd","7","411847","396949","409640","2377","83722","409641","408559","2384","80944","413850","410643","414823","7491","413850","NA","Sternberg task","64","49528","67","yes","1024"
"95.5882352941","95.5882352941","735.25","735.25","black","experiment","legacy","legacy","legacy","0","uniform","1","undefined","1","left","67","67","67","0","0","67","67","0","0","67","67","67","0","67","0","10/16/21 14:21:01","The main experiment item","yes","SternbergExperiment.osexp","C:\Users\katie\Documents\School\Quant Methods\Lab 3","no","mono","no","18","no","white","no","yes","768","legacy","55","11","C:/Users/katie/Documents/School/Quant Methods/Lab 3/KH-subject-1.csv","legacy","3 4","Lentiform Loewenfeld","3.3.9","1","y","0","left","left","left","left","NA","469","5106","2777","469","NA","2","legacy","2","1024","2","48000","-16","experiment","1","odd","3","418113","414828","415902","2377","83722","415908","408559","2384","80944","420116","416912","420585","7491","420116","NA","Sternberg task","65","49997","68","yes","1024"
"95.652173913","95.652173913","732.52173913","732.52173913","black","experiment","legacy","legacy","legacy","0","uniform","1","undefined","1","right","68","68","68","0","0","68","68","0","0","68","68","68","0","68","0","10/16/21 14:21:01","The main experiment item","yes","SternbergExperiment.osexp","C:\Users\katie\Documents\School\Quant Methods\Lab 3","no","mono","no","18","no","white","no","yes","768","legacy","56","11","C:/Users/katie/Documents/School/Quant Methods/Lab 3/KH-subject-1.csv","legacy","9 5 3 2 8 6","Lentiform Loewenfeld","3.3.9","0","n","0","right","left","left","right","NA","547","5106","2777","547","NA","2","legacy","6","1024","2","48000","-16","experiment","1","odd","7","423887","420591","421679","2377","83722","421680","408559","2384","80944","425890","422683","426438","7491","425890","NA","Sternberg task","66","50544","69","yes","1024"
"95.7142857143","95.7142857143","733.485714286","733.485714286","black","experiment","legacy","legacy","legacy","0","uniform","1","undefined","1","right","69","69","69","0","0","69","69","0","0","69","69","69","0","69","0","10/16/21 14:21:01","The main experiment item","yes","SternbergExperiment.osexp","C:\Users\katie\Documents\School\Quant Methods\Lab 3","no","mono","no","18","no","white","no","yes","768","legacy","57","11","C:/Users/katie/Documents/School/Quant Methods/Lab 3/KH-subject-1.csv","legacy","7 1 8 4 9 3","Lentiform Loewenfeld","3.3.9","0","n","0","right","left","left","right","NA","800","5106","2777","800","NA","2","legacy","6","1024","2","48000","-16","experiment","1","odd","6","429729","426442","427521","2377","83722","427523","408559","2384","80944","431732","428526","432533","7491","431732","NA","Sternberg task","67","51344","70","yes","1024"
"95.7746478873","95.7746478873","735.183098592","735.183098592","black","experiment","legacy","legacy","legacy","0","uniform","1","undefined","1","left","70","70","70","0","0","70","70","0","0","70","70","70","0","70","0","10/16/21 14:21:01","The main experiment item","yes","SternbergExperiment.osexp","C:\Users\katie\Documents\School\Quant Methods\Lab 3","no","mono","no","18","no","white","no","yes","768","legacy","58","11","C:/Users/katie/Documents/School/Quant Methods/Lab 3/KH-subject-1.csv","legacy","4 7 6 8 2 3","Lentiform Loewenfeld","3.3.9","6","y","0","left","left","left","left","NA","854","5106","2777","854","NA","2","legacy","6","1024","2","48000","-16","experiment","1","odd","3","435823","432537","433611","2377","83722","433616","408559","2384","80944","437827","434620","438681","7491","437826","NA","Sternberg task","68","52198","71","yes","1024"
"95.8333333333","95.8333333333","730.972222222","730.972222222","black","experiment","legacy","legacy","legacy","0","uniform","1","undefined","1","left","71","71","71","0","0","71","71","0","0","71","71","71","0","71","0","10/16/21 14:21:01","The main experiment item","yes","SternbergExperiment.osexp","C:\Users\katie\Documents\School\Quant Methods\Lab 3","no","mono","no","18","no","white","no","yes","768","legacy","59","11","C:/Users/katie/Documents/School/Quant Methods/Lab 3/KH-subject-1.csv","legacy","9 3 8 2 1 4","Lentiform Loewenfeld","3.3.9","3","y","0","left","left","left","left","NA","432","5106","2777","432","NA","2","legacy","6","1024","2","48000","-16","experiment","1","odd","8","441987","438694","439778","2377","83722","439781","408559","2384","80944","443991","440784","444424","7491","443990","NA","Sternberg task","69","52630","72","yes","1024"
"95.8904109589","95.8904109589","726.315068493","726.315068493","black","experiment","legacy","legacy","legacy","0","uniform","1","undefined","1","left","72","72","72","0","0","72","72","0","0","72","72","72","0","72","0","10/16/21 14:21:01","The main experiment item","yes","SternbergExperiment.osexp","C:\Users\katie\Documents\School\Quant Methods\Lab 3","no","mono","no","18","no","white","no","yes","768","legacy","60","11","C:/Users/katie/Documents/School/Quant Methods/Lab 3/KH-subject-1.csv","legacy","8 9 5 6 7","Lentiform Loewenfeld","3.3.9","1","y","0","left","left","left","left","NA","391","5106","2777","391","NA","2","legacy","5","1024","2","48000","-16","experiment","1","odd","8","447713","444436","445504","2377","83722","445506","408559","2384","80944","449716","446509","450108","7491","449716","NA","Sternberg task","70","53021","73","yes","1024"
"95.9459459459","95.9459459459","723.040540541","723.040540541","black","experiment","legacy","legacy","legacy","0","uniform","1","undefined","1","left","73","73","73","0","0","73","73","0","0","73","73","73","0","73","0","10/16/21 14:21:01","The main experiment item","yes","SternbergExperiment.osexp","C:\Users\katie\Documents\School\Quant Methods\Lab 3","no","mono","no","18","no","white","no","yes","768","legacy","61","11","C:/Users/katie/Documents/School/Quant Methods/Lab 3/KH-subject-1.csv","legacy","3 5 9 6 2 4","Lentiform Loewenfeld","3.3.9","1","y","0","left","left","left","left","NA","484","5106","2777","484","NA","2","legacy","6","1024","2","48000","-16","experiment","1","odd","3","453406","450121","451197","2377","83722","451199","408559","2384","80944","455409","452202","455896","7491","455409","NA","Sternberg task","71","53505","74","yes","1024"
"96","96","723.32","723.32","black","experiment","legacy","legacy","legacy","0","uniform","1","undefined","1","right","74","74","74","0","0","74","74","0","0","74","74","74","0","74","0","10/16/21 14:21:01","The main experiment item","yes","SternbergExperiment.osexp","C:\Users\katie\Documents\School\Quant Methods\Lab 3","no","mono","no","18","no","white","no","yes","768","legacy","62","11","C:/Users/katie/Documents/School/Quant Methods/Lab 3/KH-subject-1.csv","legacy","7 1","Lentiform Loewenfeld","3.3.9","0","n","0","right","left","left","right","NA","744","5106","2777","744","NA","2","legacy","2","1024","2","48000","-16","experiment","1","odd","8","459195","455908","456987","2377","83722","456990","408559","2384","80944","461198","457992","461943","7491","461198","NA","Sternberg task","72","54249","75","yes","1024"
"96.0526315789","96.0526315789","721.776315789","721.776315789","black","experiment","legacy","legacy","legacy","0","uniform","1","undefined","1","left","75","75","75","0","0","75","75","0","0","75","75","75","0","75","0","10/16/21 14:21:01","The main experiment item","yes","SternbergExperiment.osexp","C:\Users\katie\Documents\School\Quant Methods\Lab 3","no","mono","no","18","no","white","no","yes","768","legacy","63","11","C:/Users/katie/Documents/School/Quant Methods/Lab 3/KH-subject-1.csv","legacy","7 1 3","Lentiform Loewenfeld","3.3.9","2","y","0","left","left","left","left","NA","606","5106","2777","606","NA","2","legacy","3","1024","2","48000","-16","experiment","1","odd","1","465248","461956","463041","2377","83722","463042","408559","2384","80944","467250","464045","467857","7491","467250","NA","Sternberg task","73","54855","76","yes","1024"
"96.1038961039","96.1038961039","721.272727273","721.272727273","black","experiment","legacy","legacy","legacy","0","uniform","1","undefined","1","right","76","76","76","0","0","76","76","0","0","76","76","76","0","76","0","10/16/21 14:21:01","The main experiment item","yes","SternbergExperiment.osexp","C:\Users\katie\Documents\School\Quant Methods\Lab 3","no","mono","no","18","no","white","no","yes","768","legacy","64","11","C:/Users/katie/Documents/School/Quant Methods/Lab 3/KH-subject-1.csv","legacy","7 6 4 8 1 2","Lentiform Loewenfeld","3.3.9","0","n","0","right","left","left","right","NA","683","5106","2777","683","NA","2","legacy","6","1024","2","48000","-16","experiment","1","odd","9","471154","467868","468947","2377","83722","468948","408559","2384","80944","473157","469951","473841","7491","473156","NA","Sternberg task","74","55538","77","yes","1024"
"96.1538461538","96.1538461538","719.846153846","719.846153846","black","experiment","legacy","legacy","legacy","0","uniform","1","undefined","1","left","77","77","77","0","0","77","77","0","0","77","77","77","0","77","0","10/16/21 14:21:01","The main experiment item","yes","SternbergExperiment.osexp","C:\Users\katie\Documents\School\Quant Methods\Lab 3","no","mono","no","18","no","white","no","yes","768","legacy","65","11","C:/Users/katie/Documents/School/Quant Methods/Lab 3/KH-subject-1.csv","legacy","6 9 7 4 5 1","Lentiform Loewenfeld","3.3.9","2","y","0","left","left","left","left","NA","610","5106","2777","610","NA","2","legacy","6","1024","2","48000","-16","experiment","1","odd","9","477143","473854","474933","2377","83722","474935","408559","2384","80944","479146","475939","479758","7491","479146","NA","Sternberg task","75","56148","78","yes","1024"
"96.2025316456","96.2025316456","718.164556962","718.164556962","black","experiment","legacy","legacy","legacy","0","uniform","1","undefined","1","left","78","78","78","0","0","78","78","0","0","78","78","78","0","78","0","10/16/21 14:21:01","The main experiment item","yes","SternbergExperiment.osexp","C:\Users\katie\Documents\School\Quant Methods\Lab 3","no","mono","no","18","no","white","no","yes","768","legacy","66","11","C:/Users/katie/Documents/School/Quant Methods/Lab 3/KH-subject-1.csv","legacy","4 3 2 5 8","Lentiform Loewenfeld","3.3.9","2","y","0","left","left","left","left","NA","587","5106","2777","587","NA","2","legacy","5","1024","2","48000","-16","experiment","1","odd","3","483039","479761","480831","2377","83722","480833","408559","2384","80944","485042","481836","485630","7491","485042","NA","Sternberg task","76","56735","79","yes","1024"
"96.25","96.25","716.0625","716.0625","black","experiment","legacy","legacy","legacy","0","uniform","1","undefined","1","right","79","79","79","0","0","79","79","0","0","79","79","79","0","79","0","10/16/21 14:21:01","The main experiment item","yes","SternbergExperiment.osexp","C:\Users\katie\Documents\School\Quant Methods\Lab 3","no","mono","no","18","no","white","no","yes","768","legacy","67","11","C:/Users/katie/Documents/School/Quant Methods/Lab 3/KH-subject-1.csv","legacy","3 4 2","Lentiform Loewenfeld","3.3.9","0","n","0","right","left","left","right","NA","550","5106","2777","550","NA","2","legacy","3","1024","2","48000","-16","experiment","1","odd","5","488924","485641","486716","2377","83722","486718","408559","2384","80944","490927","487721","491478","7491","490926","NA","Sternberg task","77","57285","80","yes","1024"
"96.2962962963","96.2962962963","712.567901235","712.567901235","black","experiment","legacy","legacy","legacy","0","uniform","1","undefined","1","right","80","80","80","0","0","80","80","0","0","80","80","80","0","80","0","10/16/21 14:21:01","The main experiment item","yes","SternbergExperiment.osexp","C:\Users\katie\Documents\School\Quant Methods\Lab 3","no","mono","no","18","no","white","no","yes","768","legacy","68","11","C:/Users/katie/Documents/School/Quant Methods/Lab 3/KH-subject-1.csv","legacy","9","Lentiform Loewenfeld","3.3.9","0","n","0","right","left","left","right","NA","433","5106","2777","433","NA","2","legacy","1","1024","2","48000","-16","experiment","1","odd","6","494770","491484","492561","2377","83722","492563","408559","2384","80944","496772","493566","497206","7491","496772","NA","Sternberg task","78","57718","81","yes","1024"
"96.3414634146","96.3414634146","710.865853659","710.865853659","black","experiment","legacy","legacy","legacy","0","uniform","1","undefined","1","left","81","81","81","0","0","81","81","0","0","81","81","81","0","81","0","10/16/21 14:21:01","The main experiment item","yes","SternbergExperiment.osexp","C:\Users\katie\Documents\School\Quant Methods\Lab 3","no","mono","no","18","no","white","no","yes","768","legacy","69","11","C:/Users/katie/Documents/School/Quant Methods/Lab 3/KH-subject-1.csv","legacy","7 8 4 6 9 5","Lentiform Loewenfeld","3.3.9","4","y","0","left","left","left","left","NA","573","5106","2777","573","NA","2","legacy","6","1024","2","48000","-16","experiment","1","odd","6","500510","497219","498301","2377","83722","498303","408559","2384","80944","502514","499306","503088","7491","502514","NA","Sternberg task","79","58291","82","yes","1024"
"96.3855421687","96.3855421687","708.469879518","708.469879518","black","experiment","legacy","legacy","legacy","0","uniform","1","undefined","1","right","82","82","82","0","0","82","82","0","0","82","82","82","0","82","0","10/16/21 14:21:01","The main experiment item","yes","SternbergExperiment.osexp","C:\Users\katie\Documents\School\Quant Methods\Lab 3","no","mono","no","18","no","white","no","yes","768","legacy","70","11","C:/Users/katie/Documents/School/Quant Methods/Lab 3/KH-subject-1.csv","legacy","2 7 5","Lentiform Loewenfeld","3.3.9","0","n","0","right","left","left","right","NA","512","5106","2777","512","NA","2","legacy","3","1024","2","48000","-16","experiment","1","odd","8","506394","503101","504185","2377","83722","504187","408559","2384","80944","508399","505191","508913","7491","508399","NA","Sternberg task","80","58803","83","yes","1024"
"96.4285714286","96.4285714286","708.928571429","708.928571429","black","experiment","legacy","legacy","legacy","0","uniform","1","undefined","1","left","83","83","83","0","0","83","83","0","0","83","83","83","0","83","0","10/16/21 14:21:01","The main experiment item","yes","SternbergExperiment.osexp","C:\Users\katie\Documents\School\Quant Methods\Lab 3","no","mono","no","18","no","white","no","yes","768","legacy","71","11","C:/Users/katie/Documents/School/Quant Methods/Lab 3/KH-subject-1.csv","legacy","6 7 8 5","Lentiform Loewenfeld","3.3.9","3","y","0","left","left","left","left","NA","747","5106","2777","747","NA","2","legacy","4","1024","2","48000","-16","experiment","1","odd","8","512198","508925","509990","2377","83722","509992","408559","2384","80944","514201","510995","514949","7491","514201","NA","Sternberg task","81","59550","84","yes","1024"
"96.4705882353","96.4705882353","707.482352941","707.482352941","black","experiment","legacy","legacy","legacy","0","uniform","1","undefined","1","right","84","84","84","0","0","84","84","0","0","84","84","84","0","84","0","10/16/21 14:21:01","The main experiment item","yes","SternbergExperiment.osexp","C:\Users\katie\Documents\School\Quant Methods\Lab 3","no","mono","no","18","no","white","no","yes","768","legacy","72","11","C:/Users/katie/Documents/School/Quant Methods/Lab 3/KH-subject-1.csv","legacy","9 8 2 7 4","Lentiform Loewenfeld","3.3.9","0","n","0","right","left","left","right","NA","586","5106","2777","586","NA","2","legacy","5","1024","2","48000","-16","experiment","1","odd","5","518239","514953","516031","2377","83722","516032","408559","2384","80944","520242","517035","520829","7491","520242","NA","Sternberg task","82","60136","85","yes","1024"
"95.3488372093","95.3488372093","708.127906977","708.127906977","black","experiment","legacy","legacy","legacy","0","uniform","0","undefined","0","right","85","85","85","0","0","85","85","0","0","85","85","85","0","85","0","10/16/21 14:21:01","The main experiment item","yes","SternbergExperiment.osexp","C:\Users\katie\Documents\School\Quant Methods\Lab 3","no","mono","no","18","no","white","no","yes","768","legacy","73","11","C:/Users/katie/Documents/School/Quant Methods/Lab 3/KH-subject-1.csv","legacy","1 7 8 3 9","Lentiform Loewenfeld","3.3.9","0","n","0","left","left","left","left","NA","763","5106","2777","763","NA","2","legacy","5","1024","2","48000","-16","experiment","1","odd","2","524120","520833","521911","2377","83722","521913","408559","2384","80944","526123","522916","526887","7491","526123","NA","Sternberg task","82","60899","86","yes","1024"
"95.4022988506","95.4022988506","709.149425287","709.149425287","black","experiment","legacy","legacy","legacy","0","uniform","1","undefined","1","left","86","86","86","0","0","86","86","0","0","86","86","86","0","86","0","10/16/21 14:21:01","The main experiment item","yes","SternbergExperiment.osexp","C:\Users\katie\Documents\School\Quant Methods\Lab 3","no","mono","no","18","no","white","no","yes","768","legacy","74","11","C:/Users/katie/Documents/School/Quant Methods/Lab 3/KH-subject-1.csv","legacy","8 1 6","Lentiform Loewenfeld","3.3.9","3","y","0","left","left","left","left","NA","797","5106","2777","797","NA","2","legacy","3","1024","2","48000","-16","experiment","1","odd","6","530179","520833","527971","2377","83722","527972","526891","2384","80944","532182","528975","532980","7491","532182","NA","Sternberg task","83","61696","87","yes","1024"
"95.4545454545","95.4545454545","707.784090909","707.784090909","black","experiment","legacy","legacy","legacy","0","uniform","1","undefined","1","right","87","87","87","0","0","87","87","0","0","87","87","87","0","87","0","10/16/21 14:21:01","The main experiment item","yes","SternbergExperiment.osexp","C:\Users\katie\Documents\School\Quant Methods\Lab 3","no","mono","no","18","no","white","no","yes","768","legacy","75","11","C:/Users/katie/Documents/School/Quant Methods/Lab 3/KH-subject-1.csv","legacy","1 5 3 2 8","Lentiform Loewenfeld","3.3.9","0","n","0","right","left","left","right","NA","589","5106","2777","589","NA","2","legacy","5","1024","2","48000","-16","experiment","1","odd","4","536275","532984","534062","2377","83722","534068","526891","2384","80944","538278","535071","538868","7491","538278","NA","Sternberg task","84","62285","88","yes","1024"
"95.5056179775","95.5056179775","707.191011236","707.191011236","black","experiment","legacy","legacy","legacy","0","uniform","1","undefined","1","right","88","88","88","0","0","88","88","0","0","88","88","88","0","88","0","10/16/21 14:21:01","The main experiment item","yes","SternbergExperiment.osexp","C:\Users\katie\Documents\School\Quant Methods\Lab 3","no","mono","no","18","no","white","no","yes","768","legacy","76","11","C:/Users/katie/Documents/School/Quant Methods/Lab 3/KH-subject-1.csv","legacy","6 3 1 7 9 8","Lentiform Loewenfeld","3.3.9","0","n","0","right","left","left","right","NA","655","5106","2777","655","NA","2","legacy","6","1024","2","48000","-16","experiment","1","odd","4","542157","538880","539951","2377","83722","539952","526891","2384","80944","544161","540954","544816","7491","544160","NA","Sternberg task","85","62940","89","yes","1024"
"95.5555555556","95.5555555556","705.433333333","705.433333333","black","experiment","legacy","legacy","legacy","0","uniform","1","undefined","1","left","89","89","89","0","0","89","89","0","0","89","89","89","0","89","0","10/16/21 14:21:01","The main experiment item","yes","SternbergExperiment.osexp","C:\Users\katie\Documents\School\Quant Methods\Lab 3","no","mono","no","18","no","white","no","yes","768","legacy","77","11","C:/Users/katie/Documents/School/Quant Methods/Lab 3/KH-subject-1.csv","legacy","2 4 6 9","Lentiform Loewenfeld","3.3.9","3","y","0","left","left","left","left","NA","549","5106","2777","549","NA","2","legacy","4","1024","2","48000","-16","experiment","1","odd","6","548129","544823","545921","2377","83722","545923","526891","2384","80944","550131","546926","550681","7491","550131","NA","Sternberg task","86","63489","90","yes","1024"
"95.6043956044","95.6043956044","708.417582418","708.417582418","black","experiment","legacy","legacy","legacy","0","uniform","1","undefined","1","left","90","90","90","0","0","90","90","0","0","90","90","90","0","90","0","10/16/21 14:21:01","The main experiment item","yes","SternbergExperiment.osexp","C:\Users\katie\Documents\School\Quant Methods\Lab 3","no","mono","no","18","no","white","no","yes","768","legacy","78","11","C:/Users/katie/Documents/School/Quant Methods/Lab 3/KH-subject-1.csv","legacy","2 8 5 1","Lentiform Loewenfeld","3.3.9","4","y","0","left","left","left","left","NA","977","5106","2777","977","NA","2","legacy","4","1024","2","48000","-16","experiment","1","odd","1","553979","550693","551770","2377","83722","551772","526891","2384","80944","555981","552775","556959","7491","555981","NA","Sternberg task","87","64466","91","yes","1024"
"95.652173913","95.652173913","708.902173913","708.902173913","black","experiment","legacy","legacy","legacy","0","uniform","1","undefined","1","right","91","91","91","0","0","91","91","0","0","91","91","91","0","91","0","10/16/21 14:21:01","The main experiment item","yes","SternbergExperiment.osexp","C:\Users\katie\Documents\School\Quant Methods\Lab 3","no","mono","no","18","no","white","no","yes","768","legacy","79","11","C:/Users/katie/Documents/School/Quant Methods/Lab 3/KH-subject-1.csv","legacy","7 4 2 8 1 9","Lentiform Loewenfeld","3.3.9","0","n","0","right","left","left","right","NA","753","5106","2777","753","NA","2","legacy","6","1024","2","48000","-16","experiment","1","odd","5","560262","556972","558053","2377","83722","558054","526891","2384","80944","562265","559057","563019","7491","562265","NA","Sternberg task","88","65219","92","yes","1024"
"95.6989247312","95.6989247312","709.172043011","709.172043011","black","experiment","legacy","legacy","legacy","0","uniform","1","undefined","1","left","92","92","92","0","0","92","92","0","0","92","92","92","0","92","0","10/16/21 14:21:01","The main experiment item","yes","SternbergExperiment.osexp","C:\Users\katie\Documents\School\Quant Methods\Lab 3","no","mono","no","18","no","white","no","yes","768","legacy","80","11","C:/Users/katie/Documents/School/Quant Methods/Lab 3/KH-subject-1.csv","legacy","6 9 3 1","Lentiform Loewenfeld","3.3.9","4","y","0","left","left","left","left","NA","734","5106","2777","734","NA","2","legacy","4","1024","2","48000","-16","experiment","1","odd","1","566306","563023","564097","2377","83722","564100","526891","2384","80944","568310","565103","569046","7491","568310","NA","Sternberg task","89","65953","93","yes","1024"
"95.7446808511","95.7446808511","711.978723404","711.978723404","black","experiment","legacy","legacy","legacy","0","uniform","1","undefined","1","right","93","93","93","0","0","93","93","0","0","93","93","93","0","93","0","10/16/21 14:21:01","The main experiment item","yes","SternbergExperiment.osexp","C:\Users\katie\Documents\School\Quant Methods\Lab 3","no","mono","no","18","no","white","no","yes","768","legacy","81","11","C:/Users/katie/Documents/School/Quant Methods/Lab 3/KH-subject-1.csv","legacy","6 7 5 9","Lentiform Loewenfeld","3.3.9","0","n","0","right","left","left","right","NA","973","5106","2777","973","NA","2","legacy","4","1024","2","48000","-16","experiment","1","odd","2","572367","569058","570159","2377","83722","570161","526891","2384","80944","574370","571164","575345","7491","574370","NA","Sternberg task","90","66926","94","yes","1024"
"95.7894736842","95.7894736842","715.021052632","715.021052632","black","experiment","legacy","legacy","legacy","0","uniform","1","undefined","1","right","94","94","94","0","0","94","94","0","0","94","94","94","0","94","0","10/16/21 14:21:01","The main experiment item","yes","SternbergExperiment.osexp","C:\Users\katie\Documents\School\Quant Methods\Lab 3","no","mono","no","18","no","white","no","yes","768","legacy","82","11","C:/Users/katie/Documents/School/Quant Methods/Lab 3/KH-subject-1.csv","legacy","2 8 7 9 5 3","Lentiform Loewenfeld","3.3.9","0","n","0","right","left","left","right","NA","1001","5106","2777","1001","NA","2","legacy","6","1024","2","48000","-16","experiment","1","odd","6","578643","575357","576436","2377","83722","576437","526891","2384","80944","580646","577440","581648","7491","580646","NA","Sternberg task","91","67927","95","yes","1024"
"95.8333333333","95.8333333333","714.010416667","714.010416667","black","experiment","legacy","legacy","legacy","0","uniform","1","undefined","1","right","95","95","95","0","0","95","95","0","0","95","95","95","0","95","0","10/16/21 14:21:01","The main experiment item","yes","SternbergExperiment.osexp","C:\Users\katie\Documents\School\Quant Methods\Lab 3","no","mono","no","18","no","white","no","yes","768","legacy","83","11","C:/Users/katie/Documents/School/Quant Methods/Lab 3/KH-subject-1.csv","legacy","8 9","Lentiform Loewenfeld","3.3.9","0","n","0","right","left","left","right","NA","618","5106","2777","618","NA","2","legacy","2","1024","2","48000","-16","experiment","1","odd","5","584944","581660","582741","2377","83722","582741","526891","2384","80944","586947","583743","587566","7491","586947","NA","Sternberg task","92","68545","96","yes","1024"
"95.8762886598","95.8762886598","716.24742268","716.24742268","black","experiment","legacy","legacy","legacy","0","uniform","1","undefined","1","right","96","96","96","0","0","96","96","0","0","96","96","96","0","96","0","10/16/21 14:21:01","The main experiment item","yes","SternbergExperiment.osexp","C:\Users\katie\Documents\School\Quant Methods\Lab 3","no","mono","no","18","no","white","no","yes","768","legacy","84","11","C:/Users/katie/Documents/School/Quant Methods/Lab 3/KH-subject-1.csv","legacy","5 7 3","Lentiform Loewenfeld","3.3.9","0","n","0","right","left","left","right","NA","931","5106","2777","931","NA","2","legacy","3","1024","2","48000","-16","experiment","1","odd","9","590861","587579","588650","2377","83722","588655","526891","2384","80944","592864","589658","593797","7491","592864","NA","Sternberg task","93","69476","97","yes","1024"
"95.9183673469","95.9183673469","715.520408163","715.520408163","black","experiment","legacy","legacy","legacy","0","uniform","1","undefined","1","right","97","97","97","0","0","97","97","0","0","97","97","97","0","97","0","10/16/21 14:21:01","The main experiment item","yes","SternbergExperiment.osexp","C:\Users\katie\Documents\School\Quant Methods\Lab 3","no","mono","no","18","no","white","no","yes","768","legacy","85","11","C:/Users/katie/Documents/School/Quant Methods/Lab 3/KH-subject-1.csv","legacy","1 7 5 2 9","Lentiform Loewenfeld","3.3.9","0","n","0","right","left","left","right","NA","645","5106","2777","645","NA","2","legacy","5","1024","2","48000","-16","experiment","1","odd","3","597094","593802","594886","2377","83722","594889","526891","2384","80944","599097","595892","599743","7491","599097","NA","Sternberg task","94","70121","98","yes","1024"
"95.9595959596","95.9595959596","712.474747475","712.474747475","black","experiment","legacy","legacy","legacy","0","uniform","1","undefined","1","left","98","98","98","0","0","98","98","0","0","98","98","98","0","98","0","10/16/21 14:21:01","The main experiment item","yes","SternbergExperiment.osexp","C:\Users\katie\Documents\School\Quant Methods\Lab 3","no","mono","no","18","no","white","no","yes","768","legacy","86","11","C:/Users/katie/Documents/School/Quant Methods/Lab 3/KH-subject-1.csv","legacy","2 3","Lentiform Loewenfeld","3.3.9","1","y","0","left","left","left","left","NA","414","5106","2777","414","NA","2","legacy","2","1024","2","48000","-16","experiment","1","odd","2","603044","599748","600836","2377","83722","600839","526891","2384","80944","605047","601840","605462","7491","605047","NA","Sternberg task","95","70535","99","yes","1024"
"96","96","711.55","711.55","black","experiment","legacy","legacy","legacy","0","uniform","1","undefined","1","left","99","99","99","0","0","99","99","0","0","99","99","99","0","99","0","10/16/21 14:21:01","The main experiment item","yes","SternbergExperiment.osexp","C:\Users\katie\Documents\School\Quant Methods\Lab 3","no","mono","no","18","no","white","no","yes","768","legacy","87","11","C:/Users/katie/Documents/School/Quant Methods/Lab 3/KH-subject-1.csv","legacy","7 1 8 5 6 2","Lentiform Loewenfeld","3.3.9","2","y","0","left","left","left","left","NA","620","5106","2777","620","NA","2","legacy","6","1024","2","48000","-16","experiment","1","odd","1","608761","605475","606551","2377","83722","606554","526891","2384","80944","610764","607557","611385","7491","610764","NA","Sternberg task","96","71155","100","yes","1024"
"96.0396039604","96.0396039604","711.148514851","711.148514851","black","experiment","legacy","legacy","legacy","0","uniform","1","undefined","1","right","100","100","100","0","0","100","100","0","0","100","100","100","0","100","0","10/16/21 14:21:01","The main experiment item","yes","SternbergExperiment.osexp","C:\Users\katie\Documents\School\Quant Methods\Lab 3","no","mono","no","18","no","white","no","yes","768","legacy","88","11","C:/Users/katie/Documents/School/Quant Methods/Lab 3/KH-subject-1.csv","legacy","1 4 9 2 5","Lentiform Loewenfeld","3.3.9","0","n","0","right","left","left","right","NA","671","5106","2777","671","NA","2","legacy","5","1024","2","48000","-16","experiment","1","odd","7","614692","611391","612484","2377","83722","612486","526891","2384","80944","616695","613489","617367","7491","616695","NA","Sternberg task","97","71826","101","yes","1024"
"96.0784313725","96.0784313725","713.892156863","713.892156863","black","experiment","legacy","legacy","legacy","0","uniform","1","undefined","1","left","101","101","101","0","0","101","101","0","0","101","101","101","0","101","0","10/16/21 14:21:01","The main experiment item","yes","SternbergExperiment.osexp","C:\Users\katie\Documents\School\Quant Methods\Lab 3","no","mono","no","18","no","white","no","yes","768","legacy","89","11","C:/Users/katie/Documents/School/Quant Methods/Lab 3/KH-subject-1.csv","legacy","8 9 5 7 1 6","Lentiform Loewenfeld","3.3.9","4","y","0","left","left","left","left","NA","991","5106","2777","991","NA","2","legacy","6","1024","2","48000","-16","experiment","1","odd","7","620662","617373","618452","2377","83722","618453","526891","2384","80944","622665","619458","623657","7491","622665","NA","Sternberg task","98","72817","102","yes","1024"
"95.145631068","95.145631068","711.582524272","711.582524272","black","experiment","legacy","legacy","legacy","0","uniform","0","undefined","0","right","102","102","102","0","0","102","102","0","0","102","102","102","0","102","0","10/16/21 14:21:01","The main experiment item","yes","SternbergExperiment.osexp","C:\Users\katie\Documents\School\Quant Methods\Lab 3","no","mono","no","18","no","white","no","yes","768","legacy","90","11","C:/Users/katie/Documents/School/Quant Methods/Lab 3/KH-subject-1.csv","legacy","6 2 9 3 8 4","Lentiform Loewenfeld","3.3.9","0","n","0","left","left","left","left","NA","476","5106","2777","476","NA","2","legacy","6","1024","2","48000","-16","experiment","1","odd","1","626950","623669","624742","2377","83722","624745","526891","2384","80944","628953","625748","629429","7491","628953","NA","Sternberg task","98","73293","103","yes","1024"
"95.1923076923","95.1923076923","708.5","708.5","black","experiment","legacy","legacy","legacy","0","uniform","1","undefined","1","left","103","103","103","0","0","103","103","0","0","103","103","103","0","103","0","10/16/21 14:21:01","The main experiment item","yes","SternbergExperiment.osexp","C:\Users\katie\Documents\School\Quant Methods\Lab 3","no","mono","no","18","no","white","no","yes","768","legacy","91","11","C:/Users/katie/Documents/School/Quant Methods/Lab 3/KH-subject-1.csv","legacy","7","Lentiform Loewenfeld","3.3.9","1","y","0","left","left","left","left","NA","391","5106","2777","391","NA","2","legacy","1","1024","2","48000","-16","experiment","1","odd","7","632732","623669","630524","2377","83722","630526","629442","2384","80944","634735","631529","635127","7491","634735","NA","Sternberg task","99","73684","104","yes","1024"
"95.2380952381","95.2380952381","710.40952381","710.40952381","black","experiment","legacy","legacy","legacy","0","uniform","1","undefined","1","left","104","104","104","0","0","104","104","0","0","104","104","104","0","104","0","10/16/21 14:21:01","The main experiment item","yes","SternbergExperiment.osexp","C:\Users\katie\Documents\School\Quant Methods\Lab 3","no","mono","no","18","no","white","no","yes","768","legacy","92","11","C:/Users/katie/Documents/School/Quant Methods/Lab 3/KH-subject-1.csv","legacy","3 9 7 6 4","Lentiform Loewenfeld","3.3.9","3","y","0","left","left","left","left","NA","909","5106","2777","909","NA","2","legacy","5","1024","2","48000","-16","experiment","1","odd","7","638428","635140","636219","2377","83722","636222","629442","2384","80944","640432","637225","641342","7491","640432","NA","Sternberg task","100","74593","105","yes","1024"
"95.2830188679","95.2830188679","708.433962264","708.433962264","black","experiment","legacy","legacy","legacy","0","uniform","1","undefined","1","right","105","105","105","0","0","105","105","0","0","105","105","105","0","105","0","10/16/21 14:21:01","The main experiment item","yes","SternbergExperiment.osexp","C:\Users\katie\Documents\School\Quant Methods\Lab 3","no","mono","no","18","no","white","no","yes","768","legacy","93","11","C:/Users/katie/Documents/School/Quant Methods/Lab 3/KH-subject-1.csv","legacy","1","Lentiform Loewenfeld","3.3.9","0","n","0","right","left","left","right","NA","501","5106","2777","501","NA","2","legacy","1","1024","2","48000","-16","experiment","1","odd","7","644645","641354","642436","2377","83722","642438","629442","2384","80944","646648","643442","647151","7491","646648","NA","Sternberg task","101","75094","106","yes","1024"
"95.3271028037","95.3271028037","706.61682243","706.61682243","black","experiment","legacy","legacy","legacy","0","uniform","1","undefined","1","right","106","106","106","0","0","106","106","0","0","106","106","106","0","106","0","10/16/21 14:21:01","The main experiment item","yes","SternbergExperiment.osexp","C:\Users\katie\Documents\School\Quant Methods\Lab 3","no","mono","no","18","no","white","no","yes","768","legacy","94","11","C:/Users/katie/Documents/School/Quant Methods/Lab 3/KH-subject-1.csv","legacy","2 5 1 4","Lentiform Loewenfeld","3.3.9","0","n","0","right","left","left","right","NA","514","5106","2777","514","NA","2","legacy","4","1024","2","48000","-16","experiment","1","odd","6","650443","647161","648234","2377","83722","648236","629442","2384","80944","652447","649238","652961","7491","652446","NA","Sternberg task","102","75608","107","yes","1024"
"95.3703703704","95.3703703704","706.407407407","706.407407407","black","experiment","legacy","legacy","legacy","0","uniform","1","undefined","1","left","107","107","107","0","0","107","107","0","0","107","107","107","0","107","0","10/16/21 14:21:01","The main experiment item","yes","SternbergExperiment.osexp","C:\Users\katie\Documents\School\Quant Methods\Lab 3","no","mono","no","18","no","white","no","yes","768","legacy","95","11","C:/Users/katie/Documents/School/Quant Methods/Lab 3/KH-subject-1.csv","legacy","8 5 4 7 3 1","Lentiform Loewenfeld","3.3.9","2","y","0","left","left","left","left","NA","684","5106","2777","684","NA","2","legacy","6","1024","2","48000","-16","experiment","1","odd","5","656267","652966","654058","2377","83722","654060","629442","2384","80944","658270","655063","658956","7491","658269","NA","Sternberg task","103","76292","108","yes","1024"
"95.4128440367","95.4128440367","705.587155963","705.587155963","black","experiment","legacy","legacy","legacy","0","uniform","1","undefined","1","right","108","108","108","0","0","108","108","0","0","108","108","108","0","108","0","10/16/21 14:21:01","The main experiment item","yes","SternbergExperiment.osexp","C:\Users\katie\Documents\School\Quant Methods\Lab 3","no","mono","no","18","no","white","no","yes","768","legacy","96","11","C:/Users/katie/Documents/School/Quant Methods/Lab 3/KH-subject-1.csv","legacy","8 4 3 9","Lentiform Loewenfeld","3.3.9","0","n","0","right","left","left","right","NA","617","5106","2777","617","NA","2","legacy","4","1024","2","48000","-16","experiment","1","odd","5","662251","658960","660041","2377","83722","660044","629442","2384","80944","664255","661047","664873","7491","664254","NA","Sternberg task","104","76909","109","yes","1024"
"95.4545454545","95.4545454545","704.554545455","704.554545455","black","experiment","legacy","legacy","legacy","0","uniform","1","undefined","1","left","109","109","109","0","0","109","109","0","0","109","109","109","0","109","0","10/16/21 14:21:01","The main experiment item","yes","SternbergExperiment.osexp","C:\Users\katie\Documents\School\Quant Methods\Lab 3","no","mono","no","18","no","white","no","yes","768","legacy","97","11","C:/Users/katie/Documents/School/Quant Methods/Lab 3/KH-subject-1.csv","legacy","5 2 9 6 1 7","Lentiform Loewenfeld","3.3.9","3","y","0","left","left","left","left","NA","592","5106","2777","592","NA","2","legacy","6","1024","2","48000","-16","experiment","1","odd","9","668182","664887","665973","2377","83722","665975","629442","2384","80944","670185","666979","670778","7491","670185","NA","Sternberg task","105","77501","110","yes","1024"
"95.4954954955","95.4954954955","705.702702703","705.702702703","black","experiment","legacy","legacy","legacy","0","uniform","1","undefined","1","right","110","110","110","0","0","110","110","0","0","110","110","110","0","110","0","10/16/21 14:21:01","The main experiment item","yes","SternbergExperiment.osexp","C:\Users\katie\Documents\School\Quant Methods\Lab 3","no","mono","no","18","no","white","no","yes","768","legacy","98","11","C:/Users/katie/Documents/School/Quant Methods/Lab 3/KH-subject-1.csv","legacy","4 2 6 9","Lentiform Loewenfeld","3.3.9","0","n","0","right","left","left","right","NA","832","5106","2777","832","NA","2","legacy","4","1024","2","48000","-16","experiment","1","odd","7","674108","670790","671901","2377","83722","671904","629442","2384","80944","676113","672906","676946","7491","676111","NA","Sternberg task","106","78333","111","yes","1024"
"95.5357142857","95.5357142857","706.241071429","706.241071429","black","experiment","legacy","legacy","legacy","0","uniform","1","undefined","1","left","111","111","111","0","0","111","111","0","0","111","111","111","0","111","0","10/16/21 14:21:01","The main experiment item","yes","SternbergExperiment.osexp","C:\Users\katie\Documents\School\Quant Methods\Lab 3","no","mono","no","18","no","white","no","yes","768","legacy","99","11","C:/Users/katie/Documents/School/Quant Methods/Lab 3/KH-subject-1.csv","legacy","2 5 4 8 7","Lentiform Loewenfeld","3.3.9","3","y","0","left","left","left","left","NA","766","5106","2777","766","NA","2","legacy","5","1024","2","48000","-16","experiment","1","odd","4","680245","676958","678038","2377","83722","678039","629442","2384","80944","682248","679042","683017","7491","682248","NA","Sternberg task","107","79099","112","yes","1024"
"95.5752212389","95.5752212389","704.353982301","704.353982301","black","experiment","legacy","legacy","legacy","0","uniform","1","undefined","1","left","112","112","112","0","0","112","112","0","0","112","112","112","0","112","0","10/16/21 14:21:01","The main experiment item","yes","SternbergExperiment.osexp","C:\Users\katie\Documents\School\Quant Methods\Lab 3","no","mono","no","18","no","white","no","yes","768","legacy","100","11","C:/Users/katie/Documents/School/Quant Methods/Lab 3/KH-subject-1.csv","legacy","8","Lentiform Loewenfeld","3.3.9","1","y","0","left","left","left","left","NA","493","5106","2777","493","NA","2","legacy","1","1024","2","48000","-16","experiment","1","odd","8","686321","683030","684113","2377","83722","684114","629442","2384","80944","688324","685117","688817","7491","688324","NA","Sternberg task","108","79592","113","yes","1024"
"95.6140350877","95.6140350877","704.596491228","704.596491228","black","experiment","legacy","legacy","legacy","0","uniform","1","undefined","1","right","113","113","113","0","0","113","113","0","0","113","113","113","0","113","0","10/16/21 14:21:01","The main experiment item","yes","SternbergExperiment.osexp","C:\Users\katie\Documents\School\Quant Methods\Lab 3","no","mono","no","18","no","white","no","yes","768","legacy","101","11","C:/Users/katie/Documents/School/Quant Methods/Lab 3/KH-subject-1.csv","legacy","1 4 3 6 5","Lentiform Loewenfeld","3.3.9","0","n","0","right","left","left","right","NA","732","5106","2777","732","NA","2","legacy","5","1024","2","48000","-16","experiment","1","odd","8","692131","688824","689922","2377","83722","689926","629442","2384","80944","694134","690929","694867","7491","694134","NA","Sternberg task","109","80324","114","yes","1024"
