"acc","accuracy","average_response_time","avg_rt","background","block","canvas_backend","clock_backend","color_backend","compensation","coordinates","correct","correct_instruction1","correct_new_keyboard_response","correct_response","count_ISI","count_PracticeLoop","count_correctFeedback","count_expSequence","count_experiment","count_experimentLoop","count_fixation","count_incorrectFeedback","count_instruction1","count_instruction2","count_logger","count_memorySet","count_new_keyboard_response","count_new_sketchpad_1","count_probe","count_thankYou","datetime","description","disable_garbage_collection","experiment_file","experiment_path","font_bold","font_family","font_italic","font_size","font_underline","foreground","form_clicks","fullscreen","height","keyboard_backend","live_row","live_row_PracticeLoop","logfile","mouse_backend","numberSet","opensesame_codename","opensesame_version","posInSet","present","repeat_cycle","response","response_instruction1","response_instruction2","response_new_keyboard_response","response_new_sketchpad_1","response_thankYou","response_time","response_time_instruction1","response_time_instruction2","response_time_new_keyboard_response","response_time_new_sketchpad_1","response_time_thankYou","round_decimals","sampler_backend","setSize","sound_buf_size","sound_channels","sound_freq","sound_sample_size","start","subject_nr","subject_parity","target","time_ISI","time_PracticeLoop","time_correctFeedback","time_expSequence","time_experiment","time_experimentLoop","time_fixation","time_incorrectFeedback","time_instruction1","time_instruction2","time_logger","time_memorySet","time_new_keyboard_response","time_new_sketchpad_1","time_probe","time_thankYou","title","total_correct","total_response_time","total_responses","uniform_coordinates","width"
"100","100","716","716","black","practice","legacy","legacy","legacy","0","uniform","1","undefined","1","left","0","0","0","0","0","0","0","0","0","0","0","0","0","NA","0","0","Mon Oct 11 20:46:27 2021","The main experiment item","yes","Sternbergtask.osexp","C:/Users/warne/OneDrive/Documents/Tarleton - MS Applied Psychology/Adv Quantitative Methods and Experimental Design/Labs","no","mono","no","18","no","white","no","yes","768","legacy","0","0","C:/Users/warne/OneDrive/Documents/Tarleton - MS Applied Psychology/Adv Quantitative Methods and Experimental Design/Labs/AWV-subject-1.csv","legacy","4 3 1 7 9 8","Lentiform Loewenfeld","3.3.9","1","y","0","left","left","NA","left","NA","NA","716","27620","NA","716","NA","NA","2","legacy","6","1024","2","48000","-16","experiment","1","odd","4","32668","29939","NA","30463","2306","NA","30465","NA","2318","NA","35385","31466","34669","NA","34669","NA","Sternberg task","1","716","1","yes","1024"
"100","100","703.5","703.5","black","practice","legacy","legacy","legacy","0","uniform","1","undefined","1","left","1","0","1","1","0","0","1","1","0","0","1","1","1","NA","1","0","Mon Oct 11 20:46:27 2021","The main experiment item","yes","Sternbergtask.osexp","C:/Users/warne/OneDrive/Documents/Tarleton - MS Applied Psychology/Adv Quantitative Methods and Experimental Design/Labs","no","mono","no","18","no","white","no","yes","768","legacy","1","1","C:/Users/warne/OneDrive/Documents/Tarleton - MS Applied Psychology/Adv Quantitative Methods and Experimental Design/Labs/AWV-subject-1.csv","legacy","4 8","Lentiform Loewenfeld","3.3.9","1","y","0","left","left","NA","left","NA","NA","691","27620","NA","691","NA","NA","2","legacy","2","1024","2","48000","-16","experiment","1","odd","4","38690","29939","35419","36486","2306","NA","36487","NA","2318","NA","41385","37488","40694","NA","40694","NA","Sternberg task","2","1407","2","yes","1024"
"100","100","667.3333333333334","667.3333333333334","black","practice","legacy","legacy","legacy","0","uniform","1","undefined","1","left","2","0","2","2","0","0","2","2","0","0","2","2","2","NA","2","0","Mon Oct 11 20:46:27 2021","The main experiment item","yes","Sternbergtask.osexp","C:/Users/warne/OneDrive/Documents/Tarleton - MS Applied Psychology/Adv Quantitative Methods and Experimental Design/Labs","no","mono","no","18","no","white","no","yes","768","legacy","2","2","C:/Users/warne/OneDrive/Documents/Tarleton - MS Applied Psychology/Adv Quantitative Methods and Experimental Design/Labs/AWV-subject-1.csv","legacy","6","Lentiform Loewenfeld","3.3.9","1","y","0","left","left","NA","left","NA","NA","595","27620","NA","595","NA","NA","2","legacy","1","1024","2","48000","-16","experiment","1","odd","6","44669","29939","41390","42458","2306","NA","42460","NA","2318","NA","47267","43464","46671","NA","46671","NA","Sternberg task","3","2002","3","yes","1024"
"100","100","694","694","black","practice","legacy","legacy","legacy","0","uniform","1","undefined","1","right","3","0","3","3","0","0","3","3","0","0","3","3","3","NA","3","0","Mon Oct 11 20:46:27 2021","The main experiment item","yes","Sternbergtask.osexp","C:/Users/warne/OneDrive/Documents/Tarleton - MS Applied Psychology/Adv Quantitative Methods and Experimental Design/Labs","no","mono","no","18","no","white","no","yes","768","legacy","3","3","C:/Users/warne/OneDrive/Documents/Tarleton - MS Applied Psychology/Adv Quantitative Methods and Experimental Design/Labs/AWV-subject-1.csv","legacy","5 7 8 4 1 2","Lentiform Loewenfeld","3.3.9","0","n","0","right","left","NA","right","NA","NA","774","27620","NA","774","NA","NA","2","legacy","6","1024","2","48000","-16","experiment","1","odd","6","50550","29939","47272","48342","2306","NA","48344","NA","2318","NA","53326","49345","52551","NA","52551","NA","Sternberg task","4","2776","4","yes","1024"
"100","100","811.6","811.6","black","practice","legacy","legacy","legacy","0","uniform","1","undefined","1","left","4","0","4","4","0","0","4","4","0","0","4","4","4","NA","4","0","Mon Oct 11 20:46:27 2021","The main experiment item","yes","Sternbergtask.osexp","C:/Users/warne/OneDrive/Documents/Tarleton - MS Applied Psychology/Adv Quantitative Methods and Experimental Design/Labs","no","mono","no","18","no","white","no","yes","768","legacy","4","4","C:/Users/warne/OneDrive/Documents/Tarleton - MS Applied Psychology/Adv Quantitative Methods and Experimental Design/Labs/AWV-subject-1.csv","legacy","1 7 9 8 5","Lentiform Loewenfeld","3.3.9","4","y","0","left","left","NA","left","NA","NA","1282","27620","NA","1282","NA","NA","2","legacy","5","1024","2","48000","-16","experiment","1","odd","8","56610","29939","53329","54398","2306","NA","54401","NA","2318","NA","59894","55406","58611","NA","58611","NA","Sternberg task","5","4058","5","yes","1024"
"100","100","831.3333333333334","831.3333333333334","black","practice","legacy","legacy","legacy","0","uniform","1","undefined","1","left","5","0","5","5","0","0","5","5","0","0","5","5","5","NA","5","0","Mon Oct 11 20:46:27 2021","The main experiment item","yes","Sternbergtask.osexp","C:/Users/warne/OneDrive/Documents/Tarleton - MS Applied Psychology/Adv Quantitative Methods and Experimental Design/Labs","no","mono","no","18","no","white","no","yes","768","legacy","5","5","C:/Users/warne/OneDrive/Documents/Tarleton - MS Applied Psychology/Adv Quantitative Methods and Experimental Design/Labs/AWV-subject-1.csv","legacy","1 5 2 9","Lentiform Loewenfeld","3.3.9","2","y","0","left","left","NA","left","NA","NA","930","27620","NA","930","NA","NA","2","legacy","4","1024","2","48000","-16","experiment","1","odd","5","63174","29939","59899","60969","2306","NA","60971","NA","2318","NA","66105","61972","65175","NA","65175","NA","Sternberg task","6","4988","6","yes","1024"
"100","100","789.2857142857143","789.2857142857143","black","practice","legacy","legacy","legacy","0","uniform","1","undefined","1","right","6","0","6","6","0","0","6","6","0","0","6","6","6","NA","6","0","Mon Oct 11 20:46:27 2021","The main experiment item","yes","Sternbergtask.osexp","C:/Users/warne/OneDrive/Documents/Tarleton - MS Applied Psychology/Adv Quantitative Methods and Experimental Design/Labs","no","mono","no","18","no","white","no","yes","768","legacy","6","6","C:/Users/warne/OneDrive/Documents/Tarleton - MS Applied Psychology/Adv Quantitative Methods and Experimental Design/Labs/AWV-subject-1.csv","legacy","2 1","Lentiform Loewenfeld","3.3.9","0","n","0","right","left","NA","right","NA","NA","537","27620","NA","537","NA","NA","2","legacy","2","1024","2","48000","-16","experiment","1","odd","5","69388","29939","66110","67184","2306","NA","67186","NA","2318","NA","71926","68187","71389","NA","71389","NA","Sternberg task","7","5525","7","yes","1024"
"100","100","803.125","803.125","black","practice","legacy","legacy","legacy","0","uniform","1","undefined","1","left","7","0","7","7","0","0","7","7","0","0","7","7","7","NA","7","0","Mon Oct 11 20:46:27 2021","The main experiment item","yes","Sternbergtask.osexp","C:/Users/warne/OneDrive/Documents/Tarleton - MS Applied Psychology/Adv Quantitative Methods and Experimental Design/Labs","no","mono","no","18","no","white","no","yes","768","legacy","7","7","C:/Users/warne/OneDrive/Documents/Tarleton - MS Applied Psychology/Adv Quantitative Methods and Experimental Design/Labs/AWV-subject-1.csv","legacy","2 9 4","Lentiform Loewenfeld","3.3.9","3","y","0","left","left","NA","left","NA","NA","900","27620","NA","900","NA","NA","2","legacy","3","1024","2","48000","-16","experiment","1","odd","4","75216","29939","71944","73013","2306","NA","73014","NA","2318","NA","78118","74015","77218","NA","77218","NA","Sternberg task","8","6425","8","yes","1024"
"100","100","786.1111111111111","786.1111111111111","black","practice","legacy","legacy","legacy","0","uniform","1","undefined","1","right","8","0","8","8","0","0","8","8","0","0","8","8","8","NA","8","0","Mon Oct 11 20:46:27 2021","The main experiment item","yes","Sternbergtask.osexp","C:/Users/warne/OneDrive/Documents/Tarleton - MS Applied Psychology/Adv Quantitative Methods and Experimental Design/Labs","no","mono","no","18","no","white","no","yes","768","legacy","8","8","C:/Users/warne/OneDrive/Documents/Tarleton - MS Applied Psychology/Adv Quantitative Methods and Experimental Design/Labs/AWV-subject-1.csv","legacy","4 1 5","Lentiform Loewenfeld","3.3.9","0","n","0","right","left","NA","right","NA","NA","650","27620","NA","650","NA","NA","2","legacy","3","1024","2","48000","-16","experiment","1","odd","2","81394","29939","78123","79191","2306","NA","79192","NA","2318","NA","84045","80193","83395","NA","83395","NA","Sternberg task","9","7075","9","yes","1024"
"100","100","785.1","785.1","black","practice","legacy","legacy","legacy","0","uniform","1","undefined","1","right","9","0","9","9","0","0","9","9","0","0","9","9","9","NA","9","0","Mon Oct 11 20:46:27 2021","The main experiment item","yes","Sternbergtask.osexp","C:/Users/warne/OneDrive/Documents/Tarleton - MS Applied Psychology/Adv Quantitative Methods and Experimental Design/Labs","no","mono","no","18","no","white","no","yes","768","legacy","9","9","C:/Users/warne/OneDrive/Documents/Tarleton - MS Applied Psychology/Adv Quantitative Methods and Experimental Design/Labs/AWV-subject-1.csv","legacy","9 6 7 4 5","Lentiform Loewenfeld","3.3.9","0","n","0","right","left","NA","right","NA","NA","776","27620","NA","776","NA","NA","2","legacy","5","1024","2","48000","-16","experiment","1","odd","3","87327","29939","84050","85120","2306","NA","85121","NA","2318","NA","90105","86123","89329","NA","89329","NA","Sternberg task","10","7851","10","yes","1024"
"100","100","756.8181818181819","756.8181818181819","black","practice","legacy","legacy","legacy","0","uniform","1","undefined","1","right","10","0","10","10","0","0","10","10","0","0","10","10","10","NA","10","0","Mon Oct 11 20:46:27 2021","The main experiment item","yes","Sternbergtask.osexp","C:/Users/warne/OneDrive/Documents/Tarleton - MS Applied Psychology/Adv Quantitative Methods and Experimental Design/Labs","no","mono","no","18","no","white","no","yes","768","legacy","10","10","C:/Users/warne/OneDrive/Documents/Tarleton - MS Applied Psychology/Adv Quantitative Methods and Experimental Design/Labs/AWV-subject-1.csv","legacy","5","Lentiform Loewenfeld","3.3.9","0","n","0","right","left","NA","right","NA","NA","474","27620","NA","474","NA","NA","2","legacy","1","1024","2","48000","-16","experiment","1","odd","3","93391","29939","90110","91183","2306","NA","91185","NA","2318","NA","95866","92189","95392","NA","95392","NA","Sternberg task","11","8325","11","yes","1024"
"100","100","809.9166666666666","809.9166666666666","black","practice","legacy","legacy","legacy","0","uniform","1","undefined","1","right","11","0","11","11","0","0","11","11","0","0","11","11","11","NA","11","0","Mon Oct 11 20:46:27 2021","The main experiment item","yes","Sternbergtask.osexp","C:/Users/warne/OneDrive/Documents/Tarleton - MS Applied Psychology/Adv Quantitative Methods and Experimental Design/Labs","no","mono","no","18","no","white","no","yes","768","legacy","11","11","C:/Users/warne/OneDrive/Documents/Tarleton - MS Applied Psychology/Adv Quantitative Methods and Experimental Design/Labs/AWV-subject-1.csv","legacy","3 1 9 4","Lentiform Loewenfeld","3.3.9","0","n","0","right","left","NA","right","NA","NA","1394","27620","NA","1394","NA","NA","2","legacy","4","1024","2","48000","-16","experiment","1","odd","6","99147","29939","95872","96943","2306","NA","96945","NA","2318","NA","102543","97946","101148","NA","101148","NA","Sternberg task","12","9719","12","yes","1024"
"100","100","794.1538461538462","794.1538461538462","black","experiment","legacy","legacy","legacy","0","uniform","1","undefined","1","right","12","0","12","12","0","0","12","12","0","0","12","12","12","NA","12","0","Mon Oct 11 20:46:27 2021","The main experiment item","yes","Sternbergtask.osexp","C:/Users/warne/OneDrive/Documents/Tarleton - MS Applied Psychology/Adv Quantitative Methods and Experimental Design/Labs","no","mono","no","18","no","white","no","yes","768","legacy","0","11","C:/Users/warne/OneDrive/Documents/Tarleton - MS Applied Psychology/Adv Quantitative Methods and Experimental Design/Labs/AWV-subject-1.csv","legacy","1 8 7","Lentiform Loewenfeld","3.3.9","0","n","0","right","left","left","right","NA","NA","605","27620","23291","605","NA","NA","2","legacy","3","1024","2","48000","-16","experiment","1","odd","4","129140","29939","102547","126937","2306","126859","126938","NA","2318","103567","131747","127939","131141","NA","131141","NA","Sternberg task","13","10324","13","yes","1024"
"100","100","782.5","782.5","black","experiment","legacy","legacy","legacy","0","uniform","1","undefined","1","right","13","0","13","13","0","0","13","13","0","0","13","13","13","NA","13","0","Mon Oct 11 20:46:27 2021","The main experiment item","yes","Sternbergtask.osexp","C:/Users/warne/OneDrive/Documents/Tarleton - MS Applied Psychology/Adv Quantitative Methods and Experimental Design/Labs","no","mono","no","18","no","white","no","yes","768","legacy","1","11","C:/Users/warne/OneDrive/Documents/Tarleton - MS Applied Psychology/Adv Quantitative Methods and Experimental Design/Labs/AWV-subject-1.csv","legacy","2 7 5","Lentiform Loewenfeld","3.3.9","0","n","0","right","left","left","right","NA","NA","631","27620","23291","631","NA","NA","2","legacy","3","1024","2","48000","-16","experiment","1","odd","8","135025","29939","131751","132821","2306","126859","132823","NA","2318","103567","137657","133824","137026","NA","137026","NA","Sternberg task","14","10955","14","yes","1024"
"100","100","768.3333333333334","768.3333333333334","black","experiment","legacy","legacy","legacy","0","uniform","1","undefined","1","left","14","0","14","14","0","0","14","14","0","0","14","14","14","NA","14","0","Mon Oct 11 20:46:27 2021","The main experiment item","yes","Sternbergtask.osexp","C:/Users/warne/OneDrive/Documents/Tarleton - MS Applied Psychology/Adv Quantitative Methods and Experimental Design/Labs","no","mono","no","18","no","white","no","yes","768","legacy","2","11","C:/Users/warne/OneDrive/Documents/Tarleton - MS Applied Psychology/Adv Quantitative Methods and Experimental Design/Labs/AWV-subject-1.csv","legacy","2 3 7 4","Lentiform Loewenfeld","3.3.9","1","y","0","left","left","left","left","NA","NA","570","27620","23291","570","NA","NA","2","legacy","4","1024","2","48000","-16","experiment","1","odd","2","140935","29939","137661","138728","2306","126859","138730","NA","2318","103567","143507","139731","142936","NA","142936","NA","Sternberg task","15","11525","15","yes","1024"
"100","100","784","784","black","experiment","legacy","legacy","legacy","0","uniform","1","undefined","1","left","15","0","15","15","0","0","15","15","0","0","15","15","15","NA","15","0","Mon Oct 11 20:46:27 2021","The main experiment item","yes","Sternbergtask.osexp","C:/Users/warne/OneDrive/Documents/Tarleton - MS Applied Psychology/Adv Quantitative Methods and Experimental Design/Labs","no","mono","no","18","no","white","no","yes","768","legacy","3","11","C:/Users/warne/OneDrive/Documents/Tarleton - MS Applied Psychology/Adv Quantitative Methods and Experimental Design/Labs/AWV-subject-1.csv","legacy","9 3 1 2 5","Lentiform Loewenfeld","3.3.9","4","y","0","left","left","left","left","NA","NA","1019","27620","23291","1019","NA","NA","2","legacy","5","1024","2","48000","-16","experiment","1","odd","2","146785","29939","143510","144580","2306","126859","144582","NA","2318","103567","149805","145584","148786","NA","148786","NA","Sternberg task","16","12544","16","yes","1024"
"100","100","776.5294117647059","776.5294117647059","black","experiment","legacy","legacy","legacy","0","uniform","1","undefined","1","right","16","0","16","16","0","0","16","16","0","0","16","16","16","NA","16","0","Mon Oct 11 20:46:27 2021","The main experiment item","yes","Sternbergtask.osexp","C:/Users/warne/OneDrive/Documents/Tarleton - MS Applied Psychology/Adv Quantitative Methods and Experimental Design/Labs","no","mono","no","18","no","white","no","yes","768","legacy","4","11","C:/Users/warne/OneDrive/Documents/Tarleton - MS Applied Psychology/Adv Quantitative Methods and Experimental Design/Labs/AWV-subject-1.csv","legacy","1 4 9 3","Lentiform Loewenfeld","3.3.9","0","n","0","right","left","left","right","NA","NA","657","27620","23291","657","NA","NA","2","legacy","4","1024","2","48000","-16","experiment","1","odd","5","153087","29939","149810","150878","2306","126859","150880","NA","2318","103567","155745","151882","155088","NA","155088","NA","Sternberg task","17","13201","17","yes","1024"
"100","100","770.1111111111111","770.1111111111111","black","experiment","legacy","legacy","legacy","0","uniform","1","undefined","1","right","17","0","17","17","0","0","17","17","0","0","17","17","17","NA","17","0","Mon Oct 11 20:46:27 2021","The main experiment item","yes","Sternbergtask.osexp","C:/Users/warne/OneDrive/Documents/Tarleton - MS Applied Psychology/Adv Quantitative Methods and Experimental Design/Labs","no","mono","no","18","no","white","no","yes","768","legacy","5","11","C:/Users/warne/OneDrive/Documents/Tarleton - MS Applied Psychology/Adv Quantitative Methods and Experimental Design/Labs/AWV-subject-1.csv","legacy","5","Lentiform Loewenfeld","3.3.9","0","n","0","right","left","left","right","NA","NA","661","27620","23291","661","NA","NA","2","legacy","1","1024","2","48000","-16","experiment","1","odd","8","159024","29939","155750","156817","2306","126859","156819","NA","2318","103567","161686","157820","161025","NA","161025","NA","Sternberg task","18","13862","18","yes","1024"
"100","100","767.0526315789474","767.0526315789474","black","experiment","legacy","legacy","legacy","0","uniform","1","undefined","1","right","18","0","18","18","0","0","18","18","0","0","18","18","18","NA","18","0","Mon Oct 11 20:46:27 2021","The main experiment item","yes","Sternbergtask.osexp","C:/Users/warne/OneDrive/Documents/Tarleton - MS Applied Psychology/Adv Quantitative Methods and Experimental Design/Labs","no","mono","no","18","no","white","no","yes","768","legacy","6","11","C:/Users/warne/OneDrive/Documents/Tarleton - MS Applied Psychology/Adv Quantitative Methods and Experimental Design/Labs/AWV-subject-1.csv","legacy","1 7 8 3 9","Lentiform Loewenfeld","3.3.9","0","n","0","right","left","left","right","NA","NA","712","27620","23291","712","NA","NA","2","legacy","5","1024","2","48000","-16","experiment","1","odd","2","164973","29939","161693","162767","2306","126859","162768","NA","2318","103567","167687","163769","166974","NA","166974","NA","Sternberg task","19","14574","19","yes","1024"
"100","100","761.85","761.85","black","experiment","legacy","legacy","legacy","0","uniform","1","undefined","1","right","19","0","19","19","0","0","19","19","0","0","19","19","19","NA","19","0","Mon Oct 11 20:46:27 2021","The main experiment item","yes","Sternbergtask.osexp","C:/Users/warne/OneDrive/Documents/Tarleton - MS Applied Psychology/Adv Quantitative Methods and Experimental Design/Labs","no","mono","no","18","no","white","no","yes","768","legacy","7","11","C:/Users/warne/OneDrive/Documents/Tarleton - MS Applied Psychology/Adv Quantitative Methods and Experimental Design/Labs/AWV-subject-1.csv","legacy","6 2 9 3 8 4","Lentiform Loewenfeld","3.3.9","0","n","0","right","left","left","right","NA","NA","663","27620","23291","663","NA","NA","2","legacy","6","1024","2","48000","-16","experiment","1","odd","1","170961","29939","167689","168757","2306","126859","168759","NA","2318","103567","173625","169760","172962","NA","172962","NA","Sternberg task","20","15237","20","yes","1024"
"100","100","769.1904761904761","769.1904761904761","black","experiment","legacy","legacy","legacy","0","uniform","1","undefined","1","right","20","0","20","20","0","0","20","20","0","0","20","20","20","NA","20","0","Mon Oct 11 20:46:27 2021","The main experiment item","yes","Sternbergtask.osexp","C:/Users/warne/OneDrive/Documents/Tarleton - MS Applied Psychology/Adv Quantitative Methods and Experimental Design/Labs","no","mono","no","18","no","white","no","yes","768","legacy","8","11","C:/Users/warne/OneDrive/Documents/Tarleton - MS Applied Psychology/Adv Quantitative Methods and Experimental Design/Labs/AWV-subject-1.csv","legacy","6 9 5","Lentiform Loewenfeld","3.3.9","0","n","0","right","left","left","right","NA","NA","916","27620","23291","916","NA","NA","2","legacy","3","1024","2","48000","-16","experiment","1","odd","8","176905","29939","173632","174701","2306","126859","174703","NA","2318","103567","179822","175704","178906","NA","178906","NA","Sternberg task","21","16153","21","yes","1024"
"100","100","760.5454545454545","760.5454545454545","black","experiment","legacy","legacy","legacy","0","uniform","1","undefined","1","right","21","0","21","21","0","0","21","21","0","0","21","21","21","NA","21","0","Mon Oct 11 20:46:27 2021","The main experiment item","yes","Sternbergtask.osexp","C:/Users/warne/OneDrive/Documents/Tarleton - MS Applied Psychology/Adv Quantitative Methods and Experimental Design/Labs","no","mono","no","18","no","white","no","yes","768","legacy","9","11","C:/Users/warne/OneDrive/Documents/Tarleton - MS Applied Psychology/Adv Quantitative Methods and Experimental Design/Labs/AWV-subject-1.csv","legacy","1 7 5 2 9","Lentiform Loewenfeld","3.3.9","0","n","0","right","left","left","right","NA","NA","579","27620","23291","579","NA","NA","2","legacy","5","1024","2","48000","-16","experiment","1","odd","3","183106","29939","179828","180903","2306","126859","180904","NA","2318","103567","185687","181905","185107","NA","185107","NA","Sternberg task","22","16732","22","yes","1024"
"100","100","770.4347826086956","770.4347826086956","black","experiment","legacy","legacy","legacy","0","uniform","1","undefined","1","left","22","0","22","22","0","0","22","22","0","0","22","22","22","NA","22","0","Mon Oct 11 20:46:27 2021","The main experiment item","yes","Sternbergtask.osexp","C:/Users/warne/OneDrive/Documents/Tarleton - MS Applied Psychology/Adv Quantitative Methods and Experimental Design/Labs","no","mono","no","18","no","white","no","yes","768","legacy","10","11","C:/Users/warne/OneDrive/Documents/Tarleton - MS Applied Psychology/Adv Quantitative Methods and Experimental Design/Labs/AWV-subject-1.csv","legacy","5 7 3 6 2","Lentiform Loewenfeld","3.3.9","5","y","0","left","left","left","left","NA","NA","988","27620","23291","988","NA","NA","2","legacy","5","1024","2","48000","-16","experiment","1","odd","2","188968","29939","185690","186760","2306","126859","186762","NA","2318","103567","191957","187763","190969","NA","190969","NA","Sternberg task","23","17720","23","yes","1024"
"100","100","774.5833333333334","774.5833333333334","black","experiment","legacy","legacy","legacy","0","uniform","1","undefined","1","right","23","0","23","23","0","0","23","23","0","0","23","23","23","NA","23","0","Mon Oct 11 20:46:27 2021","The main experiment item","yes","Sternbergtask.osexp","C:/Users/warne/OneDrive/Documents/Tarleton - MS Applied Psychology/Adv Quantitative Methods and Experimental Design/Labs","no","mono","no","18","no","white","no","yes","768","legacy","11","11","C:/Users/warne/OneDrive/Documents/Tarleton - MS Applied Psychology/Adv Quantitative Methods and Experimental Design/Labs/AWV-subject-1.csv","legacy","8 5 4 2 9 6","Lentiform Loewenfeld","3.3.9","0","n","0","right","left","left","right","NA","NA","870","27620","23291","870","NA","NA","2","legacy","6","1024","2","48000","-16","experiment","1","odd","3","195234","29939","191962","193031","2306","126859","193032","NA","2318","103567","198105","194033","197235","NA","197235","NA","Sternberg task","24","18590","24","yes","1024"
"100","100","779.64","779.64","black","experiment","legacy","legacy","legacy","0","uniform","1","undefined","1","right","24","0","24","24","0","0","24","24","0","0","24","24","24","NA","24","0","Mon Oct 11 20:46:27 2021","The main experiment item","yes","Sternbergtask.osexp","C:/Users/warne/OneDrive/Documents/Tarleton - MS Applied Psychology/Adv Quantitative Methods and Experimental Design/Labs","no","mono","no","18","no","white","no","yes","768","legacy","12","11","C:/Users/warne/OneDrive/Documents/Tarleton - MS Applied Psychology/Adv Quantitative Methods and Experimental Design/Labs/AWV-subject-1.csv","legacy","8 5 7 3 6","Lentiform Loewenfeld","3.3.9","0","n","0","right","left","left","right","NA","NA","901","27620","23291","901","NA","NA","2","legacy","5","1024","2","48000","-16","experiment","1","odd","9","201383","29939","198110","199176","2306","126859","199178","NA","2318","103567","204286","200179","203384","NA","203384","NA","Sternberg task","25","19491","25","yes","1024"
"100","100","783.2692307692307","783.2692307692307","black","experiment","legacy","legacy","legacy","0","uniform","1","undefined","1","left","25","0","25","25","0","0","25","25","0","0","25","25","25","NA","25","0","Mon Oct 11 20:46:27 2021","The main experiment item","yes","Sternbergtask.osexp","C:/Users/warne/OneDrive/Documents/Tarleton - MS Applied Psychology/Adv Quantitative Methods and Experimental Design/Labs","no","mono","no","18","no","white","no","yes","768","legacy","13","11","C:/Users/warne/OneDrive/Documents/Tarleton - MS Applied Psychology/Adv Quantitative Methods and Experimental Design/Labs/AWV-subject-1.csv","legacy","4 9 7 8 5 3","Lentiform Loewenfeld","3.3.9","4","y","0","left","left","left","left","NA","NA","874","27620","23291","874","NA","NA","2","legacy","6","1024","2","48000","-16","experiment","1","odd","8","207562","29939","204289","205357","2306","126859","205359","NA","2318","103567","210438","206361","209563","NA","209563","NA","Sternberg task","26","20365","26","yes","1024"
"96.29629629629629","96.29629629629629","828.3333333333334","828.3333333333334","black","experiment","legacy","legacy","legacy","0","uniform","0","undefined","0","left","26","0","26","26","0","0","26","26","0","0","26","26","26","NA","26","0","Mon Oct 11 20:46:27 2021","The main experiment item","yes","Sternbergtask.osexp","C:/Users/warne/OneDrive/Documents/Tarleton - MS Applied Psychology/Adv Quantitative Methods and Experimental Design/Labs","no","mono","no","18","no","white","no","yes","768","legacy","14","11","C:/Users/warne/OneDrive/Documents/Tarleton - MS Applied Psychology/Adv Quantitative Methods and Experimental Design/Labs/AWV-subject-1.csv","legacy","3 5 7 1","Lentiform Loewenfeld","3.3.9","3","y","0","None","left","left","None","NA","NA","2000","27620","23291","2000","NA","NA","2","legacy","4","1024","2","48000","-16","experiment","1","odd","7","213718","29939","210443","211511","2306","126859","211513","NA","2318","103567","217720","212514","215720","NA","215720","NA","Sternberg task","26","22365","27","yes","1024"
"96.42857142857143","96.42857142857143","820.3571428571429","820.3571428571429","black","experiment","legacy","legacy","legacy","0","uniform","1","undefined","1","right","27","0","27","27","0","0","27","27","0","0","27","27","27","NA","27","0","Mon Oct 11 20:46:27 2021","The main experiment item","yes","Sternbergtask.osexp","C:/Users/warne/OneDrive/Documents/Tarleton - MS Applied Psychology/Adv Quantitative Methods and Experimental Design/Labs","no","mono","no","18","no","white","no","yes","768","legacy","15","11","C:/Users/warne/OneDrive/Documents/Tarleton - MS Applied Psychology/Adv Quantitative Methods and Experimental Design/Labs/AWV-subject-1.csv","legacy","1 6 4 3 9 7","Lentiform Loewenfeld","3.3.9","0","n","0","right","left","left","right","NA","NA","605","27620","23291","605","NA","NA","2","legacy","6","1024","2","48000","-16","experiment","1","odd","8","221004","29939","210443","218793","2306","126859","218795","217725","2318","103567","223610","219800","223005","NA","223005","NA","Sternberg task","27","22970","28","yes","1024"
"96.55172413793103","96.55172413793103","815.1379310344828","815.1379310344828","black","experiment","legacy","legacy","legacy","0","uniform","1","undefined","1","right","28","0","28","28","0","0","28","28","0","0","28","28","28","NA","28","0","Mon Oct 11 20:46:27 2021","The main experiment item","yes","Sternbergtask.osexp","C:/Users/warne/OneDrive/Documents/Tarleton - MS Applied Psychology/Adv Quantitative Methods and Experimental Design/Labs","no","mono","no","18","no","white","no","yes","768","legacy","16","11","C:/Users/warne/OneDrive/Documents/Tarleton - MS Applied Psychology/Adv Quantitative Methods and Experimental Design/Labs/AWV-subject-1.csv","legacy","2 6 4 3 9","Lentiform Loewenfeld","3.3.9","0","n","0","right","left","left","right","NA","NA","669","27620","23291","669","NA","NA","2","legacy","5","1024","2","48000","-16","experiment","1","odd","1","226891","29939","223614","224683","2306","126859","224685","217725","2318","103567","229561","225686","228892","NA","228892","NA","Sternberg task","28","23639","29","yes","1024"
"96.66666666666667","96.66666666666667","811.6","811.6","black","experiment","legacy","legacy","legacy","0","uniform","1","undefined","1","right","29","0","29","29","0","0","29","29","0","0","29","29","29","NA","29","0","Mon Oct 11 20:46:27 2021","The main experiment item","yes","Sternbergtask.osexp","C:/Users/warne/OneDrive/Documents/Tarleton - MS Applied Psychology/Adv Quantitative Methods and Experimental Design/Labs","no","mono","no","18","no","white","no","yes","768","legacy","17","11","C:/Users/warne/OneDrive/Documents/Tarleton - MS Applied Psychology/Adv Quantitative Methods and Experimental Design/Labs/AWV-subject-1.csv","legacy","6 9 7 3 8 2","Lentiform Loewenfeld","3.3.9","0","n","0","right","left","left","right","NA","NA","709","27620","23291","709","NA","NA","2","legacy","6","1024","2","48000","-16","experiment","1","odd","5","232840","29939","229569","230636","2306","126859","230638","217725","2318","103567","235550","231639","234841","NA","234841","NA","Sternberg task","29","24348","30","yes","1024"
"96.7741935483871","96.7741935483871","806.8064516129032","806.8064516129032","black","experiment","legacy","legacy","legacy","0","uniform","1","undefined","1","left","30","0","30","30","0","0","30","30","0","0","30","30","30","NA","30","0","Mon Oct 11 20:46:27 2021","The main experiment item","yes","Sternbergtask.osexp","C:/Users/warne/OneDrive/Documents/Tarleton - MS Applied Psychology/Adv Quantitative Methods and Experimental Design/Labs","no","mono","no","18","no","white","no","yes","768","legacy","18","11","C:/Users/warne/OneDrive/Documents/Tarleton - MS Applied Psychology/Adv Quantitative Methods and Experimental Design/Labs/AWV-subject-1.csv","legacy","2 5 4 8 7","Lentiform Loewenfeld","3.3.9","3","y","0","left","left","left","left","NA","NA","663","27620","23291","663","NA","NA","2","legacy","5","1024","2","48000","-16","experiment","1","odd","4","238836","29939","235555","236628","2306","126859","236630","217725","2318","103567","241501","237632","240838","NA","240838","NA","Sternberg task","30","25011","31","yes","1024"
"96.875","96.875","800.3125","800.3125","black","experiment","legacy","legacy","legacy","0","uniform","1","undefined","1","right","31","0","31","31","0","0","31","31","0","0","31","31","31","NA","31","0","Mon Oct 11 20:46:27 2021","The main experiment item","yes","Sternbergtask.osexp","C:/Users/warne/OneDrive/Documents/Tarleton - MS Applied Psychology/Adv Quantitative Methods and Experimental Design/Labs","no","mono","no","18","no","white","no","yes","768","legacy","19","11","C:/Users/warne/OneDrive/Documents/Tarleton - MS Applied Psychology/Adv Quantitative Methods and Experimental Design/Labs/AWV-subject-1.csv","legacy","8 2 1 4 5 9","Lentiform Loewenfeld","3.3.9","0","n","0","right","left","left","right","NA","NA","599","27620","23291","599","NA","NA","2","legacy","6","1024","2","48000","-16","experiment","1","odd","7","244782","29939","241506","242575","2306","126859","242577","217725","2318","103567","247383","243578","246783","NA","246783","NA","Sternberg task","31","25610","32","yes","1024"
"96.96969696969697","96.96969696969697","799.2424242424242","799.2424242424242","black","experiment","legacy","legacy","legacy","0","uniform","1","undefined","1","left","32","0","32","32","0","0","32","32","0","0","32","32","32","NA","32","0","Mon Oct 11 20:46:27 2021","The main experiment item","yes","Sternbergtask.osexp","C:/Users/warne/OneDrive/Documents/Tarleton - MS Applied Psychology/Adv Quantitative Methods and Experimental Design/Labs","no","mono","no","18","no","white","no","yes","768","legacy","20","11","C:/Users/warne/OneDrive/Documents/Tarleton - MS Applied Psychology/Adv Quantitative Methods and Experimental Design/Labs/AWV-subject-1.csv","legacy","8 3","Lentiform Loewenfeld","3.3.9","2","y","0","left","left","left","left","NA","NA","765","27620","23291","765","NA","NA","2","legacy","2","1024","2","48000","-16","experiment","1","odd","3","250663","29939","247388","248456","2306","126859","248457","217725","2318","103567","253429","249458","252664","NA","252664","NA","Sternberg task","32","26375","33","yes","1024"
"97.05882352941177","97.05882352941177","793.3529411764706","793.3529411764706","black","experiment","legacy","legacy","legacy","0","uniform","1","undefined","1","left","33","0","33","33","0","0","33","33","0","0","33","33","33","NA","33","0","Mon Oct 11 20:46:27 2021","The main experiment item","yes","Sternbergtask.osexp","C:/Users/warne/OneDrive/Documents/Tarleton - MS Applied Psychology/Adv Quantitative Methods and Experimental Design/Labs","no","mono","no","18","no","white","no","yes","768","legacy","21","11","C:/Users/warne/OneDrive/Documents/Tarleton - MS Applied Psychology/Adv Quantitative Methods and Experimental Design/Labs/AWV-subject-1.csv","legacy","4","Lentiform Loewenfeld","3.3.9","1","y","0","left","left","left","left","NA","NA","599","27620","23291","599","NA","NA","2","legacy","1","1024","2","48000","-16","experiment","1","odd","4","256721","29939","253448","254516","2306","126859","254518","217725","2318","103567","259321","255520","258722","NA","258722","NA","Sternberg task","33","26974","34","yes","1024"
"97.14285714285714","97.14285714285714","791.3428571428572","791.3428571428572","black","experiment","legacy","legacy","legacy","0","uniform","1","undefined","1","right","34","0","34","34","0","0","34","34","0","0","34","34","34","NA","34","0","Mon Oct 11 20:46:27 2021","The main experiment item","yes","Sternbergtask.osexp","C:/Users/warne/OneDrive/Documents/Tarleton - MS Applied Psychology/Adv Quantitative Methods and Experimental Design/Labs","no","mono","no","18","no","white","no","yes","768","legacy","22","11","C:/Users/warne/OneDrive/Documents/Tarleton - MS Applied Psychology/Adv Quantitative Methods and Experimental Design/Labs/AWV-subject-1.csv","legacy","9 5 3 2 8 6","Lentiform Loewenfeld","3.3.9","0","n","0","right","left","left","right","NA","NA","723","27620","23291","723","NA","NA","2","legacy","6","1024","2","48000","-16","experiment","1","odd","7","262597","29939","259324","260393","2306","126859","260395","217725","2318","103567","265321","261396","264598","NA","264598","NA","Sternberg task","34","27697","35","yes","1024"
"97.22222222222223","97.22222222222223","795.6944444444445","795.6944444444445","black","experiment","legacy","legacy","legacy","0","uniform","1","undefined","1","left","35","0","35","35","0","0","35","35","0","0","35","35","35","NA","35","0","Mon Oct 11 20:46:27 2021","The main experiment item","yes","Sternbergtask.osexp","C:/Users/warne/OneDrive/Documents/Tarleton - MS Applied Psychology/Adv Quantitative Methods and Experimental Design/Labs","no","mono","no","18","no","white","no","yes","768","legacy","23","11","C:/Users/warne/OneDrive/Documents/Tarleton - MS Applied Psychology/Adv Quantitative Methods and Experimental Design/Labs/AWV-subject-1.csv","legacy","8 1 6","Lentiform Loewenfeld","3.3.9","3","y","0","left","left","left","left","NA","NA","948","27620","23291","948","NA","NA","2","legacy","3","1024","2","48000","-16","experiment","1","odd","6","268601","29939","265326","266393","2306","126859","266395","217725","2318","103567","271551","267396","270602","NA","270602","NA","Sternberg task","35","28645","36","yes","1024"
"97.29729729729729","97.29729729729729","795.1891891891892","795.1891891891892","black","experiment","legacy","legacy","legacy","0","uniform","1","undefined","1","right","36","0","36","36","0","0","36","36","0","0","36","36","36","NA","36","0","Mon Oct 11 20:46:27 2021","The main experiment item","yes","Sternbergtask.osexp","C:/Users/warne/OneDrive/Documents/Tarleton - MS Applied Psychology/Adv Quantitative Methods and Experimental Design/Labs","no","mono","no","18","no","white","no","yes","768","legacy","24","11","C:/Users/warne/OneDrive/Documents/Tarleton - MS Applied Psychology/Adv Quantitative Methods and Experimental Design/Labs/AWV-subject-1.csv","legacy","7 3 2 8","Lentiform Loewenfeld","3.3.9","0","n","0","right","left","left","right","NA","NA","777","27620","23291","777","NA","NA","2","legacy","4","1024","2","48000","-16","experiment","1","odd","4","274831","29939","271555","272623","2306","126859","272625","217725","2318","103567","277610","273626","276832","NA","276832","NA","Sternberg task","36","29422","37","yes","1024"
"97.36842105263158","97.36842105263158","789.7368421052631","789.7368421052631","black","experiment","legacy","legacy","legacy","0","uniform","1","undefined","1","left","37","0","37","37","0","0","37","37","0","0","37","37","37","NA","37","0","Mon Oct 11 20:46:27 2021","The main experiment item","yes","Sternbergtask.osexp","C:/Users/warne/OneDrive/Documents/Tarleton - MS Applied Psychology/Adv Quantitative Methods and Experimental Design/Labs","no","mono","no","18","no","white","no","yes","768","legacy","25","11","C:/Users/warne/OneDrive/Documents/Tarleton - MS Applied Psychology/Adv Quantitative Methods and Experimental Design/Labs/AWV-subject-1.csv","legacy","3 9 7 6 4","Lentiform Loewenfeld","3.3.9","3","y","0","left","left","left","left","NA","NA","588","27620","23291","588","NA","NA","2","legacy","5","1024","2","48000","-16","experiment","1","odd","7","280901","29939","277626","278697","2306","126859","278698","217725","2318","103567","283491","279700","282902","NA","282902","NA","Sternberg task","37","30010","38","yes","1024"
"97.43589743589743","97.43589743589743","803.3846153846154","803.3846153846154","black","experiment","legacy","legacy","legacy","0","uniform","1","undefined","1","left","38","0","38","38","0","0","38","38","0","0","38","38","38","NA","38","0","Mon Oct 11 20:46:27 2021","The main experiment item","yes","Sternbergtask.osexp","C:/Users/warne/OneDrive/Documents/Tarleton - MS Applied Psychology/Adv Quantitative Methods and Experimental Design/Labs","no","mono","no","18","no","white","no","yes","768","legacy","26","11","C:/Users/warne/OneDrive/Documents/Tarleton - MS Applied Psychology/Adv Quantitative Methods and Experimental Design/Labs/AWV-subject-1.csv","legacy","2 8 5 1","Lentiform Loewenfeld","3.3.9","4","y","0","left","left","left","left","NA","NA","1322","27620","23291","1322","NA","NA","2","legacy","4","1024","2","48000","-16","experiment","1","odd","1","286782","29939","283495","284577","2306","126859","284579","217725","2318","103567","290106","285580","288783","NA","288783","NA","Sternberg task","38","31332","39","yes","1024"
"97.5","97.5","796.875","796.875","black","experiment","legacy","legacy","legacy","0","uniform","1","undefined","1","right","39","0","39","39","0","0","39","39","0","0","39","39","39","NA","39","0","Mon Oct 11 20:46:27 2021","The main experiment item","yes","Sternbergtask.osexp","C:/Users/warne/OneDrive/Documents/Tarleton - MS Applied Psychology/Adv Quantitative Methods and Experimental Design/Labs","no","mono","no","18","no","white","no","yes","768","legacy","27","11","C:/Users/warne/OneDrive/Documents/Tarleton - MS Applied Psychology/Adv Quantitative Methods and Experimental Design/Labs/AWV-subject-1.csv","legacy","2 5 1 4","Lentiform Loewenfeld","3.3.9","0","n","0","right","left","left","right","NA","NA","543","27620","23291","543","NA","NA","2","legacy","4","1024","2","48000","-16","experiment","1","odd","6","293393","29939","290111","291185","2306","126859","291187","217725","2318","103567","295938","292188","295394","NA","295394","NA","Sternberg task","39","31875","40","yes","1024"
"97.5609756097561","97.5609756097561","796.170731707317","796.170731707317","black","experiment","legacy","legacy","legacy","0","uniform","1","undefined","1","left","40","0","40","40","0","0","40","40","0","0","40","40","40","NA","40","0","Mon Oct 11 20:46:27 2021","The main experiment item","yes","Sternbergtask.osexp","C:/Users/warne/OneDrive/Documents/Tarleton - MS Applied Psychology/Adv Quantitative Methods and Experimental Design/Labs","no","mono","no","18","no","white","no","yes","768","legacy","28","11","C:/Users/warne/OneDrive/Documents/Tarleton - MS Applied Psychology/Adv Quantitative Methods and Experimental Design/Labs/AWV-subject-1.csv","legacy","6 7 9 3 1 2","Lentiform Loewenfeld","3.3.9","1","y","0","left","left","left","left","NA","NA","768","27620","23291","768","NA","NA","2","legacy","6","1024","2","48000","-16","experiment","1","odd","6","299216","29939","295941","297010","2306","126859","297011","217725","2318","103567","301986","298013","301217","NA","301217","NA","Sternberg task","40","32643","41","yes","1024"
"97.61904761904762","97.61904761904762","795.2857142857143","795.2857142857143","black","experiment","legacy","legacy","legacy","0","uniform","1","undefined","1","right","41","0","41","41","0","0","41","41","0","0","41","41","41","NA","41","0","Mon Oct 11 20:46:27 2021","The main experiment item","yes","Sternbergtask.osexp","C:/Users/warne/OneDrive/Documents/Tarleton - MS Applied Psychology/Adv Quantitative Methods and Experimental Design/Labs","no","mono","no","18","no","white","no","yes","768","legacy","29","11","C:/Users/warne/OneDrive/Documents/Tarleton - MS Applied Psychology/Adv Quantitative Methods and Experimental Design/Labs/AWV-subject-1.csv","legacy","6 3 1 7 9 8","Lentiform Loewenfeld","3.3.9","0","n","0","right","left","left","right","NA","NA","759","27620","23291","759","NA","NA","2","legacy","6","1024","2","48000","-16","experiment","1","odd","4","305270","29939","301992","303061","2306","126859","303063","217725","2318","103567","308031","304065","307271","NA","307271","NA","Sternberg task","41","33402","42","yes","1024"
"97.67441860465117","97.67441860465117","805.046511627907","805.046511627907","black","experiment","legacy","legacy","legacy","0","uniform","1","undefined","1","right","42","0","42","42","0","0","42","42","0","0","42","42","42","NA","42","0","Mon Oct 11 20:46:27 2021","The main experiment item","yes","Sternbergtask.osexp","C:/Users/warne/OneDrive/Documents/Tarleton - MS Applied Psychology/Adv Quantitative Methods and Experimental Design/Labs","no","mono","no","18","no","white","no","yes","768","legacy","30","11","C:/Users/warne/OneDrive/Documents/Tarleton - MS Applied Psychology/Adv Quantitative Methods and Experimental Design/Labs/AWV-subject-1.csv","legacy","8 9","Lentiform Loewenfeld","3.3.9","0","n","0","right","left","left","right","NA","NA","1215","27620","23291","1215","NA","NA","2","legacy","2","1024","2","48000","-16","experiment","1","odd","5","311309","29939","308035","309104","2306","126859","309106","217725","2318","103567","314526","310108","313310","NA","313310","NA","Sternberg task","42","34617","43","yes","1024"
"97.72727272727273","97.72727272727273","804.0909090909091","804.0909090909091","black","experiment","legacy","legacy","legacy","0","uniform","1","undefined","1","left","43","0","43","43","0","0","43","43","0","0","43","43","43","NA","43","0","Mon Oct 11 20:46:27 2021","The main experiment item","yes","Sternbergtask.osexp","C:/Users/warne/OneDrive/Documents/Tarleton - MS Applied Psychology/Adv Quantitative Methods and Experimental Design/Labs","no","mono","no","18","no","white","no","yes","768","legacy","31","11","C:/Users/warne/OneDrive/Documents/Tarleton - MS Applied Psychology/Adv Quantitative Methods and Experimental Design/Labs/AWV-subject-1.csv","legacy","7 4 2 6 3 5","Lentiform Loewenfeld","3.3.9","6","y","0","left","left","left","left","NA","NA","763","27620","23291","763","NA","NA","2","legacy","6","1024","2","48000","-16","experiment","1","odd","5","317805","29939","314529","315600","2306","126859","315602","217725","2318","103567","320570","316603","319806","NA","319806","NA","Sternberg task","43","35380","44","yes","1024"
"97.77777777777777","97.77777777777777","813.2888888888889","813.2888888888889","black","experiment","legacy","legacy","legacy","0","uniform","1","undefined","1","right","44","0","44","44","0","0","44","44","0","0","44","44","44","NA","44","0","Mon Oct 11 20:46:27 2021","The main experiment item","yes","Sternbergtask.osexp","C:/Users/warne/OneDrive/Documents/Tarleton - MS Applied Psychology/Adv Quantitative Methods and Experimental Design/Labs","no","mono","no","18","no","white","no","yes","768","legacy","32","11","C:/Users/warne/OneDrive/Documents/Tarleton - MS Applied Psychology/Adv Quantitative Methods and Experimental Design/Labs/AWV-subject-1.csv","legacy","5 7 3","Lentiform Loewenfeld","3.3.9","0","n","0","right","left","left","right","NA","NA","1218","27620","23291","1218","NA","NA","2","legacy","3","1024","2","48000","-16","experiment","1","odd","9","323846","29939","320575","321641","2306","126859","321644","217725","2318","103567","327065","322645","325847","NA","325847","NA","Sternberg task","44","36598","45","yes","1024"
"97.82608695652173","97.82608695652173","814.0869565217391","814.0869565217391","black","experiment","legacy","legacy","legacy","0","uniform","1","undefined","1","left","45","0","45","45","0","0","45","45","0","0","45","45","45","NA","45","0","Mon Oct 11 20:46:27 2021","The main experiment item","yes","Sternbergtask.osexp","C:/Users/warne/OneDrive/Documents/Tarleton - MS Applied Psychology/Adv Quantitative Methods and Experimental Design/Labs","no","mono","no","18","no","white","no","yes","768","legacy","33","11","C:/Users/warne/OneDrive/Documents/Tarleton - MS Applied Psychology/Adv Quantitative Methods and Experimental Design/Labs/AWV-subject-1.csv","legacy","2 4 6 9","Lentiform Loewenfeld","3.3.9","3","y","0","left","left","left","left","NA","NA","850","27620","23291","850","NA","NA","2","legacy","4","1024","2","48000","-16","experiment","1","odd","6","330346","29939","327070","328139","2306","126859","328140","217725","2318","103567","333198","329141","332347","NA","332347","NA","Sternberg task","45","37448","46","yes","1024"
"97.87234042553192","97.87234042553192","816.2553191489362","816.2553191489362","black","experiment","legacy","legacy","legacy","0","uniform","1","undefined","1","left","46","0","46","46","0","0","46","46","0","0","46","46","46","NA","46","0","Mon Oct 11 20:46:27 2021","The main experiment item","yes","Sternbergtask.osexp","C:/Users/warne/OneDrive/Documents/Tarleton - MS Applied Psychology/Adv Quantitative Methods and Experimental Design/Labs","no","mono","no","18","no","white","no","yes","768","legacy","34","11","C:/Users/warne/OneDrive/Documents/Tarleton - MS Applied Psychology/Adv Quantitative Methods and Experimental Design/Labs/AWV-subject-1.csv","legacy","4 1 5","Lentiform Loewenfeld","3.3.9","2","y","0","left","left","left","left","NA","NA","916","27620","23291","916","NA","NA","2","legacy","3","1024","2","48000","-16","experiment","1","odd","1","336492","29939","333203","334288","2306","126859","334290","217725","2318","103567","339410","335291","338493","NA","338493","NA","Sternberg task","46","38364","47","yes","1024"
"97.91666666666667","97.91666666666667","810.7916666666666","810.7916666666666","black","experiment","legacy","legacy","legacy","0","uniform","1","undefined","1","left","47","0","47","47","0","0","47","47","0","0","47","47","47","NA","47","0","Mon Oct 11 20:46:27 2021","The main experiment item","yes","Sternbergtask.osexp","C:/Users/warne/OneDrive/Documents/Tarleton - MS Applied Psychology/Adv Quantitative Methods and Experimental Design/Labs","no","mono","no","18","no","white","no","yes","768","legacy","35","11","C:/Users/warne/OneDrive/Documents/Tarleton - MS Applied Psychology/Adv Quantitative Methods and Experimental Design/Labs/AWV-subject-1.csv","legacy","4 3 2 5 8","Lentiform Loewenfeld","3.3.9","2","y","0","left","left","left","left","NA","NA","554","27620","23291","554","NA","NA","2","legacy","5","1024","2","48000","-16","experiment","1","odd","3","342691","29939","339419","340487","2306","126859","340489","217725","2318","103567","345246","341490","344692","NA","344692","NA","Sternberg task","47","38918","48","yes","1024"
"97.95918367346938","97.95918367346938","808.5510204081633","808.5510204081633","black","experiment","legacy","legacy","legacy","0","uniform","1","undefined","1","right","48","0","48","48","0","0","48","48","0","0","48","48","48","NA","48","0","Mon Oct 11 20:46:27 2021","The main experiment item","yes","Sternbergtask.osexp","C:/Users/warne/OneDrive/Documents/Tarleton - MS Applied Psychology/Adv Quantitative Methods and Experimental Design/Labs","no","mono","no","18","no","white","no","yes","768","legacy","36","11","C:/Users/warne/OneDrive/Documents/Tarleton - MS Applied Psychology/Adv Quantitative Methods and Experimental Design/Labs/AWV-subject-1.csv","legacy","7 4 2 8 1 9","Lentiform Loewenfeld","3.3.9","0","n","0","right","left","left","right","NA","NA","701","27620","23291","701","NA","NA","2","legacy","6","1024","2","48000","-16","experiment","1","odd","5","348526","29939","345249","346318","2306","126859","346320","217725","2318","103567","351229","347321","350527","NA","350527","NA","Sternberg task","48","39619","49","yes","1024"
"98","98","809.12","809.12","black","experiment","legacy","legacy","legacy","0","uniform","1","undefined","1","left","49","0","49","49","0","0","49","49","0","0","49","49","49","NA","49","0","Mon Oct 11 20:46:27 2021","The main experiment item","yes","Sternbergtask.osexp","C:/Users/warne/OneDrive/Documents/Tarleton - MS Applied Psychology/Adv Quantitative Methods and Experimental Design/Labs","no","mono","no","18","no","white","no","yes","768","legacy","37","11","C:/Users/warne/OneDrive/Documents/Tarleton - MS Applied Psychology/Adv Quantitative Methods and Experimental Design/Labs/AWV-subject-1.csv","legacy","7 6","Lentiform Loewenfeld","3.3.9","2","y","0","left","left","left","left","NA","NA","837","27620","23291","837","NA","NA","2","legacy","2","1024","2","48000","-16","experiment","1","odd","6","354511","29939","351237","352307","2306","126859","352309","217725","2318","103567","357349","353310","356512","NA","356512","NA","Sternberg task","49","40456","50","yes","1024"
"98.03921568627452","98.03921568627452","815.6078431372549","815.6078431372549","black","experiment","legacy","legacy","legacy","0","uniform","1","undefined","1","left","50","0","50","50","0","0","50","50","0","0","50","50","50","NA","50","0","Mon Oct 11 20:46:27 2021","The main experiment item","yes","Sternbergtask.osexp","C:/Users/warne/OneDrive/Documents/Tarleton - MS Applied Psychology/Adv Quantitative Methods and Experimental Design/Labs","no","mono","no","18","no","white","no","yes","768","legacy","38","11","C:/Users/warne/OneDrive/Documents/Tarleton - MS Applied Psychology/Adv Quantitative Methods and Experimental Design/Labs/AWV-subject-1.csv","legacy","7 2 3","Lentiform Loewenfeld","3.3.9","3","y","0","left","left","left","left","NA","NA","1140","27620","23291","1140","NA","NA","2","legacy","3","1024","2","48000","-16","experiment","1","odd","3","360629","29939","357357","358426","2306","126859","358427","217725","2318","103567","363770","359428","362630","NA","362630","NA","Sternberg task","50","41596","51","yes","1024"
"98.07692307692308","98.07692307692308","816.5192307692307","816.5192307692307","black","experiment","legacy","legacy","legacy","0","uniform","1","undefined","1","left","51","0","51","51","0","0","51","51","0","0","51","51","51","NA","51","0","Mon Oct 11 20:46:27 2021","The main experiment item","yes","Sternbergtask.osexp","C:/Users/warne/OneDrive/Documents/Tarleton - MS Applied Psychology/Adv Quantitative Methods and Experimental Design/Labs","no","mono","no","18","no","white","no","yes","768","legacy","39","11","C:/Users/warne/OneDrive/Documents/Tarleton - MS Applied Psychology/Adv Quantitative Methods and Experimental Design/Labs/AWV-subject-1.csv","legacy","5 7 8 2 3 8","Lentiform Loewenfeld","3.3.9","5","y","0","left","left","left","left","NA","NA","863","27620","23291","863","NA","NA","2","legacy","6","1024","2","48000","-16","experiment","1","odd","3","367057","29939","363775","364849","2306","126859","364851","217725","2318","103567","369921","365852","369058","NA","369058","NA","Sternberg task","51","42459","52","yes","1024"
"98.11320754716981","98.11320754716981","817.4528301886793","817.4528301886793","black","experiment","legacy","legacy","legacy","0","uniform","1","undefined","1","right","52","0","52","52","0","0","52","52","0","0","52","52","52","NA","52","0","Mon Oct 11 20:46:27 2021","The main experiment item","yes","Sternbergtask.osexp","C:/Users/warne/OneDrive/Documents/Tarleton - MS Applied Psychology/Adv Quantitative Methods and Experimental Design/Labs","no","mono","no","18","no","white","no","yes","768","legacy","40","11","C:/Users/warne/OneDrive/Documents/Tarleton - MS Applied Psychology/Adv Quantitative Methods and Experimental Design/Labs/AWV-subject-1.csv","legacy","2 3 8 5 6 7","Lentiform Loewenfeld","3.3.9","0","n","0","right","left","left","right","NA","NA","866","27620","23291","866","NA","NA","2","legacy","6","1024","2","48000","-16","experiment","1","odd","1","373204","29939","369927","370998","2306","126859","370999","217725","2318","103567","376070","372000","375204","NA","375204","NA","Sternberg task","52","43325","53","yes","1024"
"98.14814814814815","98.14814814814815","824.8333333333334","824.8333333333334","black","experiment","legacy","legacy","legacy","0","uniform","1","undefined","1","right","53","0","53","53","0","0","53","53","0","0","53","53","53","NA","53","0","Mon Oct 11 20:46:27 2021","The main experiment item","yes","Sternbergtask.osexp","C:/Users/warne/OneDrive/Documents/Tarleton - MS Applied Psychology/Adv Quantitative Methods and Experimental Design/Labs","no","mono","no","18","no","white","no","yes","768","legacy","41","11","C:/Users/warne/OneDrive/Documents/Tarleton - MS Applied Psychology/Adv Quantitative Methods and Experimental Design/Labs/AWV-subject-1.csv","legacy","4 2 6 9","Lentiform Loewenfeld","3.3.9","0","n","0","right","left","left","right","NA","NA","1216","27620","23291","1216","NA","NA","2","legacy","4","1024","2","48000","-16","experiment","1","odd","7","379347","29939","376076","377143","2306","126859","377144","217725","2318","103567","382565","378146","381348","NA","381348","NA","Sternberg task","53","44541","54","yes","1024"
"98.18181818181819","98.18181818181819","823.6909090909091","823.6909090909091","black","experiment","legacy","legacy","legacy","0","uniform","1","undefined","1","left","54","0","54","54","0","0","54","54","0","0","54","54","54","NA","54","0","Mon Oct 11 20:46:27 2021","The main experiment item","yes","Sternbergtask.osexp","C:/Users/warne/OneDrive/Documents/Tarleton - MS Applied Psychology/Adv Quantitative Methods and Experimental Design/Labs","no","mono","no","18","no","white","no","yes","768","legacy","42","11","C:/Users/warne/OneDrive/Documents/Tarleton - MS Applied Psychology/Adv Quantitative Methods and Experimental Design/Labs/AWV-subject-1.csv","legacy","9 5 3 8 4","Lentiform Loewenfeld","3.3.9","1","y","0","left","left","left","left","NA","NA","762","27620","23291","762","NA","NA","2","legacy","5","1024","2","48000","-16","experiment","1","odd","9","385846","29939","382572","383641","2306","126859","383643","217725","2318","103567","388609","384645","387847","NA","387847","NA","Sternberg task","54","45303","55","yes","1024"
"98.21428571428571","98.21428571428571","827.4821428571429","827.4821428571429","black","experiment","legacy","legacy","legacy","0","uniform","1","undefined","1","left","55","0","55","55","0","0","55","55","0","0","55","55","55","NA","55","0","Mon Oct 11 20:46:27 2021","The main experiment item","yes","Sternbergtask.osexp","C:/Users/warne/OneDrive/Documents/Tarleton - MS Applied Psychology/Adv Quantitative Methods and Experimental Design/Labs","no","mono","no","18","no","white","no","yes","768","legacy","43","11","C:/Users/warne/OneDrive/Documents/Tarleton - MS Applied Psychology/Adv Quantitative Methods and Experimental Design/Labs/AWV-subject-1.csv","legacy","3 4 9 6 2 9","Lentiform Loewenfeld","3.3.9","5","y","0","left","left","left","left","NA","NA","1036","27620","23291","1036","NA","NA","2","legacy","6","1024","2","48000","-16","experiment","1","odd","2","391885","29939","388613","389681","2306","126859","389683","217725","2318","103567","394925","390684","393888","NA","393888","NA","Sternberg task","55","46339","56","yes","1024"
"98.24561403508773","98.24561403508773","824.7894736842105","824.7894736842105","black","experiment","legacy","legacy","legacy","0","uniform","1","undefined","1","right","56","0","56","56","0","0","56","56","0","0","56","56","56","NA","56","0","Mon Oct 11 20:46:27 2021","The main experiment item","yes","Sternbergtask.osexp","C:/Users/warne/OneDrive/Documents/Tarleton - MS Applied Psychology/Adv Quantitative Methods and Experimental Design/Labs","no","mono","no","18","no","white","no","yes","768","legacy","44","11","C:/Users/warne/OneDrive/Documents/Tarleton - MS Applied Psychology/Adv Quantitative Methods and Experimental Design/Labs/AWV-subject-1.csv","legacy","5 9 2 3","Lentiform Loewenfeld","3.3.9","0","n","0","right","left","left","right","NA","NA","674","27620","23291","674","NA","NA","2","legacy","4","1024","2","48000","-16","experiment","1","odd","8","398207","29939","394932","396000","2306","126859","396001","217725","2318","103567","400881","397003","400207","NA","400207","NA","Sternberg task","56","47013","57","yes","1024"
"98.27586206896552","98.27586206896552","821.3448275862069","821.3448275862069","black","experiment","legacy","legacy","legacy","0","uniform","1","undefined","1","left","57","0","57","57","0","0","57","57","0","0","57","57","57","NA","57","0","Mon Oct 11 20:46:27 2021","The main experiment item","yes","Sternbergtask.osexp","C:/Users/warne/OneDrive/Documents/Tarleton - MS Applied Psychology/Adv Quantitative Methods and Experimental Design/Labs","no","mono","no","18","no","white","no","yes","768","legacy","45","11","C:/Users/warne/OneDrive/Documents/Tarleton - MS Applied Psychology/Adv Quantitative Methods and Experimental Design/Labs/AWV-subject-1.csv","legacy","5 2 6","Lentiform Loewenfeld","3.3.9","2","y","0","left","left","left","left","NA","NA","625","27620","23291","625","NA","NA","2","legacy","3","1024","2","48000","-16","experiment","1","odd","2","404163","29939","400886","401956","2306","126859","401957","217725","2318","103567","406789","402959","406164","NA","406164","NA","Sternberg task","57","47638","58","yes","1024"
"98.30508474576271","98.30508474576271","818.9830508474577","818.9830508474577","black","experiment","legacy","legacy","legacy","0","uniform","1","undefined","1","left","58","0","58","58","0","0","58","58","0","0","58","58","58","NA","58","0","Mon Oct 11 20:46:27 2021","The main experiment item","yes","Sternbergtask.osexp","C:/Users/warne/OneDrive/Documents/Tarleton - MS Applied Psychology/Adv Quantitative Methods and Experimental Design/Labs","no","mono","no","18","no","white","no","yes","768","legacy","46","11","C:/Users/warne/OneDrive/Documents/Tarleton - MS Applied Psychology/Adv Quantitative Methods and Experimental Design/Labs/AWV-subject-1.csv","legacy","2 6 1 7 4","Lentiform Loewenfeld","3.3.9","2","y","0","left","left","left","left","NA","NA","682","27620","23291","682","NA","NA","2","legacy","5","1024","2","48000","-16","experiment","1","odd","6","410074","29939","406797","407867","2306","126859","407869","217725","2318","103567","412761","408870","412079","NA","412079","NA","Sternberg task","58","48320","59","yes","1024"
"98.33333333333333","98.33333333333333","818.3333333333334","818.3333333333334","black","experiment","legacy","legacy","legacy","0","uniform","1","undefined","1","left","59","0","59","59","0","0","59","59","0","0","59","59","59","NA","59","0","Mon Oct 11 20:46:27 2021","The main experiment item","yes","Sternbergtask.osexp","C:/Users/warne/OneDrive/Documents/Tarleton - MS Applied Psychology/Adv Quantitative Methods and Experimental Design/Labs","no","mono","no","18","no","white","no","yes","768","legacy","47","11","C:/Users/warne/OneDrive/Documents/Tarleton - MS Applied Psychology/Adv Quantitative Methods and Experimental Design/Labs/AWV-subject-1.csv","legacy","4 1 8 7 5","Lentiform Loewenfeld","3.3.9","3","y","0","left","left","left","left","NA","NA","780","27620","23291","780","NA","NA","2","legacy","5","1024","2","48000","-16","experiment","1","odd","8","416040","29939","412764","413833","2306","126859","413835","217725","2318","103567","418821","414836","418041","NA","418041","NA","Sternberg task","59","49100","60","yes","1024"
"98.36065573770492","98.36065573770492","814.4918032786885","814.4918032786885","black","experiment","legacy","legacy","legacy","0","uniform","1","undefined","1","left","60","0","60","60","0","0","60","60","0","0","60","60","60","NA","60","0","Mon Oct 11 20:46:27 2021","The main experiment item","yes","Sternbergtask.osexp","C:/Users/warne/OneDrive/Documents/Tarleton - MS Applied Psychology/Adv Quantitative Methods and Experimental Design/Labs","no","mono","no","18","no","white","no","yes","768","legacy","48","11","C:/Users/warne/OneDrive/Documents/Tarleton - MS Applied Psychology/Adv Quantitative Methods and Experimental Design/Labs/AWV-subject-1.csv","legacy","3 5 4 7","Lentiform Loewenfeld","3.3.9","1","y","0","left","left","left","left","NA","NA","584","27620","23291","584","NA","NA","2","legacy","4","1024","2","48000","-16","experiment","1","odd","3","422100","29939","418826","419892","2306","126859","419894","217725","2318","103567","424685","420895","424101","NA","424101","NA","Sternberg task","60","49684","61","yes","1024"
"98.38709677419355","98.38709677419355","815.6290322580645","815.6290322580645","black","experiment","legacy","legacy","legacy","0","uniform","1","undefined","1","right","61","0","61","61","0","0","61","61","0","0","61","61","61","NA","61","0","Mon Oct 11 20:46:27 2021","The main experiment item","yes","Sternbergtask.osexp","C:/Users/warne/OneDrive/Documents/Tarleton - MS Applied Psychology/Adv Quantitative Methods and Experimental Design/Labs","no","mono","no","18","no","white","no","yes","768","legacy","49","11","C:/Users/warne/OneDrive/Documents/Tarleton - MS Applied Psychology/Adv Quantitative Methods and Experimental Design/Labs/AWV-subject-1.csv","legacy","7 6 4 8 1 2","Lentiform Loewenfeld","3.3.9","0","n","0","right","left","left","right","NA","NA","885","27620","23291","885","NA","NA","2","legacy","6","1024","2","48000","-16","experiment","1","odd","9","427964","29939","424690","425757","2306","126859","425758","217725","2318","103567","430850","426759","429965","NA","429965","NA","Sternberg task","61","50569","62","yes","1024"
"98.41269841269842","98.41269841269842","818.8888888888889","818.8888888888889","black","experiment","legacy","legacy","legacy","0","uniform","1","undefined","1","left","62","0","62","62","0","0","62","62","0","0","62","62","62","NA","62","0","Mon Oct 11 20:46:27 2021","The main experiment item","yes","Sternbergtask.osexp","C:/Users/warne/OneDrive/Documents/Tarleton - MS Applied Psychology/Adv Quantitative Methods and Experimental Design/Labs","no","mono","no","18","no","white","no","yes","768","legacy","50","11","C:/Users/warne/OneDrive/Documents/Tarleton - MS Applied Psychology/Adv Quantitative Methods and Experimental Design/Labs/AWV-subject-1.csv","legacy","6 7 8 5","Lentiform Loewenfeld","3.3.9","3","y","0","left","left","left","left","NA","NA","1021","27620","23291","1021","NA","NA","2","legacy","4","1024","2","48000","-16","experiment","1","odd","8","434127","29939","430853","431921","2306","126859","431922","217725","2318","103567","437149","432923","436128","NA","436128","NA","Sternberg task","62","51590","63","yes","1024"
"98.4375","98.4375","820.109375","820.109375","black","experiment","legacy","legacy","legacy","0","uniform","1","undefined","1","left","63","0","63","63","0","0","63","63","0","0","63","63","63","NA","63","0","Mon Oct 11 20:46:27 2021","The main experiment item","yes","Sternbergtask.osexp","C:/Users/warne/OneDrive/Documents/Tarleton - MS Applied Psychology/Adv Quantitative Methods and Experimental Design/Labs","no","mono","no","18","no","white","no","yes","768","legacy","51","11","C:/Users/warne/OneDrive/Documents/Tarleton - MS Applied Psychology/Adv Quantitative Methods and Experimental Design/Labs/AWV-subject-1.csv","legacy","7 1 8 5 6 2","Lentiform Loewenfeld","3.3.9","2","y","0","left","left","left","left","NA","NA","897","27620","23291","897","NA","NA","2","legacy","6","1024","2","48000","-16","experiment","1","odd","1","440431","29939","437155","438224","2306","126859","438225","217725","2318","103567","443329","439226","442432","NA","442432","NA","Sternberg task","63","52487","64","yes","1024"
"98.46153846153847","98.46153846153847","814.9538461538461","814.9538461538461","black","experiment","legacy","legacy","legacy","0","uniform","1","undefined","1","right","64","0","64","64","0","0","64","64","0","0","64","64","64","NA","64","0","Mon Oct 11 20:46:27 2021","The main experiment item","yes","Sternbergtask.osexp","C:/Users/warne/OneDrive/Documents/Tarleton - MS Applied Psychology/Adv Quantitative Methods and Experimental Design/Labs","no","mono","no","18","no","white","no","yes","768","legacy","52","11","C:/Users/warne/OneDrive/Documents/Tarleton - MS Applied Psychology/Adv Quantitative Methods and Experimental Design/Labs/AWV-subject-1.csv","legacy","7 9","Lentiform Loewenfeld","3.3.9","0","n","0","right","left","left","right","NA","NA","485","27620","23291","485","NA","NA","2","legacy","2","1024","2","48000","-16","experiment","1","odd","1","446608","29939","443334","444401","2306","126859","444403","217725","2318","103567","449094","445405","448609","NA","448609","NA","Sternberg task","64","52972","65","yes","1024"
"98.48484848484848","98.48484848484848","817.2575757575758","817.2575757575758","black","experiment","legacy","legacy","legacy","0","uniform","1","undefined","1","left","65","0","65","65","0","0","65","65","0","0","65","65","65","NA","65","0","Mon Oct 11 20:46:27 2021","The main experiment item","yes","Sternbergtask.osexp","C:/Users/warne/OneDrive/Documents/Tarleton - MS Applied Psychology/Adv Quantitative Methods and Experimental Design/Labs","no","mono","no","18","no","white","no","yes","768","legacy","53","11","C:/Users/warne/OneDrive/Documents/Tarleton - MS Applied Psychology/Adv Quantitative Methods and Experimental Design/Labs/AWV-subject-1.csv","legacy","7 8 4 6 9 5","Lentiform Loewenfeld","3.3.9","4","y","0","left","left","left","left","NA","NA","967","27620","23291","967","NA","NA","2","legacy","6","1024","2","48000","-16","experiment","1","odd","6","452377","29939","449099","450170","2306","126859","450171","217725","2318","103567","455345","451173","454378","NA","454378","NA","Sternberg task","65","53939","66","yes","1024"
"98.50746268656717","98.50746268656717","816.6716417910447","816.6716417910447","black","experiment","legacy","legacy","legacy","0","uniform","1","undefined","1","right","66","0","66","66","0","0","66","66","0","0","66","66","66","NA","66","0","Mon Oct 11 20:46:27 2021","The main experiment item","yes","Sternbergtask.osexp","C:/Users/warne/OneDrive/Documents/Tarleton - MS Applied Psychology/Adv Quantitative Methods and Experimental Design/Labs","no","mono","no","18","no","white","no","yes","768","legacy","54","11","C:/Users/warne/OneDrive/Documents/Tarleton - MS Applied Psychology/Adv Quantitative Methods and Experimental Design/Labs/AWV-subject-1.csv","legacy","6 9 4 5 3 2","Lentiform Loewenfeld","3.3.9","0","n","0","right","left","left","right","NA","NA","778","27620","23291","778","NA","NA","2","legacy","6","1024","2","48000","-16","experiment","1","odd","8","458626","29939","455350","456418","2306","126859","456420","217725","2318","103567","461405","457422","460627","NA","460627","NA","Sternberg task","66","54717","67","yes","1024"
"98.52941176470588","98.52941176470588","815.9264705882352","815.9264705882352","black","experiment","legacy","legacy","legacy","0","uniform","1","undefined","1","right","67","0","67","67","0","0","67","67","0","0","67","67","67","NA","67","0","Mon Oct 11 20:46:27 2021","The main experiment item","yes","Sternbergtask.osexp","C:/Users/warne/OneDrive/Documents/Tarleton - MS Applied Psychology/Adv Quantitative Methods and Experimental Design/Labs","no","mono","no","18","no","white","no","yes","768","legacy","55","11","C:/Users/warne/OneDrive/Documents/Tarleton - MS Applied Psychology/Adv Quantitative Methods and Experimental Design/Labs/AWV-subject-1.csv","legacy","4 1","Lentiform Loewenfeld","3.3.9","0","n","0","right","left","left","right","NA","NA","766","27620","23291","766","NA","NA","2","legacy","2","1024","2","48000","-16","experiment","1","odd","6","464686","29939","461410","462478","2306","126859","462480","217725","2318","103567","467454","463481","466687","NA","466687","NA","Sternberg task","67","55483","68","yes","1024"
"98.55072463768116","98.55072463768116","811.8695652173913","811.8695652173913","black","experiment","legacy","legacy","legacy","0","uniform","1","undefined","1","right","68","0","68","68","0","0","68","68","0","0","68","68","68","NA","68","0","Mon Oct 11 20:46:27 2021","The main experiment item","yes","Sternbergtask.osexp","C:/Users/warne/OneDrive/Documents/Tarleton - MS Applied Psychology/Adv Quantitative Methods and Experimental Design/Labs","no","mono","no","18","no","white","no","yes","768","legacy","56","11","C:/Users/warne/OneDrive/Documents/Tarleton - MS Applied Psychology/Adv Quantitative Methods and Experimental Design/Labs/AWV-subject-1.csv","legacy","6 9 4 5 2","Lentiform Loewenfeld","3.3.9","0","n","0","right","left","left","right","NA","NA","536","27620","23291","536","NA","NA","2","legacy","5","1024","2","48000","-16","experiment","1","odd","1","470737","29939","467459","468533","2306","126859","468535","217725","2318","103567","473274","469536","472738","NA","472738","NA","Sternberg task","68","56019","69","yes","1024"
"98.57142857142857","98.57142857142857","811.8142857142857","811.8142857142857","black","experiment","legacy","legacy","legacy","0","uniform","1","undefined","1","left","69","0","69","69","0","0","69","69","0","0","69","69","69","NA","69","0","Mon Oct 11 20:46:27 2021","The main experiment item","yes","Sternbergtask.osexp","C:/Users/warne/OneDrive/Documents/Tarleton - MS Applied Psychology/Adv Quantitative Methods and Experimental Design/Labs","no","mono","no","18","no","white","no","yes","768","legacy","57","11","C:/Users/warne/OneDrive/Documents/Tarleton - MS Applied Psychology/Adv Quantitative Methods and Experimental Design/Labs/AWV-subject-1.csv","legacy","9 6 2 4 1","Lentiform Loewenfeld","3.3.9","4","y","0","left","left","left","left","NA","NA","808","27620","23291","808","NA","NA","2","legacy","5","1024","2","48000","-16","experiment","1","odd","4","476552","29939","473278","474345","2306","126859","474347","217725","2318","103567","479361","475348","478553","NA","478553","NA","Sternberg task","69","56827","70","yes","1024"
"98.59154929577464","98.59154929577464","811.0422535211268","811.0422535211268","black","experiment","legacy","legacy","legacy","0","uniform","1","undefined","1","left","70","0","70","70","0","0","70","70","0","0","70","70","70","NA","70","0","Mon Oct 11 20:46:27 2021","The main experiment item","yes","Sternbergtask.osexp","C:/Users/warne/OneDrive/Documents/Tarleton - MS Applied Psychology/Adv Quantitative Methods and Experimental Design/Labs","no","mono","no","18","no","white","no","yes","768","legacy","58","11","C:/Users/warne/OneDrive/Documents/Tarleton - MS Applied Psychology/Adv Quantitative Methods and Experimental Design/Labs/AWV-subject-1.csv","legacy","8 9 5 7 1 6","Lentiform Loewenfeld","3.3.9","4","y","0","left","left","left","left","NA","NA","757","27620","23291","757","NA","NA","2","legacy","6","1024","2","48000","-16","experiment","1","odd","7","482651","29939","479379","480447","2306","126859","480449","217725","2318","103567","485409","481450","484652","NA","484652","NA","Sternberg task","70","57584","71","yes","1024"
"98.61111111111111","98.61111111111111","811.2361111111111","811.2361111111111","black","experiment","legacy","legacy","legacy","0","uniform","1","undefined","1","left","71","0","71","71","0","0","71","71","0","0","71","71","71","NA","71","0","Mon Oct 11 20:46:27 2021","The main experiment item","yes","Sternbergtask.osexp","C:/Users/warne/OneDrive/Documents/Tarleton - MS Applied Psychology/Adv Quantitative Methods and Experimental Design/Labs","no","mono","no","18","no","white","no","yes","768","legacy","59","11","C:/Users/warne/OneDrive/Documents/Tarleton - MS Applied Psychology/Adv Quantitative Methods and Experimental Design/Labs/AWV-subject-1.csv","legacy","8 9 6 1","Lentiform Loewenfeld","3.3.9","2","y","0","left","left","left","left","NA","NA","825","27620","23291","825","NA","NA","2","legacy","4","1024","2","48000","-16","experiment","1","odd","9","488703","29939","485426","486496","2306","126859","486498","217725","2318","103567","491529","487499","490704","NA","490704","NA","Sternberg task","71","58409","72","yes","1024"
"98.63013698630137","98.63013698630137","811.5342465753424","811.5342465753424","black","experiment","legacy","legacy","legacy","0","uniform","1","undefined","1","right","72","0","72","72","0","0","72","72","0","0","72","72","72","NA","72","0","Mon Oct 11 20:46:27 2021","The main experiment item","yes","Sternbergtask.osexp","C:/Users/warne/OneDrive/Documents/Tarleton - MS Applied Psychology/Adv Quantitative Methods and Experimental Design/Labs","no","mono","no","18","no","white","no","yes","768","legacy","60","11","C:/Users/warne/OneDrive/Documents/Tarleton - MS Applied Psychology/Adv Quantitative Methods and Experimental Design/Labs/AWV-subject-1.csv","legacy","2 8 7 9 5 3","Lentiform Loewenfeld","3.3.9","0","n","0","right","left","left","right","NA","NA","833","27620","23291","833","NA","NA","2","legacy","6","1024","2","48000","-16","experiment","1","odd","6","494811","29939","491535","492603","2306","126859","492605","217725","2318","103567","497645","493606","496812","NA","496812","NA","Sternberg task","72","59242","73","yes","1024"
"98.64864864864865","98.64864864864865","809.3243243243244","809.3243243243244","black","experiment","legacy","legacy","legacy","0","uniform","1","undefined","1","left","73","0","73","73","0","0","73","73","0","0","73","73","73","NA","73","0","Mon Oct 11 20:46:27 2021","The main experiment item","yes","Sternbergtask.osexp","C:/Users/warne/OneDrive/Documents/Tarleton - MS Applied Psychology/Adv Quantitative Methods and Experimental Design/Labs","no","mono","no","18","no","white","no","yes","768","legacy","61","11","C:/Users/warne/OneDrive/Documents/Tarleton - MS Applied Psychology/Adv Quantitative Methods and Experimental Design/Labs/AWV-subject-1.csv","legacy","6 8 9 3 4 9","Lentiform Loewenfeld","3.3.9","5","y","0","left","left","left","left","NA","NA","648","27620","23291","648","NA","NA","2","legacy","6","1024","2","48000","-16","experiment","1","odd","4","500924","29939","497650","498718","2306","126859","498719","217725","2318","103567","503573","499720","502925","NA","502925","NA","Sternberg task","73","59890","74","yes","1024"
"98.66666666666667","98.66666666666667","810.52","810.52","black","experiment","legacy","legacy","legacy","0","uniform","1","undefined","1","right","74","0","74","74","0","0","74","74","0","0","74","74","74","NA","74","0","Mon Oct 11 20:46:27 2021","The main experiment item","yes","Sternbergtask.osexp","C:/Users/warne/OneDrive/Documents/Tarleton - MS Applied Psychology/Adv Quantitative Methods and Experimental Design/Labs","no","mono","no","18","no","white","no","yes","768","legacy","62","11","C:/Users/warne/OneDrive/Documents/Tarleton - MS Applied Psychology/Adv Quantitative Methods and Experimental Design/Labs/AWV-subject-1.csv","legacy","3 4 9 6 7 8","Lentiform Loewenfeld","3.3.9","0","n","0","right","left","left","right","NA","NA","899","27620","23291","899","NA","NA","2","legacy","6","1024","2","48000","-16","experiment","1","odd","2","506852","29939","503578","504646","2306","126859","504647","217725","2318","103567","509754","505648","508853","NA","508853","NA","Sternberg task","74","60789","75","yes","1024"
"98.6842105263158","98.6842105263158","811.6973684210526","811.6973684210526","black","experiment","legacy","legacy","legacy","0","uniform","1","undefined","1","left","75","0","75","75","0","0","75","75","0","0","75","75","75","NA","75","0","Mon Oct 11 20:46:27 2021","The main experiment item","yes","Sternbergtask.osexp","C:/Users/warne/OneDrive/Documents/Tarleton - MS Applied Psychology/Adv Quantitative Methods and Experimental Design/Labs","no","mono","no","18","no","white","no","yes","768","legacy","63","11","C:/Users/warne/OneDrive/Documents/Tarleton - MS Applied Psychology/Adv Quantitative Methods and Experimental Design/Labs/AWV-subject-1.csv","legacy","4 7 6 8 2 3","Lentiform Loewenfeld","3.3.9","6","y","0","left","left","left","left","NA","NA","900","27620","23291","900","NA","NA","2","legacy","6","1024","2","48000","-16","experiment","1","odd","3","513032","29939","509759","510826","2306","126859","510827","217725","2318","103567","515934","511828","515033","NA","515033","NA","Sternberg task","75","61689","76","yes","1024"
"98.7012987012987","98.7012987012987","808.3896103896104","808.3896103896104","black","experiment","legacy","legacy","legacy","0","uniform","1","undefined","1","left","76","0","76","76","0","0","76","76","0","0","76","76","76","NA","76","0","Mon Oct 11 20:46:27 2021","The main experiment item","yes","Sternbergtask.osexp","C:/Users/warne/OneDrive/Documents/Tarleton - MS Applied Psychology/Adv Quantitative Methods and Experimental Design/Labs","no","mono","no","18","no","white","no","yes","768","legacy","64","11","C:/Users/warne/OneDrive/Documents/Tarleton - MS Applied Psychology/Adv Quantitative Methods and Experimental Design/Labs/AWV-subject-1.csv","legacy","9 3 8 2 1 4","Lentiform Loewenfeld","3.3.9","3","y","0","left","left","left","left","NA","NA","557","27620","23291","557","NA","NA","2","legacy","6","1024","2","48000","-16","experiment","1","odd","8","519211","29939","515939","517007","2306","126859","517009","217725","2318","103567","521769","518010","521212","NA","521212","NA","Sternberg task","76","62246","77","yes","1024"
"98.71794871794872","98.71794871794872","806.2564102564103","806.2564102564103","black","experiment","legacy","legacy","legacy","0","uniform","1","undefined","1","left","77","0","77","77","0","0","77","77","0","0","77","77","77","NA","77","0","Mon Oct 11 20:46:27 2021","The main experiment item","yes","Sternbergtask.osexp","C:/Users/warne/OneDrive/Documents/Tarleton - MS Applied Psychology/Adv Quantitative Methods and Experimental Design/Labs","no","mono","no","18","no","white","no","yes","768","legacy","65","11","C:/Users/warne/OneDrive/Documents/Tarleton - MS Applied Psychology/Adv Quantitative Methods and Experimental Design/Labs/AWV-subject-1.csv","legacy","9 5 8 1","Lentiform Loewenfeld","3.3.9","2","y","0","left","left","left","left","NA","NA","642","27620","23291","642","NA","NA","2","legacy","4","1024","2","48000","-16","experiment","1","odd","5","525050","29939","521775","522842","2306","126859","522844","217725","2318","103567","527694","523845","527051","NA","527051","NA","Sternberg task","77","62888","78","yes","1024"
"98.73417721518987","98.73417721518987","804.367088607595","804.367088607595","black","experiment","legacy","legacy","legacy","0","uniform","1","undefined","1","right","78","0","78","78","0","0","78","78","0","0","78","78","78","NA","78","0","Mon Oct 11 20:46:27 2021","The main experiment item","yes","Sternbergtask.osexp","C:/Users/warne/OneDrive/Documents/Tarleton - MS Applied Psychology/Adv Quantitative Methods and Experimental Design/Labs","no","mono","no","18","no","white","no","yes","768","legacy","66","11","C:/Users/warne/OneDrive/Documents/Tarleton - MS Applied Psychology/Adv Quantitative Methods and Experimental Design/Labs/AWV-subject-1.csv","legacy","7 8 6 1","Lentiform Loewenfeld","3.3.9","0","n","0","right","left","left","right","NA","NA","657","27620","23291","657","NA","NA","2","legacy","4","1024","2","48000","-16","experiment","1","odd","3","530974","29939","527697","528766","2306","126859","528767","217725","2318","103567","533634","529769","532975","NA","532975","NA","Sternberg task","78","63545","79","yes","1024"
"98.75","98.75","802.0375","802.0375","black","experiment","legacy","legacy","legacy","0","uniform","1","undefined","1","left","79","0","79","79","0","0","79","79","0","0","79","79","79","NA","79","0","Mon Oct 11 20:46:27 2021","The main experiment item","yes","Sternbergtask.osexp","C:/Users/warne/OneDrive/Documents/Tarleton - MS Applied Psychology/Adv Quantitative Methods and Experimental Design/Labs","no","mono","no","18","no","white","no","yes","768","legacy","67","11","C:/Users/warne/OneDrive/Documents/Tarleton - MS Applied Psychology/Adv Quantitative Methods and Experimental Design/Labs/AWV-subject-1.csv","legacy","3 2 1 4 7","Lentiform Loewenfeld","3.3.9","2","y","0","left","left","left","left","NA","NA","618","27620","23291","618","NA","NA","2","legacy","5","1024","2","48000","-16","experiment","1","odd","2","536910","29939","533639","534706","2306","126859","534708","217725","2318","103567","539529","535709","538911","NA","538911","NA","Sternberg task","79","64163","80","yes","1024"
"97.53086419753086","97.53086419753086","800.7283950617284","800.7283950617284","black","experiment","legacy","legacy","legacy","0","uniform","0","undefined","0","left","80","0","80","80","0","0","80","80","0","0","80","80","80","NA","80","0","Mon Oct 11 20:46:27 2021","The main experiment item","yes","Sternbergtask.osexp","C:/Users/warne/OneDrive/Documents/Tarleton - MS Applied Psychology/Adv Quantitative Methods and Experimental Design/Labs","no","mono","no","18","no","white","no","yes","768","legacy","68","11","C:/Users/warne/OneDrive/Documents/Tarleton - MS Applied Psychology/Adv Quantitative Methods and Experimental Design/Labs/AWV-subject-1.csv","legacy","8 5 3 7 4 6","Lentiform Loewenfeld","3.3.9","6","y","0","right","left","left","right","NA","NA","696","27620","23291","696","NA","NA","2","legacy","6","1024","2","48000","-16","experiment","1","odd","6","542816","29939","539534","540609","2306","126859","540610","217725","2318","103567","545514","541611","544817","NA","544817","NA","Sternberg task","79","64859","81","yes","1024"
"97.5609756097561","97.5609756097561","801.1829268292682","801.1829268292682","black","experiment","legacy","legacy","legacy","0","uniform","1","undefined","1","left","81","0","81","81","0","0","81","81","0","0","81","81","81","NA","81","0","Mon Oct 11 20:46:27 2021","The main experiment item","yes","Sternbergtask.osexp","C:/Users/warne/OneDrive/Documents/Tarleton - MS Applied Psychology/Adv Quantitative Methods and Experimental Design/Labs","no","mono","no","18","no","white","no","yes","768","legacy","69","11","C:/Users/warne/OneDrive/Documents/Tarleton - MS Applied Psychology/Adv Quantitative Methods and Experimental Design/Labs/AWV-subject-1.csv","legacy","9 4 2","Lentiform Loewenfeld","3.3.9","1","y","0","left","left","left","left","NA","NA","838","27620","23291","838","NA","NA","2","legacy","3","1024","2","48000","-16","experiment","1","odd","9","548794","29939","539534","546587","2306","126859","546588","545519","2318","103567","551634","547589","550795","NA","550795","NA","Sternberg task","80","65697","82","yes","1024"
"97.59036144578313","97.59036144578313","798.0240963855422","798.0240963855422","black","experiment","legacy","legacy","legacy","0","uniform","1","undefined","1","left","82","0","82","82","0","0","82","82","0","0","82","82","82","NA","82","0","Mon Oct 11 20:46:27 2021","The main experiment item","yes","Sternbergtask.osexp","C:/Users/warne/OneDrive/Documents/Tarleton - MS Applied Psychology/Adv Quantitative Methods and Experimental Design/Labs","no","mono","no","18","no","white","no","yes","768","legacy","70","11","C:/Users/warne/OneDrive/Documents/Tarleton - MS Applied Psychology/Adv Quantitative Methods and Experimental Design/Labs/AWV-subject-1.csv","legacy","2 3","Lentiform Loewenfeld","3.3.9","1","y","0","left","left","left","left","NA","NA","539","27620","23291","539","NA","NA","2","legacy","2","1024","2","48000","-16","experiment","1","odd","2","554912","29939","551640","552708","2306","126859","552710","545519","2318","103567","557454","553711","556914","NA","556914","NA","Sternberg task","81","66236","83","yes","1024"
"97.61904761904762","97.61904761904762","798.6666666666666","798.6666666666666","black","experiment","legacy","legacy","legacy","0","uniform","1","undefined","1","left","83","0","83","83","0","0","83","83","0","0","83","83","83","NA","83","0","Mon Oct 11 20:46:27 2021","The main experiment item","yes","Sternbergtask.osexp","C:/Users/warne/OneDrive/Documents/Tarleton - MS Applied Psychology/Adv Quantitative Methods and Experimental Design/Labs","no","mono","no","18","no","white","no","yes","768","legacy","71","11","C:/Users/warne/OneDrive/Documents/Tarleton - MS Applied Psychology/Adv Quantitative Methods and Experimental Design/Labs/AWV-subject-1.csv","legacy","4 6 2 5 1","Lentiform Loewenfeld","3.3.9","5","y","0","left","left","left","left","NA","NA","852","27620","23291","852","NA","NA","2","legacy","5","1024","2","48000","-16","experiment","1","odd","1","560735","29939","557459","558527","2306","126859","558529","545519","2318","103567","563589","559530","562736","NA","562736","NA","Sternberg task","82","67088","84","yes","1024"
"97.6470588235294","97.6470588235294","804.0470588235294","804.0470588235294","black","experiment","legacy","legacy","legacy","0","uniform","1","undefined","1","right","84","0","84","84","0","0","84","84","0","0","84","84","84","NA","84","0","Mon Oct 11 20:46:27 2021","The main experiment item","yes","Sternbergtask.osexp","C:/Users/warne/OneDrive/Documents/Tarleton - MS Applied Psychology/Adv Quantitative Methods and Experimental Design/Labs","no","mono","no","18","no","white","no","yes","768","legacy","72","11","C:/Users/warne/OneDrive/Documents/Tarleton - MS Applied Psychology/Adv Quantitative Methods and Experimental Design/Labs/AWV-subject-1.csv","legacy","6 8 4","Lentiform Loewenfeld","3.3.9","0","n","0","right","left","left","right","NA","NA","1256","27620","23291","1256","NA","NA","2","legacy","3","1024","2","48000","-16","experiment","1","odd","1","566872","29939","563596","564666","2306","126859","564668","545519","2318","103567","570129","565669","568873","NA","568873","NA","Sternberg task","83","68344","85","yes","1024"
"97.67441860465117","97.67441860465117","800.7558139534884","800.7558139534884","black","experiment","legacy","legacy","legacy","0","uniform","1","undefined","1","left","85","0","85","85","0","0","85","85","0","0","85","85","85","NA","85","0","Mon Oct 11 20:46:27 2021","The main experiment item","yes","Sternbergtask.osexp","C:/Users/warne/OneDrive/Documents/Tarleton - MS Applied Psychology/Adv Quantitative Methods and Experimental Design/Labs","no","mono","no","18","no","white","no","yes","768","legacy","73","11","C:/Users/warne/OneDrive/Documents/Tarleton - MS Applied Psychology/Adv Quantitative Methods and Experimental Design/Labs/AWV-subject-1.csv","legacy","7 8 6 3 1","Lentiform Loewenfeld","3.3.9","5","y","0","left","left","left","left","NA","NA","521","27620","23291","521","NA","NA","2","legacy","5","1024","2","48000","-16","experiment","1","odd","1","573411","29939","570134","571203","2306","126859","571204","545519","2318","103567","575934","572206","575412","NA","575412","NA","Sternberg task","84","68865","86","yes","1024"
"97.70114942528735","97.70114942528735","803.4252873563219","803.4252873563219","black","experiment","legacy","legacy","legacy","0","uniform","1","undefined","1","right","86","0","86","86","0","0","86","86","0","0","86","86","86","NA","86","0","Mon Oct 11 20:46:27 2021","The main experiment item","yes","Sternbergtask.osexp","C:/Users/warne/OneDrive/Documents/Tarleton - MS Applied Psychology/Adv Quantitative Methods and Experimental Design/Labs","no","mono","no","18","no","white","no","yes","768","legacy","74","11","C:/Users/warne/OneDrive/Documents/Tarleton - MS Applied Psychology/Adv Quantitative Methods and Experimental Design/Labs/AWV-subject-1.csv","legacy","5 2","Lentiform Loewenfeld","3.3.9","0","n","0","right","left","left","right","NA","NA","1033","27620","23291","1033","NA","NA","2","legacy","2","1024","2","48000","-16","experiment","1","odd","7","579215","29939","575939","577007","2306","126859","577009","545519","2318","103567","582249","578010","581216","NA","581216","NA","Sternberg task","85","69898","87","yes","1024"
"97.72727272727273","97.72727272727273","807.4318181818181","807.4318181818181","black","experiment","legacy","legacy","legacy","0","uniform","1","undefined","1","right","87","0","87","87","0","0","87","87","0","0","87","87","87","NA","87","0","Mon Oct 11 20:46:27 2021","The main experiment item","yes","Sternbergtask.osexp","C:/Users/warne/OneDrive/Documents/Tarleton - MS Applied Psychology/Adv Quantitative Methods and Experimental Design/Labs","no","mono","no","18","no","white","no","yes","768","legacy","75","11","C:/Users/warne/OneDrive/Documents/Tarleton - MS Applied Psychology/Adv Quantitative Methods and Experimental Design/Labs/AWV-subject-1.csv","legacy","2 8 9","Lentiform Loewenfeld","3.3.9","0","n","0","right","left","left","right","NA","NA","1156","27620","23291","1156","NA","NA","2","legacy","3","1024","2","48000","-16","experiment","1","odd","6","585528","29939","582254","583322","2306","126859","583323","545519","2318","103567","588685","584324","587529","NA","587529","NA","Sternberg task","86","71054","88","yes","1024"
"97.75280898876404","97.75280898876404","810.8202247191011","810.8202247191011","black","experiment","legacy","legacy","legacy","0","uniform","1","undefined","1","right","88","0","88","88","0","0","88","88","0","0","88","88","88","NA","88","0","Mon Oct 11 20:46:27 2021","The main experiment item","yes","Sternbergtask.osexp","C:/Users/warne/OneDrive/Documents/Tarleton - MS Applied Psychology/Adv Quantitative Methods and Experimental Design/Labs","no","mono","no","18","no","white","no","yes","768","legacy","76","11","C:/Users/warne/OneDrive/Documents/Tarleton - MS Applied Psychology/Adv Quantitative Methods and Experimental Design/Labs/AWV-subject-1.csv","legacy","6 8","Lentiform Loewenfeld","3.3.9","0","n","0","right","left","left","right","NA","NA","1109","27620","23291","1109","NA","NA","2","legacy","2","1024","2","48000","-16","experiment","1","odd","9","591964","29939","588690","589758","2306","126859","589759","545519","2318","103567","595074","590760","593965","NA","593965","NA","Sternberg task","87","72163","89","yes","1024"
"97.77777777777777","97.77777777777777","810.0666666666667","810.0666666666667","black","experiment","legacy","legacy","legacy","0","uniform","1","undefined","1","left","89","0","89","89","0","0","89","89","0","0","89","89","89","NA","89","0","Mon Oct 11 20:46:27 2021","The main experiment item","yes","Sternbergtask.osexp","C:/Users/warne/OneDrive/Documents/Tarleton - MS Applied Psychology/Adv Quantitative Methods and Experimental Design/Labs","no","mono","no","18","no","white","no","yes","768","legacy","77","11","C:/Users/warne/OneDrive/Documents/Tarleton - MS Applied Psychology/Adv Quantitative Methods and Experimental Design/Labs/AWV-subject-1.csv","legacy","9 1 6 7 8","Lentiform Loewenfeld","3.3.9","1","y","0","left","left","left","left","NA","NA","743","27620","23291","743","NA","NA","2","legacy","5","1024","2","48000","-16","experiment","1","odd","9","598355","29939","595079","596148","2306","126859","596150","545519","2318","103567","601100","597151","600356","NA","600356","NA","Sternberg task","88","72906","90","yes","1024"
"97.8021978021978","97.8021978021978","806.8461538461538","806.8461538461538","black","experiment","legacy","legacy","legacy","0","uniform","1","undefined","1","left","90","0","90","90","0","0","90","90","0","0","90","90","90","NA","90","0","Mon Oct 11 20:46:27 2021","The main experiment item","yes","Sternbergtask.osexp","C:/Users/warne/OneDrive/Documents/Tarleton - MS Applied Psychology/Adv Quantitative Methods and Experimental Design/Labs","no","mono","no","18","no","white","no","yes","768","legacy","78","11","C:/Users/warne/OneDrive/Documents/Tarleton - MS Applied Psychology/Adv Quantitative Methods and Experimental Design/Labs/AWV-subject-1.csv","legacy","2 4 8 5 1 3","Lentiform Loewenfeld","3.3.9","1","y","0","left","left","left","left","NA","NA","517","27620","23291","517","NA","NA","2","legacy","6","1024","2","48000","-16","experiment","1","odd","2","604375","29939","601104","602171","2306","126859","602172","545519","2318","103567","606893","603173","606376","NA","606376","NA","Sternberg task","89","73423","91","yes","1024"
"97.82608695652173","97.82608695652173","804.5760869565217","804.5760869565217","black","experiment","legacy","legacy","legacy","0","uniform","1","undefined","1","right","91","0","91","91","0","0","91","91","0","0","91","91","91","NA","91","0","Mon Oct 11 20:46:27 2021","The main experiment item","yes","Sternbergtask.osexp","C:/Users/warne/OneDrive/Documents/Tarleton - MS Applied Psychology/Adv Quantitative Methods and Experimental Design/Labs","no","mono","no","18","no","white","no","yes","768","legacy","79","11","C:/Users/warne/OneDrive/Documents/Tarleton - MS Applied Psychology/Adv Quantitative Methods and Experimental Design/Labs/AWV-subject-1.csv","legacy","7 1","Lentiform Loewenfeld","3.3.9","0","n","0","right","left","left","right","NA","NA","598","27620","23291","598","NA","NA","2","legacy","2","1024","2","48000","-16","experiment","1","odd","8","610173","29939","606898","607967","2306","126859","607968","545519","2318","103567","612774","608969","612175","NA","612175","NA","Sternberg task","90","74021","92","yes","1024"
"97.84946236559139","97.84946236559139","811.1290322580645","811.1290322580645","black","experiment","legacy","legacy","legacy","0","uniform","1","undefined","1","right","92","0","92","92","0","0","92","92","0","0","92","92","92","NA","92","0","Mon Oct 11 20:46:27 2021","The main experiment item","yes","Sternbergtask.osexp","C:/Users/warne/OneDrive/Documents/Tarleton - MS Applied Psychology/Adv Quantitative Methods and Experimental Design/Labs","no","mono","no","18","no","white","no","yes","768","legacy","80","11","C:/Users/warne/OneDrive/Documents/Tarleton - MS Applied Psychology/Adv Quantitative Methods and Experimental Design/Labs/AWV-subject-1.csv","legacy","1 4 9 2 5","Lentiform Loewenfeld","3.3.9","0","n","0","right","left","left","right","NA","NA","1414","27620","23291","1414","NA","NA","2","legacy","5","1024","2","48000","-16","experiment","1","odd","7","616050","29939","612779","613846","2306","126859","613848","545519","2318","103567","619466","614849","618051","NA","618051","NA","Sternberg task","91","75435","93","yes","1024"
"97.87234042553192","97.87234042553192","807.2340425531914","807.2340425531914","black","experiment","legacy","legacy","legacy","0","uniform","1","undefined","1","left","93","0","93","93","0","0","93","93","0","0","93","93","93","NA","93","0","Mon Oct 11 20:46:27 2021","The main experiment item","yes","Sternbergtask.osexp","C:/Users/warne/OneDrive/Documents/Tarleton - MS Applied Psychology/Adv Quantitative Methods and Experimental Design/Labs","no","mono","no","18","no","white","no","yes","768","legacy","81","11","C:/Users/warne/OneDrive/Documents/Tarleton - MS Applied Psychology/Adv Quantitative Methods and Experimental Design/Labs/AWV-subject-1.csv","legacy","6 2","Lentiform Loewenfeld","3.3.9","1","y","0","left","left","left","left","NA","NA","445","27620","23291","445","NA","NA","2","legacy","2","1024","2","48000","-16","experiment","1","odd","6","622747","29939","619470","620538","2306","126859","620539","545519","2318","103567","625194","621543","624748","NA","624748","NA","Sternberg task","92","75880","94","yes","1024"
"97.89473684210526","97.89473684210526","806.8315789473684","806.8315789473684","black","experiment","legacy","legacy","legacy","0","uniform","1","undefined","1","right","94","0","94","94","0","0","94","94","0","0","94","94","94","NA","94","0","Mon Oct 11 20:46:27 2021","The main experiment item","yes","Sternbergtask.osexp","C:/Users/warne/OneDrive/Documents/Tarleton - MS Applied Psychology/Adv Quantitative Methods and Experimental Design/Labs","no","mono","no","18","no","white","no","yes","768","legacy","82","11","C:/Users/warne/OneDrive/Documents/Tarleton - MS Applied Psychology/Adv Quantitative Methods and Experimental Design/Labs/AWV-subject-1.csv","legacy","8 4 3 5","Lentiform Loewenfeld","3.3.9","0","n","0","right","left","left","right","NA","NA","769","27620","23291","769","NA","NA","2","legacy","4","1024","2","48000","-16","experiment","1","odd","6","628484","29939","625209","626277","2306","126859","626279","545519","2318","103567","631254","627280","630485","NA","630485","NA","Sternberg task","93","76649","95","yes","1024"
