"acc","accuracy","average_response_time","avg_rt","background","block","canvas_backend","clock_backend","color_backend","correct","correct_instruction1","correct_new_keyboard_response","correct_response","count_ISI","count_correctFeedback","count_expSequence","count_experiment","count_experimentLoop","count_fixation","count_incorrectFeedback","count_instruction1","count_instructions2","count_memorySet","count_new_keyboard_response","count_new_logger","count_practiceLoop","count_probe","count_thankYou","datetime","description","disable_garbage_collection","experiment_file","experiment_path","font_bold","font_family","font_italic","font_size","font_underline","foreground","form_clicks","fullscreen","height","keyboard_backend","live_row","live_row_practiceLoop","logfile","mouse_backend","numberSet","opensesame_codename","opensesame_version","posInSet","present","repeat_cycle","response","response_instruction1","response_instructions2","response_new_keyboard_response","response_thankYou","response_time","response_time_instruction1","response_time_instructions2","response_time_new_keyboard_response","response_time_thankYou","round_decimals","sampler_backend","setSize","sound_buf_size","sound_channels","sound_freq","sound_sample_size","start","subject_nr","subject_parity","target","time_ISI","time_correctFeedback","time_expSequence","time_experiment","time_experimentLoop","time_fixation","time_incorrectFeedback","time_instruction1","time_instructions2","time_memorySet","time_new_keyboard_response","time_new_logger","time_practiceLoop","time_probe","time_thankYou","title","total_correct","total_response_time","total_responses","width"
"0","0","2000","2000","#3d3846","practice","legacy","legacy","legacy","0","undefined","0","left","0","0","0","0","0","0","0","0","0","0","0","0","0","0","0","Thu Oct 19 21:17:40 2023","The main experiment item","False","SternbergTask.osexp","/Users/xaleyelyse/Desktop","False","mono","False","18","no","white","no","yes","768","legacy","0","0","/Users/xaleyelyse/Downloads/XWsubject_2.csv","legacy","6","Melodramatic Milgram","4.0.5","1","y","0","None","left","NA","None","NA","2000.0","6164","NA","2000","NA","2","legacy","1","1024","2","48000","-16","experiment","2","even","6","10944","NA","8733","2129","NA","8738","NA","2194","NA","9741","12946","14946","8371","12946","NA","Sternberg Task","0","2000.0","1","1024"
"0","0","7737","7737","#3d3846","practice","legacy","legacy","legacy","0","undefined","0","left","1","1","1","0","0","1","1","0","0","1","1","1","0","1","0","Thu Oct 19 21:17:40 2023","The main experiment item","False","SternbergTask.osexp","/Users/xaleyelyse/Desktop","False","mono","False","18","no","white","no","yes","768","legacy","1","1","/Users/xaleyelyse/Downloads/XWsubject_2.csv","legacy","1 5 2 9","Melodramatic Milgram","4.0.5","2","y","0","None","left","NA","None","NA","13474.0","6164","NA","13474","NA","2","legacy","4","1024","2","48000","-16","experiment","2","even","5","18214","NA","16009","2129","NA","16010","14971","2194","NA","17012","20217","33691","8371","20217","NA","Sternberg Task","0","15474.0","2","1024"
"33","33","5398","5398","#3d3846","practice","legacy","legacy","legacy","1","undefined","1","left","2","2","2","0","0","2","2","0","0","2","2","2","0","2","0","Thu Oct 19 21:17:40 2023","The main experiment item","False","SternbergTask.osexp","/Users/xaleyelyse/Desktop","False","mono","False","18","no","white","no","yes","768","legacy","2","2","/Users/xaleyelyse/Downloads/XWsubject_2.csv","legacy","2 9 4","Melodramatic Milgram","4.0.5","3","y","0","left","left","NA","left","NA","722.0","6164","NA","722","NA","2","legacy","3","1024","2","48000","-16","experiment","2","even","4","36933","NA","34727","2129","NA","34729","33698","2194","NA","35731","38935","39657","8371","38935","NA","Sternberg Task","1","16196.0","3","1024"
"50","50","4288","4288","#3d3846","practice","legacy","legacy","legacy","1","undefined","1","left","3","3","3","0","0","3","3","0","0","3","3","3","0","3","0","Thu Oct 19 21:17:40 2023","The main experiment item","False","SternbergTask.osexp","/Users/xaleyelyse/Desktop","False","mono","False","18","no","white","no","yes","768","legacy","3","3","/Users/xaleyelyse/Downloads/XWsubject_2.csv","legacy","1 7 9 8 5","Melodramatic Milgram","4.0.5","4","y","0","left","left","NA","left","NA","958.0","6164","NA","958","NA","2","legacy","5","1024","2","48000","-16","experiment","2","even","8","42905","39661","40698","2129","NA","40700","33698","2194","NA","41702","44907","45868","8371","44907","NA","Sternberg Task","2","17154.0","4","1024"
"60","60","3527","3527","#3d3846","practice","legacy","legacy","legacy","1","undefined","1","right","4","4","4","0","0","4","4","0","0","4","4","4","0","4","0","Thu Oct 19 21:17:40 2023","The main experiment item","False","SternbergTask.osexp","/Users/xaleyelyse/Desktop","False","mono","False","18","no","white","no","yes","768","legacy","4","4","/Users/xaleyelyse/Downloads/XWsubject_2.csv","legacy","5 7 8 4 1 2","Melodramatic Milgram","4.0.5","0","n","0","right","left","NA","right","NA","483.0","6164","NA","483","NA","2","legacy","6","1024","2","48000","-16","experiment","2","even","6","49113","45871","46907","2129","NA","46909","33698","2194","NA","47911","51116","51599","8371","51116","NA","Sternberg Task","3","17637.0","5","1024"
"66","66","3056","3056","#3d3846","practice","legacy","legacy","legacy","1","undefined","1","left","5","5","5","0","0","5","5","0","0","5","5","5","0","5","0","Thu Oct 19 21:17:40 2023","The main experiment item","False","SternbergTask.osexp","/Users/xaleyelyse/Desktop","False","mono","False","18","no","white","no","yes","768","legacy","5","5","/Users/xaleyelyse/Downloads/XWsubject_2.csv","legacy","4 3 1 7 9 8","Melodramatic Milgram","4.0.5","1","y","0","left","left","NA","left","NA","701.0","6164","NA","701","NA","2","legacy","6","1024","2","48000","-16","experiment","2","even","4","54846","51603","52640","2129","NA","52642","33698","2194","NA","53644","56849","57551","8371","56849","NA","Sternberg Task","4","18338.0","6","1024"
"71","71","2715","2715","#3d3846","practice","legacy","legacy","legacy","1","undefined","1","right","6","6","6","0","0","6","6","0","0","6","6","6","0","6","0","Thu Oct 19 21:17:40 2023","The main experiment item","False","SternbergTask.osexp","/Users/xaleyelyse/Desktop","False","mono","False","18","no","white","no","yes","768","legacy","6","6","/Users/xaleyelyse/Downloads/XWsubject_2.csv","legacy","3 1 9 4","Melodramatic Milgram","4.0.5","0","n","0","right","left","NA","right","NA","667.0","6164","NA","667","NA","2","legacy","4","1024","2","48000","-16","experiment","2","even","6","60797","57553","58590","2129","NA","58593","33698","2194","NA","59595","62800","63467","8371","62800","NA","Sternberg Task","5","19005.0","7","1024"
"75","75","2439","2439","#3d3846","practice","legacy","legacy","legacy","1","undefined","1","right","7","7","7","0","0","7","7","0","0","7","7","7","0","7","0","Thu Oct 19 21:17:40 2023","The main experiment item","False","SternbergTask.osexp","/Users/xaleyelyse/Desktop","False","mono","False","18","no","white","no","yes","768","legacy","7","7","/Users/xaleyelyse/Downloads/XWsubject_2.csv","legacy","2 1","Melodramatic Milgram","4.0.5","0","n","0","right","left","NA","right","NA","509.0","6164","NA","509","NA","2","legacy","2","1024","2","48000","-16","experiment","2","even","5","66713","63469","64506","2129","NA","64509","33698","2194","NA","65511","68716","69225","8371","68716","NA","Sternberg Task","6","19514.0","8","1024"
"77","77","2200","2200","#3d3846","practice","legacy","legacy","legacy","1","undefined","1","left","8","8","8","0","0","8","8","0","0","8","8","8","0","8","0","Thu Oct 19 21:17:40 2023","The main experiment item","False","SternbergTask.osexp","/Users/xaleyelyse/Desktop","False","mono","False","18","no","white","no","yes","768","legacy","8","8","/Users/xaleyelyse/Downloads/XWsubject_2.csv","legacy","4 8","Melodramatic Milgram","4.0.5","1","y","0","left","left","NA","left","NA","291.0","6164","NA","291","NA","2","legacy","2","1024","2","48000","-16","experiment","2","even","4","72477","69228","70271","2129","NA","70273","33698","2194","NA","71275","74479","74771","8371","74479","NA","Sternberg Task","7","19805.0","9","1024"
"80","80","2032","2032","#3d3846","practice","legacy","legacy","legacy","1","undefined","1","right","9","9","9","0","0","9","9","0","0","9","9","9","0","9","0","Thu Oct 19 21:17:40 2023","The main experiment item","False","SternbergTask.osexp","/Users/xaleyelyse/Desktop","False","mono","False","18","no","white","no","yes","768","legacy","9","9","/Users/xaleyelyse/Downloads/XWsubject_2.csv","legacy","9 6 7 4 5","Melodramatic Milgram","4.0.5","0","n","0","right","left","NA","right","NA","524.0","6164","NA","524","NA","2","legacy","5","1024","2","48000","-16","experiment","2","even","3","78010","74774","75803","2129","NA","75805","33698","2194","NA","76807","80012","80537","8371","80012","NA","Sternberg Task","8","20329.0","10","1024"
"81","81","1894","1894","#3d3846","practice","legacy","legacy","legacy","1","undefined","1","right","10","10","10","0","0","10","10","0","0","10","10","10","0","10","0","Thu Oct 19 21:17:40 2023","The main experiment item","False","SternbergTask.osexp","/Users/xaleyelyse/Desktop","False","mono","False","18","no","white","no","yes","768","legacy","10","10","/Users/xaleyelyse/Downloads/XWsubject_2.csv","legacy","4 1 5","Melodramatic Milgram","4.0.5","0","n","0","right","left","NA","right","NA","509.0","6164","NA","509","NA","2","legacy","3","1024","2","48000","-16","experiment","2","even","2","83779","80540","81571","2129","NA","81574","33698","2194","NA","82575","85782","86292","8371","85781","NA","Sternberg Task","9","20838.0","11","1024"
"83","83","1773","1773","#3d3846","practice","legacy","legacy","legacy","1","undefined","1","right","11","11","11","0","0","11","11","0","0","11","11","11","0","11","0","Thu Oct 19 21:17:40 2023","The main experiment item","False","SternbergTask.osexp","/Users/xaleyelyse/Desktop","False","mono","False","18","no","white","no","yes","768","legacy","11","11","/Users/xaleyelyse/Downloads/XWsubject_2.csv","legacy","5","Melodramatic Milgram","4.0.5","0","n","0","right","left","NA","right","NA","449.0","6164","NA","449","NA","2","legacy","1","1024","2","48000","-16","experiment","2","even","3","89537","86295","87330","2129","NA","87333","33698","2194","NA","88334","91540","91990","8371","91539","NA","Sternberg Task","10","21287.0","12","1024"
"84","84","1672","1672","#3d3846","experiment","legacy","legacy","legacy","1","undefined","1","left","12","12","12","0","0","12","12","0","0","12","12","12","0","12","0","Thu Oct 19 21:17:40 2023","The main experiment item","False","SternbergTask.osexp","/Users/xaleyelyse/Desktop","False","mono","False","18","no","white","no","yes","768","legacy","0","11","/Users/xaleyelyse/Downloads/XWsubject_2.csv","legacy","6 9 7 4 5 1","Melodramatic Milgram","4.0.5","2","y","0","left","left","left","left","NA","459.0","6164","4969","459","NA","2","legacy","6","1024","2","48000","-16","experiment","2","even","9","100221","91993","98014","2129","97965","98016","33698","2194","92996","99019","102223","102683","8371","102223","NA","Sternberg Task","11","21746.0","13","1024"
"85","85","1582","1582","#3d3846","experiment","legacy","legacy","legacy","1","undefined","1","left","13","13","13","0","0","13","13","0","0","13","13","13","0","13","0","Thu Oct 19 21:17:40 2023","The main experiment item","False","SternbergTask.osexp","/Users/xaleyelyse/Desktop","False","mono","False","18","no","white","no","yes","768","legacy","1","11","/Users/xaleyelyse/Downloads/XWsubject_2.csv","legacy","7","Melodramatic Milgram","4.0.5","1","y","0","left","left","left","left","NA","404.0","6164","4969","404","NA","2","legacy","1","1024","2","48000","-16","experiment","2","even","7","105922","102686","103715","2129","97965","103717","33698","2194","92996","104719","107924","108329","8371","107924","NA","Sternberg Task","12","22150.0","14","1024"
"86","86","1515","1515","#3d3846","experiment","legacy","legacy","legacy","1","undefined","1","left","14","14","14","0","0","14","14","0","0","14","14","14","0","14","0","Thu Oct 19 21:17:40 2023","The main experiment item","False","SternbergTask.osexp","/Users/xaleyelyse/Desktop","False","mono","False","18","no","white","no","yes","768","legacy","2","11","/Users/xaleyelyse/Downloads/XWsubject_2.csv","legacy","5 7 3 6 2","Melodramatic Milgram","4.0.5","5","y","0","left","left","left","left","NA","583.0","6164","4969","583","NA","2","legacy","5","1024","2","48000","-16","experiment","2","even","2","111574","108331","109366","2129","97965","109368","33698","2194","92996","110370","113576","114160","8371","113576","NA","Sternberg Task","13","22733.0","15","1024"
"87","87","1458","1458","#3d3846","experiment","legacy","legacy","legacy","1","undefined","1","right","15","15","15","0","0","15","15","0","0","15","15","15","0","15","0","Thu Oct 19 21:17:40 2023","The main experiment item","False","SternbergTask.osexp","/Users/xaleyelyse/Desktop","False","mono","False","18","no","white","no","yes","768","legacy","3","11","/Users/xaleyelyse/Downloads/XWsubject_2.csv","legacy","1 4 9 2 5","Melodramatic Milgram","4.0.5","0","n","0","right","left","left","right","NA","595.0","6164","4969","595","NA","2","legacy","5","1024","2","48000","-16","experiment","2","even","7","117410","114162","115202","2129","97965","115204","33698","2194","92996","116206","119415","120010","8371","119415","NA","Sternberg Task","14","23328.0","16","1024"
"88","88","1405","1405","#3d3846","experiment","legacy","legacy","legacy","1","undefined","1","right","16","16","16","0","0","16","16","0","0","16","16","16","0","16","0","Thu Oct 19 21:17:40 2023","The main experiment item","False","SternbergTask.osexp","/Users/xaleyelyse/Desktop","False","mono","False","18","no","white","no","yes","768","legacy","4","11","/Users/xaleyelyse/Downloads/XWsubject_2.csv","legacy","2 8 6 3 1","Melodramatic Milgram","4.0.5","0","n","0","right","left","left","right","NA","570.0","6164","4969","570","NA","2","legacy","5","1024","2","48000","-16","experiment","2","even","7","123248","120013","121042","2129","97965","121044","33698","2194","92996","122046","125251","125822","8371","125251","NA","Sternberg Task","15","23898.0","17","1024"
"88","88","1360","1360","#3d3846","experiment","legacy","legacy","legacy","1","undefined","1","right","17","17","17","0","0","17","17","0","0","17","17","17","0","17","0","Thu Oct 19 21:17:40 2023","The main experiment item","False","SternbergTask.osexp","/Users/xaleyelyse/Desktop","False","mono","False","18","no","white","no","yes","768","legacy","5","11","/Users/xaleyelyse/Downloads/XWsubject_2.csv","legacy","8 5 7 3 6","Melodramatic Milgram","4.0.5","0","n","0","right","left","left","right","NA","583.0","6164","4969","583","NA","2","legacy","5","1024","2","48000","-16","experiment","2","even","9","129065","125825","126858","2129","97965","126860","33698","2194","92996","127862","131067","131651","8371","131067","NA","Sternberg Task","16","24481.0","18","1024"
"89","89","1314","1314","#3d3846","experiment","legacy","legacy","legacy","1","undefined","1","left","18","18","18","0","0","18","18","0","0","18","18","18","0","18","0","Thu Oct 19 21:17:40 2023","The main experiment item","False","SternbergTask.osexp","/Users/xaleyelyse/Desktop","False","mono","False","18","no","white","no","yes","768","legacy","6","11","/Users/xaleyelyse/Downloads/XWsubject_2.csv","legacy","6 9 3 1","Melodramatic Milgram","4.0.5","4","y","0","left","left","left","left","NA","485.0","6164","4969","485","NA","2","legacy","4","1024","2","48000","-16","experiment","2","even","1","134898","131654","132689","2129","97965","132691","33698","2194","92996","133694","136901","137386","8371","136900","NA","Sternberg Task","17","24966.0","19","1024"
"90","90","1269","1269","#3d3846","experiment","legacy","legacy","legacy","1","undefined","1","right","19","19","19","0","0","19","19","0","0","19","19","19","0","19","0","Thu Oct 19 21:17:40 2023","The main experiment item","False","SternbergTask.osexp","/Users/xaleyelyse/Desktop","False","mono","False","18","no","white","no","yes","768","legacy","7","11","/Users/xaleyelyse/Downloads/XWsubject_2.csv","legacy","2 5 1 4","Melodramatic Milgram","4.0.5","0","n","0","right","left","left","right","NA","414.0","6164","4969","414","NA","2","legacy","4","1024","2","48000","-16","experiment","2","even","6","140635","137389","138428","2129","97965","138430","33698","2194","92996","139432","142637","143052","8371","142637","NA","Sternberg Task","18","25380.0","20","1024"
"90","90","1232","1232","#3d3846","experiment","legacy","legacy","legacy","1","undefined","1","right","20","20","20","0","0","20","20","0","0","20","20","20","0","20","0","Thu Oct 19 21:17:40 2023","The main experiment item","False","SternbergTask.osexp","/Users/xaleyelyse/Desktop","False","mono","False","18","no","white","no","yes","768","legacy","8","11","/Users/xaleyelyse/Downloads/XWsubject_2.csv","legacy","3 4 2","Melodramatic Milgram","4.0.5","0","n","0","right","left","left","right","NA","492.0","6164","4969","492","NA","2","legacy","3","1024","2","48000","-16","experiment","2","even","5","146303","143055","144095","2129","97965","144097","33698","2194","92996","145099","148305","148797","8371","148305","NA","Sternberg Task","19","25872.0","21","1024"
"90","90","1202","1202","#3d3846","experiment","legacy","legacy","legacy","1","undefined","1","left","21","21","21","0","0","21","21","0","0","21","21","21","0","21","0","Thu Oct 19 21:17:40 2023","The main experiment item","False","SternbergTask.osexp","/Users/xaleyelyse/Desktop","False","mono","False","18","no","white","no","yes","768","legacy","9","11","/Users/xaleyelyse/Downloads/XWsubject_2.csv","legacy","4 6 5 8","Melodramatic Milgram","4.0.5","1","y","0","left","left","left","left","NA","572.0","6164","4969","572","NA","2","legacy","4","1024","2","48000","-16","experiment","2","even","4","152057","148801","149849","2129","97965","149851","33698","2194","92996","150854","154059","154632","8371","154059","NA","Sternberg Task","20","26444.0","22","1024"
"91","91","1174","1174","#3d3846","experiment","legacy","legacy","legacy","1","undefined","1","right","22","22","22","0","0","22","22","0","0","22","22","22","0","22","0","Thu Oct 19 21:17:40 2023","The main experiment item","False","SternbergTask.osexp","/Users/xaleyelyse/Desktop","False","mono","False","18","no","white","no","yes","768","legacy","10","11","/Users/xaleyelyse/Downloads/XWsubject_2.csv","legacy","6 2 9 3 8 4","Melodramatic Milgram","4.0.5","0","n","0","right","left","left","right","NA","572.0","6164","4969","572","NA","2","legacy","6","1024","2","48000","-16","experiment","2","even","1","157871","154635","155665","2129","97965","155667","33698","2194","92996","156669","159874","160446","8371","159874","NA","Sternberg Task","21","27016.0","23","1024"
"91","91","1143","1143","#3d3846","experiment","legacy","legacy","legacy","1","undefined","1","left","23","23","23","0","0","23","23","0","0","23","23","23","0","23","0","Thu Oct 19 21:17:40 2023","The main experiment item","False","SternbergTask.osexp","/Users/xaleyelyse/Desktop","False","mono","False","18","no","white","no","yes","768","legacy","11","11","/Users/xaleyelyse/Downloads/XWsubject_2.csv","legacy","3 5 9 6 2 4","Melodramatic Milgram","4.0.5","1","y","0","left","left","left","left","NA","434.0","6164","4969","434","NA","2","legacy","6","1024","2","48000","-16","experiment","2","even","3","163690","160449","161483","2129","97965","161485","33698","2194","92996","162487","165692","166126","8371","165692","NA","Sternberg Task","22","27450.0","24","1024"
"92","92","1132","1132","#3d3846","experiment","legacy","legacy","legacy","1","undefined","1","left","24","24","24","0","0","24","24","0","0","24","24","24","0","24","0","Thu Oct 19 21:17:40 2023","The main experiment item","False","SternbergTask.osexp","/Users/xaleyelyse/Desktop","False","mono","False","18","no","white","no","yes","768","legacy","12","11","/Users/xaleyelyse/Downloads/XWsubject_2.csv","legacy","3 4 9 6 2 9","Melodramatic Milgram","4.0.5","5","y","0","left","left","left","left","NA","863.0","6164","4969","863","NA","2","legacy","6","1024","2","48000","-16","experiment","2","even","2","169373","166129","167166","2129","97965","167169","33698","2194","92996","168171","171376","172240","8371","171376","NA","Sternberg Task","23","28313.0","25","1024"
"92","92","1112","1112","#3d3846","experiment","legacy","legacy","legacy","1","undefined","1","left","25","25","25","0","0","25","25","0","0","25","25","25","0","25","0","Thu Oct 19 21:17:40 2023","The main experiment item","False","SternbergTask.osexp","/Users/xaleyelyse/Desktop","False","mono","False","18","no","white","no","yes","768","legacy","13","11","/Users/xaleyelyse/Downloads/XWsubject_2.csv","legacy","8 5 3 7 4 6","Melodramatic Milgram","4.0.5","6","y","0","left","left","left","left","NA","601.0","6164","4969","601","NA","2","legacy","6","1024","2","48000","-16","experiment","2","even","6","175491","172243","173280","2129","97965","173285","33698","2194","92996","174288","177494","178096","8371","177494","NA","Sternberg Task","24","28914.0","26","1024"
"92","92","1088","1088","#3d3846","experiment","legacy","legacy","legacy","1","undefined","1","left","26","26","26","0","0","26","26","0","0","26","26","26","0","26","0","Thu Oct 19 21:17:40 2023","The main experiment item","False","SternbergTask.osexp","/Users/xaleyelyse/Desktop","False","mono","False","18","no","white","no","yes","768","legacy","14","11","/Users/xaleyelyse/Downloads/XWsubject_2.csv","legacy","7 6","Melodramatic Milgram","4.0.5","2","y","0","left","left","left","left","NA","472.0","6164","4969","472","NA","2","legacy","2","1024","2","48000","-16","experiment","2","even","6","181347","178098","179137","2129","97965","179140","33698","2194","92996","180143","183350","183823","8371","183350","NA","Sternberg Task","25","29386.0","27","1024"
"92","92","1063","1063","#3d3846","experiment","legacy","legacy","legacy","1","undefined","1","right","27","27","27","0","0","27","27","0","0","27","27","27","0","27","0","Thu Oct 19 21:17:40 2023","The main experiment item","False","SternbergTask.osexp","/Users/xaleyelyse/Desktop","False","mono","False","18","no","white","no","yes","768","legacy","15","11","/Users/xaleyelyse/Downloads/XWsubject_2.csv","legacy","7 1","Melodramatic Milgram","4.0.5","0","n","0","right","left","left","right","NA","397.0","6164","4969","397","NA","2","legacy","2","1024","2","48000","-16","experiment","2","even","8","187080","183825","184871","2129","97965","184874","33698","2194","92996","185876","189082","189480","8371","189082","NA","Sternberg Task","26","29783.0","28","1024"
"93","93","1040","1040","#3d3846","experiment","legacy","legacy","legacy","1","undefined","1","left","28","28","28","0","0","28","28","0","0","28","28","28","0","28","0","Thu Oct 19 21:17:40 2023","The main experiment item","False","SternbergTask.osexp","/Users/xaleyelyse/Desktop","False","mono","False","18","no","white","no","yes","768","legacy","16","11","/Users/xaleyelyse/Downloads/XWsubject_2.csv","legacy","3 4","Melodramatic Milgram","4.0.5","1","y","0","left","left","left","left","NA","380.0","6164","4969","380","NA","2","legacy","2","1024","2","48000","-16","experiment","2","even","3","192718","189483","190511","2129","97965","190513","33698","2194","92996","191515","194721","195102","8371","194721","NA","Sternberg Task","27","30163.0","29","1024"
"93","93","1018","1018","#3d3846","experiment","legacy","legacy","legacy","1","undefined","1","right","29","29","29","0","0","29","29","0","0","29","29","29","0","29","0","Thu Oct 19 21:17:40 2023","The main experiment item","False","SternbergTask.osexp","/Users/xaleyelyse/Desktop","False","mono","False","18","no","white","no","yes","768","legacy","17","11","/Users/xaleyelyse/Downloads/XWsubject_2.csv","legacy","5","Melodramatic Milgram","4.0.5","0","n","0","right","left","left","right","NA","377.0","6164","4969","377","NA","2","legacy","1","1024","2","48000","-16","experiment","2","even","8","198346","195104","196137","2129","97965","196140","33698","2194","92996","197143","200348","200726","8371","200348","NA","Sternberg Task","28","30540.0","30","1024"
"93","93","1005","1005","#3d3846","experiment","legacy","legacy","legacy","1","undefined","1","left","30","30","30","0","0","30","30","0","0","30","30","30","0","30","0","Thu Oct 19 21:17:40 2023","The main experiment item","False","SternbergTask.osexp","/Users/xaleyelyse/Desktop","False","mono","False","18","no","white","no","yes","768","legacy","18","11","/Users/xaleyelyse/Downloads/XWsubject_2.csv","legacy","7 8 4 6 9 5","Melodramatic Milgram","4.0.5","4","y","0","left","left","left","left","NA","625.0","6164","4969","625","NA","2","legacy","6","1024","2","48000","-16","experiment","2","even","6","203976","200729","201768","2129","97965","201770","33698","2194","92996","202773","205979","206605","8371","205979","NA","Sternberg Task","29","31165.0","31","1024"
"93","93","987","987","#3d3846","experiment","legacy","legacy","legacy","1","undefined","1","left","31","31","31","0","0","31","31","0","0","31","31","31","0","31","0","Thu Oct 19 21:17:40 2023","The main experiment item","False","SternbergTask.osexp","/Users/xaleyelyse/Desktop","False","mono","False","18","no","white","no","yes","768","legacy","19","11","/Users/xaleyelyse/Downloads/XWsubject_2.csv","legacy","8 5 4 7 3 1","Melodramatic Milgram","4.0.5","2","y","0","left","left","left","left","NA","447.0","6164","4969","447","NA","2","legacy","6","1024","2","48000","-16","experiment","2","even","5","209859","206609","207648","2129","97965","207652","33698","2194","92996","208655","211861","212309","8371","211861","NA","Sternberg Task","30","31612.0","32","1024"
"93","93","971","971","#3d3846","experiment","legacy","legacy","legacy","1","undefined","1","right","32","32","32","0","0","32","32","0","0","32","32","32","0","32","0","Thu Oct 19 21:17:40 2023","The main experiment item","False","SternbergTask.osexp","/Users/xaleyelyse/Desktop","False","mono","False","18","no","white","no","yes","768","legacy","20","11","/Users/xaleyelyse/Downloads/XWsubject_2.csv","legacy","9 7 4 5 8","Melodramatic Milgram","4.0.5","0","n","0","right","left","left","right","NA","453.0","6164","4969","453","NA","2","legacy","5","1024","2","48000","-16","experiment","2","even","6","215560","212311","213350","2129","97965","213353","33698","2194","92996","214356","217563","218017","8371","217563","NA","Sternberg Task","31","32065.0","33","1024"
"94","94","961","961","#3d3846","experiment","legacy","legacy","legacy","1","undefined","1","right","33","33","33","0","0","33","33","0","0","33","33","33","0","33","0","Thu Oct 19 21:17:40 2023","The main experiment item","False","SternbergTask.osexp","/Users/xaleyelyse/Desktop","False","mono","False","18","no","white","no","yes","768","legacy","21","11","/Users/xaleyelyse/Downloads/XWsubject_2.csv","legacy","3 9 8 1 6 4","Melodramatic Milgram","4.0.5","0","n","0","right","left","left","right","NA","609.0","6164","4969","609","NA","2","legacy","6","1024","2","48000","-16","experiment","2","even","7","221277","218020","219069","2129","97965","219072","33698","2194","92996","220074","223279","223888","8371","223279","NA","Sternberg Task","32","32674.0","34","1024"
"94","94","945","945","#3d3846","experiment","legacy","legacy","legacy","1","undefined","1","right","34","34","34","0","0","34","34","0","0","34","34","34","0","34","0","Thu Oct 19 21:17:40 2023","The main experiment item","False","SternbergTask.osexp","/Users/xaleyelyse/Desktop","False","mono","False","18","no","white","no","yes","768","legacy","22","11","/Users/xaleyelyse/Downloads/XWsubject_2.csv","legacy","9","Melodramatic Milgram","4.0.5","0","n","0","right","left","left","right","NA","430.0","6164","4969","430","NA","2","legacy","1","1024","2","48000","-16","experiment","2","even","6","227128","223891","224920","2129","97965","224922","33698","2194","92996","225925","229131","229562","8371","229131","NA","Sternberg Task","33","33104.0","35","1024"
"94","94","929","929","#3d3846","experiment","legacy","legacy","legacy","1","undefined","1","left","35","35","35","0","0","35","35","0","0","35","35","35","0","35","0","Thu Oct 19 21:17:40 2023","The main experiment item","False","SternbergTask.osexp","/Users/xaleyelyse/Desktop","False","mono","False","18","no","white","no","yes","768","legacy","23","11","/Users/xaleyelyse/Downloads/XWsubject_2.csv","legacy","9 1 7 2","Melodramatic Milgram","4.0.5","2","y","0","left","left","left","left","NA","357.0","6164","4969","357","NA","2","legacy","4","1024","2","48000","-16","experiment","2","even","1","232806","229565","230598","2129","97965","230601","33698","2194","92996","231604","234809","235167","8371","234809","NA","Sternberg Task","34","33461.0","36","1024"
"94","94","919","919","#3d3846","experiment","legacy","legacy","legacy","1","undefined","1","left","36","36","36","0","0","36","36","0","0","36","36","36","0","36","0","Thu Oct 19 21:17:40 2023","The main experiment item","False","SternbergTask.osexp","/Users/xaleyelyse/Desktop","False","mono","False","18","no","white","no","yes","768","legacy","24","11","/Users/xaleyelyse/Downloads/XWsubject_2.csv","legacy","2 5 4 8 7","Melodramatic Milgram","4.0.5","3","y","0","left","left","left","left","NA","546.0","6164","4969","546","NA","2","legacy","5","1024","2","48000","-16","experiment","2","even","4","238418","235170","236207","2129","97965","236211","33698","2194","92996","237214","240421","240968","8371","240421","NA","Sternberg Task","35","34007.0","37","1024"
"94","94","906","906","#3d3846","experiment","legacy","legacy","legacy","1","undefined","1","left","37","37","37","0","0","37","37","0","0","37","37","37","0","37","0","Thu Oct 19 21:17:40 2023","The main experiment item","False","SternbergTask.osexp","/Users/xaleyelyse/Desktop","False","mono","False","18","no","white","no","yes","768","legacy","25","11","/Users/xaleyelyse/Downloads/XWsubject_2.csv","legacy","8 3","Melodramatic Milgram","4.0.5","2","y","0","left","left","left","left","NA","428.0","6164","4969","428","NA","2","legacy","2","1024","2","48000","-16","experiment","2","even","3","244217","240971","242008","2129","97965","242013","33698","2194","92996","243015","246220","246649","8371","246219","NA","Sternberg Task","36","34435.0","38","1024"
"94","94","895","895","#3d3846","experiment","legacy","legacy","legacy","1","undefined","1","left","38","38","38","0","0","38","38","0","0","38","38","38","0","38","0","Thu Oct 19 21:17:40 2023","The main experiment item","False","SternbergTask.osexp","/Users/xaleyelyse/Desktop","False","mono","False","18","no","white","no","yes","768","legacy","26","11","/Users/xaleyelyse/Downloads/XWsubject_2.csv","legacy","8 5 1 3 9","Melodramatic Milgram","4.0.5","4","y","0","left","left","left","left","NA","491.0","6164","4969","491","NA","2","legacy","5","1024","2","48000","-16","experiment","2","even","3","249897","246652","247690","2129","97965","247693","33698","2194","92996","248695","251899","252390","8371","251899","NA","Sternberg Task","37","34926.0","39","1024"
"95","95","890","890","#3d3846","experiment","legacy","legacy","legacy","1","undefined","1","right","39","39","39","0","0","39","39","0","0","39","39","39","0","39","0","Thu Oct 19 21:17:40 2023","The main experiment item","False","SternbergTask.osexp","/Users/xaleyelyse/Desktop","False","mono","False","18","no","white","no","yes","768","legacy","27","11","/Users/xaleyelyse/Downloads/XWsubject_2.csv","legacy","1 6 4 3 9 7","Melodramatic Milgram","4.0.5","0","n","0","right","left","left","right","NA","712.0","6164","4969","712","NA","2","legacy","6","1024","2","48000","-16","experiment","2","even","8","255651","252393","253441","2129","97965","253445","33698","2194","92996","254448","257653","258366","8371","257653","NA","Sternberg Task","38","35638.0","40","1024"
"95","95","883","883","#3d3846","experiment","legacy","legacy","legacy","1","undefined","1","left","40","40","40","0","0","40","40","0","0","40","40","40","0","40","0","Thu Oct 19 21:17:40 2023","The main experiment item","False","SternbergTask.osexp","/Users/xaleyelyse/Desktop","False","mono","False","18","no","white","no","yes","768","legacy","28","11","/Users/xaleyelyse/Downloads/XWsubject_2.csv","legacy","8 9 5 6 7","Melodramatic Milgram","4.0.5","1","y","0","left","left","left","left","NA","589.0","6164","4969","589","NA","2","legacy","5","1024","2","48000","-16","experiment","2","even","8","261604","258369","259398","2129","97965","259400","33698","2194","92996","260402","263606","264196","8371","263606","NA","Sternberg Task","39","36227.0","41","1024"
"95","95","874","874","#3d3846","experiment","legacy","legacy","legacy","1","undefined","1","left","41","41","41","0","0","41","41","0","0","41","41","41","0","41","0","Thu Oct 19 21:17:40 2023","The main experiment item","False","SternbergTask.osexp","/Users/xaleyelyse/Desktop","False","mono","False","18","no","white","no","yes","768","legacy","29","11","/Users/xaleyelyse/Downloads/XWsubject_2.csv","legacy","4 3 2 5 8","Melodramatic Milgram","4.0.5","2","y","0","left","left","left","left","NA","484.0","6164","4969","484","NA","2","legacy","5","1024","2","48000","-16","experiment","2","even","3","267442","264200","265233","2129","97965","265236","33698","2194","92996","266238","269445","269930","8371","269445","NA","Sternberg Task","40","36711.0","42","1024"
"95","95","865","865","#3d3846","experiment","legacy","legacy","legacy","1","undefined","1","left","42","42","42","0","0","42","42","0","0","42","42","42","0","42","0","Thu Oct 19 21:17:40 2023","The main experiment item","False","SternbergTask.osexp","/Users/xaleyelyse/Desktop","False","mono","False","18","no","white","no","yes","768","legacy","30","11","/Users/xaleyelyse/Downloads/XWsubject_2.csv","legacy","5 7 8 2 3 8","Melodramatic Milgram","4.0.5","5","y","0","left","left","left","left","NA","496.0","6164","4969","496","NA","2","legacy","6","1024","2","48000","-16","experiment","2","even","3","273182","269933","270970","2129","97965","270976","33698","2194","92996","271978","275184","275681","8371","275184","NA","Sternberg Task","41","37207.0","43","1024"
"95","95","856","856","#3d3846","experiment","legacy","legacy","legacy","1","undefined","1","left","43","43","43","0","0","43","43","0","0","43","43","43","0","43","0","Thu Oct 19 21:17:40 2023","The main experiment item","False","SternbergTask.osexp","/Users/xaleyelyse/Desktop","False","mono","False","18","no","white","no","yes","768","legacy","31","11","/Users/xaleyelyse/Downloads/XWsubject_2.csv","legacy","9 1 6 7 8","Melodramatic Milgram","4.0.5","1","y","0","left","left","left","left","NA","477.0","6164","4969","477","NA","2","legacy","5","1024","2","48000","-16","experiment","2","even","9","278933","275683","276722","2129","97965","276726","33698","2194","92996","277729","280937","281415","8371","280937","NA","Sternberg Task","42","37684.0","44","1024"
"95","95","846","846","#3d3846","experiment","legacy","legacy","legacy","1","undefined","1","left","44","44","44","0","0","44","44","0","0","44","44","44","0","44","0","Thu Oct 19 21:17:40 2023","The main experiment item","False","SternbergTask.osexp","/Users/xaleyelyse/Desktop","False","mono","False","18","no","white","no","yes","768","legacy","32","11","/Users/xaleyelyse/Downloads/XWsubject_2.csv","legacy","4 1 8 7 5","Melodramatic Milgram","4.0.5","3","y","0","left","left","left","left","NA","407.0","6164","4969","407","NA","2","legacy","5","1024","2","48000","-16","experiment","2","even","8","284662","281419","282453","2129","97965","282456","33698","2194","92996","283458","286664","287072","8371","286664","NA","Sternberg Task","43","38091.0","45","1024"
"95","95","841","841","#3d3846","experiment","legacy","legacy","legacy","1","undefined","1","right","45","45","45","0","0","45","45","0","0","45","45","45","0","45","0","Thu Oct 19 21:17:40 2023","The main experiment item","False","SternbergTask.osexp","/Users/xaleyelyse/Desktop","False","mono","False","18","no","white","no","yes","768","legacy","33","11","/Users/xaleyelyse/Downloads/XWsubject_2.csv","legacy","7 4 2 8 1 9","Melodramatic Milgram","4.0.5","0","n","0","right","left","left","right","NA","595.0","6164","4969","595","NA","2","legacy","6","1024","2","48000","-16","experiment","2","even","5","290333","287075","288123","2129","97965","288127","33698","2194","92996","289130","292337","292933","8371","292337","NA","Sternberg Task","44","38686.0","46","1024"
"95","95","833","833","#3d3846","experiment","legacy","legacy","legacy","1","undefined","1","right","46","46","46","0","0","46","46","0","0","46","46","46","0","46","0","Thu Oct 19 21:17:40 2023","The main experiment item","False","SternbergTask.osexp","/Users/xaleyelyse/Desktop","False","mono","False","18","no","white","no","yes","768","legacy","34","11","/Users/xaleyelyse/Downloads/XWsubject_2.csv","legacy","6 7 5 9","Melodramatic Milgram","4.0.5","0","n","0","right","left","left","right","NA","502.0","6164","4969","502","NA","2","legacy","4","1024","2","48000","-16","experiment","2","even","2","296174","292935","293965","2129","97965","293968","33698","2194","92996","294971","298177","298680","8371","298177","NA","Sternberg Task","45","39188.0","47","1024"
"95","95","827","827","#3d3846","experiment","legacy","legacy","legacy","1","undefined","1","left","47","47","47","0","0","47","47","0","0","47","47","47","0","47","0","Thu Oct 19 21:17:40 2023","The main experiment item","False","SternbergTask.osexp","/Users/xaleyelyse/Desktop","False","mono","False","18","no","white","no","yes","768","legacy","35","11","/Users/xaleyelyse/Downloads/XWsubject_2.csv","legacy","1 4 9 3 2 5","Melodramatic Milgram","4.0.5","3","y","0","left","left","left","left","NA","524.0","6164","4969","524","NA","2","legacy","6","1024","2","48000","-16","experiment","2","even","9","301924","298683","299716","2129","97965","299719","33698","2194","92996","300722","303927","304452","8371","303927","NA","Sternberg Task","46","39712.0","48","1024"
"95","95","827","827","#3d3846","experiment","legacy","legacy","legacy","1","undefined","1","right","48","48","48","0","0","48","48","0","0","48","48","48","0","48","0","Thu Oct 19 21:17:40 2023","The main experiment item","False","SternbergTask.osexp","/Users/xaleyelyse/Desktop","False","mono","False","18","no","white","no","yes","768","legacy","36","11","/Users/xaleyelyse/Downloads/XWsubject_2.csv","legacy","6 9 7 3 8 2","Melodramatic Milgram","4.0.5","0","n","0","right","left","left","right","NA","820.0","6164","4969","820","NA","2","legacy","6","1024","2","48000","-16","experiment","2","even","5","307704","304454","305491","2129","97965","305496","33698","2194","92996","306500","309707","310528","8371","309707","NA","Sternberg Task","47","40532.0","49","1024"
"94","94","821","821","#3d3846","experiment","legacy","legacy","legacy","0","undefined","0","right","49","49","49","0","0","49","49","0","0","49","49","49","0","49","0","Thu Oct 19 21:17:40 2023","The main experiment item","False","SternbergTask.osexp","/Users/xaleyelyse/Desktop","False","mono","False","18","no","white","no","yes","768","legacy","37","11","/Users/xaleyelyse/Downloads/XWsubject_2.csv","legacy","4 2 7 6 1 3","Melodramatic Milgram","4.0.5","0","n","0","left","left","left","left","NA","529.0","6164","4969","529","NA","2","legacy","6","1024","2","48000","-16","experiment","2","even","8","313780","310530","311567","2129","97965","311572","33698","2194","92996","312576","315783","316313","8371","315783","NA","Sternberg Task","47","41061.0","50","1024"
"94","94","817","817","#3d3846","experiment","legacy","legacy","legacy","1","undefined","1","right","50","50","50","0","0","50","50","0","0","50","50","50","0","50","0","Thu Oct 19 21:17:40 2023","The main experiment item","False","SternbergTask.osexp","/Users/xaleyelyse/Desktop","False","mono","False","18","no","white","no","yes","768","legacy","38","11","/Users/xaleyelyse/Downloads/XWsubject_2.csv","legacy","7 6 4 8 1 2","Melodramatic Milgram","4.0.5","0","n","0","right","left","left","right","NA","631.0","6164","4969","631","NA","2","legacy","6","1024","2","48000","-16","experiment","2","even","9","319564","310530","317354","2129","97965","317357","316316","2194","92996","318360","321566","322198","8371","321566","NA","Sternberg Task","48","41692.0","51","1024"
"94","94","815","815","#3d3846","experiment","legacy","legacy","legacy","1","undefined","1","left","51","51","51","0","0","51","51","0","0","51","51","51","0","51","0","Thu Oct 19 21:17:40 2023","The main experiment item","False","SternbergTask.osexp","/Users/xaleyelyse/Desktop","False","mono","False","18","no","white","no","yes","768","legacy","39","11","/Users/xaleyelyse/Downloads/XWsubject_2.csv","legacy","9 3 1 2 5","Melodramatic Milgram","4.0.5","4","y","0","left","left","left","left","NA","723.0","6164","4969","723","NA","2","legacy","5","1024","2","48000","-16","experiment","2","even","2","325460","322201","323250","2129","97965","323254","316316","2194","92996","324257","327463","328187","8371","327463","NA","Sternberg Task","49","42415.0","52","1024"
"94","94","813","813","#3d3846","experiment","legacy","legacy","legacy","1","undefined","1","right","52","52","52","0","0","52","52","0","0","52","52","52","0","52","0","Thu Oct 19 21:17:40 2023","The main experiment item","False","SternbergTask.osexp","/Users/xaleyelyse/Desktop","False","mono","False","18","no","white","no","yes","768","legacy","40","11","/Users/xaleyelyse/Downloads/XWsubject_2.csv","legacy","6 9 4 5 3 2","Melodramatic Milgram","4.0.5","0","n","0","right","left","left","right","NA","718.0","6164","4969","718","NA","2","legacy","6","1024","2","48000","-16","experiment","2","even","8","331432","328190","329219","2129","97965","329223","316316","2194","92996","330227","333437","334156","8371","333437","NA","Sternberg Task","50","43133.0","53","1024"
"94","94","809","809","#3d3846","experiment","legacy","legacy","legacy","1","undefined","1","right","53","53","53","0","0","53","53","0","0","53","53","53","0","53","0","Thu Oct 19 21:17:40 2023","The main experiment item","False","SternbergTask.osexp","/Users/xaleyelyse/Desktop","False","mono","False","18","no","white","no","yes","768","legacy","41","11","/Users/xaleyelyse/Downloads/XWsubject_2.csv","legacy","4 2 6 9","Melodramatic Milgram","4.0.5","0","n","0","right","left","left","right","NA","595.0","6164","4969","595","NA","2","legacy","4","1024","2","48000","-16","experiment","2","even","7","337400","334159","335192","2129","97965","335194","316316","2194","92996","336197","339405","340001","8371","339404","NA","Sternberg Task","51","43728.0","54","1024"
"94","94","805","805","#3d3846","experiment","legacy","legacy","legacy","1","undefined","1","right","54","54","54","0","0","54","54","0","0","54","54","54","0","54","0","Thu Oct 19 21:17:40 2023","The main experiment item","False","SternbergTask.osexp","/Users/xaleyelyse/Desktop","False","mono","False","18","no","white","no","yes","768","legacy","42","11","/Users/xaleyelyse/Downloads/XWsubject_2.csv","legacy","2 8 7 9 5 3","Melodramatic Milgram","4.0.5","0","n","0","right","left","left","right","NA","562.0","6164","4969","562","NA","2","legacy","6","1024","2","48000","-16","experiment","2","even","6","343253","340004","341042","2129","97965","341046","316316","2194","92996","342049","345256","345820","8371","345256","NA","Sternberg Task","52","44290.0","55","1024"
"94","94","800","800","#3d3846","experiment","legacy","legacy","legacy","1","undefined","1","left","55","55","55","0","0","55","55","0","0","55","55","55","0","55","0","Thu Oct 19 21:17:40 2023","The main experiment item","False","SternbergTask.osexp","/Users/xaleyelyse/Desktop","False","mono","False","18","no","white","no","yes","768","legacy","43","11","/Users/xaleyelyse/Downloads/XWsubject_2.csv","legacy","7 1 8 5 6 2","Melodramatic Milgram","4.0.5","2","y","0","left","left","left","left","NA","550.0","6164","4969","550","NA","2","legacy","6","1024","2","48000","-16","experiment","2","even","1","349068","345822","346860","2129","97965","346862","316316","2194","92996","347865","351072","351623","8371","351072","NA","Sternberg Task","53","44840.0","56","1024"
"94","94","798","798","#3d3846","experiment","legacy","legacy","legacy","1","undefined","1","right","56","56","56","0","0","56","56","0","0","56","56","56","0","56","0","Thu Oct 19 21:17:40 2023","The main experiment item","False","SternbergTask.osexp","/Users/xaleyelyse/Desktop","False","mono","False","18","no","white","no","yes","768","legacy","44","11","/Users/xaleyelyse/Downloads/XWsubject_2.csv","legacy","8 6 3 4 7","Melodramatic Milgram","4.0.5","0","n","0","right","left","left","right","NA","669.0","6164","4969","669","NA","2","legacy","5","1024","2","48000","-16","experiment","2","even","1","354878","351626","352664","2129","97965","352668","316316","2194","92996","353674","356886","357555","8371","356885","NA","Sternberg Task","54","45509.0","57","1024"
"94","94","792","792","#3d3846","experiment","legacy","legacy","legacy","1","undefined","1","right","57","57","57","0","0","57","57","0","0","57","57","57","0","57","0","Thu Oct 19 21:17:40 2023","The main experiment item","False","SternbergTask.osexp","/Users/xaleyelyse/Desktop","False","mono","False","18","no","white","no","yes","768","legacy","45","11","/Users/xaleyelyse/Downloads/XWsubject_2.csv","legacy","2 7 5","Melodramatic Milgram","4.0.5","0","n","0","right","left","left","right","NA","449.0","6164","4969","449","NA","2","legacy","3","1024","2","48000","-16","experiment","2","even","8","360815","357558","358605","2129","97965","358609","316316","2194","92996","359612","362820","363270","8371","362820","NA","Sternberg Task","55","45958.0","58","1024"
"94","94","791","791","#3d3846","experiment","legacy","legacy","legacy","1","undefined","1","right","58","58","58","0","0","58","58","0","0","58","58","58","0","58","0","Thu Oct 19 21:17:40 2023","The main experiment item","False","SternbergTask.osexp","/Users/xaleyelyse/Desktop","False","mono","False","18","no","white","no","yes","768","legacy","46","11","/Users/xaleyelyse/Downloads/XWsubject_2.csv","legacy","1 4 3 6 5","Melodramatic Milgram","4.0.5","0","n","0","right","left","left","right","NA","755.0","6164","4969","755","NA","2","legacy","5","1024","2","48000","-16","experiment","2","even","8","366518","363273","364302","2129","97965","364306","316316","2194","92996","365313","368521","369277","8371","368521","NA","Sternberg Task","56","46713.0","59","1024"
"95","95","786","786","#3d3846","experiment","legacy","legacy","legacy","1","undefined","1","right","59","59","59","0","0","59","59","0","0","59","59","59","0","59","0","Thu Oct 19 21:17:40 2023","The main experiment item","False","SternbergTask.osexp","/Users/xaleyelyse/Desktop","False","mono","False","18","no","white","no","yes","768","legacy","47","11","/Users/xaleyelyse/Downloads/XWsubject_2.csv","legacy","4 8 1 2","Melodramatic Milgram","4.0.5","0","n","0","right","left","left","right","NA","486.0","6164","4969","486","NA","2","legacy","4","1024","2","48000","-16","experiment","2","even","7","372522","369280","370313","2129","97965","370316","316316","2194","92996","371319","374525","375012","8371","374525","NA","Sternberg Task","57","47199.0","60","1024"
"95","95","782","782","#3d3846","experiment","legacy","legacy","legacy","1","undefined","1","left","60","60","60","0","0","60","60","0","0","60","60","60","0","60","0","Thu Oct 19 21:17:40 2023","The main experiment item","False","SternbergTask.osexp","/Users/xaleyelyse/Desktop","False","mono","False","18","no","white","no","yes","768","legacy","48","11","/Users/xaleyelyse/Downloads/XWsubject_2.csv","legacy","9 3 8 2 1 4","Melodramatic Milgram","4.0.5","3","y","0","left","left","left","left","NA","543.0","6164","4969","543","NA","2","legacy","6","1024","2","48000","-16","experiment","2","even","8","378264","375015","376052","2129","97965","376055","316316","2194","92996","377058","380266","380811","8371","380266","NA","Sternberg Task","58","47742.0","61","1024"
"95","95","778","778","#3d3846","experiment","legacy","legacy","legacy","1","undefined","1","right","61","61","61","0","0","61","61","0","0","61","61","61","0","61","0","Thu Oct 19 21:17:40 2023","The main experiment item","False","SternbergTask.osexp","/Users/xaleyelyse/Desktop","False","mono","False","18","no","white","no","yes","768","legacy","49","11","/Users/xaleyelyse/Downloads/XWsubject_2.csv","legacy","1 8 7","Melodramatic Milgram","4.0.5","0","n","0","right","left","left","right","NA","503.0","6164","4969","503","NA","2","legacy","3","1024","2","48000","-16","experiment","2","even","4","384067","380814","381853","2129","97965","381859","316316","2194","92996","382864","386069","386573","8371","386069","NA","Sternberg Task","59","48245.0","62","1024"
"95","95","773","773","#3d3846","experiment","legacy","legacy","legacy","1","undefined","1","left","62","62","62","0","0","62","62","0","0","62","62","62","0","62","0","Thu Oct 19 21:17:40 2023","The main experiment item","False","SternbergTask.osexp","/Users/xaleyelyse/Desktop","False","mono","False","18","no","white","no","yes","768","legacy","50","11","/Users/xaleyelyse/Downloads/XWsubject_2.csv","legacy","2 8 5 1","Melodramatic Milgram","4.0.5","4","y","0","left","left","left","left","NA","490.0","6164","4969","490","NA","2","legacy","4","1024","2","48000","-16","experiment","2","even","1","389826","386575","387613","2129","97965","387617","316316","2194","92996","388621","391830","392321","8371","391830","NA","Sternberg Task","60","48735.0","63","1024"
"95","95","770","770","#3d3846","experiment","legacy","legacy","legacy","1","undefined","1","right","63","63","63","0","0","63","63","0","0","63","63","63","0","63","0","Thu Oct 19 21:17:40 2023","The main experiment item","False","SternbergTask.osexp","/Users/xaleyelyse/Desktop","False","mono","False","18","no","white","no","yes","768","legacy","51","11","/Users/xaleyelyse/Downloads/XWsubject_2.csv","legacy","3 9 1","Melodramatic Milgram","4.0.5","0","n","0","right","left","left","right","NA","547.0","6164","4969","547","NA","2","legacy","3","1024","2","48000","-16","experiment","2","even","7","395593","392324","393372","2129","97965","393378","316316","2194","92996","394384","397597","398145","8371","397596","NA","Sternberg Task","61","49282.0","64","1024"
"95","95","768","768","#3d3846","experiment","legacy","legacy","legacy","1","undefined","1","left","64","64","64","0","0","64","64","0","0","64","64","64","0","64","0","Thu Oct 19 21:17:40 2023","The main experiment item","False","SternbergTask.osexp","/Users/xaleyelyse/Desktop","False","mono","False","18","no","white","no","yes","768","legacy","52","11","/Users/xaleyelyse/Downloads/XWsubject_2.csv","legacy","7 1 3","Melodramatic Milgram","4.0.5","2","y","0","left","left","left","left","NA","677.0","6164","4969","677","NA","2","legacy","3","1024","2","48000","-16","experiment","2","even","1","401385","398148","399176","2129","97965","399180","316316","2194","92996","400182","403389","404067","8371","403389","NA","Sternberg Task","62","49959.0","65","1024"
"95","95","766","766","#3d3846","experiment","legacy","legacy","legacy","1","undefined","1","right","65","65","65","0","0","65","65","0","0","65","65","65","0","65","0","Thu Oct 19 21:17:40 2023","The main experiment item","False","SternbergTask.osexp","/Users/xaleyelyse/Desktop","False","mono","False","18","no","white","no","yes","768","legacy","53","11","/Users/xaleyelyse/Downloads/XWsubject_2.csv","legacy","2 8 9 4 1","Melodramatic Milgram","4.0.5","0","n","0","right","left","left","right","NA","635.0","6164","4969","635","NA","2","legacy","5","1024","2","48000","-16","experiment","2","even","5","407315","404069","405102","2129","97965","405107","316316","2194","92996","406111","409319","409955","8371","409319","NA","Sternberg Task","63","50594.0","66","1024"
"95","95","771","771","#3d3846","experiment","legacy","legacy","legacy","1","undefined","1","right","66","66","66","0","0","66","66","0","0","66","66","66","0","66","0","Thu Oct 19 21:17:40 2023","The main experiment item","False","SternbergTask.osexp","/Users/xaleyelyse/Desktop","False","mono","False","18","no","white","no","yes","768","legacy","54","11","/Users/xaleyelyse/Downloads/XWsubject_2.csv","legacy","1 3 2 6 9","Melodramatic Milgram","4.0.5","0","n","0","right","left","left","right","NA","1108.0","6164","4969","1108","NA","2","legacy","5","1024","2","48000","-16","experiment","2","even","5","413209","409958","410995","2129","97965","410998","316316","2194","92996","412005","415215","416324","8371","415215","NA","Sternberg Task","64","51702.0","67","1024"
"95","95","767","767","#3d3846","experiment","legacy","legacy","legacy","1","undefined","1","right","67","67","67","0","0","67","67","0","0","67","67","67","0","67","0","Thu Oct 19 21:17:40 2023","The main experiment item","False","SternbergTask.osexp","/Users/xaleyelyse/Desktop","False","mono","False","18","no","white","no","yes","768","legacy","55","11","/Users/xaleyelyse/Downloads/XWsubject_2.csv","legacy","7 9","Melodramatic Milgram","4.0.5","0","n","0","right","left","left","right","NA","508.0","6164","4969","508","NA","2","legacy","2","1024","2","48000","-16","experiment","2","even","1","419577","416327","417363","2129","97965","417368","316316","2194","92996","418373","421580","422089","8371","421580","NA","Sternberg Task","65","52210.0","68","1024"
"95","95","765","765","#3d3846","experiment","legacy","legacy","legacy","1","undefined","1","right","68","68","68","0","0","68","68","0","0","68","68","68","0","68","0","Thu Oct 19 21:17:40 2023","The main experiment item","False","SternbergTask.osexp","/Users/xaleyelyse/Desktop","False","mono","False","18","no","white","no","yes","768","legacy","56","11","/Users/xaleyelyse/Downloads/XWsubject_2.csv","legacy","5 3 2 6 9 8","Melodramatic Milgram","4.0.5","0","n","0","right","left","left","right","NA","590.0","6164","4969","590","NA","2","legacy","6","1024","2","48000","-16","experiment","2","even","4","425338","422092","423129","2129","97965","423131","316316","2194","92996","424133","427341","427932","8371","427341","NA","Sternberg Task","66","52800.0","69","1024"
"95","95","762","762","#3d3846","experiment","legacy","legacy","legacy","1","undefined","1","right","69","69","69","0","0","69","69","0","0","69","69","69","0","69","0","Thu Oct 19 21:17:40 2023","The main experiment item","False","SternbergTask.osexp","/Users/xaleyelyse/Desktop","False","mono","False","18","no","white","no","yes","768","legacy","57","11","/Users/xaleyelyse/Downloads/XWsubject_2.csv","legacy","7 1 5 6 3","Melodramatic Milgram","4.0.5","0","n","0","right","left","left","right","NA","604.0","6164","4969","604","NA","2","legacy","5","1024","2","48000","-16","experiment","2","even","8","431192","427935","428983","2129","97965","428985","316316","2194","92996","429989","433195","433800","8371","433195","NA","Sternberg Task","67","53404.0","70","1024"
"95","95","757","757","#3d3846","experiment","legacy","legacy","legacy","1","undefined","1","right","70","70","70","0","0","70","70","0","0","70","70","70","0","70","0","Thu Oct 19 21:17:40 2023","The main experiment item","False","SternbergTask.osexp","/Users/xaleyelyse/Desktop","False","mono","False","18","no","white","no","yes","768","legacy","58","11","/Users/xaleyelyse/Downloads/XWsubject_2.csv","legacy","1","Melodramatic Milgram","4.0.5","0","n","0","right","left","left","right","NA","408.0","6164","4969","408","NA","2","legacy","1","1024","2","48000","-16","experiment","2","even","7","437041","433803","434831","2129","97965","434833","316316","2194","92996","435836","439046","439455","8371","439046","NA","Sternberg Task","68","53812.0","71","1024"
"95","95","754","754","#3d3846","experiment","legacy","legacy","legacy","1","undefined","1","left","71","71","71","0","0","71","71","0","0","71","71","71","0","71","0","Thu Oct 19 21:17:40 2023","The main experiment item","False","SternbergTask.osexp","/Users/xaleyelyse/Desktop","False","mono","False","18","no","white","no","yes","768","legacy","59","11","/Users/xaleyelyse/Downloads/XWsubject_2.csv","legacy","9 8 4","Melodramatic Milgram","4.0.5","1","y","0","left","left","left","left","NA","514.0","6164","4969","514","NA","2","legacy","3","1024","2","48000","-16","experiment","2","even","9","442698","439457","440490","2129","97965","440492","316316","2194","92996","441494","444704","445219","8371","444704","NA","Sternberg Task","69","54326.0","72","1024"
"95","95","749","749","#3d3846","experiment","legacy","legacy","legacy","1","undefined","1","left","72","72","72","0","0","72","72","0","0","72","72","72","0","72","0","Thu Oct 19 21:17:40 2023","The main experiment item","False","SternbergTask.osexp","/Users/xaleyelyse/Desktop","False","mono","False","18","no","white","no","yes","768","legacy","60","11","/Users/xaleyelyse/Downloads/XWsubject_2.csv","legacy","4 1 5","Melodramatic Milgram","4.0.5","2","y","0","left","left","left","left","NA","415.0","6164","4969","415","NA","2","legacy","3","1024","2","48000","-16","experiment","2","even","1","448467","445222","446258","2129","97965","446262","316316","2194","92996","447264","450470","450886","8371","450469","NA","Sternberg Task","70","54741.0","73","1024"
"95","95","746","746","#3d3846","experiment","legacy","legacy","legacy","1","undefined","1","left","73","73","73","0","0","73","73","0","0","73","73","73","0","73","0","Thu Oct 19 21:17:40 2023","The main experiment item","False","SternbergTask.osexp","/Users/xaleyelyse/Desktop","False","mono","False","18","no","white","no","yes","768","legacy","61","11","/Users/xaleyelyse/Downloads/XWsubject_2.csv","legacy","8 9 6 1","Melodramatic Milgram","4.0.5","2","y","0","left","left","left","left","NA","499.0","6164","4969","499","NA","2","legacy","4","1024","2","48000","-16","experiment","2","even","9","454138","450888","451924","2129","97965","451929","316316","2194","92996","452935","456140","456640","8371","456140","NA","Sternberg Task","71","55240.0","74","1024"
"96","96","742","742","#3d3846","experiment","legacy","legacy","legacy","1","undefined","1","left","74","74","74","0","0","74","74","0","0","74","74","74","0","74","0","Thu Oct 19 21:17:40 2023","The main experiment item","False","SternbergTask.osexp","/Users/xaleyelyse/Desktop","False","mono","False","18","no","white","no","yes","768","legacy","62","11","/Users/xaleyelyse/Downloads/XWsubject_2.csv","legacy","6 5","Melodramatic Milgram","4.0.5","2","y","0","left","left","left","left","NA","430.0","6164","4969","430","NA","2","legacy","2","1024","2","48000","-16","experiment","2","even","5","459885","456642","457678","2129","97965","457680","316316","2194","92996","458682","461887","462318","8371","461887","NA","Sternberg Task","72","55670.0","75","1024"
"96","96","740","740","#3d3846","experiment","legacy","legacy","legacy","1","undefined","1","left","75","75","75","0","0","75","75","0","0","75","75","75","0","75","0","Thu Oct 19 21:17:40 2023","The main experiment item","False","SternbergTask.osexp","/Users/xaleyelyse/Desktop","False","mono","False","18","no","white","no","yes","768","legacy","63","11","/Users/xaleyelyse/Downloads/XWsubject_2.csv","legacy","8 1 6","Melodramatic Milgram","4.0.5","3","y","0","left","left","left","left","NA","573.0","6164","4969","573","NA","2","legacy","3","1024","2","48000","-16","experiment","2","even","6","465576","462321","463368","2129","97965","463370","316316","2194","92996","464373","467579","468153","8371","467578","NA","Sternberg Task","73","56243.0","76","1024"
"96","96","736","736","#3d3846","experiment","legacy","legacy","legacy","1","undefined","1","right","76","76","76","0","0","76","76","0","0","76","76","76","0","76","0","Thu Oct 19 21:17:40 2023","The main experiment item","False","SternbergTask.osexp","/Users/xaleyelyse/Desktop","False","mono","False","18","no","white","no","yes","768","legacy","64","11","/Users/xaleyelyse/Downloads/XWsubject_2.csv","legacy","8 9","Melodramatic Milgram","4.0.5","0","n","0","right","left","left","right","NA","440.0","6164","4969","440","NA","2","legacy","2","1024","2","48000","-16","experiment","2","even","5","471391","468156","469184","2129","97965","469186","316316","2194","92996","470188","473393","473834","8371","473393","NA","Sternberg Task","74","56683.0","77","1024"
"96","96","736","736","#3d3846","experiment","legacy","legacy","legacy","1","undefined","1","right","77","77","77","0","0","77","77","0","0","77","77","77","0","77","0","Thu Oct 19 21:17:40 2023","The main experiment item","False","SternbergTask.osexp","/Users/xaleyelyse/Desktop","False","mono","False","18","no","white","no","yes","768","legacy","65","11","/Users/xaleyelyse/Downloads/XWsubject_2.csv","legacy","1 7 8 3 9","Melodramatic Milgram","4.0.5","0","n","0","right","left","left","right","NA","749.0","6164","4969","749","NA","2","legacy","5","1024","2","48000","-16","experiment","2","even","2","477076","473837","474870","2129","97965","474872","316316","2194","92996","475874","479078","479828","8371","479078","NA","Sternberg Task","75","57432.0","78","1024"
"96","96","735","735","#3d3846","experiment","legacy","legacy","legacy","1","undefined","1","right","78","78","78","0","0","78","78","0","0","78","78","78","0","78","0","Thu Oct 19 21:17:40 2023","The main experiment item","False","SternbergTask.osexp","/Users/xaleyelyse/Desktop","False","mono","False","18","no","white","no","yes","768","legacy","66","11","/Users/xaleyelyse/Downloads/XWsubject_2.csv","legacy","5 9 2 3","Melodramatic Milgram","4.0.5","0","n","0","right","left","left","right","NA","703.0","6164","4969","703","NA","2","legacy","4","1024","2","48000","-16","experiment","2","even","8","483071","479830","480864","2129","97965","480866","316316","2194","92996","481869","485073","485777","8371","485073","NA","Sternberg Task","76","58135.0","79","1024"
"96","96","732","732","#3d3846","experiment","legacy","legacy","legacy","1","undefined","1","right","79","79","79","0","0","79","79","0","0","79","79","79","0","79","0","Thu Oct 19 21:17:40 2023","The main experiment item","False","SternbergTask.osexp","/Users/xaleyelyse/Desktop","False","mono","False","18","no","white","no","yes","768","legacy","67","11","/Users/xaleyelyse/Downloads/XWsubject_2.csv","legacy","6 8","Melodramatic Milgram","4.0.5","0","n","0","right","left","left","right","NA","463.0","6164","4969","463","NA","2","legacy","2","1024","2","48000","-16","experiment","2","even","9","489022","485780","486816","2129","97965","486818","316316","2194","92996","487820","491025","491489","8371","491025","NA","Sternberg Task","77","58598.0","80","1024"
"96","96","728","728","#3d3846","experiment","legacy","legacy","legacy","1","undefined","1","left","80","80","80","0","0","80","80","0","0","80","80","80","0","80","0","Thu Oct 19 21:17:40 2023","The main experiment item","False","SternbergTask.osexp","/Users/xaleyelyse/Desktop","False","mono","False","18","no","white","no","yes","768","legacy","68","11","/Users/xaleyelyse/Downloads/XWsubject_2.csv","legacy","3 5 7 1","Melodramatic Milgram","4.0.5","3","y","0","left","left","left","left","NA","404.0","6164","4969","404","NA","2","legacy","4","1024","2","48000","-16","experiment","2","even","7","494735","491491","492528","2129","97965","492530","316316","2194","92996","493532","496738","497143","8371","496738","NA","Sternberg Task","78","59002.0","81","1024"
"96","96","725","725","#3d3846","experiment","legacy","legacy","legacy","1","undefined","1","right","81","81","81","0","0","81","81","0","0","81","81","81","0","81","0","Thu Oct 19 21:17:40 2023","The main experiment item","False","SternbergTask.osexp","/Users/xaleyelyse/Desktop","False","mono","False","18","no","white","no","yes","768","legacy","69","11","/Users/xaleyelyse/Downloads/XWsubject_2.csv","legacy","4 1","Melodramatic Milgram","4.0.5","0","n","0","right","left","left","right","NA","457.0","6164","4969","457","NA","2","legacy","2","1024","2","48000","-16","experiment","2","even","6","500436","497146","498229","2129","97965","498231","316316","2194","92996","499233","502439","502897","8371","502438","NA","Sternberg Task","79","59459.0","82","1024"
"96","96","722","722","#3d3846","experiment","legacy","legacy","legacy","1","undefined","1","left","82","82","82","0","0","82","82","0","0","82","82","82","0","82","0","Thu Oct 19 21:17:40 2023","The main experiment item","False","SternbergTask.osexp","/Users/xaleyelyse/Desktop","False","mono","False","18","no","white","no","yes","768","legacy","70","11","/Users/xaleyelyse/Downloads/XWsubject_2.csv","legacy","8 7 3","Melodramatic Milgram","4.0.5","1","y","0","left","left","left","left","NA","543.0","6164","4969","543","NA","2","legacy","3","1024","2","48000","-16","experiment","2","even","8","506137","502901","503930","2129","97965","503932","316316","2194","92996","504934","508139","508683","8371","508139","NA","Sternberg Task","80","60002.0","83","1024"
"96","96","721","721","#3d3846","experiment","legacy","legacy","legacy","1","undefined","1","right","83","83","83","0","0","83","83","0","0","83","83","83","0","83","0","Thu Oct 19 21:17:40 2023","The main experiment item","False","SternbergTask.osexp","/Users/xaleyelyse/Desktop","False","mono","False","18","no","white","no","yes","768","legacy","71","11","/Users/xaleyelyse/Downloads/XWsubject_2.csv","legacy","6 9 4 5 2","Melodramatic Milgram","4.0.5","0","n","0","right","left","left","right","NA","573.0","6164","4969","573","NA","2","legacy","5","1024","2","48000","-16","experiment","2","even","1","511925","508686","509717","2129","97965","509720","316316","2194","92996","510722","513927","514501","8371","513927","NA","Sternberg Task","81","60575.0","84","1024"
"96","96","719","719","#3d3846","experiment","legacy","legacy","legacy","1","undefined","1","right","84","84","84","0","0","84","84","0","0","84","84","84","0","84","0","Thu Oct 19 21:17:40 2023","The main experiment item","False","SternbergTask.osexp","/Users/xaleyelyse/Desktop","False","mono","False","18","no","white","no","yes","768","legacy","72","11","/Users/xaleyelyse/Downloads/XWsubject_2.csv","legacy","1 5 3 2 8","Melodramatic Milgram","4.0.5","0","n","0","right","left","left","right","NA","567.0","6164","4969","567","NA","2","legacy","5","1024","2","48000","-16","experiment","2","even","4","517747","514503","515540","2129","97965","515543","316316","2194","92996","516545","519749","520317","8371","519749","NA","Sternberg Task","82","61142.0","85","1024"
"96","96","717","717","#3d3846","experiment","legacy","legacy","legacy","1","undefined","1","left","85","85","85","0","0","85","85","0","0","85","85","85","0","85","0","Thu Oct 19 21:17:40 2023","The main experiment item","False","SternbergTask.osexp","/Users/xaleyelyse/Desktop","False","mono","False","18","no","white","no","yes","768","legacy","73","11","/Users/xaleyelyse/Downloads/XWsubject_2.csv","legacy","6 8 9 3 4 9","Melodramatic Milgram","4.0.5","5","y","0","left","left","left","left","NA","524.0","6164","4969","524","NA","2","legacy","6","1024","2","48000","-16","experiment","2","even","4","523561","520319","521355","2129","97965","521357","316316","2194","92996","522359","525563","526088","8371","525563","NA","Sternberg Task","83","61666.0","86","1024"
"96","96","714","714","#3d3846","experiment","legacy","legacy","legacy","1","undefined","1","left","86","86","86","0","0","86","86","0","0","86","86","86","0","86","0","Thu Oct 19 21:17:40 2023","The main experiment item","False","SternbergTask.osexp","/Users/xaleyelyse/Desktop","False","mono","False","18","no","white","no","yes","768","legacy","74","11","/Users/xaleyelyse/Downloads/XWsubject_2.csv","legacy","9 5 8 1","Melodramatic Milgram","4.0.5","2","y","0","left","left","left","left","NA","522.0","6164","4969","522","NA","2","legacy","4","1024","2","48000","-16","experiment","2","even","5","529334","526091","527126","2129","97965","527128","316316","2194","92996","528131","531336","531859","8371","531336","NA","Sternberg Task","84","62188.0","87","1024"
"96","96","714","714","#3d3846","experiment","legacy","legacy","legacy","1","undefined","1","right","87","87","87","0","0","87","87","0","0","87","87","87","0","87","0","Thu Oct 19 21:17:40 2023","The main experiment item","False","SternbergTask.osexp","/Users/xaleyelyse/Desktop","False","mono","False","18","no","white","no","yes","768","legacy","75","11","/Users/xaleyelyse/Downloads/XWsubject_2.csv","legacy","7 1 8 4 9 3","Melodramatic Milgram","4.0.5","0","n","0","right","left","left","right","NA","687.0","6164","4969","687","NA","2","legacy","6","1024","2","48000","-16","experiment","2","even","6","535116","531861","532907","2129","97965","532910","316316","2194","92996","533913","537118","537806","8371","537118","NA","Sternberg Task","85","62875.0","88","1024"
"96","96","711","711","#3d3846","experiment","legacy","legacy","legacy","1","undefined","1","left","88","88","88","0","0","88","88","0","0","88","88","88","0","88","0","Thu Oct 19 21:17:40 2023","The main experiment item","False","SternbergTask.osexp","/Users/xaleyelyse/Desktop","False","mono","False","18","no","white","no","yes","768","legacy","76","11","/Users/xaleyelyse/Downloads/XWsubject_2.csv","legacy","6 2","Melodramatic Milgram","4.0.5","1","y","0","left","left","left","left","NA","435.0","6164","4969","435","NA","2","legacy","2","1024","2","48000","-16","experiment","2","even","6","541043","537809","538837","2129","97965","538839","316316","2194","92996","539841","543045","543481","8371","543045","NA","Sternberg Task","86","63310.0","89","1024"
"96","96","708","708","#3d3846","experiment","legacy","legacy","legacy","1","undefined","1","right","89","89","89","0","0","89","89","0","0","89","89","89","0","89","0","Thu Oct 19 21:17:40 2023","The main experiment item","False","SternbergTask.osexp","/Users/xaleyelyse/Desktop","False","mono","False","18","no","white","no","yes","768","legacy","77","11","/Users/xaleyelyse/Downloads/XWsubject_2.csv","legacy","5 2","Melodramatic Milgram","4.0.5","0","n","0","right","left","left","right","NA","461.0","6164","4969","461","NA","2","legacy","2","1024","2","48000","-16","experiment","2","even","7","546722","543484","544516","2129","97965","544518","316316","2194","92996","545520","548725","549187","8371","548725","NA","Sternberg Task","87","63771.0","90","1024"
"96","96","706","706","#3d3846","experiment","legacy","legacy","legacy","1","undefined","1","right","90","90","90","0","0","90","90","0","0","90","90","90","0","90","0","Thu Oct 19 21:17:40 2023","The main experiment item","False","SternbergTask.osexp","/Users/xaleyelyse/Desktop","False","mono","False","18","no","white","no","yes","768","legacy","78","11","/Users/xaleyelyse/Downloads/XWsubject_2.csv","legacy","2 6 4 3 9","Melodramatic Milgram","4.0.5","0","n","0","right","left","left","right","NA","548.0","6164","4969","548","NA","2","legacy","5","1024","2","48000","-16","experiment","2","even","1","552433","549190","550226","2129","97965","550229","316316","2194","92996","551231","554435","554984","8371","554435","NA","Sternberg Task","88","64319.0","91","1024"
"96","96","706","706","#3d3846","experiment","legacy","legacy","legacy","1","undefined","1","left","91","91","91","0","0","91","91","0","0","91","91","91","0","91","0","Thu Oct 19 21:17:40 2023","The main experiment item","False","SternbergTask.osexp","/Users/xaleyelyse/Desktop","False","mono","False","18","no","white","no","yes","768","legacy","79","11","/Users/xaleyelyse/Downloads/XWsubject_2.csv","legacy","2 4 8 5 1 3","Melodramatic Milgram","4.0.5","1","y","0","left","left","left","left","NA","694.0","6164","4969","694","NA","2","legacy","6","1024","2","48000","-16","experiment","2","even","2","558231","554987","556023","2129","97965","556026","316316","2194","92996","557028","560233","560929","8371","560233","NA","Sternberg Task","89","65013.0","92","1024"
"95","95","705","705","#3d3846","experiment","legacy","legacy","legacy","0","undefined","0","right","92","92","92","0","0","92","92","0","0","92","92","92","0","92","0","Thu Oct 19 21:17:40 2023","The main experiment item","False","SternbergTask.osexp","/Users/xaleyelyse/Desktop","False","mono","False","18","no","white","no","yes","768","legacy","80","11","/Users/xaleyelyse/Downloads/XWsubject_2.csv","legacy","5 3 8 7 2 4","Melodramatic Milgram","4.0.5","0","n","0","left","left","left","left","NA","558.0","6164","4969","558","NA","2","legacy","6","1024","2","48000","-16","experiment","2","even","9","564175","560931","561968","2129","97965","561970","316316","2194","92996","562973","566178","566737","8371","566177","NA","Sternberg Task","89","65571.0","93","1024"
"94","94","705","705","#3d3846","experiment","legacy","legacy","legacy","0","undefined","0","left","93","93","93","0","0","93","93","0","0","93","93","93","0","93","0","Thu Oct 19 21:17:40 2023","The main experiment item","False","SternbergTask.osexp","/Users/xaleyelyse/Desktop","False","mono","False","18","no","white","no","yes","768","legacy","81","11","/Users/xaleyelyse/Downloads/XWsubject_2.csv","legacy","4 9 7 8 5 3","Melodramatic Milgram","4.0.5","4","y","0","right","left","left","right","NA","749.0","6164","4969","749","NA","2","legacy","6","1024","2","48000","-16","experiment","2","even","8","569993","560931","567786","2129","97965","567788","566740","2194","92996","568790","571995","572745","8371","571995","NA","Sternberg Task","89","66320.0","94","1024"
"94","94","703","703","#3d3846","experiment","legacy","legacy","legacy","1","undefined","1","left","94","94","94","0","0","94","94","0","0","94","94","94","0","94","0","Thu Oct 19 21:17:40 2023","The main experiment item","False","SternbergTask.osexp","/Users/xaleyelyse/Desktop","False","mono","False","18","no","white","no","yes","768","legacy","82","11","/Users/xaleyelyse/Downloads/XWsubject_2.csv","legacy","2 4 6 9","Melodramatic Milgram","4.0.5","3","y","0","left","left","left","left","NA","514.0","6164","4969","514","NA","2","legacy","4","1024","2","48000","-16","experiment","2","even","6","575983","560931","573777","2129","97965","573779","572748","2194","92996","574781","577985","578500","8371","577985","NA","Sternberg Task","90","66834.0","95","1024"
"94","94","703","703","#3d3846","experiment","legacy","legacy","legacy","1","undefined","1","right","95","95","95","0","0","95","95","0","0","95","95","95","0","95","0","Thu Oct 19 21:17:40 2023","The main experiment item","False","SternbergTask.osexp","/Users/xaleyelyse/Desktop","False","mono","False","18","no","white","no","yes","768","legacy","83","11","/Users/xaleyelyse/Downloads/XWsubject_2.csv","legacy","3 4 9 6 7 8","Melodramatic Milgram","4.0.5","0","n","0","right","left","left","right","NA","704.0","6164","4969","704","NA","2","legacy","6","1024","2","48000","-16","experiment","2","even","2","581741","578503","579535","2129","97965","579537","572748","2194","92996","580539","583744","584449","8371","583744","NA","Sternberg Task","91","67538.0","96","1024"
"94","94","702","702","#3d3846","experiment","legacy","legacy","legacy","1","undefined","1","left","96","96","96","0","0","96","96","0","0","96","96","96","0","96","0","Thu Oct 19 21:17:40 2023","The main experiment item","False","SternbergTask.osexp","/Users/xaleyelyse/Desktop","False","mono","False","18","no","white","no","yes","768","legacy","84","11","/Users/xaleyelyse/Downloads/XWsubject_2.csv","legacy","3 5 4 7","Melodramatic Milgram","4.0.5","1","y","0","left","left","left","left","NA","576.0","6164","4969","576","NA","2","legacy","4","1024","2","48000","-16","experiment","2","even","3","587695","584452","585488","2129","97965","585490","572748","2194","92996","586493","589697","590274","8371","589697","NA","Sternberg Task","92","68114.0","97","1024"
"94","94","701","701","#3d3846","experiment","legacy","legacy","legacy","1","undefined","1","right","97","97","97","0","0","97","97","0","0","97","97","97","0","97","0","Thu Oct 19 21:17:40 2023","The main experiment item","False","SternbergTask.osexp","/Users/xaleyelyse/Desktop","False","mono","False","18","no","white","no","yes","768","legacy","85","11","/Users/xaleyelyse/Downloads/XWsubject_2.csv","legacy","7 9 1 6","Melodramatic Milgram","4.0.5","0","n","0","right","left","left","right","NA","624.0","6164","4969","624","NA","2","legacy","4","1024","2","48000","-16","experiment","2","even","4","593535","590277","591326","2129","97965","591330","572748","2194","92996","592333","595539","596164","8371","595539","NA","Sternberg Task","93","68738.0","98","1024"
"94","94","701","701","#3d3846","experiment","legacy","legacy","legacy","1","undefined","1","left","98","98","98","0","0","98","98","0","0","98","98","98","0","98","0","Thu Oct 19 21:17:40 2023","The main experiment item","False","SternbergTask.osexp","/Users/xaleyelyse/Desktop","False","mono","False","18","no","white","no","yes","768","legacy","86","11","/Users/xaleyelyse/Downloads/XWsubject_2.csv","legacy","2 6 1 7 4","Melodramatic Milgram","4.0.5","2","y","0","left","left","left","left","NA","722.0","6164","4969","722","NA","2","legacy","5","1024","2","48000","-16","experiment","2","even","6","599412","596166","597203","2129","97965","597205","572748","2194","92996","598208","601414","602137","8371","601414","NA","Sternberg Task","94","69460.0","99","1024"
"95","95","700","700","#3d3846","experiment","legacy","legacy","legacy","1","undefined","1","left","99","99","99","0","0","99","99","0","0","99","99","99","0","99","0","Thu Oct 19 21:17:40 2023","The main experiment item","False","SternbergTask.osexp","/Users/xaleyelyse/Desktop","False","mono","False","18","no","white","no","yes","768","legacy","87","11","/Users/xaleyelyse/Downloads/XWsubject_2.csv","legacy","2 3","Melodramatic Milgram","4.0.5","1","y","0","left","left","left","left","NA","567.0","6164","4969","567","NA","2","legacy","2","1024","2","48000","-16","experiment","2","even","2","605393","602140","603186","2129","97965","603189","572748","2194","92996","604191","607396","607964","8371","607396","NA","Sternberg Task","95","70027.0","100","1024"
"95","95","699","699","#3d3846","experiment","legacy","legacy","legacy","1","undefined","1","left","100","100","100","0","0","100","100","0","0","100","100","100","0","100","0","Thu Oct 19 21:17:40 2023","The main experiment item","False","SternbergTask.osexp","/Users/xaleyelyse/Desktop","False","mono","False","18","no","white","no","yes","768","legacy","88","11","/Users/xaleyelyse/Downloads/XWsubject_2.csv","legacy","9 4 2","Melodramatic Milgram","4.0.5","1","y","0","left","left","left","left","NA","591.0","6164","4969","591","NA","2","legacy","3","1024","2","48000","-16","experiment","2","even","9","611202","607967","608995","2129","97965","608997","572748","2194","92996","609999","613204","613796","8371","613204","NA","Sternberg Task","96","70618.0","101","1024"
"94","94","698","698","#3d3846","experiment","legacy","legacy","legacy","0","undefined","0","left","101","101","101","0","0","101","101","0","0","101","101","101","0","101","0","Thu Oct 19 21:17:40 2023","The main experiment item","False","SternbergTask.osexp","/Users/xaleyelyse/Desktop","False","mono","False","18","no","white","no","yes","768","legacy","89","11","/Users/xaleyelyse/Downloads/XWsubject_2.csv","legacy","7 8 6 3 1","Melodramatic Milgram","4.0.5","5","y","0","right","left","left","right","NA","650.0","6164","4969","650","NA","2","legacy","5","1024","2","48000","-16","experiment","2","even","1","617039","613799","614832","2129","97965","614834","572748","2194","92996","615837","619041","619692","8371","619041","NA","Sternberg Task","96","71268.0","102","1024"
"94","94","695","695","#3d3846","experiment","legacy","legacy","legacy","1","undefined","1","left","102","102","102","0","0","102","102","0","0","102","102","102","0","102","0","Thu Oct 19 21:17:40 2023","The main experiment item","False","SternbergTask.osexp","/Users/xaleyelyse/Desktop","False","mono","False","18","no","white","no","yes","768","legacy","90","11","/Users/xaleyelyse/Downloads/XWsubject_2.csv","legacy","7 4 2 6 3 5","Melodramatic Milgram","4.0.5","6","y","0","left","left","left","left","NA","410.0","6164","4969","410","NA","2","legacy","6","1024","2","48000","-16","experiment","2","even","5","622934","613799","620726","2129","97965","620728","619694","2194","92996","621730","624937","625348","8371","624937","NA","Sternberg Task","97","71678.0","103","1024"
"94","94","694","694","#3d3846","experiment","legacy","legacy","legacy","1","undefined","1","left","103","103","103","0","0","103","103","0","0","103","103","103","0","103","0","Thu Oct 19 21:17:40 2023","The main experiment item","False","SternbergTask.osexp","/Users/xaleyelyse/Desktop","False","mono","False","18","no","white","no","yes","768","legacy","91","11","/Users/xaleyelyse/Downloads/XWsubject_2.csv","legacy","3 9 7 6 4","Melodramatic Milgram","4.0.5","3","y","0","left","left","left","left","NA","516.0","6164","4969","516","NA","2","legacy","5","1024","2","48000","-16","experiment","2","even","7","628598","625351","626388","2129","97965","626390","619694","2194","92996","627394","630600","631117","8371","630600","NA","Sternberg Task","98","72194.0","104","1024"
"94","94","693","693","#3d3846","experiment","legacy","legacy","legacy","1","undefined","1","left","104","104","104","0","0","104","104","0","0","104","104","104","0","104","0","Thu Oct 19 21:17:40 2023","The main experiment item","False","SternbergTask.osexp","/Users/xaleyelyse/Desktop","False","mono","False","18","no","white","no","yes","768","legacy","92","11","/Users/xaleyelyse/Downloads/XWsubject_2.csv","legacy","3 9 6 2","Melodramatic Milgram","4.0.5","4","y","0","left","left","left","left","NA","675.0","6164","4969","675","NA","2","legacy","4","1024","2","48000","-16","experiment","2","even","2","634366","631120","632158","2129","97965","632160","619694","2194","92996","633162","636368","637044","8371","636368","NA","Sternberg Task","99","72869.0","105","1024"
"94","94","693","693","#3d3846","experiment","legacy","legacy","legacy","1","undefined","1","right","105","105","105","0","0","105","105","0","0","105","105","105","0","105","0","Thu Oct 19 21:17:40 2023","The main experiment item","False","SternbergTask.osexp","/Users/xaleyelyse/Desktop","False","mono","False","18","no","white","no","yes","768","legacy","93","11","/Users/xaleyelyse/Downloads/XWsubject_2.csv","legacy","8 4 3 9","Melodramatic Milgram","4.0.5","0","n","0","right","left","left","right","NA","590.0","6164","4969","590","NA","2","legacy","4","1024","2","48000","-16","experiment","2","even","5","640310","637047","638102","2129","97965","638104","619694","2194","92996","639106","642314","642905","8371","642314","NA","Sternberg Task","100","73459.0","106","1024"
"94","94","691","691","#3d3846","experiment","legacy","legacy","legacy","1","undefined","1","left","106","106","106","0","0","106","106","0","0","106","106","106","0","106","0","Thu Oct 19 21:17:40 2023","The main experiment item","False","SternbergTask.osexp","/Users/xaleyelyse/Desktop","False","mono","False","18","no","white","no","yes","768","legacy","94","11","/Users/xaleyelyse/Downloads/XWsubject_2.csv","legacy","5 2 6","Melodramatic Milgram","4.0.5","2","y","0","left","left","left","left","NA","482.0","6164","4969","482","NA","2","legacy","3","1024","2","48000","-16","experiment","2","even","2","646143","642908","643936","2129","97965","643938","619694","2194","92996","644940","648145","648628","8371","648145","NA","Sternberg Task","101","73941.0","107","1024"
"94","94","690","690","#3d3846","experiment","legacy","legacy","legacy","1","undefined","1","right","107","107","107","0","0","107","107","0","0","107","107","107","0","107","0","Thu Oct 19 21:17:40 2023","The main experiment item","False","SternbergTask.osexp","/Users/xaleyelyse/Desktop","False","mono","False","18","no","white","no","yes","768","legacy","95","11","/Users/xaleyelyse/Downloads/XWsubject_2.csv","legacy","6 9 5","Melodramatic Milgram","4.0.5","0","n","0","right","left","left","right","NA","617.0","6164","4969","617","NA","2","legacy","3","1024","2","48000","-16","experiment","2","even","8","651871","648631","649663","2129","97965","649666","619694","2194","92996","650669","653873","654491","8371","653873","NA","Sternberg Task","102","74558.0","108","1024"
"94","94","692","692","#3d3846","experiment","legacy","legacy","legacy","1","undefined","1","right","108","108","108","0","0","108","108","0","0","108","108","108","0","108","0","Thu Oct 19 21:17:40 2023","The main experiment item","False","SternbergTask.osexp","/Users/xaleyelyse/Desktop","False","mono","False","18","no","white","no","yes","768","legacy","96","11","/Users/xaleyelyse/Downloads/XWsubject_2.csv","legacy","7 3 2 8","Melodramatic Milgram","4.0.5","0","n","0","right","left","left","right","NA","970.0","6164","4969","970","NA","2","legacy","4","1024","2","48000","-16","experiment","2","even","4","657737","654493","655528","2129","97965","655531","619694","2194","92996","656533","659739","660710","8371","659739","NA","Sternberg Task","103","75528.0","109","1024"
"94","94","691","691","#3d3846","experiment","legacy","legacy","legacy","1","undefined","1","left","109","109","109","0","0","109","109","0","0","109","109","109","0","109","0","Thu Oct 19 21:17:40 2023","The main experiment item","False","SternbergTask.osexp","/Users/xaleyelyse/Desktop","False","mono","False","18","no","white","no","yes","768","legacy","97","11","/Users/xaleyelyse/Downloads/XWsubject_2.csv","legacy","2 3 7 4","Melodramatic Milgram","4.0.5","1","y","0","left","left","left","left","NA","545.0","6164","4969","545","NA","2","legacy","4","1024","2","48000","-16","experiment","2","even","2","663956","660712","661749","2129","97965","661751","619694","2194","92996","662753","665959","666505","8371","665959","NA","Sternberg Task","104","76073.0","110","1024"
"94","94","692","692","#3d3846","experiment","legacy","legacy","legacy","1","undefined","1","right","110","110","110","0","0","110","110","0","0","110","110","110","0","110","0","Thu Oct 19 21:17:40 2023","The main experiment item","False","SternbergTask.osexp","/Users/xaleyelyse/Desktop","False","mono","False","18","no","white","no","yes","768","legacy","98","11","/Users/xaleyelyse/Downloads/XWsubject_2.csv","legacy","7 8 6 1","Melodramatic Milgram","4.0.5","0","n","0","right","left","left","right","NA","771.0","6164","4969","771","NA","2","legacy","4","1024","2","48000","-16","experiment","2","even","3","669755","666508","667544","2129","97965","667547","619694","2194","92996","668550","671759","672531","8371","671759","NA","Sternberg Task","105","76844.0","111","1024"
"94","94","691","691","#3d3846","experiment","legacy","legacy","legacy","1","undefined","1","left","111","111","111","0","0","111","111","0","0","111","111","111","0","111","0","Thu Oct 19 21:17:40 2023","The main experiment item","False","SternbergTask.osexp","/Users/xaleyelyse/Desktop","False","mono","False","18","no","white","no","yes","768","legacy","99","11","/Users/xaleyelyse/Downloads/XWsubject_2.csv","legacy","6 7 9 3 1 2","Melodramatic Milgram","4.0.5","1","y","0","left","left","left","left","NA","592.0","6164","4969","592","NA","2","legacy","6","1024","2","48000","-16","experiment","2","even","6","675802","672534","673592","2129","97965","673595","619694","2194","92996","674598","677817","678410","8371","677810","NA","Sternberg Task","106","77436.0","112","1024"
"94","94","691","691","#3d3846","experiment","legacy","legacy","legacy","1","undefined","1","left","112","112","112","0","0","112","112","0","0","112","112","112","0","112","0","Thu Oct 19 21:17:40 2023","The main experiment item","False","SternbergTask.osexp","/Users/xaleyelyse/Desktop","False","mono","False","18","no","white","no","yes","768","legacy","100","11","/Users/xaleyelyse/Downloads/XWsubject_2.csv","legacy","4 6 2 5 1","Melodramatic Milgram","4.0.5","5","y","0","left","left","left","left","NA","740.0","6164","4969","740","NA","2","legacy","5","1024","2","48000","-16","experiment","2","even","1","681650","678413","679443","2129","97965","679445","619694","2194","92996","680447","683656","684397","8371","683655","NA","Sternberg Task","107","78176.0","113","1024"
"94","94","692","692","#3d3846","experiment","legacy","legacy","legacy","1","undefined","1","right","113","113","113","0","0","113","113","0","0","113","113","113","0","113","0","Thu Oct 19 21:17:40 2023","The main experiment item","False","SternbergTask.osexp","/Users/xaleyelyse/Desktop","False","mono","False","18","no","white","no","yes","768","legacy","101","11","/Users/xaleyelyse/Downloads/XWsubject_2.csv","legacy","9 5 3 2 8 6","Melodramatic Milgram","4.0.5","0","n","0","right","left","left","right","NA","819.0","6164","4969","819","NA","2","legacy","6","1024","2","48000","-16","experiment","2","even","7","687648","684399","685433","2129","97965","685435","619694","2194","92996","686440","689655","690475","8371","689654","NA","Sternberg Task","108","78995.0","114","1024"
"94","94","693","693","#3d3846","experiment","legacy","legacy","legacy","1","undefined","1","right","114","114","114","0","0","114","114","0","0","114","114","114","0","114","0","Thu Oct 19 21:17:40 2023","The main experiment item","False","SternbergTask.osexp","/Users/xaleyelyse/Desktop","False","mono","False","18","no","white","no","yes","768","legacy","102","11","/Users/xaleyelyse/Downloads/XWsubject_2.csv","legacy","1 4 9 3","Melodramatic Milgram","4.0.5","0","n","0","right","left","left","right","NA","707.0","6164","4969","707","NA","2","legacy","4","1024","2","48000","-16","experiment","2","even","5","693730","690479","691516","2129","97965","691521","619694","2194","92996","692526","695736","696444","8371","695736","NA","Sternberg Task","109","79702.0","115","1024"
"94","94","691","691","#3d3846","experiment","legacy","legacy","legacy","1","undefined","1","left","115","115","115","0","0","115","115","0","0","115","115","115","0","115","0","Thu Oct 19 21:17:40 2023","The main experiment item","False","SternbergTask.osexp","/Users/xaleyelyse/Desktop","False","mono","False","18","no","white","no","yes","768","legacy","103","11","/Users/xaleyelyse/Downloads/XWsubject_2.csv","legacy","4","Melodramatic Milgram","4.0.5","1","y","0","left","left","left","left","NA","464.0","6164","4969","464","NA","2","legacy","1","1024","2","48000","-16","experiment","2","even","4","699695","696447","697485","2129","97965","697489","619694","2194","92996","698492","701698","702163","8371","701698","NA","Sternberg Task","110","80166.0","116","1024"
"94","94","691","691","#3d3846","experiment","legacy","legacy","legacy","1","undefined","1","left","116","116","116","0","0","116","116","0","0","116","116","116","0","116","0","Thu Oct 19 21:17:40 2023","The main experiment item","False","SternbergTask.osexp","/Users/xaleyelyse/Desktop","False","mono","False","18","no","white","no","yes","768","legacy","104","11","/Users/xaleyelyse/Downloads/XWsubject_2.csv","legacy","4 7 6 8 2 3","Melodramatic Milgram","4.0.5","6","y","0","left","left","left","left","NA","756.0","6164","4969","756","NA","2","legacy","6","1024","2","48000","-16","experiment","2","even","3","705416","702166","703203","2129","97965","703208","619694","2194","92996","704212","707422","708179","8371","707422","NA","Sternberg Task","111","80922.0","117","1024"
"94","94","693","693","#3d3846","experiment","legacy","legacy","legacy","1","undefined","1","right","117","117","117","0","0","117","117","0","0","117","117","117","0","117","0","Thu Oct 19 21:17:40 2023","The main experiment item","False","SternbergTask.osexp","/Users/xaleyelyse/Desktop","False","mono","False","18","no","white","no","yes","768","legacy","105","11","/Users/xaleyelyse/Downloads/XWsubject_2.csv","legacy","5 7 3","Melodramatic Milgram","4.0.5","0","n","0","right","left","left","right","NA","884.0","6164","4969","884","NA","2","legacy","3","1024","2","48000","-16","experiment","2","even","9","711440","708182","709229","2129","97965","709232","619694","2194","92996","710237","713443","714328","8371","713443","NA","Sternberg Task","112","81806.0","118","1024"
"94","94","693","693","#3d3846","experiment","legacy","legacy","legacy","1","undefined","1","right","118","118","118","0","0","118","118","0","0","118","118","118","0","118","0","Thu Oct 19 21:17:40 2023","The main experiment item","False","SternbergTask.osexp","/Users/xaleyelyse/Desktop","False","mono","False","18","no","white","no","yes","768","legacy","106","11","/Users/xaleyelyse/Downloads/XWsubject_2.csv","legacy","8 4 3 5","Melodramatic Milgram","4.0.5","0","n","0","right","left","left","right","NA","769.0","6164","4969","769","NA","2","legacy","4","1024","2","48000","-16","experiment","2","even","6","717576","714330","715360","2129","97965","715362","619694","2194","92996","716369","719581","720351","8371","719581","NA","Sternberg Task","113","82575.0","119","1024"
"95","95","694","694","#3d3846","experiment","legacy","legacy","legacy","1","undefined","1","left","119","119","119","0","0","119","119","0","0","119","119","119","0","119","0","Thu Oct 19 21:17:40 2023","The main experiment item","False","SternbergTask.osexp","/Users/xaleyelyse/Desktop","False","mono","False","18","no","white","no","yes","768","legacy","107","11","/Users/xaleyelyse/Downloads/XWsubject_2.csv","legacy","7 2 3","Melodramatic Milgram","4.0.5","3","y","0","left","left","left","left","NA","730.0","6164","4969","730","NA","2","legacy","3","1024","2","48000","-16","experiment","2","even","3","723598","720354","721387","2129","97965","721390","619694","2194","92996","722393","725604","726335","8371","725603","NA","Sternberg Task","114","83305.0","120","1024"
"95","95","695","695","#3d3846","experiment","legacy","legacy","legacy","1","undefined","1","right","120","120","120","0","0","120","120","0","0","120","120","120","0","120","0","Thu Oct 19 21:17:40 2023","The main experiment item","False","SternbergTask.osexp","/Users/xaleyelyse/Desktop","False","mono","False","18","no","white","no","yes","768","legacy","108","11","/Users/xaleyelyse/Downloads/XWsubject_2.csv","legacy","8 2 1 4 5 9","Melodramatic Milgram","4.0.5","0","n","0","right","left","left","right","NA","805.0","6164","4969","805","NA","2","legacy","6","1024","2","48000","-16","experiment","2","even","7","729584","726338","727374","2129","97965","727377","619694","2194","92996","728380","731588","732395","8371","731588","NA","Sternberg Task","115","84110.0","121","1024"
"95","95","694","694","#3d3846","experiment","legacy","legacy","legacy","1","undefined","1","left","121","121","121","0","0","121","121","0","0","121","121","121","0","121","0","Thu Oct 19 21:17:40 2023","The main experiment item","False","SternbergTask.osexp","/Users/xaleyelyse/Desktop","False","mono","False","18","no","white","no","yes","768","legacy","109","11","/Users/xaleyelyse/Downloads/XWsubject_2.csv","legacy","9 5 3 8 4","Melodramatic Milgram","4.0.5","1","y","0","left","left","left","left","NA","598.0","6164","4969","598","NA","2","legacy","5","1024","2","48000","-16","experiment","2","even","9","735642","732397","733433","2129","97965","733436","619694","2194","92996","734439","737646","738246","8371","737646","NA","Sternberg Task","116","84708.0","122","1024"
"95","95","693","693","#3d3846","experiment","legacy","legacy","legacy","1","undefined","1","left","122","122","122","0","0","122","122","0","0","122","122","122","0","122","0","Thu Oct 19 21:17:40 2023","The main experiment item","False","SternbergTask.osexp","/Users/xaleyelyse/Desktop","False","mono","False","18","no","white","no","yes","768","legacy","110","11","/Users/xaleyelyse/Downloads/XWsubject_2.csv","legacy","5 2 9 6 1 7","Melodramatic Milgram","4.0.5","3","y","0","left","left","left","left","NA","592.0","6164","4969","592","NA","2","legacy","6","1024","2","48000","-16","experiment","2","even","9","741496","738248","739286","2129","97965","739288","619694","2194","92996","740292","743501","744094","8371","743501","NA","Sternberg Task","117","85300.0","123","1024"
"95","95","694","694","#3d3846","experiment","legacy","legacy","legacy","1","undefined","1","right","123","123","123","0","0","123","123","0","0","123","123","123","0","123","0","Thu Oct 19 21:17:40 2023","The main experiment item","False","SternbergTask.osexp","/Users/xaleyelyse/Desktop","False","mono","False","18","no","white","no","yes","768","legacy","111","11","/Users/xaleyelyse/Downloads/XWsubject_2.csv","legacy","2 8 9","Melodramatic Milgram","4.0.5","0","n","0","right","left","left","right","NA","818.0","6164","4969","818","NA","2","legacy","3","1024","2","48000","-16","experiment","2","even","6","747354","744097","0","2129","97965","0","619694","2194","92996","746150","749357","750176","8371","749357","NA","Sternberg Task","118","86118.0","124","1024"
"95","95","694","694","#3d3846","experiment","legacy","legacy","legacy","1","undefined","1","right","124","124","124","0","0","124","124","0","0","124","124","124","0","124","0","Thu Oct 19 21:17:40 2023","The main experiment item","False","SternbergTask.osexp","/Users/xaleyelyse/Desktop","False","mono","False","18","no","white","no","yes","768","legacy","112","11","/Users/xaleyelyse/Downloads/XWsubject_2.csv","legacy","1 6 4","Melodramatic Milgram","4.0.5","0","n","0","right","left","left","right","NA","688.0","6164","4969","688","NA","2","legacy","3","1024","2","48000","-16","experiment","2","even","7","753428","750179","751207","2129","97965","751214","619694","2194","92996","752217","755437","756126","8371","755437","NA","Sternberg Task","119","86806.0","125","1024"
"95","95","692","692","#3d3846","experiment","legacy","legacy","legacy","1","undefined","1","left","125","125","125","0","0","125","125","0","0","125","125","125","0","125","0","Thu Oct 19 21:17:40 2023","The main experiment item","False","SternbergTask.osexp","/Users/xaleyelyse/Desktop","False","mono","False","18","no","white","no","yes","768","legacy","113","11","/Users/xaleyelyse/Downloads/XWsubject_2.csv","legacy","8","Melodramatic Milgram","4.0.5","1","y","0","left","left","left","left","NA","437.0","6164","4969","437","NA","2","legacy","1","1024","2","48000","-16","experiment","2","even","8","759370","756128","757160","2129","97965","757165","619694","2194","92996","758168","761376","761814","8371","761376","NA","Sternberg Task","120","87243.0","126","1024"
"95","95","691","691","#3d3846","experiment","legacy","legacy","legacy","1","undefined","1","right","126","126","126","0","0","126","126","0","0","126","126","126","0","126","0","Thu Oct 19 21:17:40 2023","The main experiment item","False","SternbergTask.osexp","/Users/xaleyelyse/Desktop","False","mono","False","18","no","white","no","yes","768","legacy","114","11","/Users/xaleyelyse/Downloads/XWsubject_2.csv","legacy","2 3 8 5 6 7","Melodramatic Milgram","4.0.5","0","n","0","right","left","left","right","NA","626.0","6164","4969","626","NA","2","legacy","6","1024","2","48000","-16","experiment","2","even","1","765065","761817","762854","2129","97965","762858","619694","2194","92996","763862","767073","767700","8371","767069","NA","Sternberg Task","121","87869.0","127","1024"
