"acc","accuracy","average_response_time","avg_rt","background","block","canvas_backend","clock_backend","color_backend","compensation","coordinates","correct","correct_instruction1","correct_keyboard_response","correct_response","count_ISI","count_correctFeedback","count_expSequence","count_experiment","count_experimentLoop","count_fixation","count_incorrectFeedback","count_instruction1","count_instructions2","count_keyboard_response","count_logger","count_memorySet","count_new_sketchpad","count_practiceLoop","count_probe","count_thankYou","datetime","description","disable_garbage_collection","experiment_file","experiment_path","font_bold","font_family","font_italic","font_size","font_underline","foreground","form_clicks","fullscreen","height","keyboard_backend","live_row","live_row_practiceLoop","logfile","mouse_backend","numberSet","opensesame_codename","opensesame_version","posInSet","present","repeat_cycle","response","response_instruction1","response_instructions2","response_keyboard_response","response_new_sketchpad","response_thankYou","response_time","response_time_instruction1","response_time_instructions2","response_time_keyboard_response","response_time_new_sketchpad","response_time_thankYou","round_decimals","sampler_backend","setSize","sound_buf_size","sound_channels","sound_freq","sound_sample_size","start","subject_nr","subject_parity","target","time_ISI","time_correctFeedback","time_expSequence","time_experiment","time_experimentLoop","time_fixation","time_incorrectFeedback","time_instruction1","time_instructions2","time_keyboard_response","time_logger","time_memorySet","time_new_sketchpad","time_practiceLoop","time_probe","time_thankYou","title","total_correct","total_response_time","total_responses","uniform_coordinates","width"
"100","100","635","635","black","practice","legacy","legacy","legacy","0","uniform","1","undefined","1","left","0","0","0","0","0","0","0","0","0","0","0","0","NA","0","0","0","Sun Oct 17 11:19:53 2021","The main experiment item","yes","Sternbergtask.osexp","/Users/mihailcodreanu/Desktop","no","mono","no","18","no","white","no","yes","768","legacy","0","0","/Users/mihailcodreanu/Desktop/subject-1.csv","legacy","6","Lentiform Loewenfeld","3.3.9","1","y","0","left","left","NA","left","NA","NA","635","33657","NA","635","NA","NA","2","legacy","1","1024","2","48000","-16","experiment","1","odd","6","40111","NA","37894","3797","NA","37899","NA","3805","NA","42115","42753","38904","NA","37475","42115","NA","Sternberg task","1","635","1","yes","1024"
"100","100","718","718","black","practice","legacy","legacy","legacy","0","uniform","1","undefined","1","right","1","1","1","0","0","1","1","0","0","1","1","1","NA","0","1","0","Sun Oct 17 11:19:53 2021","The main experiment item","yes","Sternbergtask.osexp","/Users/mihailcodreanu/Desktop","no","mono","no","18","no","white","no","yes","768","legacy","1","1","/Users/mihailcodreanu/Desktop/subject-1.csv","legacy","5 7 8 4 1 2","Lentiform Loewenfeld","3.3.9","0","n","0","right","left","NA","right","NA","NA","801","33657","NA","801","NA","NA","2","legacy","6","1024","2","48000","-16","experiment","1","odd","6","46064","42785","43851","3797","NA","43855","NA","3805","NA","48069","48871","44859","NA","37475","48069","NA","Sternberg task","2","1436","2","yes","1024"
"100","100","834","834","black","practice","legacy","legacy","legacy","0","uniform","1","undefined","1","right","2","2","2","0","0","2","2","0","0","2","2","2","NA","0","2","0","Sun Oct 17 11:19:53 2021","The main experiment item","yes","Sternbergtask.osexp","/Users/mihailcodreanu/Desktop","no","mono","no","18","no","white","no","yes","768","legacy","2","2","/Users/mihailcodreanu/Desktop/subject-1.csv","legacy","3 1 9 4","Lentiform Loewenfeld","3.3.9","0","n","0","right","left","NA","right","NA","NA","1066","33657","NA","1066","NA","NA","2","legacy","4","1024","2","48000","-16","experiment","1","odd","6","52144","48876","49930","3797","NA","49934","NA","3805","NA","54148","55215","50938","NA","37475","54148","NA","Sternberg task","3","2502","3","yes","1024"
"100","100","864.25","864.25","black","practice","legacy","legacy","legacy","0","uniform","1","undefined","1","right","3","3","3","0","0","3","3","0","0","3","3","3","NA","0","3","0","Sun Oct 17 11:19:53 2021","The main experiment item","yes","Sternbergtask.osexp","/Users/mihailcodreanu/Desktop","no","mono","no","18","no","white","no","yes","768","legacy","3","3","/Users/mihailcodreanu/Desktop/subject-1.csv","legacy","4 1 5","Lentiform Loewenfeld","3.3.9","0","n","0","right","left","NA","right","NA","NA","955","33657","NA","955","NA","NA","2","legacy","3","1024","2","48000","-16","experiment","1","odd","2","58487","55221","56275","3797","NA","56279","NA","3805","NA","60491","61447","57283","NA","37475","60491","NA","Sternberg task","4","3457","4","yes","1024"
"100","100","856.4","856.4","black","practice","legacy","legacy","legacy","0","uniform","1","undefined","1","right","4","4","4","0","0","4","4","0","0","4","4","4","NA","0","4","0","Sun Oct 17 11:19:53 2021","The main experiment item","yes","Sternbergtask.osexp","/Users/mihailcodreanu/Desktop","no","mono","no","18","no","white","no","yes","768","legacy","4","4","/Users/mihailcodreanu/Desktop/subject-1.csv","legacy","9 6 7 4 5","Lentiform Loewenfeld","3.3.9","0","n","0","right","left","NA","right","NA","NA","825","33657","NA","825","NA","NA","2","legacy","5","1024","2","48000","-16","experiment","1","odd","3","64721","61453","62507","3797","NA","62511","NA","3805","NA","66725","67551","63515","NA","37475","66725","NA","Sternberg task","5","4282","5","yes","1024"
"100","100","816.6666666666666","816.6666666666666","black","practice","legacy","legacy","legacy","0","uniform","1","undefined","1","right","5","5","5","0","0","5","5","0","0","5","5","5","NA","0","5","0","Sun Oct 17 11:19:53 2021","The main experiment item","yes","Sternbergtask.osexp","/Users/mihailcodreanu/Desktop","no","mono","no","18","no","white","no","yes","768","legacy","5","5","/Users/mihailcodreanu/Desktop/subject-1.csv","legacy","2 1","Lentiform Loewenfeld","3.3.9","0","n","0","right","left","NA","right","NA","NA","618","33657","NA","618","NA","NA","2","legacy","2","1024","2","48000","-16","experiment","1","odd","5","70824","67556","68610","3797","NA","68613","NA","3805","NA","72828","73447","69618","NA","37475","72828","NA","Sternberg task","6","4900","6","yes","1024"
"100","100","861.4285714285714","861.4285714285714","black","practice","legacy","legacy","legacy","0","uniform","1","undefined","1","left","6","6","6","0","0","6","6","0","0","6","6","6","NA","0","6","0","Sun Oct 17 11:19:53 2021","The main experiment item","yes","Sternbergtask.osexp","/Users/mihailcodreanu/Desktop","no","mono","no","18","no","white","no","yes","768","legacy","6","6","/Users/mihailcodreanu/Desktop/subject-1.csv","legacy","4 3 1 7 9 8","Lentiform Loewenfeld","3.3.9","1","y","0","left","left","NA","left","NA","NA","1130","33657","NA","1130","NA","NA","2","legacy","6","1024","2","48000","-16","experiment","1","odd","4","76719","73453","74507","3797","NA","74510","NA","3805","NA","78724","79855","75514","NA","37475","78724","NA","Sternberg task","7","6030","7","yes","1024"
"100","100","823.75","823.75","black","practice","legacy","legacy","legacy","0","uniform","1","undefined","1","right","7","7","7","0","0","7","7","0","0","7","7","7","NA","0","7","0","Sun Oct 17 11:19:53 2021","The main experiment item","yes","Sternbergtask.osexp","/Users/mihailcodreanu/Desktop","no","mono","no","18","no","white","no","yes","768","legacy","7","7","/Users/mihailcodreanu/Desktop/subject-1.csv","legacy","5","Lentiform Loewenfeld","3.3.9","0","n","0","right","left","NA","right","NA","NA","560","33657","NA","560","NA","NA","2","legacy","1","1024","2","48000","-16","experiment","1","odd","3","83130","79861","80917","3797","NA","80921","NA","3805","NA","85134","85695","81925","NA","37475","85134","NA","Sternberg task","8","6590","8","yes","1024"
"88.88888888888889","88.88888888888889","833.5555555555555","833.5555555555555","black","practice","legacy","legacy","legacy","0","uniform","0","undefined","0","left","8","8","8","0","0","8","8","0","0","8","8","8","NA","0","8","0","Sun Oct 17 11:19:53 2021","The main experiment item","yes","Sternbergtask.osexp","/Users/mihailcodreanu/Desktop","no","mono","no","18","no","white","no","yes","768","legacy","8","8","/Users/mihailcodreanu/Desktop/subject-1.csv","legacy","1 7 9 8 5","Lentiform Loewenfeld","3.3.9","4","y","0","right","left","NA","right","NA","NA","912","33657","NA","912","NA","NA","2","legacy","5","1024","2","48000","-16","experiment","1","odd","8","88970","85701","86757","3797","NA","86761","NA","3805","NA","90974","91887","87765","NA","37475","90974","NA","Sternberg task","8","7502","9","yes","1024"
"80","80","840.6","840.6","black","practice","legacy","legacy","legacy","0","uniform","0","undefined","0","left","9","9","9","0","0","9","9","0","0","9","9","9","NA","0","9","0","Sun Oct 17 11:19:53 2021","The main experiment item","yes","Sternbergtask.osexp","/Users/mihailcodreanu/Desktop","no","mono","no","18","no","white","no","yes","768","legacy","9","9","/Users/mihailcodreanu/Desktop/subject-1.csv","legacy","2 9 4","Lentiform Loewenfeld","3.3.9","3","y","0","right","left","NA","right","NA","NA","904","33657","NA","904","NA","NA","2","legacy","3","1024","2","48000","-16","experiment","1","odd","4","95162","85701","92948","3797","NA","92952","91893","3805","NA","97166","98071","93956","NA","37475","97166","NA","Sternberg task","8","8406","10","yes","1024"
"81.81818181818181","81.81818181818181","816.5454545454545","816.5454545454545","black","practice","legacy","legacy","legacy","0","uniform","1","undefined","1","left","10","10","10","0","0","10","10","0","0","10","10","10","NA","0","10","0","Sun Oct 17 11:19:53 2021","The main experiment item","yes","Sternbergtask.osexp","/Users/mihailcodreanu/Desktop","no","mono","no","18","no","white","no","yes","768","legacy","10","10","/Users/mihailcodreanu/Desktop/subject-1.csv","legacy","4 8","Lentiform Loewenfeld","3.3.9","1","y","0","left","left","NA","left","NA","NA","576","33657","NA","576","NA","NA","2","legacy","2","1024","2","48000","-16","experiment","1","odd","4","101346","85701","99132","3797","NA","99136","98077","3805","NA","103350","103927","100140","NA","37475","103350","NA","Sternberg task","9","8982","11","yes","1024"
"83.33333333333333","83.33333333333333","827.8333333333334","827.8333333333334","black","practice","legacy","legacy","legacy","0","uniform","1","undefined","1","left","11","11","11","0","0","11","11","0","0","11","11","11","NA","0","11","0","Sun Oct 17 11:19:53 2021","The main experiment item","yes","Sternbergtask.osexp","/Users/mihailcodreanu/Desktop","no","mono","no","18","no","white","no","yes","768","legacy","11","11","/Users/mihailcodreanu/Desktop/subject-1.csv","legacy","1 5 2 9","Lentiform Loewenfeld","3.3.9","2","y","0","left","left","NA","left","NA","NA","952","33657","NA","952","NA","NA","2","legacy","4","1024","2","48000","-16","experiment","1","odd","5","107201","103933","104988","3797","NA","104992","98077","3805","NA","109206","110159","105995","NA","37475","109206","NA","Sternberg task","10","9934","12","yes","1024"
"84.61538461538461","84.61538461538461","801.6153846153846","801.6153846153846","black","experiment","legacy","legacy","legacy","0","uniform","1","undefined","1","right","12","12","12","0","0","12","12","0","0","12","12","12","NA","0","12","0","Sun Oct 17 11:19:53 2021","The main experiment item","yes","Sternbergtask.osexp","/Users/mihailcodreanu/Desktop","no","mono","no","18","no","white","no","yes","768","legacy","0","11","/Users/mihailcodreanu/Desktop/subject-1.csv","legacy","7 3 2 8","Lentiform Loewenfeld","3.3.9","0","n","0","right","left","left","right","NA","NA","487","33657","7574","487","NA","NA","2","legacy","4","1024","2","48000","-16","experiment","1","odd","4","121034","110165","118821","3797","118767","118825","98077","3805","111192","123039","123527","119829","NA","37475","123039","NA","Sternberg task","11","10421","13","yes","1024"
"85.71428571428571","85.71428571428571","782.0714285714286","782.0714285714286","black","experiment","legacy","legacy","legacy","0","uniform","1","undefined","1","left","13","13","13","0","0","13","13","0","0","13","13","13","NA","0","13","0","Sun Oct 17 11:19:53 2021","The main experiment item","yes","Sternbergtask.osexp","/Users/mihailcodreanu/Desktop","no","mono","no","18","no","white","no","yes","768","legacy","1","11","/Users/mihailcodreanu/Desktop/subject-1.csv","legacy","9 8 4","Lentiform Loewenfeld","3.3.9","1","y","0","left","left","left","left","NA","NA","528","33657","7574","528","NA","NA","2","legacy","3","1024","2","48000","-16","experiment","1","odd","9","126802","123533","124588","3797","118767","124591","98077","3805","111192","128806","129335","125596","NA","37475","128806","NA","Sternberg task","12","10949","14","yes","1024"
"86.66666666666667","86.66666666666667","758.2","758.2","black","experiment","legacy","legacy","legacy","0","uniform","1","undefined","1","right","14","14","14","0","0","14","14","0","0","14","14","14","NA","0","14","0","Sun Oct 17 11:19:53 2021","The main experiment item","yes","Sternbergtask.osexp","/Users/mihailcodreanu/Desktop","no","mono","no","18","no","white","no","yes","768","legacy","2","11","/Users/mihailcodreanu/Desktop/subject-1.csv","legacy","5","Lentiform Loewenfeld","3.3.9","0","n","0","right","left","left","right","NA","NA","424","33657","7574","424","NA","NA","2","legacy","1","1024","2","48000","-16","experiment","1","odd","8","132610","129342","130396","3797","118767","130399","98077","3805","111192","134614","135039","131404","NA","37475","134614","NA","Sternberg task","13","11373","15","yes","1024"
"87.5","87.5","770.8125","770.8125","black","experiment","legacy","legacy","legacy","0","uniform","1","undefined","1","right","15","15","15","0","0","15","15","0","0","15","15","15","NA","0","15","0","Sun Oct 17 11:19:53 2021","The main experiment item","yes","Sternbergtask.osexp","/Users/mihailcodreanu/Desktop","no","mono","no","18","no","white","no","yes","768","legacy","3","11","/Users/mihailcodreanu/Desktop/subject-1.csv","legacy","2 8 7 9 5 3","Lentiform Loewenfeld","3.3.9","0","n","0","right","left","left","right","NA","NA","960","33657","7574","960","NA","NA","2","legacy","6","1024","2","48000","-16","experiment","1","odd","6","138313","135044","136100","3797","118767","136104","98077","3805","111192","140318","141279","137108","NA","37475","140318","NA","Sternberg task","14","12333","16","yes","1024"
"88.23529411764706","88.23529411764706","764.5294117647059","764.5294117647059","black","experiment","legacy","legacy","legacy","0","uniform","1","undefined","1","right","16","16","16","0","0","16","16","0","0","16","16","16","NA","0","16","0","Sun Oct 17 11:19:53 2021","The main experiment item","yes","Sternbergtask.osexp","/Users/mihailcodreanu/Desktop","no","mono","no","18","no","white","no","yes","768","legacy","4","11","/Users/mihailcodreanu/Desktop/subject-1.csv","legacy","1 4 9 3","Lentiform Loewenfeld","3.3.9","0","n","0","right","left","left","right","NA","NA","664","33657","7574","664","NA","NA","2","legacy","4","1024","2","48000","-16","experiment","1","odd","5","144554","141285","142340","3797","118767","142344","98077","3805","111192","146558","147223","143348","NA","37475","146557","NA","Sternberg task","15","12997","17","yes","1024"
"83.33333333333333","83.33333333333333","758.9444444444445","758.9444444444445","black","experiment","legacy","legacy","legacy","0","uniform","0","undefined","0","left","17","17","17","0","0","17","17","0","0","17","17","17","NA","0","17","0","Sun Oct 17 11:19:53 2021","The main experiment item","yes","Sternbergtask.osexp","/Users/mihailcodreanu/Desktop","no","mono","no","18","no","white","no","yes","768","legacy","5","11","/Users/mihailcodreanu/Desktop/subject-1.csv","legacy","4 1 8 7 5","Lentiform Loewenfeld","3.3.9","3","y","0","right","left","left","right","NA","NA","664","33657","7574","664","NA","NA","2","legacy","5","1024","2","48000","-16","experiment","1","odd","8","150498","147229","148284","3797","118767","148288","98077","3805","111192","152502","153167","149292","NA","37475","152502","NA","Sternberg task","15","13661","18","yes","1024"
"84.21052631578948","84.21052631578948","746.6315789473684","746.6315789473684","black","experiment","legacy","legacy","legacy","0","uniform","1","undefined","1","right","18","18","18","0","0","18","18","0","0","18","18","18","NA","0","18","0","Sun Oct 17 11:19:53 2021","The main experiment item","yes","Sternbergtask.osexp","/Users/mihailcodreanu/Desktop","no","mono","no","18","no","white","no","yes","768","legacy","6","11","/Users/mihailcodreanu/Desktop/subject-1.csv","legacy","3 4 2","Lentiform Loewenfeld","3.3.9","0","n","0","right","left","left","right","NA","NA","525","33657","7574","525","NA","NA","2","legacy","3","1024","2","48000","-16","experiment","1","odd","5","156444","147229","154231","3797","118767","154235","153173","3805","111192","158449","158974","155239","NA","37475","158449","NA","Sternberg task","16","14186","19","yes","1024"
"85","85","731.7","731.7","black","experiment","legacy","legacy","legacy","0","uniform","1","undefined","1","left","19","19","19","0","0","19","19","0","0","19","19","19","NA","0","19","0","Sun Oct 17 11:19:53 2021","The main experiment item","yes","Sternbergtask.osexp","/Users/mihailcodreanu/Desktop","no","mono","no","18","no","white","no","yes","768","legacy","7","11","/Users/mihailcodreanu/Desktop/subject-1.csv","legacy","2 3 7 4","Lentiform Loewenfeld","3.3.9","1","y","0","left","left","left","left","NA","NA","448","33657","7574","448","NA","NA","2","legacy","4","1024","2","48000","-16","experiment","1","odd","2","162250","158985","160037","3797","118767","160041","153173","3805","111192","164254","164703","161045","NA","37475","164254","NA","Sternberg task","17","14634","20","yes","1024"
"85.71428571428571","85.71428571428571","726.2857142857143","726.2857142857143","black","experiment","legacy","legacy","legacy","0","uniform","1","undefined","1","left","20","20","20","0","0","20","20","0","0","20","20","20","NA","0","20","0","Sun Oct 17 11:19:53 2021","The main experiment item","yes","Sternbergtask.osexp","/Users/mihailcodreanu/Desktop","no","mono","no","18","no","white","no","yes","768","legacy","8","11","/Users/mihailcodreanu/Desktop/subject-1.csv","legacy","8 5 3 7 4 6","Lentiform Loewenfeld","3.3.9","6","y","0","left","left","left","left","NA","NA","618","33657","7574","618","NA","NA","2","legacy","6","1024","2","48000","-16","experiment","1","odd","6","167976","164710","165764","3797","118767","165768","153173","3805","111192","169980","170599","166772","NA","37475","169980","NA","Sternberg task","18","15252","21","yes","1024"
"81.81818181818181","81.81818181818181","722","722","black","experiment","legacy","legacy","legacy","0","uniform","0","undefined","0","left","21","21","21","0","0","21","21","0","0","21","21","21","NA","0","21","0","Sun Oct 17 11:19:53 2021","The main experiment item","yes","Sternbergtask.osexp","/Users/mihailcodreanu/Desktop","no","mono","no","18","no","white","no","yes","768","legacy","9","11","/Users/mihailcodreanu/Desktop/subject-1.csv","legacy","2 8 5 1","Lentiform Loewenfeld","3.3.9","4","y","0","right","left","left","right","NA","NA","632","33657","7574","632","NA","NA","2","legacy","4","1024","2","48000","-16","experiment","1","odd","1","173873","170604","171660","3797","118767","171664","153173","3805","111192","175878","176511","172668","NA","37475","175878","NA","Sternberg task","18","15884","22","yes","1024"
"82.6086956521739","82.6086956521739","713.5217391304348","713.5217391304348","black","experiment","legacy","legacy","legacy","0","uniform","1","undefined","1","right","22","22","22","0","0","22","22","0","0","22","22","22","NA","0","22","0","Sun Oct 17 11:19:53 2021","The main experiment item","yes","Sternbergtask.osexp","/Users/mihailcodreanu/Desktop","no","mono","no","18","no","white","no","yes","768","legacy","10","11","/Users/mihailcodreanu/Desktop/subject-1.csv","legacy","7 9","Lentiform Loewenfeld","3.3.9","0","n","0","right","left","left","right","NA","NA","527","33657","7574","527","NA","NA","2","legacy","2","1024","2","48000","-16","experiment","1","odd","1","179787","170604","177574","3797","118767","177578","176518","3805","111192","181791","182319","178582","NA","37475","181791","NA","Sternberg task","19","16411","23","yes","1024"
"83.33333333333333","83.33333333333333","703.25","703.25","black","experiment","legacy","legacy","legacy","0","uniform","1","undefined","1","right","23","23","23","0","0","23","23","0","0","23","23","23","NA","0","23","0","Sun Oct 17 11:19:53 2021","The main experiment item","yes","Sternbergtask.osexp","/Users/mihailcodreanu/Desktop","no","mono","no","18","no","white","no","yes","768","legacy","11","11","/Users/mihailcodreanu/Desktop/subject-1.csv","legacy","7 1","Lentiform Loewenfeld","3.3.9","0","n","0","right","left","left","right","NA","NA","467","33657","7574","467","NA","NA","2","legacy","2","1024","2","48000","-16","experiment","1","odd","8","185591","182325","183378","3797","118767","183382","176518","3805","111192","187595","188063","184386","NA","37475","187595","NA","Sternberg task","20","16878","24","yes","1024"
"84","84","704.6","704.6","black","experiment","legacy","legacy","legacy","0","uniform","1","undefined","1","right","24","24","24","0","0","24","24","0","0","24","24","24","NA","0","24","0","Sun Oct 17 11:19:53 2021","The main experiment item","yes","Sternbergtask.osexp","/Users/mihailcodreanu/Desktop","no","mono","no","18","no","white","no","yes","768","legacy","12","11","/Users/mihailcodreanu/Desktop/subject-1.csv","legacy","7 8 6 1","Lentiform Loewenfeld","3.3.9","0","n","0","right","left","left","right","NA","NA","737","33657","7574","737","NA","NA","2","legacy","4","1024","2","48000","-16","experiment","1","odd","3","191336","188069","189122","3797","118767","189126","176518","3805","111192","193341","194079","190131","NA","37475","193341","NA","Sternberg task","21","17615","25","yes","1024"
"84.61538461538461","84.61538461538461","699.9615384615385","699.9615384615385","black","experiment","legacy","legacy","legacy","0","uniform","1","undefined","1","right","25","25","25","0","0","25","25","0","0","25","25","25","NA","0","25","0","Sun Oct 17 11:19:53 2021","The main experiment item","yes","Sternbergtask.osexp","/Users/mihailcodreanu/Desktop","no","mono","no","18","no","white","no","yes","768","legacy","13","11","/Users/mihailcodreanu/Desktop/subject-1.csv","legacy","1 7 5 2","Lentiform Loewenfeld","3.3.9","0","n","0","right","left","left","right","NA","NA","584","33657","7574","584","NA","NA","2","legacy","4","1024","2","48000","-16","experiment","1","odd","3","197354","194084","195140","3797","118767","195144","176518","3805","111192","199358","199943","196148","NA","37475","199358","NA","Sternberg task","22","18199","26","yes","1024"
"85.18518518518519","85.18518518518519","709.5555555555555","709.5555555555555","black","experiment","legacy","legacy","legacy","0","uniform","1","undefined","1","left","26","26","26","0","0","26","26","0","0","26","26","26","NA","0","26","0","Sun Oct 17 11:19:53 2021","The main experiment item","yes","Sternbergtask.osexp","/Users/mihailcodreanu/Desktop","no","mono","no","18","no","white","no","yes","768","legacy","14","11","/Users/mihailcodreanu/Desktop/subject-1.csv","legacy","9 1 6 7 8","Lentiform Loewenfeld","3.3.9","1","y","0","left","left","left","left","NA","NA","959","33657","7574","959","NA","NA","2","legacy","5","1024","2","48000","-16","experiment","1","odd","9","203218","199949","201005","3797","118767","201009","176518","3805","111192","205223","206183","202013","NA","37475","205223","NA","Sternberg task","23","19158","27","yes","1024"
"85.71428571428571","85.71428571428571","713.8928571428571","713.8928571428571","black","experiment","legacy","legacy","legacy","0","uniform","1","undefined","1","left","27","27","27","0","0","27","27","0","0","27","27","27","NA","0","27","0","Sun Oct 17 11:19:53 2021","The main experiment item","yes","Sternbergtask.osexp","/Users/mihailcodreanu/Desktop","no","mono","no","18","no","white","no","yes","768","legacy","15","11","/Users/mihailcodreanu/Desktop/subject-1.csv","legacy","5 7 8 2 3 8","Lentiform Loewenfeld","3.3.9","5","y","0","left","left","left","left","NA","NA","831","33657","7574","831","NA","NA","2","legacy","6","1024","2","48000","-16","experiment","1","odd","3","209459","206189","207245","3797","118767","207249","176518","3805","111192","211463","212295","208253","NA","37475","211463","NA","Sternberg task","24","19989","28","yes","1024"
"86.20689655172414","86.20689655172414","712.9655172413793","712.9655172413793","black","experiment","legacy","legacy","legacy","0","uniform","1","undefined","1","left","28","28","28","0","0","28","28","0","0","28","28","28","NA","0","28","0","Sun Oct 17 11:19:53 2021","The main experiment item","yes","Sternbergtask.osexp","/Users/mihailcodreanu/Desktop","no","mono","no","18","no","white","no","yes","768","legacy","16","11","/Users/mihailcodreanu/Desktop/subject-1.csv","legacy","8 1 6","Lentiform Loewenfeld","3.3.9","3","y","0","left","left","left","left","NA","NA","687","33657","7574","687","NA","NA","2","legacy","3","1024","2","48000","-16","experiment","1","odd","6","215570","212302","213357","3797","118767","213360","176518","3805","111192","217575","218263","214364","NA","37475","217574","NA","Sternberg task","25","20676","29","yes","1024"
"86.66666666666667","86.66666666666667","711.8666666666667","711.8666666666667","black","experiment","legacy","legacy","legacy","0","uniform","1","undefined","1","right","29","29","29","0","0","29","29","0","0","29","29","29","NA","0","29","0","Sun Oct 17 11:19:53 2021","The main experiment item","yes","Sternbergtask.osexp","/Users/mihailcodreanu/Desktop","no","mono","no","18","no","white","no","yes","768","legacy","17","11","/Users/mihailcodreanu/Desktop/subject-1.csv","legacy","1 6 4 3 9 7","Lentiform Loewenfeld","3.3.9","0","n","0","right","left","left","right","NA","NA","680","33657","7574","680","NA","NA","2","legacy","6","1024","2","48000","-16","experiment","1","odd","8","221538","218269","219324","3797","118767","219328","176518","3805","111192","223542","224223","220332","NA","37475","223542","NA","Sternberg task","26","21356","30","yes","1024"
"87.09677419354838","87.09677419354838","707.0967741935484","707.0967741935484","black","experiment","legacy","legacy","legacy","0","uniform","1","undefined","1","right","30","30","30","0","0","30","30","0","0","30","30","30","NA","0","30","0","Sun Oct 17 11:19:53 2021","The main experiment item","yes","Sternbergtask.osexp","/Users/mihailcodreanu/Desktop","no","mono","no","18","no","white","no","yes","768","legacy","18","11","/Users/mihailcodreanu/Desktop/subject-1.csv","legacy","3 9 1","Lentiform Loewenfeld","3.3.9","0","n","0","right","left","left","right","NA","NA","564","33657","7574","564","NA","NA","2","legacy","3","1024","2","48000","-16","experiment","1","odd","7","227494","224228","225281","3797","118767","225285","176518","3805","111192","229498","230063","226289","NA","37475","229498","NA","Sternberg task","27","21920","31","yes","1024"
"87.5","87.5","722.28125","722.28125","black","experiment","legacy","legacy","legacy","0","uniform","1","undefined","1","right","31","31","31","0","0","31","31","0","0","31","31","31","NA","0","31","0","Sun Oct 17 11:19:53 2021","The main experiment item","yes","Sternbergtask.osexp","/Users/mihailcodreanu/Desktop","no","mono","no","18","no","white","no","yes","768","legacy","19","11","/Users/mihailcodreanu/Desktop/subject-1.csv","legacy","2 3 8 5 6 7","Lentiform Loewenfeld","3.3.9","0","n","0","right","left","left","right","NA","NA","1193","33657","7574","1193","NA","NA","2","legacy","6","1024","2","48000","-16","experiment","1","odd","1","233337","230069","231123","3797","118767","231127","176518","3805","111192","235341","236535","232131","NA","37475","235341","NA","Sternberg task","28","23113","32","yes","1024"
"87.87878787878788","87.87878787878788","718.6969696969697","718.6969696969697","black","experiment","legacy","legacy","legacy","0","uniform","1","undefined","1","left","32","32","32","0","0","32","32","0","0","32","32","32","NA","0","32","0","Sun Oct 17 11:19:53 2021","The main experiment item","yes","Sternbergtask.osexp","/Users/mihailcodreanu/Desktop","no","mono","no","18","no","white","no","yes","768","legacy","20","11","/Users/mihailcodreanu/Desktop/subject-1.csv","legacy","2 4 6 9","Lentiform Loewenfeld","3.3.9","3","y","0","left","left","left","left","NA","NA","604","33657","7574","604","NA","NA","2","legacy","4","1024","2","48000","-16","experiment","1","odd","6","239806","236541","237595","3797","118767","237599","176518","3805","111192","241810","242415","238602","NA","37475","241810","NA","Sternberg task","29","23717","33","yes","1024"
"88.23529411764706","88.23529411764706","719.1764705882352","719.1764705882352","black","experiment","legacy","legacy","legacy","0","uniform","1","undefined","1","right","33","33","33","0","0","33","33","0","0","33","33","33","NA","0","33","0","Sun Oct 17 11:19:53 2021","The main experiment item","yes","Sternbergtask.osexp","/Users/mihailcodreanu/Desktop","no","mono","no","18","no","white","no","yes","768","legacy","21","11","/Users/mihailcodreanu/Desktop/subject-1.csv","legacy","8 4 3 9","Lentiform Loewenfeld","3.3.9","0","n","0","right","left","left","right","NA","NA","735","33657","7574","735","NA","NA","2","legacy","4","1024","2","48000","-16","experiment","1","odd","5","245690","242421","243477","3797","118767","243481","176518","3805","111192","247695","248431","244485","NA","37475","247695","NA","Sternberg task","30","24452","34","yes","1024"
"88.57142857142857","88.57142857142857","717.6","717.6","black","experiment","legacy","legacy","legacy","0","uniform","1","undefined","1","left","34","34","34","0","0","34","34","0","0","34","34","34","NA","0","34","0","Sun Oct 17 11:19:53 2021","The main experiment item","yes","Sternbergtask.osexp","/Users/mihailcodreanu/Desktop","no","mono","no","18","no","white","no","yes","768","legacy","22","11","/Users/mihailcodreanu/Desktop/subject-1.csv","legacy","4","Lentiform Loewenfeld","3.3.9","1","y","0","left","left","left","left","NA","NA","664","33657","7574","664","NA","NA","2","legacy","1","1024","2","48000","-16","experiment","1","odd","4","251706","248437","249492","3797","118767","249496","176518","3805","111192","253710","254375","250500","NA","37475","253710","NA","Sternberg task","31","25116","35","yes","1024"
"88.88888888888889","88.88888888888889","717.3888888888889","717.3888888888889","black","experiment","legacy","legacy","legacy","0","uniform","1","undefined","1","left","35","35","35","0","0","35","35","0","0","35","35","35","NA","0","35","0","Sun Oct 17 11:19:53 2021","The main experiment item","yes","Sternbergtask.osexp","/Users/mihailcodreanu/Desktop","no","mono","no","18","no","white","no","yes","768","legacy","23","11","/Users/mihailcodreanu/Desktop/subject-1.csv","legacy","7 8 6 3 1","Lentiform Loewenfeld","3.3.9","5","y","0","left","left","left","left","NA","NA","710","33657","7574","710","NA","NA","2","legacy","5","1024","2","48000","-16","experiment","1","odd","1","257652","254381","255438","3797","118767","255442","176518","3805","111192","259656","260367","256446","NA","37475","259656","NA","Sternberg task","32","25826","36","yes","1024"
"89.1891891891892","89.1891891891892","712.9459459459459","712.9459459459459","black","experiment","legacy","legacy","legacy","0","uniform","1","undefined","1","left","36","36","36","0","0","36","36","0","0","36","36","36","NA","0","36","0","Sun Oct 17 11:19:53 2021","The main experiment item","yes","Sternbergtask.osexp","/Users/mihailcodreanu/Desktop","no","mono","no","18","no","white","no","yes","768","legacy","24","11","/Users/mihailcodreanu/Desktop/subject-1.csv","legacy","3 9 7 6 4","Lentiform Loewenfeld","3.3.9","3","y","0","left","left","left","left","NA","NA","553","33657","7574","553","NA","NA","2","legacy","5","1024","2","48000","-16","experiment","1","odd","7","263641","260373","261427","3797","118767","261431","176518","3805","111192","265645","266199","262435","NA","37475","265645","NA","Sternberg task","33","26379","37","yes","1024"
"86.84210526315789","86.84210526315789","709.7631578947369","709.7631578947369","black","experiment","legacy","legacy","legacy","0","uniform","0","undefined","0","left","37","37","37","0","0","37","37","0","0","37","37","37","NA","0","37","0","Sun Oct 17 11:19:53 2021","The main experiment item","yes","Sternbergtask.osexp","/Users/mihailcodreanu/Desktop","no","mono","no","18","no","white","no","yes","768","legacy","25","11","/Users/mihailcodreanu/Desktop/subject-1.csv","legacy","6 8 9 3 4 9","Lentiform Loewenfeld","3.3.9","5","y","0","right","left","left","right","NA","NA","592","33657","7574","592","NA","NA","2","legacy","6","1024","2","48000","-16","experiment","1","odd","4","269473","266205","267260","3797","118767","267264","176518","3805","111192","271478","272071","268268","NA","37475","271478","NA","Sternberg task","33","26971","38","yes","1024"
"87.17948717948718","87.17948717948718","705.7692307692307","705.7692307692307","black","experiment","legacy","legacy","legacy","0","uniform","1","undefined","1","left","38","38","38","0","0","38","38","0","0","38","38","38","NA","0","38","0","Sun Oct 17 11:19:53 2021","The main experiment item","yes","Sternbergtask.osexp","/Users/mihailcodreanu/Desktop","no","mono","no","18","no","white","no","yes","768","legacy","26","11","/Users/mihailcodreanu/Desktop/subject-1.csv","legacy","2 3","Lentiform Loewenfeld","3.3.9","1","y","0","left","left","left","left","NA","NA","554","33657","7574","554","NA","NA","2","legacy","2","1024","2","48000","-16","experiment","1","odd","2","275344","266205","273131","3797","118767","273135","272078","3805","111192","277348","277903","274139","NA","37475","277348","NA","Sternberg task","34","27525","39","yes","1024"
"87.5","87.5","705.2","705.2","black","experiment","legacy","legacy","legacy","0","uniform","1","undefined","1","left","39","39","39","0","0","39","39","0","0","39","39","39","NA","0","39","0","Sun Oct 17 11:19:53 2021","The main experiment item","yes","Sternbergtask.osexp","/Users/mihailcodreanu/Desktop","no","mono","no","18","no","white","no","yes","768","legacy","27","11","/Users/mihailcodreanu/Desktop/subject-1.csv","legacy","7 2 3","Lentiform Loewenfeld","3.3.9","3","y","0","left","left","left","left","NA","NA","683","33657","7574","683","NA","NA","2","legacy","3","1024","2","48000","-16","experiment","1","odd","3","281175","277909","278963","3797","118767","278966","272078","3805","111192","283179","283863","279971","NA","37475","283179","NA","Sternberg task","35","28208","40","yes","1024"
"87.8048780487805","87.8048780487805","704.170731707317","704.170731707317","black","experiment","legacy","legacy","legacy","0","uniform","1","undefined","1","right","40","40","40","0","0","40","40","0","0","40","40","40","NA","0","40","0","Sun Oct 17 11:19:53 2021","The main experiment item","yes","Sternbergtask.osexp","/Users/mihailcodreanu/Desktop","no","mono","no","18","no","white","no","yes","768","legacy","28","11","/Users/mihailcodreanu/Desktop/subject-1.csv","legacy","5 3 8 7 2 4","Lentiform Loewenfeld","3.3.9","0","n","0","right","left","left","right","NA","NA","663","33657","7574","663","NA","NA","2","legacy","6","1024","2","48000","-16","experiment","1","odd","9","287139","283868","284925","3797","118767","284928","272078","3805","111192","289143","289807","285933","NA","37475","289143","NA","Sternberg task","36","28871","41","yes","1024"
"88.0952380952381","88.0952380952381","701.5","701.5","black","experiment","legacy","legacy","legacy","0","uniform","1","undefined","1","right","41","41","41","0","0","41","41","0","0","41","41","41","NA","0","41","0","Sun Oct 17 11:19:53 2021","The main experiment item","yes","Sternbergtask.osexp","/Users/mihailcodreanu/Desktop","no","mono","no","18","no","white","no","yes","768","legacy","29","11","/Users/mihailcodreanu/Desktop/subject-1.csv","legacy","5 2","Lentiform Loewenfeld","3.3.9","0","n","0","right","left","left","right","NA","NA","592","33657","7574","592","NA","NA","2","legacy","2","1024","2","48000","-16","experiment","1","odd","7","293082","289813","290869","3797","118767","290872","272078","3805","111192","295086","295679","291877","NA","37475","295086","NA","Sternberg task","37","29463","42","yes","1024"
"88.37209302325581","88.37209302325581","704.1860465116279","704.1860465116279","black","experiment","legacy","legacy","legacy","0","uniform","1","undefined","1","right","42","42","42","0","0","42","42","0","0","42","42","42","NA","0","42","0","Sun Oct 17 11:19:53 2021","The main experiment item","yes","Sternbergtask.osexp","/Users/mihailcodreanu/Desktop","no","mono","no","18","no","white","no","yes","768","legacy","30","11","/Users/mihailcodreanu/Desktop/subject-1.csv","legacy","7 9 1 6","Lentiform Loewenfeld","3.3.9","0","n","0","right","left","left","right","NA","NA","817","33657","7574","817","NA","NA","2","legacy","4","1024","2","48000","-16","experiment","1","odd","4","298952","295685","296739","3797","118767","296743","272078","3805","111192","300957","301775","297747","NA","37475","300957","NA","Sternberg task","38","30280","43","yes","1024"
"88.63636363636364","88.63636363636364","715.7727272727273","715.7727272727273","black","experiment","legacy","legacy","legacy","0","uniform","1","undefined","1","right","43","43","43","0","0","43","43","0","0","43","43","43","NA","0","43","0","Sun Oct 17 11:19:53 2021","The main experiment item","yes","Sternbergtask.osexp","/Users/mihailcodreanu/Desktop","no","mono","no","18","no","white","no","yes","768","legacy","31","11","/Users/mihailcodreanu/Desktop/subject-1.csv","legacy","5 3 2 6 9 8","Lentiform Loewenfeld","3.3.9","0","n","0","right","left","left","right","NA","NA","1214","33657","7574","1214","NA","NA","2","legacy","6","1024","2","48000","-16","experiment","1","odd","4","305052","301781","302838","3797","118767","302841","272078","3805","111192","307056","308271","303846","NA","37475","307056","NA","Sternberg task","39","31494","44","yes","1024"
"88.88888888888889","88.88888888888889","714.6888888888889","714.6888888888889","black","experiment","legacy","legacy","legacy","0","uniform","1","undefined","1","left","44","44","44","0","0","44","44","0","0","44","44","44","NA","0","44","0","Sun Oct 17 11:19:53 2021","The main experiment item","yes","Sternbergtask.osexp","/Users/mihailcodreanu/Desktop","no","mono","no","18","no","white","no","yes","768","legacy","32","11","/Users/mihailcodreanu/Desktop/subject-1.csv","legacy","6 7 9 3 1 2","Lentiform Loewenfeld","3.3.9","1","y","0","left","left","left","left","NA","NA","667","33657","7574","667","NA","NA","2","legacy","6","1024","2","48000","-16","experiment","1","odd","6","311551","308278","309336","3797","118767","309341","272078","3805","111192","313555","314223","310345","NA","37475","313555","NA","Sternberg task","40","32161","45","yes","1024"
"89.1304347826087","89.1304347826087","711.8695652173913","711.8695652173913","black","experiment","legacy","legacy","legacy","0","uniform","1","undefined","1","left","45","45","45","0","0","45","45","0","0","45","45","45","NA","0","45","0","Sun Oct 17 11:19:53 2021","The main experiment item","yes","Sternbergtask.osexp","/Users/mihailcodreanu/Desktop","no","mono","no","18","no","white","no","yes","768","legacy","33","11","/Users/mihailcodreanu/Desktop/subject-1.csv","legacy","6 9 3 1","Lentiform Loewenfeld","3.3.9","4","y","0","left","left","left","left","NA","NA","585","33657","7574","585","NA","NA","2","legacy","4","1024","2","48000","-16","experiment","1","odd","1","317497","314229","315283","3797","118767","315286","272078","3805","111192","319501","320087","316291","NA","37475","319501","NA","Sternberg task","41","32746","46","yes","1024"
"89.36170212765957","89.36170212765957","709.6170212765958","709.6170212765958","black","experiment","legacy","legacy","legacy","0","uniform","1","undefined","1","right","46","46","46","0","0","46","46","0","0","46","46","46","NA","0","46","0","Sun Oct 17 11:19:53 2021","The main experiment item","yes","Sternbergtask.osexp","/Users/mihailcodreanu/Desktop","no","mono","no","18","no","white","no","yes","768","legacy","34","11","/Users/mihailcodreanu/Desktop/subject-1.csv","legacy","9 8 2 7 4","Lentiform Loewenfeld","3.3.9","0","n","0","right","left","left","right","NA","NA","606","33657","7574","606","NA","NA","2","legacy","5","1024","2","48000","-16","experiment","1","odd","5","323363","320093","321150","3797","118767","321154","272078","3805","111192","325368","325975","322158","NA","37475","325367","NA","Sternberg task","42","33352","47","yes","1024"
"89.58333333333333","89.58333333333333","706.5625","706.5625","black","experiment","legacy","legacy","legacy","0","uniform","1","undefined","1","left","47","47","47","0","0","47","47","0","0","47","47","47","NA","0","47","0","Sun Oct 17 11:19:53 2021","The main experiment item","yes","Sternbergtask.osexp","/Users/mihailcodreanu/Desktop","no","mono","no","18","no","white","no","yes","768","legacy","35","11","/Users/mihailcodreanu/Desktop/subject-1.csv","legacy","3 4","Lentiform Loewenfeld","3.3.9","1","y","0","left","left","left","left","NA","NA","563","33657","7574","563","NA","NA","2","legacy","2","1024","2","48000","-16","experiment","1","odd","3","329246","325981","327033","3797","118767","327037","272078","3805","111192","331251","331815","328041","NA","37475","331251","NA","Sternberg task","43","33915","48","yes","1024"
"87.75510204081633","87.75510204081633","712.3469387755102","712.3469387755102","black","experiment","legacy","legacy","legacy","0","uniform","0","undefined","0","left","48","48","48","0","0","48","48","0","0","48","48","48","NA","0","48","0","Sun Oct 17 11:19:53 2021","The main experiment item","yes","Sternbergtask.osexp","/Users/mihailcodreanu/Desktop","no","mono","no","18","no","white","no","yes","768","legacy","36","11","/Users/mihailcodreanu/Desktop/subject-1.csv","legacy","3 5 7 1","Lentiform Loewenfeld","3.3.9","3","y","0","right","left","left","right","NA","NA","990","33657","7574","990","NA","NA","2","legacy","4","1024","2","48000","-16","experiment","1","odd","7","335092","331821","332878","3797","118767","332882","272078","3805","111192","337096","338087","333886","NA","37475","337096","NA","Sternberg task","43","34905","49","yes","1024"
"88","88","708.18","708.18","black","experiment","legacy","legacy","legacy","0","uniform","1","undefined","1","left","49","49","49","0","0","49","49","0","0","49","49","49","NA","0","49","0","Sun Oct 17 11:19:53 2021","The main experiment item","yes","Sternbergtask.osexp","/Users/mihailcodreanu/Desktop","no","mono","no","18","no","white","no","yes","768","legacy","37","11","/Users/mihailcodreanu/Desktop/subject-1.csv","legacy","8 5 4 7 3 1","Lentiform Loewenfeld","3.3.9","2","y","0","left","left","left","left","NA","NA","504","33657","7574","504","NA","NA","2","legacy","6","1024","2","48000","-16","experiment","1","odd","5","341362","331821","339148","3797","118767","339152","338094","3805","111192","343366","343871","340156","NA","37475","343365","NA","Sternberg task","44","35409","50","yes","1024"
"88.23529411764706","88.23529411764706","704.3921568627451","704.3921568627451","black","experiment","legacy","legacy","legacy","0","uniform","1","undefined","1","left","50","50","50","0","0","50","50","0","0","50","50","50","NA","0","50","0","Sun Oct 17 11:19:53 2021","The main experiment item","yes","Sternbergtask.osexp","/Users/mihailcodreanu/Desktop","no","mono","no","18","no","white","no","yes","768","legacy","38","11","/Users/mihailcodreanu/Desktop/subject-1.csv","legacy","2 6 1 7 4","Lentiform Loewenfeld","3.3.9","2","y","0","left","left","left","left","NA","NA","515","33657","7574","515","NA","NA","2","legacy","5","1024","2","48000","-16","experiment","1","odd","6","347142","343876","344929","3797","118767","344933","338094","3805","111192","349147","349663","345937","NA","37475","349147","NA","Sternberg task","45","35924","51","yes","1024"
"88.46153846153847","88.46153846153847","700.75","700.75","black","experiment","legacy","legacy","legacy","0","uniform","1","undefined","1","right","51","51","51","0","0","51","51","0","0","51","51","51","NA","0","51","0","Sun Oct 17 11:19:53 2021","The main experiment item","yes","Sternbergtask.osexp","/Users/mihailcodreanu/Desktop","no","mono","no","18","no","white","no","yes","768","legacy","39","11","/Users/mihailcodreanu/Desktop/subject-1.csv","legacy","5 7 3","Lentiform Loewenfeld","3.3.9","0","n","0","right","left","left","right","NA","NA","515","33657","7574","515","NA","NA","2","legacy","3","1024","2","48000","-16","experiment","1","odd","9","352935","349668","350721","3797","118767","350725","338094","3805","111192","354939","355455","351729","NA","37475","354939","NA","Sternberg task","46","36439","52","yes","1024"
"88.67924528301887","88.67924528301887","698.0943396226415","698.0943396226415","black","experiment","legacy","legacy","legacy","0","uniform","1","undefined","1","left","52","52","52","0","0","52","52","0","0","52","52","52","NA","0","52","0","Sun Oct 17 11:19:53 2021","The main experiment item","yes","Sternbergtask.osexp","/Users/mihailcodreanu/Desktop","no","mono","no","18","no","white","no","yes","768","legacy","40","11","/Users/mihailcodreanu/Desktop/subject-1.csv","legacy","9 4 2","Lentiform Loewenfeld","3.3.9","1","y","0","left","left","left","left","NA","NA","560","33657","7574","560","NA","NA","2","legacy","3","1024","2","48000","-16","experiment","1","odd","9","358730","355462","356516","3797","118767","356520","338094","3805","111192","360734","361295","357524","NA","37475","360734","NA","Sternberg task","47","36999","53","yes","1024"
"88.88888888888889","88.88888888888889","694.2037037037037","694.2037037037037","black","experiment","legacy","legacy","legacy","0","uniform","1","undefined","1","left","53","53","53","0","0","53","53","0","0","53","53","53","NA","0","53","0","Sun Oct 17 11:19:53 2021","The main experiment item","yes","Sternbergtask.osexp","/Users/mihailcodreanu/Desktop","no","mono","no","18","no","white","no","yes","768","legacy","41","11","/Users/mihailcodreanu/Desktop/subject-1.csv","legacy","9 1 7 2","Lentiform Loewenfeld","3.3.9","2","y","0","left","left","left","left","NA","NA","488","33657","7574","488","NA","NA","2","legacy","4","1024","2","48000","-16","experiment","1","odd","1","364569","361301","362355","3797","118767","362359","338094","3805","111192","366574","367063","363363","NA","37475","366574","NA","Sternberg task","48","37487","54","yes","1024"
"89.0909090909091","89.0909090909091","690.9090909090909","690.9090909090909","black","experiment","legacy","legacy","legacy","0","uniform","1","undefined","1","right","54","54","54","0","0","54","54","0","0","54","54","54","NA","0","54","0","Sun Oct 17 11:19:53 2021","The main experiment item","yes","Sternbergtask.osexp","/Users/mihailcodreanu/Desktop","no","mono","no","18","no","white","no","yes","768","legacy","42","11","/Users/mihailcodreanu/Desktop/subject-1.csv","legacy","1","Lentiform Loewenfeld","3.3.9","0","n","0","right","left","left","right","NA","NA","513","33657","7574","513","NA","NA","2","legacy","1","1024","2","48000","-16","experiment","1","odd","7","370337","367070","368124","3797","118767","368128","338094","3805","111192","372341","372855","369132","NA","37475","372341","NA","Sternberg task","49","38000","55","yes","1024"
"89.28571428571429","89.28571428571429","687.875","687.875","black","experiment","legacy","legacy","legacy","0","uniform","1","undefined","1","left","55","55","55","0","0","55","55","0","0","55","55","55","NA","0","55","0","Sun Oct 17 11:19:53 2021","The main experiment item","yes","Sternbergtask.osexp","/Users/mihailcodreanu/Desktop","no","mono","no","18","no","white","no","yes","768","legacy","43","11","/Users/mihailcodreanu/Desktop/subject-1.csv","legacy","8 3","Lentiform Loewenfeld","3.3.9","2","y","0","left","left","left","left","NA","NA","521","33657","7574","521","NA","NA","2","legacy","2","1024","2","48000","-16","experiment","1","odd","3","376129","372861","373915","3797","118767","373919","338094","3805","111192","378133","378655","374923","NA","37475","378133","NA","Sternberg task","50","38521","56","yes","1024"
"89.47368421052632","89.47368421052632","691.5438596491229","691.5438596491229","black","experiment","legacy","legacy","legacy","0","uniform","1","undefined","1","right","56","56","56","0","0","56","56","0","0","56","56","56","NA","0","56","0","Sun Oct 17 11:19:53 2021","The main experiment item","yes","Sternbergtask.osexp","/Users/mihailcodreanu/Desktop","no","mono","no","18","no","white","no","yes","768","legacy","44","11","/Users/mihailcodreanu/Desktop/subject-1.csv","legacy","9 5 3 2 8 6","Lentiform Loewenfeld","3.3.9","0","n","0","right","left","left","right","NA","NA","897","33657","7574","897","NA","NA","2","legacy","6","1024","2","48000","-16","experiment","1","odd","7","381929","378661","379716","3797","118767","379720","338094","3805","111192","383933","384831","380724","NA","37475","383933","NA","Sternberg task","51","39418","57","yes","1024"
"89.65517241379311","89.65517241379311","699.5172413793103","699.5172413793103","black","experiment","legacy","legacy","legacy","0","uniform","1","undefined","1","left","57","57","57","0","0","57","57","0","0","57","57","57","NA","0","57","0","Sun Oct 17 11:19:53 2021","The main experiment item","yes","Sternbergtask.osexp","/Users/mihailcodreanu/Desktop","no","mono","no","18","no","white","no","yes","768","legacy","45","11","/Users/mihailcodreanu/Desktop/subject-1.csv","legacy","3 4 9 6 2 9","Lentiform Loewenfeld","3.3.9","5","y","0","left","left","left","left","NA","NA","1154","33657","7574","1154","NA","NA","2","legacy","6","1024","2","48000","-16","experiment","1","odd","2","388104","384837","385891","3797","118767","385895","338094","3805","111192","390108","391263","386899","NA","37475","390108","NA","Sternberg task","52","40572","58","yes","1024"
"89.83050847457628","89.83050847457628","700.9322033898305","700.9322033898305","black","experiment","legacy","legacy","legacy","0","uniform","1","undefined","1","left","58","58","58","0","0","58","58","0","0","58","58","58","NA","0","58","0","Sun Oct 17 11:19:53 2021","The main experiment item","yes","Sternbergtask.osexp","/Users/mihailcodreanu/Desktop","no","mono","no","18","no","white","no","yes","768","legacy","46","11","/Users/mihailcodreanu/Desktop/subject-1.csv","legacy","1 4 9 3 2 5","Lentiform Loewenfeld","3.3.9","3","y","0","left","left","left","left","NA","NA","783","33657","7574","783","NA","NA","2","legacy","6","1024","2","48000","-16","experiment","1","odd","9","394539","391269","392325","3797","118767","392329","338094","3805","111192","396543","397327","393333","NA","37475","396543","NA","Sternberg task","53","41355","59","yes","1024"
"90","90","706.1333333333333","706.1333333333333","black","experiment","legacy","legacy","legacy","0","uniform","1","undefined","1","right","59","59","59","0","0","59","59","0","0","59","59","59","NA","0","59","0","Sun Oct 17 11:19:53 2021","The main experiment item","yes","Sternbergtask.osexp","/Users/mihailcodreanu/Desktop","no","mono","no","18","no","white","no","yes","768","legacy","47","11","/Users/mihailcodreanu/Desktop/subject-1.csv","legacy","1 8 7","Lentiform Loewenfeld","3.3.9","0","n","0","right","left","left","right","NA","NA","1013","33657","7574","1013","NA","NA","2","legacy","3","1024","2","48000","-16","experiment","1","odd","4","400605","397334","398391","3797","118767","398395","338094","3805","111192","402609","403623","399399","NA","37475","402608","NA","Sternberg task","54","42368","60","yes","1024"
"90.1639344262295","90.1639344262295","709.639344262295","709.639344262295","black","experiment","legacy","legacy","legacy","0","uniform","1","undefined","1","right","60","60","60","0","0","60","60","0","0","60","60","60","NA","0","60","0","Sun Oct 17 11:19:53 2021","The main experiment item","yes","Sternbergtask.osexp","/Users/mihailcodreanu/Desktop","no","mono","no","18","no","white","no","yes","768","legacy","48","11","/Users/mihailcodreanu/Desktop/subject-1.csv","legacy","3 4 9 6 7 8","Lentiform Loewenfeld","3.3.9","0","n","0","right","left","left","right","NA","NA","920","33657","7574","920","NA","NA","2","legacy","6","1024","2","48000","-16","experiment","1","odd","2","406898","403628","404684","3797","118767","404688","338094","3805","111192","408902","409823","405692","NA","37475","408902","NA","Sternberg task","55","43288","61","yes","1024"
"90.3225806451613","90.3225806451613","708.516129032258","708.516129032258","black","experiment","legacy","legacy","legacy","0","uniform","1","undefined","1","left","61","61","61","0","0","61","61","0","0","61","61","61","NA","0","61","0","Sun Oct 17 11:19:53 2021","The main experiment item","yes","Sternbergtask.osexp","/Users/mihailcodreanu/Desktop","no","mono","no","18","no","white","no","yes","768","legacy","49","11","/Users/mihailcodreanu/Desktop/subject-1.csv","legacy","9 3 8 2 1 4","Lentiform Loewenfeld","3.3.9","3","y","0","left","left","left","left","NA","NA","640","33657","7574","640","NA","NA","2","legacy","6","1024","2","48000","-16","experiment","1","odd","8","413098","409829","410885","3797","118767","410889","338094","3805","111192","415102","415743","411893","NA","37475","415102","NA","Sternberg task","56","43928","62","yes","1024"
"90.47619047619048","90.47619047619048","708.2063492063492","708.2063492063492","black","experiment","legacy","legacy","legacy","0","uniform","1","undefined","1","right","62","62","62","0","0","62","62","0","0","62","62","62","NA","0","62","0","Sun Oct 17 11:19:53 2021","The main experiment item","yes","Sternbergtask.osexp","/Users/mihailcodreanu/Desktop","no","mono","no","18","no","white","no","yes","768","legacy","50","11","/Users/mihailcodreanu/Desktop/subject-1.csv","legacy","4 2 7 6 1 3","Lentiform Loewenfeld","3.3.9","0","n","0","right","left","left","right","NA","NA","689","33657","7574","689","NA","NA","2","legacy","6","1024","2","48000","-16","experiment","1","odd","8","419017","415748","416806","3797","118767","416809","338094","3805","111192","421021","421711","417813","NA","37475","421021","NA","Sternberg task","57","44617","63","yes","1024"
"90.625","90.625","708.578125","708.578125","black","experiment","legacy","legacy","legacy","0","uniform","1","undefined","1","right","63","63","63","0","0","63","63","0","0","63","63","63","NA","0","63","0","Sun Oct 17 11:19:53 2021","The main experiment item","yes","Sternbergtask.osexp","/Users/mihailcodreanu/Desktop","no","mono","no","18","no","white","no","yes","768","legacy","51","11","/Users/mihailcodreanu/Desktop/subject-1.csv","legacy","6 9 4 5 3 2","Lentiform Loewenfeld","3.3.9","0","n","0","right","left","left","right","NA","NA","732","33657","7574","732","NA","NA","2","legacy","6","1024","2","48000","-16","experiment","1","odd","8","424982","421717","422771","3797","118767","422775","338094","3805","111192","426986","427719","423779","NA","37475","426986","NA","Sternberg task","58","45349","64","yes","1024"
"90.76923076923077","90.76923076923077","713.2153846153847","713.2153846153847","black","experiment","legacy","legacy","legacy","0","uniform","1","undefined","1","left","64","64","64","0","0","64","64","0","0","64","64","64","NA","0","64","0","Sun Oct 17 11:19:53 2021","The main experiment item","yes","Sternbergtask.osexp","/Users/mihailcodreanu/Desktop","no","mono","no","18","no","white","no","yes","768","legacy","52","11","/Users/mihailcodreanu/Desktop/subject-1.csv","legacy","6 7 8 5","Lentiform Loewenfeld","3.3.9","3","y","0","left","left","left","left","NA","NA","1010","33657","7574","1010","NA","NA","2","legacy","4","1024","2","48000","-16","experiment","1","odd","8","430992","427725","428780","3797","118767","428784","338094","3805","111192","432996","434007","429788","NA","37475","432996","NA","Sternberg task","59","46359","65","yes","1024"
"90.9090909090909","90.9090909090909","721.3939393939394","721.3939393939394","black","experiment","legacy","legacy","legacy","0","uniform","1","undefined","1","left","65","65","65","0","0","65","65","0","0","65","65","65","NA","0","65","0","Sun Oct 17 11:19:53 2021","The main experiment item","yes","Sternbergtask.osexp","/Users/mihailcodreanu/Desktop","no","mono","no","18","no","white","no","yes","768","legacy","53","11","/Users/mihailcodreanu/Desktop/subject-1.csv","legacy","7 1 8 5 6 2","Lentiform Loewenfeld","3.3.9","2","y","0","left","left","left","left","NA","NA","1253","33657","7574","1253","NA","NA","2","legacy","6","1024","2","48000","-16","experiment","1","odd","1","437284","434014","435071","3797","118767","435074","338094","3805","111192","439289","440543","436079","NA","37475","439289","NA","Sternberg task","60","47612","66","yes","1024"
"91.04477611940298","91.04477611940298","722.5671641791045","722.5671641791045","black","experiment","legacy","legacy","legacy","0","uniform","1","undefined","1","left","66","66","66","0","0","66","66","0","0","66","66","66","NA","0","66","0","Sun Oct 17 11:19:53 2021","The main experiment item","yes","Sternbergtask.osexp","/Users/mihailcodreanu/Desktop","no","mono","no","18","no","white","no","yes","768","legacy","54","11","/Users/mihailcodreanu/Desktop/subject-1.csv","legacy","4 6 2 5 1","Lentiform Loewenfeld","3.3.9","5","y","0","left","left","left","left","NA","NA","800","33657","7574","800","NA","NA","2","legacy","5","1024","2","48000","-16","experiment","1","odd","1","443817","440550","441604","3797","118767","441608","338094","3805","111192","445822","446623","442612","NA","37475","445822","NA","Sternberg task","61","48412","67","yes","1024"
"91.17647058823529","91.17647058823529","720.2058823529412","720.2058823529412","black","experiment","legacy","legacy","legacy","0","uniform","1","undefined","1","right","67","67","67","0","0","67","67","0","0","67","67","67","NA","0","67","0","Sun Oct 17 11:19:53 2021","The main experiment item","yes","Sternbergtask.osexp","/Users/mihailcodreanu/Desktop","no","mono","no","18","no","white","no","yes","768","legacy","55","11","/Users/mihailcodreanu/Desktop/subject-1.csv","legacy","4 2 6 9","Lentiform Loewenfeld","3.3.9","0","n","0","right","left","left","right","NA","NA","562","33657","7574","562","NA","NA","2","legacy","4","1024","2","48000","-16","experiment","1","odd","7","449896","446629","447682","3797","118767","447686","338094","3805","111192","451900","452463","448690","NA","37475","451900","NA","Sternberg task","62","48974","68","yes","1024"
"91.30434782608695","91.30434782608695","723.2463768115942","723.2463768115942","black","experiment","legacy","legacy","legacy","0","uniform","1","undefined","1","right","68","68","68","0","0","68","68","0","0","68","68","68","NA","0","68","0","Sun Oct 17 11:19:53 2021","The main experiment item","yes","Sternbergtask.osexp","/Users/mihailcodreanu/Desktop","no","mono","no","18","no","white","no","yes","768","legacy","56","11","/Users/mihailcodreanu/Desktop/subject-1.csv","legacy","1 4 3 6 5","Lentiform Loewenfeld","3.3.9","0","n","0","right","left","left","right","NA","NA","930","33657","7574","930","NA","NA","2","legacy","5","1024","2","48000","-16","experiment","1","odd","8","455735","452469","453522","3797","118767","453526","338094","3805","111192","457740","458671","454530","NA","37475","457740","NA","Sternberg task","63","49904","69","yes","1024"
"90","90","725.8285714285714","725.8285714285714","black","experiment","legacy","legacy","legacy","0","uniform","0","undefined","0","right","69","69","69","0","0","69","69","0","0","69","69","69","NA","0","69","0","Sun Oct 17 11:19:53 2021","The main experiment item","yes","Sternbergtask.osexp","/Users/mihailcodreanu/Desktop","no","mono","no","18","no","white","no","yes","768","legacy","57","11","/Users/mihailcodreanu/Desktop/subject-1.csv","legacy","5 9 2 3","Lentiform Loewenfeld","3.3.9","0","n","0","left","left","left","left","NA","NA","904","33657","7574","904","NA","NA","2","legacy","4","1024","2","48000","-16","experiment","1","odd","8","461946","458677","459733","3797","118767","459736","338094","3805","111192","463950","464855","460740","NA","37475","463950","NA","Sternberg task","63","50808","70","yes","1024"
"90.14084507042253","90.14084507042253","723.6619718309859","723.6619718309859","black","experiment","legacy","legacy","legacy","0","uniform","1","undefined","1","left","70","70","70","0","0","70","70","0","0","70","70","70","NA","0","70","0","Sun Oct 17 11:19:53 2021","The main experiment item","yes","Sternbergtask.osexp","/Users/mihailcodreanu/Desktop","no","mono","no","18","no","white","no","yes","768","legacy","58","11","/Users/mihailcodreanu/Desktop/subject-1.csv","legacy","6 2","Lentiform Loewenfeld","3.3.9","1","y","0","left","left","left","left","NA","NA","572","33657","7574","572","NA","NA","2","legacy","2","1024","2","48000","-16","experiment","1","odd","6","468126","458677","465913","3797","118767","465916","464859","3805","111192","470130","470703","466920","NA","37475","470130","NA","Sternberg task","64","51380","71","yes","1024"
"90.27777777777777","90.27777777777777","728.3194444444445","728.3194444444445","black","experiment","legacy","legacy","legacy","0","uniform","1","undefined","1","left","71","71","71","0","0","71","71","0","0","71","71","71","NA","0","71","0","Sun Oct 17 11:19:53 2021","The main experiment item","yes","Sternbergtask.osexp","/Users/mihailcodreanu/Desktop","no","mono","no","18","no","white","no","yes","768","legacy","59","11","/Users/mihailcodreanu/Desktop/subject-1.csv","legacy","9 6 2 4 1","Lentiform Loewenfeld","3.3.9","4","y","0","left","left","left","left","NA","NA","1059","33657","7574","1059","NA","NA","2","legacy","5","1024","2","48000","-16","experiment","1","odd","4","473975","470709","471763","3797","118767","471767","464859","3805","111192","475979","477039","472771","NA","37475","475979","NA","Sternberg task","65","52439","72","yes","1024"
"90.41095890410959","90.41095890410959","730.068493150685","730.068493150685","black","experiment","legacy","legacy","legacy","0","uniform","1","undefined","1","left","72","72","72","0","0","72","72","0","0","72","72","72","NA","0","72","0","Sun Oct 17 11:19:53 2021","The main experiment item","yes","Sternbergtask.osexp","/Users/mihailcodreanu/Desktop","no","mono","no","18","no","white","no","yes","768","legacy","60","11","/Users/mihailcodreanu/Desktop/subject-1.csv","legacy","6 5","Lentiform Loewenfeld","3.3.9","2","y","0","left","left","left","left","NA","NA","856","33657","7574","856","NA","NA","2","legacy","2","1024","2","48000","-16","experiment","1","odd","5","480314","477045","478101","3797","118767","478105","464859","3805","111192","482318","483175","479109","NA","37475","482318","NA","Sternberg task","66","53295","73","yes","1024"
"90.54054054054055","90.54054054054055","728.6756756756756","728.6756756756756","black","experiment","legacy","legacy","legacy","0","uniform","1","undefined","1","left","73","73","73","0","0","73","73","0","0","73","73","73","NA","0","73","0","Sun Oct 17 11:19:53 2021","The main experiment item","yes","Sternbergtask.osexp","/Users/mihailcodreanu/Desktop","no","mono","no","18","no","white","no","yes","768","legacy","61","11","/Users/mihailcodreanu/Desktop/subject-1.csv","legacy","2 4 8 5 1 3","Lentiform Loewenfeld","3.3.9","1","y","0","left","left","left","left","NA","NA","627","33657","7574","627","NA","NA","2","legacy","6","1024","2","48000","-16","experiment","1","odd","2","486447","483179","484233","3797","118767","484237","464859","3805","111192","488451","489079","485241","NA","37475","488451","NA","Sternberg task","67","53922","74","yes","1024"
"90.66666666666667","90.66666666666667","729.9733333333334","729.9733333333334","black","experiment","legacy","legacy","legacy","0","uniform","1","undefined","1","left","74","74","74","0","0","74","74","0","0","74","74","74","NA","0","74","0","Sun Oct 17 11:19:53 2021","The main experiment item","yes","Sternbergtask.osexp","/Users/mihailcodreanu/Desktop","no","mono","no","18","no","white","no","yes","768","legacy","62","11","/Users/mihailcodreanu/Desktop/subject-1.csv","legacy","4 9 7 8 5 3","Lentiform Loewenfeld","3.3.9","4","y","0","left","left","left","left","NA","NA","826","33657","7574","826","NA","NA","2","legacy","6","1024","2","48000","-16","experiment","1","odd","8","492360","489093","490146","3797","118767","490150","464859","3805","111192","494364","495191","491154","NA","37475","494364","NA","Sternberg task","68","54748","75","yes","1024"
"90.78947368421052","90.78947368421052","730.6052631578947","730.6052631578947","black","experiment","legacy","legacy","legacy","0","uniform","1","undefined","1","right","75","75","75","0","0","75","75","0","0","75","75","75","NA","0","75","0","Sun Oct 17 11:19:53 2021","The main experiment item","yes","Sternbergtask.osexp","/Users/mihailcodreanu/Desktop","no","mono","no","18","no","white","no","yes","768","legacy","63","11","/Users/mihailcodreanu/Desktop/subject-1.csv","legacy","2 8 9 4 1","Lentiform Loewenfeld","3.3.9","0","n","0","right","left","left","right","NA","NA","778","33657","7574","778","NA","NA","2","legacy","5","1024","2","48000","-16","experiment","1","odd","5","498463","495196","496250","3797","118767","496254","464859","3805","111192","500468","501247","497258","NA","37475","500468","NA","Sternberg task","69","55526","76","yes","1024"
"90.9090909090909","90.9090909090909","728.2727272727273","728.2727272727273","black","experiment","legacy","legacy","legacy","0","uniform","1","undefined","1","left","76","76","76","0","0","76","76","0","0","76","76","76","NA","0","76","0","Sun Oct 17 11:19:53 2021","The main experiment item","yes","Sternbergtask.osexp","/Users/mihailcodreanu/Desktop","no","mono","no","18","no","white","no","yes","768","legacy","64","11","/Users/mihailcodreanu/Desktop/subject-1.csv","legacy","8 9 5 6 7","Lentiform Loewenfeld","3.3.9","1","y","0","left","left","left","left","NA","NA","551","33657","7574","551","NA","NA","2","legacy","5","1024","2","48000","-16","experiment","1","odd","8","504522","501254","502309","3797","118767","502313","464859","3805","111192","506527","507079","503317","NA","37475","506527","NA","Sternberg task","70","56077","77","yes","1024"
"91.02564102564102","91.02564102564102","734.4358974358975","734.4358974358975","black","experiment","legacy","legacy","legacy","0","uniform","1","undefined","1","right","77","77","77","0","0","77","77","0","0","77","77","77","NA","0","77","0","Sun Oct 17 11:19:53 2021","The main experiment item","yes","Sternbergtask.osexp","/Users/mihailcodreanu/Desktop","no","mono","no","18","no","white","no","yes","768","legacy","65","11","/Users/mihailcodreanu/Desktop/subject-1.csv","legacy","1 4 9 2 5","Lentiform Loewenfeld","3.3.9","0","n","0","right","left","left","right","NA","NA","1209","33657","7574","1209","NA","NA","2","legacy","5","1024","2","48000","-16","experiment","1","odd","7","510353","507086","508139","3797","118767","508143","464859","3805","111192","512357","513567","509147","NA","37475","512357","NA","Sternberg task","71","57286","78","yes","1024"
"91.13924050632912","91.13924050632912","742.9620253164557","742.9620253164557","black","experiment","legacy","legacy","legacy","0","uniform","1","undefined","1","right","78","78","78","0","0","78","78","0","0","78","78","78","NA","0","78","0","Sun Oct 17 11:19:53 2021","The main experiment item","yes","Sternbergtask.osexp","/Users/mihailcodreanu/Desktop","no","mono","no","18","no","white","no","yes","768","legacy","66","11","/Users/mihailcodreanu/Desktop/subject-1.csv","legacy","7 6 4 8 1 2","Lentiform Loewenfeld","3.3.9","0","n","0","right","left","left","right","NA","NA","1408","33657","7574","1408","NA","NA","2","legacy","6","1024","2","48000","-16","experiment","1","odd","9","516842","513574","514628","3797","118767","514632","464859","3805","111192","518846","520255","515636","NA","37475","518846","NA","Sternberg task","72","58694","79","yes","1024"
"91.25","91.25","742.875","742.875","black","experiment","legacy","legacy","legacy","0","uniform","1","undefined","1","right","79","79","79","0","0","79","79","0","0","79","79","79","NA","0","79","0","Sun Oct 17 11:19:53 2021","The main experiment item","yes","Sternbergtask.osexp","/Users/mihailcodreanu/Desktop","no","mono","no","18","no","white","no","yes","768","legacy","67","11","/Users/mihailcodreanu/Desktop/subject-1.csv","legacy","6 8","Lentiform Loewenfeld","3.3.9","0","n","0","right","left","left","right","NA","NA","736","33657","7574","736","NA","NA","2","legacy","2","1024","2","48000","-16","experiment","1","odd","9","523530","520262","521317","3797","118767","521321","464859","3805","111192","525534","526271","522325","NA","37475","525534","NA","Sternberg task","73","59430","80","yes","1024"
"91.35802469135803","91.35802469135803","746.0246913580247","746.0246913580247","black","experiment","legacy","legacy","legacy","0","uniform","1","undefined","1","left","80","80","80","0","0","80","80","0","0","80","80","80","NA","0","80","0","Sun Oct 17 11:19:53 2021","The main experiment item","yes","Sternbergtask.osexp","/Users/mihailcodreanu/Desktop","no","mono","no","18","no","white","no","yes","768","legacy","68","11","/Users/mihailcodreanu/Desktop/subject-1.csv","legacy","4 3 2 5 8","Lentiform Loewenfeld","3.3.9","2","y","0","left","left","left","left","NA","NA","998","33657","7574","998","NA","NA","2","legacy","5","1024","2","48000","-16","experiment","1","odd","3","529547","526277","527333","3797","118767","527337","464859","3805","111192","531552","532551","528342","NA","37475","531551","NA","Sternberg task","74","60428","81","yes","1024"
"91.46341463414635","91.46341463414635","746.890243902439","746.890243902439","black","experiment","legacy","legacy","legacy","0","uniform","1","undefined","1","right","81","81","81","0","0","81","81","0","0","81","81","81","NA","0","81","0","Sun Oct 17 11:19:53 2021","The main experiment item","yes","Sternbergtask.osexp","/Users/mihailcodreanu/Desktop","no","mono","no","18","no","white","no","yes","768","legacy","69","11","/Users/mihailcodreanu/Desktop/subject-1.csv","legacy","8 9","Lentiform Loewenfeld","3.3.9","0","n","0","right","left","left","right","NA","NA","817","33657","7574","817","NA","NA","2","legacy","2","1024","2","48000","-16","experiment","1","odd","5","535825","532558","533611","3797","118767","533615","464859","3805","111192","537829","538647","534619","NA","37475","537829","NA","Sternberg task","75","61245","82","yes","1024"
"91.56626506024097","91.56626506024097","744.5542168674699","744.5542168674699","black","experiment","legacy","legacy","legacy","0","uniform","1","undefined","1","left","82","82","82","0","0","82","82","0","0","82","82","82","NA","0","82","0","Sun Oct 17 11:19:53 2021","The main experiment item","yes","Sternbergtask.osexp","/Users/mihailcodreanu/Desktop","no","mono","no","18","no","white","no","yes","768","legacy","70","11","/Users/mihailcodreanu/Desktop/subject-1.csv","legacy","7","Lentiform Loewenfeld","3.3.9","1","y","0","left","left","left","left","NA","NA","553","33657","7574","553","NA","NA","2","legacy","1","1024","2","48000","-16","experiment","1","odd","7","541921","538652","539707","3797","118767","539711","464859","3805","111192","543925","544479","540715","NA","37475","543925","NA","Sternberg task","76","61798","83","yes","1024"
"91.66666666666667","91.66666666666667","742.6428571428571","742.6428571428571","black","experiment","legacy","legacy","legacy","0","uniform","1","undefined","1","right","83","83","83","0","0","83","83","0","0","83","83","83","NA","0","83","0","Sun Oct 17 11:19:53 2021","The main experiment item","yes","Sternbergtask.osexp","/Users/mihailcodreanu/Desktop","no","mono","no","18","no","white","no","yes","768","legacy","71","11","/Users/mihailcodreanu/Desktop/subject-1.csv","legacy","2 7 5","Lentiform Loewenfeld","3.3.9","0","n","0","right","left","left","right","NA","NA","584","33657","7574","584","NA","NA","2","legacy","3","1024","2","48000","-16","experiment","1","odd","8","547754","544485","545541","3797","118767","545545","464859","3805","111192","549758","550343","546549","NA","37475","549758","NA","Sternberg task","77","62382","84","yes","1024"
"91.76470588235294","91.76470588235294","741.8235294117648","741.8235294117648","black","experiment","legacy","legacy","legacy","0","uniform","1","undefined","1","right","84","84","84","0","0","84","84","0","0","84","84","84","NA","0","84","0","Sun Oct 17 11:19:53 2021","The main experiment item","yes","Sternbergtask.osexp","/Users/mihailcodreanu/Desktop","no","mono","no","18","no","white","no","yes","768","legacy","72","11","/Users/mihailcodreanu/Desktop/subject-1.csv","legacy","4 1","Lentiform Loewenfeld","3.3.9","0","n","0","right","left","left","right","NA","NA","673","33657","7574","673","NA","NA","2","legacy","2","1024","2","48000","-16","experiment","1","odd","6","553618","550349","551404","3797","118767","551408","464859","3805","111192","555621","556295","552412","NA","37475","555621","NA","Sternberg task","78","63055","85","yes","1024"
"91.86046511627907","91.86046511627907","741.8604651162791","741.8604651162791","black","experiment","legacy","legacy","legacy","0","uniform","1","undefined","1","right","85","85","85","0","0","85","85","0","0","85","85","85","NA","0","85","0","Sun Oct 17 11:19:53 2021","The main experiment item","yes","Sternbergtask.osexp","/Users/mihailcodreanu/Desktop","no","mono","no","18","no","white","no","yes","768","legacy","73","11","/Users/mihailcodreanu/Desktop/subject-1.csv","legacy","6 9 5","Lentiform Loewenfeld","3.3.9","0","n","0","right","left","left","right","NA","NA","745","33657","7574","745","NA","NA","2","legacy","3","1024","2","48000","-16","experiment","1","odd","8","559569","556303","557356","3797","118767","557360","464859","3805","111192","561573","562319","558364","NA","37475","561573","NA","Sternberg task","79","63800","86","yes","1024"
"91.95402298850574","91.95402298850574","743.4597701149426","743.4597701149426","black","experiment","legacy","legacy","legacy","0","uniform","1","undefined","1","left","86","86","86","0","0","86","86","0","0","86","86","86","NA","0","86","0","Sun Oct 17 11:19:53 2021","The main experiment item","yes","Sternbergtask.osexp","/Users/mihailcodreanu/Desktop","no","mono","no","18","no","white","no","yes","768","legacy","74","11","/Users/mihailcodreanu/Desktop/subject-1.csv","legacy","8","Lentiform Loewenfeld","3.3.9","1","y","0","left","left","left","left","NA","NA","881","33657","7574","881","NA","NA","2","legacy","1","1024","2","48000","-16","experiment","1","odd","8","565593","562325","563379","3797","118767","563383","464859","3805","111192","567597","568479","564387","NA","37475","567597","NA","Sternberg task","80","64681","87","yes","1024"
"92.04545454545455","92.04545454545455","741.9318181818181","741.9318181818181","black","experiment","legacy","legacy","legacy","0","uniform","1","undefined","1","right","87","87","87","0","0","87","87","0","0","87","87","87","NA","0","87","0","Sun Oct 17 11:19:53 2021","The main experiment item","yes","Sternbergtask.osexp","/Users/mihailcodreanu/Desktop","no","mono","no","18","no","white","no","yes","768","legacy","75","11","/Users/mihailcodreanu/Desktop/subject-1.csv","legacy","1 6 4","Lentiform Loewenfeld","3.3.9","0","n","0","right","left","left","right","NA","NA","609","33657","7574","609","NA","NA","2","legacy","3","1024","2","48000","-16","experiment","1","odd","7","571753","568485","569539","3797","118767","569543","464859","3805","111192","573757","574367","570547","NA","37475","573757","NA","Sternberg task","81","65290","88","yes","1024"
"92.13483146067416","92.13483146067416","745.2696629213483","745.2696629213483","black","experiment","legacy","legacy","legacy","0","uniform","1","undefined","1","left","88","88","88","0","0","88","88","0","0","88","88","88","NA","0","88","0","Sun Oct 17 11:19:53 2021","The main experiment item","yes","Sternbergtask.osexp","/Users/mihailcodreanu/Desktop","no","mono","no","18","no","white","no","yes","768","legacy","76","11","/Users/mihailcodreanu/Desktop/subject-1.csv","legacy","6 9 7 4 5 1","Lentiform Loewenfeld","3.3.9","2","y","0","left","left","left","left","NA","NA","1039","33657","7574","1039","NA","NA","2","legacy","6","1024","2","48000","-16","experiment","1","odd","9","577643","574374","575429","3797","118767","575433","464859","3805","111192","579647","580687","576437","NA","37475","579647","NA","Sternberg task","82","66329","89","yes","1024"
"92.22222222222223","92.22222222222223","743.1111111111111","743.1111111111111","black","experiment","legacy","legacy","legacy","0","uniform","1","undefined","1","right","89","89","89","0","0","89","89","0","0","89","89","89","NA","0","89","0","Sun Oct 17 11:19:53 2021","The main experiment item","yes","Sternbergtask.osexp","/Users/mihailcodreanu/Desktop","no","mono","no","18","no","white","no","yes","768","legacy","77","11","/Users/mihailcodreanu/Desktop/subject-1.csv","legacy","6 7 5 9","Lentiform Loewenfeld","3.3.9","0","n","0","right","left","left","right","NA","NA","551","33657","7574","551","NA","NA","2","legacy","4","1024","2","48000","-16","experiment","1","odd","2","583963","580694","581749","3797","118767","581753","464859","3805","111192","585967","586519","582757","NA","37475","585967","NA","Sternberg task","83","66880","90","yes","1024"
"92.3076923076923","92.3076923076923","739.8791208791209","739.8791208791209","black","experiment","legacy","legacy","legacy","0","uniform","1","undefined","1","right","90","90","90","0","0","90","90","0","0","90","90","90","NA","0","90","0","Sun Oct 17 11:19:53 2021","The main experiment item","yes","Sternbergtask.osexp","/Users/mihailcodreanu/Desktop","no","mono","no","18","no","white","no","yes","768","legacy","78","11","/Users/mihailcodreanu/Desktop/subject-1.csv","legacy","4 8 1 2","Lentiform Loewenfeld","3.3.9","0","n","0","right","left","left","right","NA","NA","449","33657","7574","449","NA","NA","2","legacy","4","1024","2","48000","-16","experiment","1","odd","7","589793","586526","587581","3797","118767","587585","464859","3805","111192","591797","592247","588589","NA","37475","591797","NA","Sternberg task","84","67329","91","yes","1024"
"92.3913043478261","92.3913043478261","740.5326086956521","740.5326086956521","black","experiment","legacy","legacy","legacy","0","uniform","1","undefined","1","left","91","91","91","0","0","91","91","0","0","91","91","91","NA","0","91","0","Sun Oct 17 11:19:53 2021","The main experiment item","yes","Sternbergtask.osexp","/Users/mihailcodreanu/Desktop","no","mono","no","18","no","white","no","yes","768","legacy","79","11","/Users/mihailcodreanu/Desktop/subject-1.csv","legacy","8 7 3","Lentiform Loewenfeld","3.3.9","1","y","0","left","left","left","left","NA","NA","800","33657","7574","800","NA","NA","2","legacy","3","1024","2","48000","-16","experiment","1","odd","8","595521","592254","593307","3797","118767","593311","464859","3805","111192","597526","598327","594315","NA","37475","597526","NA","Sternberg task","85","68129","92","yes","1024"
"92.47311827956989","92.47311827956989","740.0860215053764","740.0860215053764","black","experiment","legacy","legacy","legacy","0","uniform","1","undefined","1","right","92","92","92","0","0","92","92","0","0","92","92","92","NA","0","92","0","Sun Oct 17 11:19:53 2021","The main experiment item","yes","Sternbergtask.osexp","/Users/mihailcodreanu/Desktop","no","mono","no","18","no","white","no","yes","768","legacy","80","11","/Users/mihailcodreanu/Desktop/subject-1.csv","legacy","8 2 1 4 5 9","Lentiform Loewenfeld","3.3.9","0","n","0","right","left","left","right","NA","NA","699","33657","7574","699","NA","NA","2","legacy","6","1024","2","48000","-16","experiment","1","odd","7","601599","598333","599387","3797","118767","599391","464859","3805","111192","603603","604303","600394","NA","37475","603603","NA","Sternberg task","86","68828","93","yes","1024"
"92.55319148936171","92.55319148936171","741.9574468085107","741.9574468085107","black","experiment","legacy","legacy","legacy","0","uniform","1","undefined","1","left","93","93","93","0","0","93","93","0","0","93","93","93","NA","0","93","0","Sun Oct 17 11:19:53 2021","The main experiment item","yes","Sternbergtask.osexp","/Users/mihailcodreanu/Desktop","no","mono","no","18","no","white","no","yes","768","legacy","81","11","/Users/mihailcodreanu/Desktop/subject-1.csv","legacy","5 2 6","Lentiform Loewenfeld","3.3.9","2","y","0","left","left","left","left","NA","NA","916","33657","7574","916","NA","NA","2","legacy","3","1024","2","48000","-16","experiment","1","odd","2","607574","604309","605362","3797","118767","605366","464859","3805","111192","609578","610495","606370","NA","37475","609578","NA","Sternberg task","87","69744","94","yes","1024"
"92.63157894736842","92.63157894736842","739.8842105263158","739.8842105263158","black","experiment","legacy","legacy","legacy","0","uniform","1","undefined","1","right","94","94","94","0","0","94","94","0","0","94","94","94","NA","0","94","0","Sun Oct 17 11:19:53 2021","The main experiment item","yes","Sternbergtask.osexp","/Users/mihailcodreanu/Desktop","no","mono","no","18","no","white","no","yes","768","legacy","82","11","/Users/mihailcodreanu/Desktop/subject-1.csv","legacy","8 5 7 3 6","Lentiform Loewenfeld","3.3.9","0","n","0","right","left","left","right","NA","NA","545","33657","7574","545","NA","NA","2","legacy","5","1024","2","48000","-16","experiment","1","odd","9","613769","610501","611555","3797","118767","611559","464859","3805","111192","615773","616319","612563","NA","37475","615773","NA","Sternberg task","88","70289","95","yes","1024"
"91.66666666666667","91.66666666666667","738.5104166666666","738.5104166666666","black","experiment","legacy","legacy","legacy","0","uniform","0","undefined","0","right","95","95","95","0","0","95","95","0","0","95","95","95","NA","0","95","0","Sun Oct 17 11:19:53 2021","The main experiment item","yes","Sternbergtask.osexp","/Users/mihailcodreanu/Desktop","no","mono","no","18","no","white","no","yes","768","legacy","83","11","/Users/mihailcodreanu/Desktop/subject-1.csv","legacy","1 7 8 3 9","Lentiform Loewenfeld","3.3.9","0","n","0","left","left","left","left","NA","NA","608","33657","7574","608","NA","NA","2","legacy","5","1024","2","48000","-16","experiment","1","odd","2","619594","616326","617380","3797","118767","617384","464859","3805","111192","621598","622207","618388","NA","37475","621598","NA","Sternberg task","88","70897","96","yes","1024"
"91.75257731958763","91.75257731958763","736.8453608247422","736.8453608247422","black","experiment","legacy","legacy","legacy","0","uniform","1","undefined","1","right","96","96","96","0","0","96","96","0","0","96","96","96","NA","0","96","0","Sun Oct 17 11:19:53 2021","The main experiment item","yes","Sternbergtask.osexp","/Users/mihailcodreanu/Desktop","no","mono","no","18","no","white","no","yes","768","legacy","84","11","/Users/mihailcodreanu/Desktop/subject-1.csv","legacy","1 5 3 2 8","Lentiform Loewenfeld","3.3.9","0","n","0","right","left","left","right","NA","NA","577","33657","7574","577","NA","NA","2","legacy","5","1024","2","48000","-16","experiment","1","odd","4","625480","616326","623267","3797","118767","623271","622213","3805","111192","627485","628063","624275","NA","37475","627485","NA","Sternberg task","89","71474","97","yes","1024"
"91.83673469387755","91.83673469387755","736.3469387755102","736.3469387755102","black","experiment","legacy","legacy","legacy","0","uniform","1","undefined","1","right","97","97","97","0","0","97","97","0","0","97","97","97","NA","0","97","0","Sun Oct 17 11:19:53 2021","The main experiment item","yes","Sternbergtask.osexp","/Users/mihailcodreanu/Desktop","no","mono","no","18","no","white","no","yes","768","legacy","85","11","/Users/mihailcodreanu/Desktop/subject-1.csv","legacy","8 5 4 2 9 6","Lentiform Loewenfeld","3.3.9","0","n","0","right","left","left","right","NA","NA","688","33657","7574","688","NA","NA","2","legacy","6","1024","2","48000","-16","experiment","1","odd","3","631338","628070","629125","3797","118767","629128","622213","3805","111192","633342","634031","630133","NA","37475","633342","NA","Sternberg task","90","72162","98","yes","1024"
"91.91919191919192","91.91919191919192","736.5151515151515","736.5151515151515","black","experiment","legacy","legacy","legacy","0","uniform","1","undefined","1","right","98","98","98","0","0","98","98","0","0","98","98","98","NA","0","98","0","Sun Oct 17 11:19:53 2021","The main experiment item","yes","Sternbergtask.osexp","/Users/mihailcodreanu/Desktop","no","mono","no","18","no","white","no","yes","768","legacy","86","11","/Users/mihailcodreanu/Desktop/subject-1.csv","legacy","6 3 1 7 9 8","Lentiform Loewenfeld","3.3.9","0","n","0","right","left","left","right","NA","NA","753","33657","7574","753","NA","NA","2","legacy","6","1024","2","48000","-16","experiment","1","odd","4","637305","634037","635092","3797","118767","635096","622213","3805","111192","639309","640063","636100","NA","37475","639309","NA","Sternberg task","91","72915","99","yes","1024"
"92","92","737.39","737.39","black","experiment","legacy","legacy","legacy","0","uniform","1","undefined","1","right","99","99","99","0","0","99","99","0","0","99","99","99","NA","0","99","0","Sun Oct 17 11:19:53 2021","The main experiment item","yes","Sternbergtask.osexp","/Users/mihailcodreanu/Desktop","no","mono","no","18","no","white","no","yes","768","legacy","87","11","/Users/mihailcodreanu/Desktop/subject-1.csv","legacy","7 1 5 6 3","Lentiform Loewenfeld","3.3.9","0","n","0","right","left","left","right","NA","NA","824","33657","7574","824","NA","NA","2","legacy","5","1024","2","48000","-16","experiment","1","odd","8","643337","640070","641124","3797","118767","641128","622213","3805","111192","645342","646167","642132","NA","37475","645342","NA","Sternberg task","92","73739","100","yes","1024"
"92.07920792079207","92.07920792079207","737.2772277227723","737.2772277227723","black","experiment","legacy","legacy","legacy","0","uniform","1","undefined","1","right","100","100","100","0","0","100","100","0","0","100","100","100","NA","0","100","0","Sun Oct 17 11:19:53 2021","The main experiment item","yes","Sternbergtask.osexp","/Users/mihailcodreanu/Desktop","no","mono","no","18","no","white","no","yes","768","legacy","88","11","/Users/mihailcodreanu/Desktop/subject-1.csv","legacy","8 6 3 4 7","Lentiform Loewenfeld","3.3.9","0","n","0","right","left","left","right","NA","NA","726","33657","7574","726","NA","NA","2","legacy","5","1024","2","48000","-16","experiment","1","odd","1","649444","646174","647230","3797","118767","647233","622213","3805","111192","651448","652175","648238","NA","37475","651448","NA","Sternberg task","93","74465","101","yes","1024"
"92.15686274509804","92.15686274509804","738.5","738.5","black","experiment","legacy","legacy","legacy","0","uniform","1","undefined","1","left","101","101","101","0","0","101","101","0","0","101","101","101","NA","0","101","0","Sun Oct 17 11:19:53 2021","The main experiment item","yes","Sternbergtask.osexp","/Users/mihailcodreanu/Desktop","no","mono","no","18","no","white","no","yes","768","legacy","89","11","/Users/mihailcodreanu/Desktop/subject-1.csv","legacy","8 9 5 7 1 6","Lentiform Loewenfeld","3.3.9","4","y","0","left","left","left","left","NA","NA","862","33657","7574","862","NA","NA","2","legacy","6","1024","2","48000","-16","experiment","1","odd","7","655451","652181","653238","3797","118767","653242","622213","3805","111192","657456","658319","654246","NA","37475","657456","NA","Sternberg task","94","75327","102","yes","1024"
"91.2621359223301","91.2621359223301","738.0970873786408","738.0970873786408","black","experiment","legacy","legacy","legacy","0","uniform","0","undefined","0","left","102","102","102","0","0","102","102","0","0","102","102","102","NA","0","102","0","Sun Oct 17 11:19:53 2021","The main experiment item","yes","Sternbergtask.osexp","/Users/mihailcodreanu/Desktop","no","mono","no","18","no","white","no","yes","768","legacy","90","11","/Users/mihailcodreanu/Desktop/subject-1.csv","legacy","9 5 8 1","Lentiform Loewenfeld","3.3.9","2","y","0","right","left","left","right","NA","NA","697","33657","7574","697","NA","NA","2","legacy","4","1024","2","48000","-16","experiment","1","odd","5","661593","658326","659379","3797","118767","659383","622213","3805","111192","663597","664295","660387","NA","37475","663597","NA","Sternberg task","94","76024","103","yes","1024"
"91.34615384615384","91.34615384615384","745.0961538461538","745.0961538461538","black","experiment","legacy","legacy","legacy","0","uniform","1","undefined","1","right","103","103","103","0","0","103","103","0","0","103","103","103","NA","0","103","0","Sun Oct 17 11:19:53 2021","The main experiment item","yes","Sternbergtask.osexp","/Users/mihailcodreanu/Desktop","no","mono","no","18","no","white","no","yes","768","legacy","91","11","/Users/mihailcodreanu/Desktop/subject-1.csv","legacy","2 6 4 3 9","Lentiform Loewenfeld","3.3.9","0","n","0","right","left","left","right","NA","NA","1466","33657","7574","1466","NA","NA","2","legacy","5","1024","2","48000","-16","experiment","1","odd","1","667568","658326","665356","3797","118767","665360","664301","3805","111192","669572","671039","666364","NA","37475","669572","NA","Sternberg task","95","77490","104","yes","1024"
"91.42857142857143","91.42857142857143","744.2761904761904","744.2761904761904","black","experiment","legacy","legacy","legacy","0","uniform","1","undefined","1","right","104","104","104","0","0","104","104","0","0","104","104","104","NA","0","104","0","Sun Oct 17 11:19:53 2021","The main experiment item","yes","Sternbergtask.osexp","/Users/mihailcodreanu/Desktop","no","mono","no","18","no","white","no","yes","768","legacy","92","11","/Users/mihailcodreanu/Desktop/subject-1.csv","legacy","2 5 1 4","Lentiform Loewenfeld","3.3.9","0","n","0","right","left","left","right","NA","NA","659","33657","7574","659","NA","NA","2","legacy","4","1024","2","48000","-16","experiment","1","odd","6","674311","671043","672097","3797","118767","672101","664301","3805","111192","676315","676975","673105","NA","37475","676315","NA","Sternberg task","96","78149","105","yes","1024"
"90.56603773584905","90.56603773584905","746.3962264150944","746.3962264150944","black","experiment","legacy","legacy","legacy","0","uniform","0","undefined","0","left","105","105","105","0","0","105","105","0","0","105","105","105","NA","0","105","0","Sun Oct 17 11:19:53 2021","The main experiment item","yes","Sternbergtask.osexp","/Users/mihailcodreanu/Desktop","no","mono","no","18","no","white","no","yes","768","legacy","93","11","/Users/mihailcodreanu/Desktop/subject-1.csv","legacy","4 7 6 8 2 3","Lentiform Loewenfeld","3.3.9","6","y","0","right","left","left","right","NA","NA","969","33657","7574","969","NA","NA","2","legacy","6","1024","2","48000","-16","experiment","1","odd","3","680249","676981","678035","3797","118767","678039","664301","3805","111192","682253","683223","679043","NA","37475","682253","NA","Sternberg task","96","79118","106","yes","1024"
"90.65420560747664","90.65420560747664","751.0747663551402","751.0747663551402","black","experiment","legacy","legacy","legacy","0","uniform","1","undefined","1","left","106","106","106","0","0","106","106","0","0","106","106","106","NA","0","106","0","Sun Oct 17 11:19:53 2021","The main experiment item","yes","Sternbergtask.osexp","/Users/mihailcodreanu/Desktop","no","mono","no","18","no","white","no","yes","768","legacy","94","11","/Users/mihailcodreanu/Desktop/subject-1.csv","legacy","9 5 3 8 4","Lentiform Loewenfeld","3.3.9","1","y","0","left","left","left","left","NA","NA","1247","33657","7574","1247","NA","NA","2","legacy","5","1024","2","48000","-16","experiment","1","odd","9","686499","676981","684285","3797","118767","684289","683229","3805","111192","688503","689751","685293","NA","37475","688503","NA","Sternberg task","97","80365","107","yes","1024"
"90.74074074074075","90.74074074074075","752.5555555555555","752.5555555555555","black","experiment","legacy","legacy","legacy","0","uniform","1","undefined","1","left","107","107","107","0","0","107","107","0","0","107","107","107","NA","0","107","0","Sun Oct 17 11:19:53 2021","The main experiment item","yes","Sternbergtask.osexp","/Users/mihailcodreanu/Desktop","no","mono","no","18","no","white","no","yes","768","legacy","95","11","/Users/mihailcodreanu/Desktop/subject-1.csv","legacy","5 7 3 6 2","Lentiform Loewenfeld","3.3.9","5","y","0","left","left","left","left","NA","NA","911","33657","7574","911","NA","NA","2","legacy","5","1024","2","48000","-16","experiment","1","odd","2","693027","689758","690813","3797","118767","690817","683229","3805","111192","695031","695943","691821","NA","37475","695031","NA","Sternberg task","98","81276","108","yes","1024"
"90.8256880733945","90.8256880733945","751.4311926605504","751.4311926605504","black","experiment","legacy","legacy","legacy","0","uniform","1","undefined","1","left","108","108","108","0","0","108","108","0","0","108","108","108","NA","0","108","0","Sun Oct 17 11:19:53 2021","The main experiment item","yes","Sternbergtask.osexp","/Users/mihailcodreanu/Desktop","no","mono","no","18","no","white","no","yes","768","legacy","96","11","/Users/mihailcodreanu/Desktop/subject-1.csv","legacy","9 3 1 2 5","Lentiform Loewenfeld","3.3.9","4","y","0","left","left","left","left","NA","NA","630","33657","7574","630","NA","NA","2","legacy","5","1024","2","48000","-16","experiment","1","odd","2","699220","695950","697006","3797","118767","697010","683229","3805","111192","701224","701855","698014","NA","37475","701224","NA","Sternberg task","99","81906","109","yes","1024"
"90.9090909090909","90.9090909090909","750.7818181818182","750.7818181818182","black","experiment","legacy","legacy","legacy","0","uniform","1","undefined","1","left","109","109","109","0","0","109","109","0","0","109","109","109","NA","0","109","0","Sun Oct 17 11:19:53 2021","The main experiment item","yes","Sternbergtask.osexp","/Users/mihailcodreanu/Desktop","no","mono","no","18","no","white","no","yes","768","legacy","97","11","/Users/mihailcodreanu/Desktop/subject-1.csv","legacy","4 6 5 8","Lentiform Loewenfeld","3.3.9","1","y","0","left","left","left","left","NA","NA","680","33657","7574","680","NA","NA","2","legacy","4","1024","2","48000","-16","experiment","1","odd","4","705130","701862","702916","3797","118767","702920","683229","3805","111192","707134","707815","703924","NA","37475","707134","NA","Sternberg task","100","82586","110","yes","1024"
"90.990990990991","90.990990990991","748.6126126126126","748.6126126126126","black","experiment","legacy","legacy","legacy","0","uniform","1","undefined","1","left","110","110","110","0","0","110","110","0","0","110","110","110","NA","0","110","0","Sun Oct 17 11:19:53 2021","The main experiment item","yes","Sternbergtask.osexp","/Users/mihailcodreanu/Desktop","no","mono","no","18","no","white","no","yes","768","legacy","98","11","/Users/mihailcodreanu/Desktop/subject-1.csv","legacy","3 5 4 7","Lentiform Loewenfeld","3.3.9","1","y","0","left","left","left","left","NA","NA","510","33657","7574","510","NA","NA","2","legacy","4","1024","2","48000","-16","experiment","1","odd","3","711092","707822","708878","3797","118767","708882","683229","3805","111192","713096","713607","709886","NA","37475","713096","NA","Sternberg task","101","83096","111","yes","1024"
"90.17857142857143","90.17857142857143","751.4553571428571","751.4553571428571","black","experiment","legacy","legacy","legacy","0","uniform","0","undefined","0","right","111","111","111","0","0","111","111","0","0","111","111","111","NA","0","111","0","Sun Oct 17 11:19:53 2021","The main experiment item","yes","Sternbergtask.osexp","/Users/mihailcodreanu/Desktop","no","mono","no","18","no","white","no","yes","768","legacy","99","11","/Users/mihailcodreanu/Desktop/subject-1.csv","legacy","7 1 8 4 9 3","Lentiform Loewenfeld","3.3.9","0","n","0","left","left","left","left","NA","NA","1067","33657","7574","1067","NA","NA","2","legacy","6","1024","2","48000","-16","experiment","1","odd","6","716879","713612","714666","3797","118767","714670","683229","3805","111192","718883","719951","715674","NA","37475","718883","NA","Sternberg task","101","84163","112","yes","1024"
"90.26548672566372","90.26548672566372","752.0353982300885","752.0353982300885","black","experiment","legacy","legacy","legacy","0","uniform","1","undefined","1","left","112","112","112","0","0","112","112","0","0","112","112","112","NA","0","112","0","Sun Oct 17 11:19:53 2021","The main experiment item","yes","Sternbergtask.osexp","/Users/mihailcodreanu/Desktop","no","mono","no","18","no","white","no","yes","768","legacy","100","11","/Users/mihailcodreanu/Desktop/subject-1.csv","legacy","7 6","Lentiform Loewenfeld","3.3.9","2","y","0","left","left","left","left","NA","NA","817","33657","7574","817","NA","NA","2","legacy","2","1024","2","48000","-16","experiment","1","odd","6","723225","713612","721013","3797","118767","721016","719958","3805","111192","725229","726047","722020","NA","37475","725228","NA","Sternberg task","102","84980","113","yes","1024"
"90.35087719298245","90.35087719298245","756.3947368421053","756.3947368421053","black","experiment","legacy","legacy","legacy","0","uniform","1","undefined","1","left","113","113","113","0","0","113","113","0","0","113","113","113","NA","0","113","0","Sun Oct 17 11:19:53 2021","The main experiment item","yes","Sternbergtask.osexp","/Users/mihailcodreanu/Desktop","no","mono","no","18","no","white","no","yes","768","legacy","101","11","/Users/mihailcodreanu/Desktop/subject-1.csv","legacy","6 1 2","Lentiform Loewenfeld","3.3.9","3","y","0","left","left","left","left","NA","NA","1249","33657","7574","1249","NA","NA","2","legacy","3","1024","2","48000","-16","experiment","1","odd","2","729323","726055","727110","3797","118767","727114","719958","3805","111192","731327","732578","728118","NA","37475","731327","NA","Sternberg task","103","86229","114","yes","1024"
"90.43478260869566","90.43478260869566","757.4","757.4","black","experiment","legacy","legacy","legacy","0","uniform","1","undefined","1","left","114","114","114","0","0","114","114","0","0","114","114","114","NA","0","114","0","Sun Oct 17 11:19:53 2021","The main experiment item","yes","Sternbergtask.osexp","/Users/mihailcodreanu/Desktop","no","mono","no","18","no","white","no","yes","768","legacy","102","11","/Users/mihailcodreanu/Desktop/subject-1.csv","legacy","7 8 4 6 9 5","Lentiform Loewenfeld","3.3.9","4","y","0","left","left","left","left","NA","NA","872","33657","7574","872","NA","NA","2","legacy","6","1024","2","48000","-16","experiment","1","odd","6","735850","732582","733637","3797","118767","733641","719958","3805","111192","737854","738727","734645","NA","37475","737854","NA","Sternberg task","104","87101","115","yes","1024"
