acc,accuracy,average_response_time,avg_rt,background,block,canvas_backend,clock_backend,color_backend,correct,correct_instruction1,correct_new_keyboard_response,correct_response,count_ISI,count_correctFeedback,count_expSequence,count_experiment,count_experimentLoop,count_fixation,count_incorrectFeedback,count_instruction1,count_instructions2,count_memorySet,count_new_keyboard_response,count_new_logger,count_practiceLoop,count_probe,count_thankYou,datetime,description,disable_garbage_collection,experiment_file,experiment_path,font_bold,font_family,font_italic,font_size,font_underline,foreground,form_clicks,fullscreen,height,keyboard_backend,live_row,live_row_practiceLoop,logfile,mouse_backend,numberSet,opensesame_codename,opensesame_version,posInSet,present,repeat_cycle,response,response_instruction1,response_instructions2,response_new_keyboard_response,response_thankYou,response_time,response_time_instruction1,response_time_instructions2,response_time_new_keyboard_response,response_time_thankYou,round_decimals,sampler_backend,setSize,sound_buf_size,sound_channels,sound_freq,sound_sample_size,start,subject_nr,subject_parity,target,time_ISI,time_correctFeedback,time_expSequence,time_experiment,time_experimentLoop,time_fixation,time_incorrectFeedback,time_instruction1,time_instructions2,time_memorySet,time_new_keyboard_response,time_new_logger,time_practiceLoop,time_probe,time_thankYou,title,total_correct,total_response_time,total_responses,width
100,100,712,712,black,practice,legacy,legacy,legacy,1,undefined,1,left,0,0,0,0,0,0,0,0,0,0,0,0,0,0,0,Tue Oct 17 10:10:47 2023,The main experiment item,TRUE,SternbergTask.osexp,/Users/test/Desktop,FALSE,mono,FALSE,18,no,white,no,yes,768,legacy,0,0,/Users/test/Desktop/at-subject-2.csv,legacy,1 7 9 8 5,Melodramatic Milgram,4.0.5,4,y,0,left,right,NA,left,NA,712,19945,NA,712,NA,2,legacy,5,1024,2,48000,-16,experiment,2,even,8,31932,NA,29720,8105,NA,29727,NA,8225,NA,30730,33935,34648,28234,33935,NA,Sternberg Task,1,712,1,1024
100,100,815,815,black,practice,legacy,legacy,legacy,1,undefined,1,left,1,1,1,0,0,1,1,0,0,1,1,1,0,1,0,Tue Oct 17 10:10:47 2023,The main experiment item,TRUE,SternbergTask.osexp,/Users/test/Desktop,FALSE,mono,FALSE,18,no,white,no,yes,768,legacy,1,1,/Users/test/Desktop/at-subject-2.csv,legacy,4 8,Melodramatic Milgram,4.0.5,1,y,0,left,right,NA,left,NA,918,19945,NA,918,NA,2,legacy,2,1024,2,48000,-16,experiment,2,even,4,37954,34688,35743,8105,NA,35748,NA,8225,NA,36751,39957,40882,28234,39956,NA,Sternberg Task,2,1630,2,1024
100,100,770,770,black,practice,legacy,legacy,legacy,1,undefined,1,left,2,2,2,0,0,2,2,0,0,2,2,2,0,2,0,Tue Oct 17 10:10:47 2023,The main experiment item,TRUE,SternbergTask.osexp,/Users/test/Desktop,FALSE,mono,FALSE,18,no,white,no,yes,768,legacy,2,2,/Users/test/Desktop/at-subject-2.csv,legacy,2 9 4,Melodramatic Milgram,4.0.5,3,y,0,left,right,NA,left,NA,680,19945,NA,680,NA,2,legacy,3,1024,2,48000,-16,experiment,2,even,4,44161,40886,41953,8105,NA,41956,NA,8225,NA,42958,46165,46846,28234,46164,NA,Sternberg Task,3,2310,3,1024
100,100,761,761,black,practice,legacy,legacy,legacy,1,undefined,1,left,3,3,3,0,0,3,3,0,0,3,3,3,0,3,0,Tue Oct 17 10:10:47 2023,The main experiment item,TRUE,SternbergTask.osexp,/Users/test/Desktop,FALSE,mono,FALSE,18,no,white,no,yes,768,legacy,3,3,/Users/test/Desktop/at-subject-2.csv,legacy,6,Melodramatic Milgram,4.0.5,1,y,0,left,right,NA,left,NA,736,19945,NA,736,NA,2,legacy,1,1024,2,48000,-16,experiment,2,even,6,50144,46870,47933,8105,NA,47937,NA,8225,NA,48939,52147,52884,28234,52147,NA,Sternberg Task,4,3046,4,1024
100,100,756,756,black,practice,legacy,legacy,legacy,1,undefined,1,right,4,4,4,0,0,4,4,0,0,4,4,4,0,4,0,Tue Oct 17 10:10:47 2023,The main experiment item,TRUE,SternbergTask.osexp,/Users/test/Desktop,FALSE,mono,FALSE,18,no,white,no,yes,768,legacy,4,4,/Users/test/Desktop/at-subject-2.csv,legacy,3 1 9 4,Melodramatic Milgram,4.0.5,0,n,0,right,right,NA,right,NA,737,19945,NA,737,NA,2,legacy,4,1024,2,48000,-16,experiment,2,even,6,56191,52909,53981,8105,NA,53985,NA,8225,NA,54987,58194,58932,28234,58193,NA,Sternberg Task,5,3783,5,1024
100,100,752,752,black,practice,legacy,legacy,legacy,1,undefined,1,right,5,5,5,0,0,5,5,0,0,5,5,5,0,5,0,Tue Oct 17 10:10:47 2023,The main experiment item,TRUE,SternbergTask.osexp,/Users/test/Desktop,FALSE,mono,FALSE,18,no,white,no,yes,768,legacy,5,5,/Users/test/Desktop/at-subject-2.csv,legacy,4 1 5,Melodramatic Milgram,4.0.5,0,n,0,right,right,NA,right,NA,732,19945,NA,732,NA,2,legacy,3,1024,2,48000,-16,experiment,2,even,2,62204,58936,59995,8105,NA,59998,NA,8225,NA,61000,64207,64940,28234,64206,NA,Sternberg Task,6,4515,6,1024
100,100,754,754,black,practice,legacy,legacy,legacy,1,undefined,1,left,6,6,6,0,0,6,6,0,0,6,6,6,0,6,0,Tue Oct 17 10:10:47 2023,The main experiment item,TRUE,SternbergTask.osexp,/Users/test/Desktop,FALSE,mono,FALSE,18,no,white,no,yes,768,legacy,6,6,/Users/test/Desktop/at-subject-2.csv,legacy,1 5 2 9,Melodramatic Milgram,4.0.5,2,y,0,left,right,NA,left,NA,766,19945,NA,766,NA,2,legacy,4,1024,2,48000,-16,experiment,2,even,5,68251,64944,66031,8105,NA,66034,NA,8225,NA,67039,70254,71021,28234,70254,NA,Sternberg Task,7,5281,7,1024
100,100,796,796,black,practice,legacy,legacy,legacy,1,undefined,1,right,7,7,7,0,0,7,7,0,0,7,7,7,0,7,0,Tue Oct 17 10:10:47 2023,The main experiment item,TRUE,SternbergTask.osexp,/Users/test/Desktop,FALSE,mono,FALSE,18,no,white,no,yes,768,legacy,7,7,/Users/test/Desktop/at-subject-2.csv,legacy,5 7 8 4 1 2,Melodramatic Milgram,4.0.5,0,n,0,right,right,NA,right,NA,1093,19945,NA,1093,NA,2,legacy,6,1024,2,48000,-16,experiment,2,even,6,74273,71025,72063,8105,NA,72066,NA,8225,NA,73070,76276,77369,28234,76275,NA,Sternberg Task,8,6374,8,1024
100,100,856,856,black,practice,legacy,legacy,legacy,1,undefined,1,left,8,8,8,0,0,8,8,0,0,8,8,8,0,8,0,Tue Oct 17 10:10:47 2023,The main experiment item,TRUE,SternbergTask.osexp,/Users/test/Desktop,FALSE,mono,FALSE,18,no,white,no,yes,768,legacy,8,8,/Users/test/Desktop/at-subject-2.csv,legacy,4 3 1 7 9 8,Melodramatic Milgram,4.0.5,1,y,0,left,right,NA,left,NA,1337,19945,NA,1337,NA,2,legacy,6,1024,2,48000,-16,experiment,2,even,4,80626,77373,78418,8105,NA,78421,NA,8225,NA,79423,82629,83967,28234,82628,NA,Sternberg Task,9,7711,9,1024
100,100,825,825,black,practice,legacy,legacy,legacy,1,undefined,1,right,9,9,9,0,0,9,9,0,0,9,9,9,0,9,0,Tue Oct 17 10:10:47 2023,The main experiment item,TRUE,SternbergTask.osexp,/Users/test/Desktop,FALSE,mono,FALSE,18,no,white,no,yes,768,legacy,9,9,/Users/test/Desktop/at-subject-2.csv,legacy,5,Melodramatic Milgram,4.0.5,0,n,0,right,right,NA,right,NA,544,19945,NA,544,NA,2,legacy,1,1024,2,48000,-16,experiment,2,even,3,87232,83970,85023,8105,NA,85026,NA,8225,NA,86030,89237,89782,28234,89236,NA,Sternberg Task,10,8255,10,1024
100,100,800,800,black,practice,legacy,legacy,legacy,1,undefined,1,right,10,10,10,0,0,10,10,0,0,10,10,10,0,10,0,Tue Oct 17 10:10:47 2023,The main experiment item,TRUE,SternbergTask.osexp,/Users/test/Desktop,FALSE,mono,FALSE,18,no,white,no,yes,768,legacy,10,10,/Users/test/Desktop/at-subject-2.csv,legacy,2 1,Melodramatic Milgram,4.0.5,0,n,0,right,right,NA,right,NA,553,19945,NA,553,NA,2,legacy,2,1024,2,48000,-16,experiment,2,even,5,93047,89785,90838,8105,NA,90841,NA,8225,NA,91844,95049,95603,28234,95049,NA,Sternberg Task,11,8808,11,1024
100,100,821,821,black,practice,legacy,legacy,legacy,1,undefined,1,right,11,11,11,0,0,11,11,0,0,11,11,11,0,11,0,Tue Oct 17 10:10:47 2023,The main experiment item,TRUE,SternbergTask.osexp,/Users/test/Desktop,FALSE,mono,FALSE,18,no,white,no,yes,768,legacy,11,11,/Users/test/Desktop/at-subject-2.csv,legacy,9 6 7 4 5,Melodramatic Milgram,4.0.5,0,n,0,right,right,NA,right,NA,1053,19945,NA,1053,NA,2,legacy,5,1024,2,48000,-16,experiment,2,even,3,98866,95607,96656,8105,NA,96659,NA,8225,NA,97662,100869,101923,28234,100869,NA,Sternberg Task,12,9861,12,1024
100,100,807,807,black,experiment,legacy,legacy,legacy,1,undefined,1,right,12,12,12,0,0,12,12,0,0,12,12,12,0,12,0,Tue Oct 17 10:10:47 2023,The main experiment item,TRUE,SternbergTask.osexp,/Users/test/Desktop,FALSE,mono,FALSE,18,no,white,no,yes,768,legacy,0,11,/Users/test/Desktop/at-subject-2.csv,legacy,2 8 7 9 5 3,Melodramatic Milgram,4.0.5,0,n,0,right,right,right,right,NA,641,19945,5575,641,NA,2,legacy,6,1024,2,48000,-16,experiment,2,even,6,110791,101927,108578,8105,108507,108582,NA,8225,102932,109587,112794,113436,28234,112793,NA,Sternberg Task,13,10502,13,1024
100,100,829,829,black,experiment,legacy,legacy,legacy,1,undefined,1,left,13,13,13,0,0,13,13,0,0,13,13,13,0,13,0,Tue Oct 17 10:10:47 2023,The main experiment item,TRUE,SternbergTask.osexp,/Users/test/Desktop,FALSE,mono,FALSE,18,no,white,no,yes,768,legacy,1,11,/Users/test/Desktop/at-subject-2.csv,legacy,7 8 4 6 9 5,Melodramatic Milgram,4.0.5,4,y,0,left,right,right,left,NA,1109,19945,5575,1109,NA,2,legacy,6,1024,2,48000,-16,experiment,2,even,6,116688,113439,114479,8105,108507,114482,NA,8225,102932,115485,118691,119801,28234,118691,NA,Sternberg Task,14,11611,14,1024
100,100,824,824,black,experiment,legacy,legacy,legacy,1,undefined,1,right,14,14,14,0,0,14,14,0,0,14,14,14,0,14,0,Tue Oct 17 10:10:47 2023,The main experiment item,TRUE,SternbergTask.osexp,/Users/test/Desktop,FALSE,mono,FALSE,18,no,white,no,yes,768,legacy,2,11,/Users/test/Desktop/at-subject-2.csv,legacy,9,Melodramatic Milgram,4.0.5,0,n,0,right,right,right,right,NA,750,19945,5575,750,NA,2,legacy,1,1024,2,48000,-16,experiment,2,even,6,123060,119804,120850,8105,108507,120854,NA,8225,102932,121857,125063,125814,28234,125062,NA,Sternberg Task,15,12361,15,1024
100,100,817,817,black,experiment,legacy,legacy,legacy,1,undefined,1,right,15,15,15,0,0,15,15,0,0,15,15,15,0,15,0,Tue Oct 17 10:10:47 2023,The main experiment item,TRUE,SternbergTask.osexp,/Users/test/Desktop,FALSE,mono,FALSE,18,no,white,no,yes,768,legacy,3,11,/Users/test/Desktop/at-subject-2.csv,legacy,7 9 1 6,Melodramatic Milgram,4.0.5,0,n,0,right,right,right,right,NA,717,19945,5575,717,NA,2,legacy,4,1024,2,48000,-16,experiment,2,even,4,129129,125857,126920,8105,108507,126923,NA,8225,102932,127925,131132,131850,28234,131132,NA,Sternberg Task,16,13078,16,1024
100,100,823,823,black,experiment,legacy,legacy,legacy,1,undefined,1,right,16,16,16,0,0,16,16,0,0,16,16,16,0,16,0,Tue Oct 17 10:10:47 2023,The main experiment item,TRUE,SternbergTask.osexp,/Users/test/Desktop,FALSE,mono,FALSE,18,no,white,no,yes,768,legacy,4,11,/Users/test/Desktop/at-subject-2.csv,legacy,1 6 4,Melodramatic Milgram,4.0.5,0,n,0,right,right,right,right,NA,925,19945,5575,925,NA,2,legacy,3,1024,2,48000,-16,experiment,2,even,7,135149,131892,132940,8105,108507,132943,NA,8225,102932,133946,137152,138078,28234,137151,NA,Sternberg Task,17,14003,17,1024
100,100,819,819,black,experiment,legacy,legacy,legacy,1,undefined,1,left,17,17,17,0,0,17,17,0,0,17,17,17,0,17,0,Tue Oct 17 10:10:47 2023,The main experiment item,TRUE,SternbergTask.osexp,/Users/test/Desktop,FALSE,mono,FALSE,18,no,white,no,yes,768,legacy,5,11,/Users/test/Desktop/at-subject-2.csv,legacy,4 6 5 8,Melodramatic Milgram,4.0.5,1,y,0,left,right,right,left,NA,740,19945,5575,740,NA,2,legacy,4,1024,2,48000,-16,experiment,2,even,4,141334,138081,139125,8105,108507,139127,NA,8225,102932,140131,143337,144077,28234,143337,NA,Sternberg Task,18,14743,18,1024
100,100,830,830,black,experiment,legacy,legacy,legacy,1,undefined,1,right,18,18,18,0,0,18,18,0,0,18,18,18,0,18,0,Tue Oct 17 10:10:47 2023,The main experiment item,TRUE,SternbergTask.osexp,/Users/test/Desktop,FALSE,mono,FALSE,18,no,white,no,yes,768,legacy,6,11,/Users/test/Desktop/at-subject-2.csv,legacy,5 3 2 6 9 8,Melodramatic Milgram,4.0.5,0,n,0,right,right,right,right,NA,1038,19945,5575,1038,NA,2,legacy,6,1024,2,48000,-16,experiment,2,even,4,147339,144081,145130,8105,108507,145133,NA,8225,102932,146136,149344,150383,28234,149343,NA,Sternberg Task,19,15781,19,1024
100,100,821,821,black,experiment,legacy,legacy,legacy,1,undefined,1,right,19,19,19,0,0,19,19,0,0,19,19,19,0,19,0,Tue Oct 17 10:10:47 2023,The main experiment item,TRUE,SternbergTask.osexp,/Users/test/Desktop,FALSE,mono,FALSE,18,no,white,no,yes,768,legacy,7,11,/Users/test/Desktop/at-subject-2.csv,legacy,7 9,Melodramatic Milgram,4.0.5,0,n,0,right,right,right,right,NA,652,19945,5575,652,NA,2,legacy,2,1024,2,48000,-16,experiment,2,even,1,153669,150391,151460,8105,108507,151463,NA,8225,102932,152466,155677,156330,28234,155676,NA,Sternberg Task,20,16433,20,1024
100,100,843,843,black,experiment,legacy,legacy,legacy,1,undefined,1,left,20,20,20,0,0,20,20,0,0,20,20,20,0,20,0,Tue Oct 17 10:10:47 2023,The main experiment item,TRUE,SternbergTask.osexp,/Users/test/Desktop,FALSE,mono,FALSE,18,no,white,no,yes,768,legacy,8,11,/Users/test/Desktop/at-subject-2.csv,legacy,6 7 8 5,Melodramatic Milgram,4.0.5,3,y,0,left,right,right,left,NA,1274,19945,5575,1274,NA,2,legacy,4,1024,2,48000,-16,experiment,2,even,8,159597,156334,157387,8105,108507,157390,NA,8225,102932,158393,161601,162876,28234,161601,NA,Sternberg Task,21,17707,21,1024
100,100,832,832,black,experiment,legacy,legacy,legacy,1,undefined,1,left,21,21,21,0,0,21,21,0,0,21,21,21,0,21,0,Tue Oct 17 10:10:47 2023,The main experiment item,TRUE,SternbergTask.osexp,/Users/test/Desktop,FALSE,mono,FALSE,18,no,white,no,yes,768,legacy,9,11,/Users/test/Desktop/at-subject-2.csv,legacy,3 5 4 7,Melodramatic Milgram,4.0.5,1,y,0,left,right,right,left,NA,618,19945,5575,618,NA,2,legacy,4,1024,2,48000,-16,experiment,2,even,3,166160,162879,163952,8105,108507,163955,NA,8225,102932,164957,168164,168783,28234,168163,NA,Sternberg Task,22,18325,22,1024
100,100,820,820,black,experiment,legacy,legacy,legacy,1,undefined,1,right,22,22,22,0,0,22,22,0,0,22,22,22,0,22,0,Tue Oct 17 10:10:47 2023,The main experiment item,TRUE,SternbergTask.osexp,/Users/test/Desktop,FALSE,mono,FALSE,18,no,white,no,yes,768,legacy,10,11,/Users/test/Desktop/at-subject-2.csv,legacy,5 2,Melodramatic Milgram,4.0.5,0,n,0,right,right,right,right,NA,537,19945,5575,537,NA,2,legacy,2,1024,2,48000,-16,experiment,2,even,7,172036,168786,169825,8105,108507,169828,NA,8225,102932,170832,174038,174576,28234,174038,NA,Sternberg Task,23,18862,23,1024
100,100,836,836,black,experiment,legacy,legacy,legacy,1,undefined,1,right,23,23,23,0,0,23,23,0,0,23,23,23,0,23,0,Tue Oct 17 10:10:47 2023,The main experiment item,TRUE,SternbergTask.osexp,/Users/test/Desktop,FALSE,mono,FALSE,18,no,white,no,yes,768,legacy,11,11,/Users/test/Desktop/at-subject-2.csv,legacy,9 5 3 2 8 6,Melodramatic Milgram,4.0.5,0,n,0,right,right,right,right,NA,1223,19945,5575,1223,NA,2,legacy,6,1024,2,48000,-16,experiment,2,even,7,177833,174579,175624,8105,108507,175627,NA,8225,102932,176630,179836,181059,28234,179836,NA,Sternberg Task,24,20085,24,1024
100,100,843,843,black,experiment,legacy,legacy,legacy,1,undefined,1,left,24,24,24,0,0,24,24,0,0,24,24,24,0,24,0,Tue Oct 17 10:10:47 2023,The main experiment item,TRUE,SternbergTask.osexp,/Users/test/Desktop,FALSE,mono,FALSE,18,no,white,no,yes,768,legacy,12,11,/Users/test/Desktop/at-subject-2.csv,legacy,9 1 7 2,Melodramatic Milgram,4.0.5,2,y,0,left,right,right,left,NA,1008,19945,5575,1008,NA,2,legacy,4,1024,2,48000,-16,experiment,2,even,1,184320,181063,182111,8105,108507,182114,NA,8225,102932,183117,186323,187332,28234,186323,NA,Sternberg Task,25,21093,25,1024
100,100,839,839,black,experiment,legacy,legacy,legacy,1,undefined,1,right,25,25,25,0,0,25,25,0,0,25,25,25,0,25,0,Tue Oct 17 10:10:47 2023,The main experiment item,TRUE,SternbergTask.osexp,/Users/test/Desktop,FALSE,mono,FALSE,18,no,white,no,yes,768,legacy,13,11,/Users/test/Desktop/at-subject-2.csv,legacy,8 6 3 4 7,Melodramatic Milgram,4.0.5,0,n,0,right,right,right,right,NA,732,19945,5575,732,NA,2,legacy,5,1024,2,48000,-16,experiment,2,even,1,190594,187337,188385,8105,108507,188388,NA,8225,102932,189391,192597,193330,28234,192597,NA,Sternberg Task,26,21825,26,1024
100,100,840,840,black,experiment,legacy,legacy,legacy,1,undefined,1,left,26,26,26,0,0,26,26,0,0,26,26,26,0,26,0,Tue Oct 17 10:10:47 2023,The main experiment item,TRUE,SternbergTask.osexp,/Users/test/Desktop,FALSE,mono,FALSE,18,no,white,no,yes,768,legacy,14,11,/Users/test/Desktop/at-subject-2.csv,legacy,5 2 6,Melodramatic Milgram,4.0.5,2,y,0,left,right,right,left,NA,866,19945,5575,866,NA,2,legacy,3,1024,2,48000,-16,experiment,2,even,2,196593,193334,194383,8105,108507,194387,NA,8225,102932,195390,198596,199463,28234,198596,NA,Sternberg Task,27,22691,27,1024
100,100,832,832,black,experiment,legacy,legacy,legacy,1,undefined,1,left,27,27,27,0,0,27,27,0,0,27,27,27,0,27,0,Tue Oct 17 10:10:47 2023,The main experiment item,TRUE,SternbergTask.osexp,/Users/test/Desktop,FALSE,mono,FALSE,18,no,white,no,yes,768,legacy,15,11,/Users/test/Desktop/at-subject-2.csv,legacy,8,Melodramatic Milgram,4.0.5,1,y,0,left,right,right,left,NA,613,19945,5575,613,NA,2,legacy,1,1024,2,48000,-16,experiment,2,even,8,202745,199466,200536,8105,108507,200539,NA,8225,102932,201542,204748,205362,28234,204747,NA,Sternberg Task,28,23304,28,1024
100,100,826,826,black,experiment,legacy,legacy,legacy,1,undefined,1,right,28,28,28,0,0,28,28,0,0,28,28,28,0,28,0,Tue Oct 17 10:10:47 2023,The main experiment item,TRUE,SternbergTask.osexp,/Users/test/Desktop,FALSE,mono,FALSE,18,no,white,no,yes,768,legacy,16,11,/Users/test/Desktop/at-subject-2.csv,legacy,3 9 8 1 6 4,Melodramatic Milgram,4.0.5,0,n,0,right,right,right,right,NA,660,19945,5575,660,NA,2,legacy,6,1024,2,48000,-16,experiment,2,even,7,208613,205365,206404,8105,108507,206407,NA,8225,102932,207410,210616,211277,28234,210615,NA,Sternberg Task,29,23964,29,1024
100,100,828,828,black,experiment,legacy,legacy,legacy,1,undefined,1,left,29,29,29,0,0,29,29,0,0,29,29,29,0,29,0,Tue Oct 17 10:10:47 2023,The main experiment item,TRUE,SternbergTask.osexp,/Users/test/Desktop,FALSE,mono,FALSE,18,no,white,no,yes,768,legacy,17,11,/Users/test/Desktop/at-subject-2.csv,legacy,9 3 8 2 1 4,Melodramatic Milgram,4.0.5,3,y,0,left,right,right,left,NA,891,19945,5575,891,NA,2,legacy,6,1024,2,48000,-16,experiment,2,even,8,214534,211280,212325,8105,108507,212328,NA,8225,102932,213331,216537,217429,28234,216537,NA,Sternberg Task,30,24855,30,1024
100,100,821,821,black,experiment,legacy,legacy,legacy,1,undefined,1,left,30,30,30,0,0,30,30,0,0,30,30,30,0,30,0,Tue Oct 17 10:10:47 2023,The main experiment item,TRUE,SternbergTask.osexp,/Users/test/Desktop,FALSE,mono,FALSE,18,no,white,no,yes,768,legacy,18,11,/Users/test/Desktop/at-subject-2.csv,legacy,4 1 5,Melodramatic Milgram,4.0.5,2,y,0,left,right,right,left,NA,604,19945,5575,604,NA,2,legacy,3,1024,2,48000,-16,experiment,2,even,1,220690,217432,218481,8105,108507,218484,NA,8225,102932,219487,222693,223299,28234,222693,NA,Sternberg Task,31,25459,31,1024
100,100,826,826,black,experiment,legacy,legacy,legacy,1,undefined,1,right,31,31,31,0,0,31,31,0,0,31,31,31,0,31,0,Tue Oct 17 10:10:47 2023,The main experiment item,TRUE,SternbergTask.osexp,/Users/test/Desktop,FALSE,mono,FALSE,18,no,white,no,yes,768,legacy,19,11,/Users/test/Desktop/at-subject-2.csv,legacy,6 7 5 9,Melodramatic Milgram,4.0.5,0,n,0,right,right,right,right,NA,1002,19945,5575,1002,NA,2,legacy,4,1024,2,48000,-16,experiment,2,even,2,226560,223303,224351,8105,108507,224353,NA,8225,102932,225357,228563,229567,28234,228563,NA,Sternberg Task,32,26461,32,1024
96,96,839,839,black,experiment,legacy,legacy,legacy,0,undefined,0,left,32,32,32,0,0,32,32,0,0,32,32,32,0,32,0,Tue Oct 17 10:10:47 2023,The main experiment item,TRUE,SternbergTask.osexp,/Users/test/Desktop,FALSE,mono,FALSE,18,no,white,no,yes,768,legacy,20,11,/Users/test/Desktop/at-subject-2.csv,legacy,7 4 2 6 3 5,Melodramatic Milgram,4.0.5,6,y,0,right,right,right,right,NA,1251,19945,5575,1251,NA,2,legacy,6,1024,2,48000,-16,experiment,2,even,5,232866,229609,230657,8105,108507,230659,NA,8225,102932,231663,234870,236122,28234,234870,NA,Sternberg Task,32,27712,33,1024
97,97,842,842,black,experiment,legacy,legacy,legacy,1,undefined,1,right,33,33,33,0,0,33,33,0,0,33,33,33,0,33,0,Tue Oct 17 10:10:47 2023,The main experiment item,TRUE,SternbergTask.osexp,/Users/test/Desktop,FALSE,mono,FALSE,18,no,white,no,yes,768,legacy,21,11,/Users/test/Desktop/at-subject-2.csv,legacy,8 4 3 9,Melodramatic Milgram,4.0.5,0,n,0,right,right,right,right,NA,920,19945,5575,920,NA,2,legacy,4,1024,2,48000,-16,experiment,2,even,5,239393,229609,237184,8105,108507,237187,236125,8225,102932,238190,241397,242318,28234,241396,NA,Sternberg Task,33,28632,34,1024
97,97,842,842,black,experiment,legacy,legacy,legacy,1,undefined,1,right,34,34,34,0,0,34,34,0,0,34,34,34,0,34,0,Tue Oct 17 10:10:47 2023,The main experiment item,TRUE,SternbergTask.osexp,/Users/test/Desktop,FALSE,mono,FALSE,18,no,white,no,yes,768,legacy,22,11,/Users/test/Desktop/at-subject-2.csv,legacy,6 3 1 7 9 8,Melodramatic Milgram,4.0.5,0,n,0,right,right,right,right,NA,863,19945,5575,863,NA,2,legacy,6,1024,2,48000,-16,experiment,2,even,4,245571,242322,243362,8105,108507,243364,236125,8225,102932,244368,247574,248438,28234,247573,NA,Sternberg Task,34,29495,35,1024
97,97,837,837,black,experiment,legacy,legacy,legacy,1,undefined,1,left,35,35,35,0,0,35,35,0,0,35,35,35,0,35,0,Tue Oct 17 10:10:47 2023,The main experiment item,TRUE,SternbergTask.osexp,/Users/test/Desktop,FALSE,mono,FALSE,18,no,white,no,yes,768,legacy,23,11,/Users/test/Desktop/at-subject-2.csv,legacy,2 3,Melodramatic Milgram,4.0.5,1,y,0,left,right,right,left,NA,666,19945,5575,666,NA,2,legacy,2,1024,2,48000,-16,experiment,2,even,2,251696,248442,249487,8105,108507,249490,236125,8225,102932,250493,253699,254366,28234,253698,NA,Sternberg Task,35,30161,36,1024
97,97,836,836,black,experiment,legacy,legacy,legacy,1,undefined,1,left,36,36,36,0,0,36,36,0,0,36,36,36,0,36,0,Tue Oct 17 10:10:47 2023,The main experiment item,TRUE,SternbergTask.osexp,/Users/test/Desktop,FALSE,mono,FALSE,18,no,white,no,yes,768,legacy,24,11,/Users/test/Desktop/at-subject-2.csv,legacy,7 2 3,Melodramatic Milgram,4.0.5,3,y,0,left,right,right,left,NA,784,19945,5575,784,NA,2,legacy,3,1024,2,48000,-16,experiment,2,even,3,257666,254409,255457,8105,108507,255460,236125,8225,102932,256463,259669,260454,28234,259668,NA,Sternberg Task,36,30945,37,1024
97,97,827,827,black,experiment,legacy,legacy,legacy,1,undefined,1,left,37,37,37,0,0,37,37,0,0,37,37,37,0,37,0,Tue Oct 17 10:10:47 2023,The main experiment item,TRUE,SternbergTask.osexp,/Users/test/Desktop,FALSE,mono,FALSE,18,no,white,no,yes,768,legacy,25,11,/Users/test/Desktop/at-subject-2.csv,legacy,2 5 4 8 7,Melodramatic Milgram,4.0.5,3,y,0,left,right,right,left,NA,482,19945,5575,482,NA,2,legacy,5,1024,2,48000,-16,experiment,2,even,4,263713,260457,261504,8105,108507,261507,236125,8225,102932,262510,265716,266199,28234,265715,NA,Sternberg Task,37,31427,38,1024
97,97,819,819,black,experiment,legacy,legacy,legacy,1,undefined,1,left,38,38,38,0,0,38,38,0,0,38,38,38,0,38,0,Tue Oct 17 10:10:47 2023,The main experiment item,TRUE,SternbergTask.osexp,/Users/test/Desktop,FALSE,mono,FALSE,18,no,white,no,yes,768,legacy,26,11,/Users/test/Desktop/at-subject-2.csv,legacy,6 5,Melodramatic Milgram,4.0.5,2,y,0,left,right,right,left,NA,541,19945,5575,541,NA,2,legacy,2,1024,2,48000,-16,experiment,2,even,5,269460,266203,267250,8105,108507,267254,236125,8225,102932,268257,271463,272005,28234,271462,NA,Sternberg Task,38,31968,39,1024
97,97,817,817,black,experiment,legacy,legacy,legacy,1,undefined,1,right,39,39,39,0,0,39,39,0,0,39,39,39,0,39,0,Tue Oct 17 10:10:47 2023,The main experiment item,TRUE,SternbergTask.osexp,/Users/test/Desktop,FALSE,mono,FALSE,18,no,white,no,yes,768,legacy,27,11,/Users/test/Desktop/at-subject-2.csv,legacy,5 7 3,Melodramatic Milgram,4.0.5,0,n,0,right,right,right,right,NA,741,19945,5575,741,NA,2,legacy,3,1024,2,48000,-16,experiment,2,even,9,275277,272011,273067,8105,108507,273071,236125,8225,102932,274074,277280,278022,28234,277280,NA,Sternberg Task,39,32709,40,1024
97,97,817,817,black,experiment,legacy,legacy,legacy,1,undefined,1,right,40,40,40,0,0,40,40,0,0,40,40,40,0,40,0,Tue Oct 17 10:10:47 2023,The main experiment item,TRUE,SternbergTask.osexp,/Users/test/Desktop,FALSE,mono,FALSE,18,no,white,no,yes,768,legacy,28,11,/Users/test/Desktop/at-subject-2.csv,legacy,4 1,Melodramatic Milgram,4.0.5,0,n,0,right,right,right,right,NA,828,19945,5575,828,NA,2,legacy,2,1024,2,48000,-16,experiment,2,even,6,281400,278151,279190,8105,108507,279193,236125,8225,102932,280197,283403,284233,28234,283402,NA,Sternberg Task,40,33537,41,1024
97,97,829,829,black,experiment,legacy,legacy,legacy,1,undefined,1,left,41,41,41,0,0,41,41,0,0,41,41,41,0,41,0,Tue Oct 17 10:10:47 2023,The main experiment item,TRUE,SternbergTask.osexp,/Users/test/Desktop,FALSE,mono,FALSE,18,no,white,no,yes,768,legacy,29,11,/Users/test/Desktop/at-subject-2.csv,legacy,5 7 3 6 2,Melodramatic Milgram,4.0.5,5,y,0,left,right,right,left,NA,1290,19945,5575,1290,NA,2,legacy,5,1024,2,48000,-16,experiment,2,even,2,287527,284273,285317,8105,108507,285320,236125,8225,102932,286323,289530,290821,28234,289530,NA,Sternberg Task,41,34827,42,1024
97,97,827,827,black,experiment,legacy,legacy,legacy,1,undefined,1,right,42,42,42,0,0,42,42,0,0,42,42,42,0,42,0,Tue Oct 17 10:10:47 2023,The main experiment item,TRUE,SternbergTask.osexp,/Users/test/Desktop,FALSE,mono,FALSE,18,no,white,no,yes,768,legacy,30,11,/Users/test/Desktop/at-subject-2.csv,legacy,1 7 5 2 9,Melodramatic Milgram,4.0.5,0,n,0,right,right,right,right,NA,775,19945,5575,775,NA,2,legacy,5,1024,2,48000,-16,experiment,2,even,3,294086,290825,291876,8105,108507,291879,236125,8225,102932,292882,296089,296865,28234,296089,NA,Sternberg Task,42,35602,43,1024
97,97,826,826,black,experiment,legacy,legacy,legacy,1,undefined,1,right,43,43,43,0,0,43,43,0,0,43,43,43,0,43,0,Tue Oct 17 10:10:47 2023,The main experiment item,TRUE,SternbergTask.osexp,/Users/test/Desktop,FALSE,mono,FALSE,18,no,white,no,yes,768,legacy,31,11,/Users/test/Desktop/at-subject-2.csv,legacy,1 4 3 6 5,Melodramatic Milgram,4.0.5,0,n,0,right,right,right,right,NA,751,19945,5575,751,NA,2,legacy,5,1024,2,48000,-16,experiment,2,even,8,300175,296907,297965,8105,108507,297969,236125,8225,102932,298971,302178,302931,28234,302178,NA,Sternberg Task,43,36353,44,1024
97,97,832,832,black,experiment,legacy,legacy,legacy,1,undefined,1,left,44,44,44,0,0,44,44,0,0,44,44,44,0,44,0,Tue Oct 17 10:10:47 2023,The main experiment item,TRUE,SternbergTask.osexp,/Users/test/Desktop,FALSE,mono,FALSE,18,no,white,no,yes,768,legacy,32,11,/Users/test/Desktop/at-subject-2.csv,legacy,7 8 6 3 1,Melodramatic Milgram,4.0.5,5,y,0,left,right,right,left,NA,1106,19945,5575,1106,NA,2,legacy,5,1024,2,48000,-16,experiment,2,even,1,306203,302934,303995,8105,108507,303998,236125,8225,102932,305000,308207,309314,28234,308206,NA,Sternberg Task,44,37459,45,1024
97,97,832,832,black,experiment,legacy,legacy,legacy,1,undefined,1,left,45,45,45,0,0,45,45,0,0,45,45,45,0,45,0,Tue Oct 17 10:10:47 2023,The main experiment item,TRUE,SternbergTask.osexp,/Users/test/Desktop,FALSE,mono,FALSE,18,no,white,no,yes,768,legacy,33,11,/Users/test/Desktop/at-subject-2.csv,legacy,4 3 2 5 8,Melodramatic Milgram,4.0.5,2,y,0,left,right,right,left,NA,847,19945,5575,847,NA,2,legacy,5,1024,2,48000,-16,experiment,2,even,3,312595,309319,310384,8105,108507,310387,236125,8225,102932,311392,314599,315448,28234,314598,NA,Sternberg Task,45,38306,46,1024
97,97,839,839,black,experiment,legacy,legacy,legacy,1,undefined,1,right,46,46,46,0,0,46,46,0,0,46,46,46,0,46,0,Tue Oct 17 10:10:47 2023,The main experiment item,TRUE,SternbergTask.osexp,/Users/test/Desktop,FALSE,mono,FALSE,18,no,white,no,yes,768,legacy,34,11,/Users/test/Desktop/at-subject-2.csv,legacy,1 8 7,Melodramatic Milgram,4.0.5,0,n,0,right,right,right,right,NA,1171,19945,5575,1171,NA,2,legacy,3,1024,2,48000,-16,experiment,2,even,4,318700,315452,316491,8105,108507,316494,236125,8225,102932,317497,320703,321876,28234,320703,NA,Sternberg Task,46,39477,47,1024
97,97,834,834,black,experiment,legacy,legacy,legacy,1,undefined,1,left,47,47,47,0,0,47,47,0,0,47,47,47,0,47,0,Tue Oct 17 10:10:47 2023,The main experiment item,TRUE,SternbergTask.osexp,/Users/test/Desktop,FALSE,mono,FALSE,18,no,white,no,yes,768,legacy,35,11,/Users/test/Desktop/at-subject-2.csv,legacy,8 7 3,Melodramatic Milgram,4.0.5,1,y,0,left,right,right,left,NA,602,19945,5575,602,NA,2,legacy,3,1024,2,48000,-16,experiment,2,even,8,325145,321880,322937,8105,108507,322940,236125,8225,102932,323942,327148,327751,28234,327147,NA,Sternberg Task,47,40079,48,1024
97,97,830,830,black,experiment,legacy,legacy,legacy,1,undefined,1,right,48,48,48,0,0,48,48,0,0,48,48,48,0,48,0,Tue Oct 17 10:10:47 2023,The main experiment item,TRUE,SternbergTask.osexp,/Users/test/Desktop,FALSE,mono,FALSE,18,no,white,no,yes,768,legacy,36,11,/Users/test/Desktop/at-subject-2.csv,legacy,3 4 2,Melodramatic Milgram,4.0.5,0,n,0,right,right,right,right,NA,592,19945,5575,592,NA,2,legacy,3,1024,2,48000,-16,experiment,2,even,5,331011,327755,328803,8105,108507,328806,236125,8225,102932,329809,333013,333606,28234,333013,NA,Sternberg Task,48,40671,49,1024
98,98,822,822,black,experiment,legacy,legacy,legacy,1,undefined,1,left,49,49,49,0,0,49,49,0,0,49,49,49,0,49,0,Tue Oct 17 10:10:47 2023,The main experiment item,TRUE,SternbergTask.osexp,/Users/test/Desktop,FALSE,mono,FALSE,18,no,white,no,yes,768,legacy,37,11,/Users/test/Desktop/at-subject-2.csv,legacy,7,Melodramatic Milgram,4.0.5,1,y,0,left,right,right,left,NA,462,19945,5575,462,NA,2,legacy,1,1024,2,48000,-16,experiment,2,even,7,336867,333610,334658,8105,108507,334661,236125,8225,102932,335664,338870,339333,28234,338870,NA,Sternberg Task,49,41133,50,1024
98,98,829,829,black,experiment,legacy,legacy,legacy,1,undefined,1,left,50,50,50,0,0,50,50,0,0,50,50,50,0,50,0,Tue Oct 17 10:10:47 2023,The main experiment item,TRUE,SternbergTask.osexp,/Users/test/Desktop,FALSE,mono,FALSE,18,no,white,no,yes,768,legacy,38,11,/Users/test/Desktop/at-subject-2.csv,legacy,3 5 9 6 2 4,Melodramatic Milgram,4.0.5,1,y,0,left,right,right,left,NA,1149,19945,5575,1149,NA,2,legacy,6,1024,2,48000,-16,experiment,2,even,3,342640,339377,340430,8105,108507,340433,236125,8225,102932,341436,344643,345793,28234,344643,NA,Sternberg Task,50,42282,51,1024
98,98,825,825,black,experiment,legacy,legacy,legacy,1,undefined,1,left,51,51,51,0,0,51,51,0,0,51,51,51,0,51,0,Tue Oct 17 10:10:47 2023,The main experiment item,TRUE,SternbergTask.osexp,/Users/test/Desktop,FALSE,mono,FALSE,18,no,white,no,yes,768,legacy,39,11,/Users/test/Desktop/at-subject-2.csv,legacy,9 6 2 4 1,Melodramatic Milgram,4.0.5,4,y,0,left,right,right,left,NA,629,19945,5575,629,NA,2,legacy,5,1024,2,48000,-16,experiment,2,even,4,349071,345797,346862,8105,108507,346865,236125,8225,102932,347868,351074,351704,28234,351074,NA,Sternberg Task,51,42911,52,1024
98,98,828,828,black,experiment,legacy,legacy,legacy,1,undefined,1,right,52,52,52,0,0,52,52,0,0,52,52,52,0,52,0,Tue Oct 17 10:10:47 2023,The main experiment item,TRUE,SternbergTask.osexp,/Users/test/Desktop,FALSE,mono,FALSE,18,no,white,no,yes,768,legacy,40,11,/Users/test/Desktop/at-subject-2.csv,legacy,2 3 8 5 6 7,Melodramatic Milgram,4.0.5,0,n,0,right,right,right,right,NA,1016,19945,5575,1016,NA,2,legacy,6,1024,2,48000,-16,experiment,2,even,1,354956,351710,352748,8105,108507,352751,236125,8225,102932,353754,356960,357977,28234,356959,NA,Sternberg Task,52,43927,53,1024
98,98,826,826,black,experiment,legacy,legacy,legacy,1,undefined,1,left,53,53,53,0,0,53,53,0,0,53,53,53,0,53,0,Tue Oct 17 10:10:47 2023,The main experiment item,TRUE,SternbergTask.osexp,/Users/test/Desktop,FALSE,mono,FALSE,18,no,white,no,yes,768,legacy,41,11,/Users/test/Desktop/at-subject-2.csv,legacy,8 3,Melodramatic Milgram,4.0.5,2,y,0,left,right,right,left,NA,720,19945,5575,720,NA,2,legacy,2,1024,2,48000,-16,experiment,2,even,3,361239,357981,359029,8105,108507,359032,236125,8225,102932,360036,363242,363963,28234,363242,NA,Sternberg Task,53,44647,54,1024
98,98,823,823,black,experiment,legacy,legacy,legacy,1,undefined,1,right,54,54,54,0,0,54,54,0,0,54,54,54,0,54,0,Tue Oct 17 10:10:47 2023,The main experiment item,TRUE,SternbergTask.osexp,/Users/test/Desktop,FALSE,mono,FALSE,18,no,white,no,yes,768,legacy,42,11,/Users/test/Desktop/at-subject-2.csv,legacy,1 7 5 2,Melodramatic Milgram,4.0.5,0,n,0,right,right,right,right,NA,623,19945,5575,623,NA,2,legacy,4,1024,2,48000,-16,experiment,2,even,3,367233,363967,365024,8105,108507,365027,236125,8225,102932,366030,369237,369862,28234,369236,NA,Sternberg Task,54,45270,55,1024
98,98,824,824,black,experiment,legacy,legacy,legacy,1,undefined,1,right,55,55,55,0,0,55,55,0,0,55,55,55,0,55,0,Tue Oct 17 10:10:47 2023,The main experiment item,TRUE,SternbergTask.osexp,/Users/test/Desktop,FALSE,mono,FALSE,18,no,white,no,yes,768,legacy,43,11,/Users/test/Desktop/at-subject-2.csv,legacy,1 7 8 3 9,Melodramatic Milgram,4.0.5,0,n,0,right,right,right,right,NA,913,19945,5575,913,NA,2,legacy,5,1024,2,48000,-16,experiment,2,even,2,373133,369866,370925,8105,108507,370927,236125,8225,102932,371930,375136,376051,28234,375136,NA,Sternberg Task,55,46183,56,1024
98,98,825,825,black,experiment,legacy,legacy,legacy,1,undefined,1,left,56,56,56,0,0,56,56,0,0,56,56,56,0,56,0,Tue Oct 17 10:10:47 2023,The main experiment item,TRUE,SternbergTask.osexp,/Users/test/Desktop,FALSE,mono,FALSE,18,no,white,no,yes,768,legacy,44,11,/Users/test/Desktop/at-subject-2.csv,legacy,4 7 6 8 2 3,Melodramatic Milgram,4.0.5,6,y,0,left,right,right,left,NA,861,19945,5575,861,NA,2,legacy,6,1024,2,48000,-16,experiment,2,even,3,379319,376054,377109,8105,108507,377111,236125,8225,102932,378115,381322,382184,28234,381322,NA,Sternberg Task,56,47044,57,1024
96,96,845,845,black,experiment,legacy,legacy,legacy,0,undefined,0,right,57,57,57,0,0,57,57,0,0,57,57,57,0,57,0,Tue Oct 17 10:10:47 2023,The main experiment item,TRUE,SternbergTask.osexp,/Users/test/Desktop,FALSE,mono,FALSE,18,no,white,no,yes,768,legacy,45,11,/Users/test/Desktop/at-subject-2.csv,legacy,8 2 1 4 5 9,Melodramatic Milgram,4.0.5,0,n,0,None,right,right,None,NA,2000,19945,5575,2000,NA,2,legacy,6,1024,2,48000,-16,experiment,2,even,7,385460,382190,383249,8105,108507,383252,236125,8225,102932,384255,387463,389463,28234,387462,NA,Sternberg Task,56,49044,58,1024
96,96,842,842,black,experiment,legacy,legacy,legacy,1,undefined,1,left,58,58,58,0,0,58,58,0,0,58,58,58,0,58,0,Tue Oct 17 10:10:47 2023,The main experiment item,TRUE,SternbergTask.osexp,/Users/test/Desktop,FALSE,mono,FALSE,18,no,white,no,yes,768,legacy,46,11,/Users/test/Desktop/at-subject-2.csv,legacy,2 6 1 7 4,Melodramatic Milgram,4.0.5,2,y,0,left,right,right,left,NA,660,19945,5575,660,NA,2,legacy,5,1024,2,48000,-16,experiment,2,even,6,392714,382190,390506,8105,108507,390508,389466,8225,102932,391511,394717,395378,28234,394716,NA,Sternberg Task,57,49704,59,1024
96,96,839,839,black,experiment,legacy,legacy,legacy,1,undefined,1,right,59,59,59,0,0,59,59,0,0,59,59,59,0,59,0,Tue Oct 17 10:10:47 2023,The main experiment item,TRUE,SternbergTask.osexp,/Users/test/Desktop,FALSE,mono,FALSE,18,no,white,no,yes,768,legacy,47,11,/Users/test/Desktop/at-subject-2.csv,legacy,8 9,Melodramatic Milgram,4.0.5,0,n,0,right,right,right,right,NA,666,19945,5575,666,NA,2,legacy,2,1024,2,48000,-16,experiment,2,even,5,398673,395420,396463,8105,108507,396467,389466,8225,102932,397470,400676,401343,28234,400675,NA,Sternberg Task,58,50370,60,1024
96,96,850,850,black,experiment,legacy,legacy,legacy,1,undefined,1,left,60,60,60,0,0,60,60,0,0,60,60,60,0,60,0,Tue Oct 17 10:10:47 2023,The main experiment item,TRUE,SternbergTask.osexp,/Users/test/Desktop,FALSE,mono,FALSE,18,no,white,no,yes,768,legacy,48,11,/Users/test/Desktop/at-subject-2.csv,legacy,8 5 4 7 3 1,Melodramatic Milgram,4.0.5,2,y,0,left,right,right,left,NA,1480,19945,5575,1480,NA,2,legacy,6,1024,2,48000,-16,experiment,2,even,5,404605,401347,402396,8105,108507,402398,389466,8225,102932,403402,406608,408089,28234,406608,NA,Sternberg Task,59,51850,61,1024
96,96,845,845,black,experiment,legacy,legacy,legacy,1,undefined,1,left,61,61,61,0,0,61,61,0,0,61,61,61,0,61,0,Tue Oct 17 10:10:47 2023,The main experiment item,TRUE,SternbergTask.osexp,/Users/test/Desktop,FALSE,mono,FALSE,18,no,white,no,yes,768,legacy,49,11,/Users/test/Desktop/at-subject-2.csv,legacy,2 3 7 4,Melodramatic Milgram,4.0.5,1,y,0,left,right,right,left,NA,592,19945,5575,592,NA,2,legacy,4,1024,2,48000,-16,experiment,2,even,2,411349,408093,409140,8105,108507,409143,389466,8225,102932,410146,413352,413945,28234,413352,NA,Sternberg Task,60,52442,62,1024
96,96,849,849,black,experiment,legacy,legacy,legacy,1,undefined,1,right,62,62,62,0,0,62,62,0,0,62,62,62,0,62,0,Tue Oct 17 10:10:47 2023,The main experiment item,TRUE,SternbergTask.osexp,/Users/test/Desktop,FALSE,mono,FALSE,18,no,white,no,yes,768,legacy,50,11,/Users/test/Desktop/at-subject-2.csv,legacy,1 6 4 3 9 7,Melodramatic Milgram,4.0.5,0,n,0,right,right,right,right,NA,1080,19945,5575,1080,NA,2,legacy,6,1024,2,48000,-16,experiment,2,even,8,417212,413949,415004,8105,108507,415007,389466,8225,102932,416009,419215,420296,28234,419215,NA,Sternberg Task,61,53522,63,1024
96,96,847,847,black,experiment,legacy,legacy,legacy,1,undefined,1,right,63,63,63,0,0,63,63,0,0,63,63,63,0,63,0,Tue Oct 17 10:10:47 2023,The main experiment item,TRUE,SternbergTask.osexp,/Users/test/Desktop,FALSE,mono,FALSE,18,no,white,no,yes,768,legacy,51,11,/Users/test/Desktop/at-subject-2.csv,legacy,2 7 5,Melodramatic Milgram,4.0.5,0,n,0,right,right,right,right,NA,689,19945,5575,689,NA,2,legacy,3,1024,2,48000,-16,experiment,2,even,8,423605,420337,421396,8105,108507,421399,389466,8225,102932,422402,425608,426298,28234,425607,NA,Sternberg Task,62,54211,64,1024
96,96,843,843,black,experiment,legacy,legacy,legacy,1,undefined,1,left,64,64,64,0,0,64,64,0,0,64,64,64,0,64,0,Tue Oct 17 10:10:47 2023,The main experiment item,TRUE,SternbergTask.osexp,/Users/test/Desktop,FALSE,mono,FALSE,18,no,white,no,yes,768,legacy,52,11,/Users/test/Desktop/at-subject-2.csv,legacy,7 1 3,Melodramatic Milgram,4.0.5,2,y,0,left,right,right,left,NA,618,19945,5575,618,NA,2,legacy,3,1024,2,48000,-16,experiment,2,even,1,429551,426302,427342,8105,108507,427345,389466,8225,102932,428348,431554,432173,28234,431554,NA,Sternberg Task,63,54829,65,1024
96,96,840,840,black,experiment,legacy,legacy,legacy,1,undefined,1,right,65,65,65,0,0,65,65,0,0,65,65,65,0,65,0,Tue Oct 17 10:10:47 2023,The main experiment item,TRUE,SternbergTask.osexp,/Users/test/Desktop,FALSE,mono,FALSE,18,no,white,no,yes,768,legacy,53,11,/Users/test/Desktop/at-subject-2.csv,legacy,9 7 4 5 8,Melodramatic Milgram,4.0.5,0,n,0,right,right,right,right,NA,630,19945,5575,630,NA,2,legacy,5,1024,2,48000,-16,experiment,2,even,6,435431,432177,433222,8105,108507,433225,389466,8225,102932,434228,437434,438066,28234,437433,NA,Sternberg Task,64,55459,66,1024
97,97,843,843,black,experiment,legacy,legacy,legacy,1,undefined,1,right,66,66,66,0,0,66,66,0,0,66,66,66,0,66,0,Tue Oct 17 10:10:47 2023,The main experiment item,TRUE,SternbergTask.osexp,/Users/test/Desktop,FALSE,mono,FALSE,18,no,white,no,yes,768,legacy,54,11,/Users/test/Desktop/at-subject-2.csv,legacy,2 6 4 3 9,Melodramatic Milgram,4.0.5,0,n,0,right,right,right,right,NA,1047,19945,5575,1047,NA,2,legacy,5,1024,2,48000,-16,experiment,2,even,1,441367,438109,439158,8105,108507,439161,389466,8225,102932,440164,443371,444419,28234,443370,NA,Sternberg Task,65,56506,67,1024
97,97,840,840,black,experiment,legacy,legacy,legacy,1,undefined,1,right,67,67,67,0,0,67,67,0,0,67,67,67,0,67,0,Tue Oct 17 10:10:47 2023,The main experiment item,TRUE,SternbergTask.osexp,/Users/test/Desktop,FALSE,mono,FALSE,18,no,white,no,yes,768,legacy,55,11,/Users/test/Desktop/at-subject-2.csv,legacy,5 9 2 3,Melodramatic Milgram,4.0.5,0,n,0,right,right,right,right,NA,672,19945,5575,672,NA,2,legacy,4,1024,2,48000,-16,experiment,2,even,8,447682,444423,445473,8105,108507,445475,389466,8225,102932,446479,449685,450359,28234,449685,NA,Sternberg Task,66,57178,68,1024
97,97,839,839,black,experiment,legacy,legacy,legacy,1,undefined,1,right,68,68,68,0,0,68,68,0,0,68,68,68,0,68,0,Tue Oct 17 10:10:47 2023,The main experiment item,TRUE,SternbergTask.osexp,/Users/test/Desktop,FALSE,mono,FALSE,18,no,white,no,yes,768,legacy,56,11,/Users/test/Desktop/at-subject-2.csv,legacy,8 4 3 5,Melodramatic Milgram,4.0.5,0,n,0,right,right,right,right,NA,728,19945,5575,728,NA,2,legacy,4,1024,2,48000,-16,experiment,2,even,6,453662,450402,451453,8105,108507,451456,389466,8225,102932,452459,455665,456395,28234,455665,NA,Sternberg Task,67,57906,69,1024
97,97,836,836,black,experiment,legacy,legacy,legacy,1,undefined,1,left,69,69,69,0,0,69,69,0,0,69,69,69,0,69,0,Tue Oct 17 10:10:47 2023,The main experiment item,TRUE,SternbergTask.osexp,/Users/test/Desktop,FALSE,mono,FALSE,18,no,white,no,yes,768,legacy,57,11,/Users/test/Desktop/at-subject-2.csv,legacy,9 4 2,Melodramatic Milgram,4.0.5,1,y,0,left,right,right,left,NA,672,19945,5575,672,NA,2,legacy,3,1024,2,48000,-16,experiment,2,even,9,459669,456399,457459,8105,108507,457462,389466,8225,102932,458465,461672,462346,28234,461671,NA,Sternberg Task,68,58578,70,1024
97,97,835,835,black,experiment,legacy,legacy,legacy,1,undefined,1,left,70,70,70,0,0,70,70,0,0,70,70,70,0,70,0,Tue Oct 17 10:10:47 2023,The main experiment item,TRUE,SternbergTask.osexp,/Users/test/Desktop,FALSE,mono,FALSE,18,no,white,no,yes,768,legacy,58,11,/Users/test/Desktop/at-subject-2.csv,legacy,4 6 2 5 1,Melodramatic Milgram,4.0.5,5,y,0,left,right,right,left,NA,724,19945,5575,724,NA,2,legacy,5,1024,2,48000,-16,experiment,2,even,1,465598,462350,463390,8105,108507,463393,389466,8225,102932,464395,467601,468327,28234,467600,NA,Sternberg Task,69,59302,71,1024
97,97,834,834,black,experiment,legacy,legacy,legacy,1,undefined,1,left,71,71,71,0,0,71,71,0,0,71,71,71,0,71,0,Tue Oct 17 10:10:47 2023,The main experiment item,TRUE,SternbergTask.osexp,/Users/test/Desktop,FALSE,mono,FALSE,18,no,white,no,yes,768,legacy,59,11,/Users/test/Desktop/at-subject-2.csv,legacy,4 9 7 8 5 3,Melodramatic Milgram,4.0.5,4,y,0,left,right,right,left,NA,747,19945,5575,747,NA,2,legacy,6,1024,2,48000,-16,experiment,2,even,8,471623,468370,469415,8105,108507,469417,389466,8225,102932,470420,473626,474375,28234,473625,NA,Sternberg Task,70,60049,72,1024
97,97,843,843,black,experiment,legacy,legacy,legacy,1,undefined,1,right,72,72,72,0,0,72,72,0,0,72,72,72,0,72,0,Tue Oct 17 10:10:47 2023,The main experiment item,TRUE,SternbergTask.osexp,/Users/test/Desktop,FALSE,mono,FALSE,18,no,white,no,yes,768,legacy,60,11,/Users/test/Desktop/at-subject-2.csv,legacy,2 5 1 4,Melodramatic Milgram,4.0.5,0,n,0,right,right,right,right,NA,1554,19945,5575,1554,NA,2,legacy,4,1024,2,48000,-16,experiment,2,even,6,477636,474378,475427,8105,108507,475429,389466,8225,102932,476433,479639,481194,28234,479638,NA,Sternberg Task,71,61603,73,1024
97,97,842,842,black,experiment,legacy,legacy,legacy,1,undefined,1,right,73,73,73,0,0,73,73,0,0,73,73,73,0,73,0,Tue Oct 17 10:10:47 2023,The main experiment item,TRUE,SternbergTask.osexp,/Users/test/Desktop,FALSE,mono,FALSE,18,no,white,no,yes,768,legacy,61,11,/Users/test/Desktop/at-subject-2.csv,legacy,7 1 8 4 9 3,Melodramatic Milgram,4.0.5,0,n,0,right,right,right,right,NA,728,19945,5575,728,NA,2,legacy,6,1024,2,48000,-16,experiment,2,even,6,484493,481237,482285,8105,108507,482288,389466,8225,102932,483290,486496,487226,28234,486495,NA,Sternberg Task,72,62331,74,1024
97,97,840,840,black,experiment,legacy,legacy,legacy,1,undefined,1,right,74,74,74,0,0,74,74,0,0,74,74,74,0,74,0,Tue Oct 17 10:10:47 2023,The main experiment item,TRUE,SternbergTask.osexp,/Users/test/Desktop,FALSE,mono,FALSE,18,no,white,no,yes,768,legacy,62,11,/Users/test/Desktop/at-subject-2.csv,legacy,6 8,Melodramatic Milgram,4.0.5,0,n,0,right,right,right,right,NA,686,19945,5575,686,NA,2,legacy,2,1024,2,48000,-16,experiment,2,even,9,490530,487270,488320,8105,108507,488324,389466,8225,102932,489327,492533,493221,28234,492532,NA,Sternberg Task,73,63017,75,1024
97,97,836,836,black,experiment,legacy,legacy,legacy,1,undefined,1,right,75,75,75,0,0,75,75,0,0,75,75,75,0,75,0,Tue Oct 17 10:10:47 2023,The main experiment item,TRUE,SternbergTask.osexp,/Users/test/Desktop,FALSE,mono,FALSE,18,no,white,no,yes,768,legacy,63,11,/Users/test/Desktop/at-subject-2.csv,legacy,6 8 4,Melodramatic Milgram,4.0.5,0,n,0,right,right,right,right,NA,557,19945,5575,557,NA,2,legacy,3,1024,2,48000,-16,experiment,2,even,1,496498,493225,494288,8105,108507,494292,389466,8225,102932,495295,498501,499059,28234,498500,NA,Sternberg Task,74,63574,76,1024
97,97,838,838,black,experiment,legacy,legacy,legacy,1,undefined,1,left,76,76,76,0,0,76,76,0,0,76,76,76,0,76,0,Tue Oct 17 10:10:47 2023,The main experiment item,TRUE,SternbergTask.osexp,/Users/test/Desktop,FALSE,mono,FALSE,18,no,white,no,yes,768,legacy,64,11,/Users/test/Desktop/at-subject-2.csv,legacy,9 3 1 2 5,Melodramatic Milgram,4.0.5,4,y,0,left,right,right,left,NA,1023,19945,5575,1023,NA,2,legacy,5,1024,2,48000,-16,experiment,2,even,2,502350,499101,500140,8105,108507,500143,389466,8225,102932,501146,504354,505378,28234,504353,NA,Sternberg Task,75,64597,77,1024
97,97,835,835,black,experiment,legacy,legacy,legacy,1,undefined,1,right,77,77,77,0,0,77,77,0,0,77,77,77,0,77,0,Tue Oct 17 10:10:47 2023,The main experiment item,TRUE,SternbergTask.osexp,/Users/test/Desktop,FALSE,mono,FALSE,18,no,white,no,yes,768,legacy,65,11,/Users/test/Desktop/at-subject-2.csv,legacy,2 8 9 4 1,Melodramatic Milgram,4.0.5,0,n,0,right,right,right,right,NA,570,19945,5575,570,NA,2,legacy,5,1024,2,48000,-16,experiment,2,even,5,508675,505421,506465,8105,108507,506469,389466,8225,102932,507472,510678,511250,28234,510677,NA,Sternberg Task,76,65167,78,1024
97,97,839,839,black,experiment,legacy,legacy,legacy,1,undefined,1,right,78,78,78,0,0,78,78,0,0,78,78,78,0,78,0,Tue Oct 17 10:10:47 2023,The main experiment item,TRUE,SternbergTask.osexp,/Users/test/Desktop,FALSE,mono,FALSE,18,no,white,no,yes,768,legacy,66,11,/Users/test/Desktop/at-subject-2.csv,legacy,1 4 9 2 5,Melodramatic Milgram,4.0.5,0,n,0,right,right,right,right,NA,1150,19945,5575,1150,NA,2,legacy,5,1024,2,48000,-16,experiment,2,even,7,514511,511253,512302,8105,108507,512305,389466,8225,102932,513308,516514,517666,28234,516513,NA,Sternberg Task,77,66317,79,1024
97,97,839,839,black,experiment,legacy,legacy,legacy,1,undefined,1,right,79,79,79,0,0,79,79,0,0,79,79,79,0,79,0,Tue Oct 17 10:10:47 2023,The main experiment item,TRUE,SternbergTask.osexp,/Users/test/Desktop,FALSE,mono,FALSE,18,no,white,no,yes,768,legacy,67,11,/Users/test/Desktop/at-subject-2.csv,legacy,6 9 4 5 3 2,Melodramatic Milgram,4.0.5,0,n,0,right,right,right,right,NA,823,19945,5575,823,NA,2,legacy,6,1024,2,48000,-16,experiment,2,even,8,520927,517670,518719,8105,108507,518721,389466,8225,102932,519725,522930,523754,28234,522929,NA,Sternberg Task,78,67140,80,1024
97,97,840,840,black,experiment,legacy,legacy,legacy,1,undefined,1,left,80,80,80,0,0,80,80,0,0,80,80,80,0,80,0,Tue Oct 17 10:10:47 2023,The main experiment item,TRUE,SternbergTask.osexp,/Users/test/Desktop,FALSE,mono,FALSE,18,no,white,no,yes,768,legacy,68,11,/Users/test/Desktop/at-subject-2.csv,legacy,3 2 1 4 7,Melodramatic Milgram,4.0.5,2,y,0,left,right,right,left,NA,952,19945,5575,952,NA,2,legacy,5,1024,2,48000,-16,experiment,2,even,2,527056,523797,524847,8105,108507,524849,389466,8225,102932,525853,529060,530014,28234,529059,NA,Sternberg Task,79,68092,81,1024
97,97,841,841,black,experiment,legacy,legacy,legacy,1,undefined,1,left,81,81,81,0,0,81,81,0,0,81,81,81,0,81,0,Tue Oct 17 10:10:47 2023,The main experiment item,TRUE,SternbergTask.osexp,/Users/test/Desktop,FALSE,mono,FALSE,18,no,white,no,yes,768,legacy,69,11,/Users/test/Desktop/at-subject-2.csv,legacy,9 5 8 1,Melodramatic Milgram,4.0.5,2,y,0,left,right,right,left,NA,885,19945,5575,885,NA,2,legacy,4,1024,2,48000,-16,experiment,2,even,5,533316,530018,531076,8105,108507,531079,389466,8225,102932,532113,535320,536206,28234,535319,NA,Sternberg Task,80,68977,82,1024
97,97,841,841,black,experiment,legacy,legacy,legacy,1,undefined,1,right,82,82,82,0,0,82,82,0,0,82,82,82,0,82,0,Tue Oct 17 10:10:47 2023,The main experiment item,TRUE,SternbergTask.osexp,/Users/test/Desktop,FALSE,mono,FALSE,18,no,white,no,yes,768,legacy,70,11,/Users/test/Desktop/at-subject-2.csv,legacy,7 1 5 6 3,Melodramatic Milgram,4.0.5,0,n,0,right,right,right,right,NA,854,19945,5575,854,NA,2,legacy,5,1024,2,48000,-16,experiment,2,even,8,539498,536248,537289,8105,108507,537292,389466,8225,102932,538295,541501,542356,28234,541500,NA,Sternberg Task,81,69831,83,1024
97,97,843,843,black,experiment,legacy,legacy,legacy,1,undefined,1,right,83,83,83,0,0,83,83,0,0,83,83,83,0,83,0,Tue Oct 17 10:10:47 2023,The main experiment item,TRUE,SternbergTask.osexp,/Users/test/Desktop,FALSE,mono,FALSE,18,no,white,no,yes,768,legacy,71,11,/Users/test/Desktop/at-subject-2.csv,legacy,4 2 6 9,Melodramatic Milgram,4.0.5,0,n,0,right,right,right,right,NA,1048,19945,5575,1048,NA,2,legacy,4,1024,2,48000,-16,experiment,2,even,7,545614,542360,543405,8105,108507,543407,389466,8225,102932,544411,547617,548666,28234,547616,NA,Sternberg Task,82,70879,84,1024
97,97,839,839,black,experiment,legacy,legacy,legacy,1,undefined,1,right,84,84,84,0,0,84,84,0,0,84,84,84,0,84,0,Tue Oct 17 10:10:47 2023,The main experiment item,TRUE,SternbergTask.osexp,/Users/test/Desktop,FALSE,mono,FALSE,18,no,white,no,yes,768,legacy,72,11,/Users/test/Desktop/at-subject-2.csv,legacy,6 9 5,Melodramatic Milgram,4.0.5,0,n,0,right,right,right,right,NA,473,19945,5575,473,NA,2,legacy,3,1024,2,48000,-16,experiment,2,even,8,551966,548709,549758,8105,108507,549760,389466,8225,102932,550764,553969,554443,28234,553968,NA,Sternberg Task,83,71352,85,1024
97,97,837,837,black,experiment,legacy,legacy,legacy,1,undefined,1,right,85,85,85,0,0,85,85,0,0,85,85,85,0,85,0,Tue Oct 17 10:10:47 2023,The main experiment item,TRUE,SternbergTask.osexp,/Users/test/Desktop,FALSE,mono,FALSE,18,no,white,no,yes,768,legacy,73,11,/Users/test/Desktop/at-subject-2.csv,legacy,1 5 3 2 8,Melodramatic Milgram,4.0.5,0,n,0,right,right,right,right,NA,711,19945,5575,711,NA,2,legacy,5,1024,2,48000,-16,experiment,2,even,4,557708,554447,555498,8105,108507,555501,389466,8225,102932,556504,559711,560423,28234,559710,NA,Sternberg Task,84,72063,86,1024
97,97,844,844,black,experiment,legacy,legacy,legacy,1,undefined,1,left,86,86,86,0,0,86,86,0,0,86,86,86,0,86,0,Tue Oct 17 10:10:47 2023,The main experiment item,TRUE,SternbergTask.osexp,/Users/test/Desktop,FALSE,mono,FALSE,18,no,white,no,yes,768,legacy,74,11,/Users/test/Desktop/at-subject-2.csv,legacy,8 1 6,Melodramatic Milgram,4.0.5,3,y,0,left,right,right,left,NA,1424,19945,5575,1424,NA,2,legacy,3,1024,2,48000,-16,experiment,2,even,6,563685,560426,561475,8105,108507,561478,389466,8225,102932,562482,565689,567114,28234,565688,NA,Sternberg Task,85,73487,87,1024
97,97,842,842,black,experiment,legacy,legacy,legacy,1,undefined,1,right,87,87,87,0,0,87,87,0,0,87,87,87,0,87,0,Tue Oct 17 10:10:47 2023,The main experiment item,TRUE,SternbergTask.osexp,/Users/test/Desktop,FALSE,mono,FALSE,18,no,white,no,yes,768,legacy,75,11,/Users/test/Desktop/at-subject-2.csv,legacy,8 5 7 3 6,Melodramatic Milgram,4.0.5,0,n,0,right,right,right,right,NA,681,19945,5575,681,NA,2,legacy,5,1024,2,48000,-16,experiment,2,even,9,570389,567118,568180,8105,108507,568183,389466,8225,102932,569186,572392,573075,28234,572391,NA,Sternberg Task,86,74168,88,1024
97,97,839,839,black,experiment,legacy,legacy,legacy,1,undefined,1,left,88,88,88,0,0,88,88,0,0,88,88,88,0,88,0,Tue Oct 17 10:10:47 2023,The main experiment item,TRUE,SternbergTask.osexp,/Users/test/Desktop,FALSE,mono,FALSE,18,no,white,no,yes,768,legacy,76,11,/Users/test/Desktop/at-subject-2.csv,legacy,3 5 7 1,Melodramatic Milgram,4.0.5,3,y,0,left,right,right,left,NA,586,19945,5575,586,NA,2,legacy,4,1024,2,48000,-16,experiment,2,even,7,576327,573078,574118,8105,108507,574121,389466,8225,102932,575124,578330,578918,28234,578329,NA,Sternberg Task,87,74754,89,1024
97,97,836,836,black,experiment,legacy,legacy,legacy,1,undefined,1,right,89,89,89,0,0,89,89,0,0,89,89,89,0,89,0,Tue Oct 17 10:10:47 2023,The main experiment item,TRUE,SternbergTask.osexp,/Users/test/Desktop,FALSE,mono,FALSE,18,no,white,no,yes,768,legacy,77,11,/Users/test/Desktop/at-subject-2.csv,legacy,1,Melodramatic Milgram,4.0.5,0,n,0,right,right,right,right,NA,503,19945,5575,503,NA,2,legacy,1,1024,2,48000,-16,experiment,2,even,7,582214,578959,580006,8105,108507,580009,389466,8225,102932,581011,584217,584722,28234,584216,NA,Sternberg Task,88,75257,90,1024
97,97,834,834,black,experiment,legacy,legacy,legacy,1,undefined,1,right,90,90,90,0,0,90,90,0,0,90,90,90,0,90,0,Tue Oct 17 10:10:47 2023,The main experiment item,TRUE,SternbergTask.osexp,/Users/test/Desktop,FALSE,mono,FALSE,18,no,white,no,yes,768,legacy,78,11,/Users/test/Desktop/at-subject-2.csv,legacy,3 9 1,Melodramatic Milgram,4.0.5,0,n,0,right,right,right,right,NA,646,19945,5575,646,NA,2,legacy,3,1024,2,48000,-16,experiment,2,even,7,587982,584725,585774,8105,108507,585776,389466,8225,102932,586779,589984,590631,28234,589984,NA,Sternberg Task,89,75903,91,1024
97,97,832,832,black,experiment,legacy,legacy,legacy,1,undefined,1,left,91,91,91,0,0,91,91,0,0,91,91,91,0,91,0,Tue Oct 17 10:10:47 2023,The main experiment item,TRUE,SternbergTask.osexp,/Users/test/Desktop,FALSE,mono,FALSE,18,no,white,no,yes,768,legacy,79,11,/Users/test/Desktop/at-subject-2.csv,legacy,8 9 5 7 1 6,Melodramatic Milgram,4.0.5,4,y,0,left,right,right,left,NA,641,19945,5575,641,NA,2,legacy,6,1024,2,48000,-16,experiment,2,even,7,593928,590674,591720,8105,108507,591723,389466,8225,102932,592726,595931,596573,28234,595931,NA,Sternberg Task,90,76544,92,1024
96,96,836,836,black,experiment,legacy,legacy,legacy,0,undefined,0,left,92,92,92,0,0,92,92,0,0,92,92,92,0,92,0,Tue Oct 17 10:10:47 2023,The main experiment item,TRUE,SternbergTask.osexp,/Users/test/Desktop,FALSE,mono,FALSE,18,no,white,no,yes,768,legacy,80,11,/Users/test/Desktop/at-subject-2.csv,legacy,2 8 5 1,Melodramatic Milgram,4.0.5,4,y,0,right,right,right,right,NA,1265,19945,5575,1265,NA,2,legacy,4,1024,2,48000,-16,experiment,2,even,1,599875,596616,597666,8105,108507,597669,389466,8225,102932,598672,601879,603146,28234,601879,NA,Sternberg Task,90,77809,93,1024
96,96,835,835,black,experiment,legacy,legacy,legacy,1,undefined,1,left,93,93,93,0,0,93,93,0,0,93,93,93,0,93,0,Tue Oct 17 10:10:47 2023,The main experiment item,TRUE,SternbergTask.osexp,/Users/test/Desktop,FALSE,mono,FALSE,18,no,white,no,yes,768,legacy,81,11,/Users/test/Desktop/at-subject-2.csv,legacy,3 4,Melodramatic Milgram,4.0.5,1,y,0,left,right,right,left,NA,713,19945,5575,713,NA,2,legacy,2,1024,2,48000,-16,experiment,2,even,3,606426,596616,604216,8105,108507,604220,603150,8225,102932,605223,608429,609144,28234,608428,NA,Sternberg Task,91,78522,94,1024
95,95,834,834,black,experiment,legacy,legacy,legacy,0,undefined,0,right,94,94,94,0,0,94,94,0,0,94,94,94,0,94,0,Tue Oct 17 10:10:47 2023,The main experiment item,TRUE,SternbergTask.osexp,/Users/test/Desktop,FALSE,mono,FALSE,18,no,white,no,yes,768,legacy,82,11,/Users/test/Desktop/at-subject-2.csv,legacy,7 6 4 8 1 2,Melodramatic Milgram,4.0.5,0,n,0,left,right,right,left,NA,762,19945,5575,762,NA,2,legacy,6,1024,2,48000,-16,experiment,2,even,9,612397,609147,610188,8105,108507,610191,603150,8225,102932,611194,614400,615164,28234,614399,NA,Sternberg Task,91,79284,95,1024
95,95,832,832,black,experiment,legacy,legacy,legacy,1,undefined,1,right,95,95,95,0,0,95,95,0,0,95,95,95,0,95,0,Tue Oct 17 10:10:47 2023,The main experiment item,TRUE,SternbergTask.osexp,/Users/test/Desktop,FALSE,mono,FALSE,18,no,white,no,yes,768,legacy,83,11,/Users/test/Desktop/at-subject-2.csv,legacy,7 8 6 1,Melodramatic Milgram,4.0.5,0,n,0,right,right,right,right,NA,650,19945,5575,650,NA,2,legacy,4,1024,2,48000,-16,experiment,2,even,3,618421,609147,616213,8105,108507,616215,615168,8225,102932,617218,620424,621076,28234,620423,NA,Sternberg Task,92,79934,96,1024
95,95,830,830,black,experiment,legacy,legacy,legacy,1,undefined,1,right,96,96,96,0,0,96,96,0,0,96,96,96,0,96,0,Tue Oct 17 10:10:47 2023,The main experiment item,TRUE,SternbergTask.osexp,/Users/test/Desktop,FALSE,mono,FALSE,18,no,white,no,yes,768,legacy,84,11,/Users/test/Desktop/at-subject-2.csv,legacy,4 8 1 2,Melodramatic Milgram,4.0.5,0,n,0,right,right,right,right,NA,613,19945,5575,613,NA,2,legacy,4,1024,2,48000,-16,experiment,2,even,7,624376,621118,622167,8105,108507,622170,615168,8225,102932,623173,626379,626994,28234,626378,NA,Sternberg Task,93,80547,97,1024
95,95,829,829,black,experiment,legacy,legacy,legacy,1,undefined,1,left,97,97,97,0,0,97,97,0,0,97,97,97,0,97,0,Tue Oct 17 10:10:47 2023,The main experiment item,TRUE,SternbergTask.osexp,/Users/test/Desktop,FALSE,mono,FALSE,18,no,white,no,yes,768,legacy,85,11,/Users/test/Desktop/at-subject-2.csv,legacy,6 7 9 3 1 2,Melodramatic Milgram,4.0.5,1,y,0,left,right,right,left,NA,791,19945,5575,791,NA,2,legacy,6,1024,2,48000,-16,experiment,2,even,6,630254,626998,628045,8105,108507,628048,615168,8225,102932,629051,632258,633051,28234,632257,NA,Sternberg Task,94,81338,98,1024
95,95,830,830,black,experiment,legacy,legacy,legacy,1,undefined,1,left,98,98,98,0,0,98,98,0,0,98,98,98,0,98,0,Tue Oct 17 10:10:47 2023,The main experiment item,TRUE,SternbergTask.osexp,/Users/test/Desktop,FALSE,mono,FALSE,18,no,white,no,yes,768,legacy,86,11,/Users/test/Desktop/at-subject-2.csv,legacy,2 4 6 9,Melodramatic Milgram,4.0.5,3,y,0,left,right,right,left,NA,872,19945,5575,872,NA,2,legacy,4,1024,2,48000,-16,experiment,2,even,6,636324,633060,634114,8105,108507,634116,615168,8225,102932,635121,638328,639201,28234,638327,NA,Sternberg Task,95,82210,99,1024
96,96,830,830,black,experiment,legacy,legacy,legacy,1,undefined,1,left,99,99,99,0,0,99,99,0,0,99,99,99,0,99,0,Tue Oct 17 10:10:47 2023,The main experiment item,TRUE,SternbergTask.osexp,/Users/test/Desktop,FALSE,mono,FALSE,18,no,white,no,yes,768,legacy,87,11,/Users/test/Desktop/at-subject-2.csv,legacy,6 9 3 1,Melodramatic Milgram,4.0.5,4,y,0,left,right,right,left,NA,807,19945,5575,807,NA,2,legacy,4,1024,2,48000,-16,experiment,2,even,1,642526,639204,640316,8105,108507,640319,615168,8225,102932,641322,644529,645338,28234,644528,NA,Sternberg Task,96,83017,100,1024
95,95,834,834,black,experiment,legacy,legacy,legacy,0,undefined,0,left,100,100,100,0,0,100,100,0,0,100,100,100,0,100,0,Tue Oct 17 10:10:47 2023,The main experiment item,TRUE,SternbergTask.osexp,/Users/test/Desktop,FALSE,mono,FALSE,18,no,white,no,yes,768,legacy,88,11,/Users/test/Desktop/at-subject-2.csv,legacy,3 9 6 2,Melodramatic Milgram,4.0.5,4,y,0,right,right,right,right,NA,1217,19945,5575,1217,NA,2,legacy,4,1024,2,48000,-16,experiment,2,even,2,648590,645342,646381,8105,108507,646384,615168,8225,102932,647387,650593,651812,28234,650592,NA,Sternberg Task,96,84234,101,1024
95,95,831,831,black,experiment,legacy,legacy,legacy,1,undefined,1,left,101,101,101,0,0,101,101,0,0,101,101,101,0,101,0,Tue Oct 17 10:10:47 2023,The main experiment item,TRUE,SternbergTask.osexp,/Users/test/Desktop,FALSE,mono,FALSE,18,no,white,no,yes,768,legacy,89,11,/Users/test/Desktop/at-subject-2.csv,legacy,5 7 8 2 3 8,Melodramatic Milgram,4.0.5,5,y,0,left,right,right,left,NA,610,19945,5575,610,NA,2,legacy,6,1024,2,48000,-16,experiment,2,even,3,655073,645342,652862,8105,108507,652866,651815,8225,102932,653869,657076,657687,28234,657075,NA,Sternberg Task,97,84844,102,1024
95,95,828,828,black,experiment,legacy,legacy,legacy,1,undefined,1,left,102,102,102,0,0,102,102,0,0,102,102,102,0,102,0,Tue Oct 17 10:10:47 2023,The main experiment item,TRUE,SternbergTask.osexp,/Users/test/Desktop,FALSE,mono,FALSE,18,no,white,no,yes,768,legacy,90,11,/Users/test/Desktop/at-subject-2.csv,legacy,6 2,Melodramatic Milgram,4.0.5,1,y,0,left,right,right,left,NA,539,19945,5575,539,NA,2,legacy,2,1024,2,48000,-16,experiment,2,even,6,660947,657691,658738,8105,108507,658742,651815,8225,102932,659745,662950,663491,28234,662949,NA,Sternberg Task,98,85383,103,1024
95,95,827,827,black,experiment,legacy,legacy,legacy,1,undefined,1,left,103,103,103,0,0,103,103,0,0,103,103,103,0,103,0,Tue Oct 17 10:10:47 2023,The main experiment item,TRUE,SternbergTask.osexp,/Users/test/Desktop,FALSE,mono,FALSE,18,no,white,no,yes,768,legacy,91,11,/Users/test/Desktop/at-subject-2.csv,legacy,8 5 1 3 9,Melodramatic Milgram,4.0.5,4,y,0,left,right,right,left,NA,659,19945,5575,659,NA,2,legacy,5,1024,2,48000,-16,experiment,2,even,3,666751,663494,664543,8105,108507,664546,651815,8225,102932,665548,668754,669414,28234,668754,NA,Sternberg Task,99,86042,104,1024
95,95,829,829,black,experiment,legacy,legacy,legacy,1,undefined,1,left,104,104,104,0,0,104,104,0,0,104,104,104,0,104,0,Tue Oct 17 10:10:47 2023,The main experiment item,TRUE,SternbergTask.osexp,/Users/test/Desktop,FALSE,mono,FALSE,18,no,white,no,yes,768,legacy,92,11,/Users/test/Desktop/at-subject-2.csv,legacy,3 9 7 6 4,Melodramatic Milgram,4.0.5,3,y,0,left,right,right,left,NA,1017,19945,5575,1017,NA,2,legacy,5,1024,2,48000,-16,experiment,2,even,7,672675,669418,670466,8105,108507,670469,651815,8225,102932,671472,674678,675696,28234,674678,NA,Sternberg Task,100,87059,105,1024
95,95,826,826,black,experiment,legacy,legacy,legacy,1,undefined,1,left,105,105,105,0,0,105,105,0,0,105,105,105,0,105,0,Tue Oct 17 10:10:47 2023,The main experiment item,TRUE,SternbergTask.osexp,/Users/test/Desktop,FALSE,mono,FALSE,18,no,white,no,yes,768,legacy,93,11,/Users/test/Desktop/at-subject-2.csv,legacy,8 5 3 7 4 6,Melodramatic Milgram,4.0.5,6,y,0,left,right,right,left,NA,590,19945,5575,590,NA,2,legacy,6,1024,2,48000,-16,experiment,2,even,6,678966,675700,676758,8105,108507,676761,651815,8225,102932,677764,680969,681561,28234,680969,NA,Sternberg Task,101,87649,106,1024
95,95,827,827,black,experiment,legacy,legacy,legacy,1,undefined,1,left,106,106,106,0,0,106,106,0,0,106,106,106,0,106,0,Tue Oct 17 10:10:47 2023,The main experiment item,TRUE,SternbergTask.osexp,/Users/test/Desktop,FALSE,mono,FALSE,18,no,white,no,yes,768,legacy,94,11,/Users/test/Desktop/at-subject-2.csv,legacy,9 1 6 7 8,Melodramatic Milgram,4.0.5,1,y,0,left,right,right,left,NA,883,19945,5575,883,NA,2,legacy,5,1024,2,48000,-16,experiment,2,even,9,684852,681603,682643,8105,108507,682646,651815,8225,102932,683649,686855,687740,28234,686854,NA,Sternberg Task,102,88532,107,1024
95,95,828,828,black,experiment,legacy,legacy,legacy,1,undefined,1,right,107,107,107,0,0,107,107,0,0,107,107,107,0,107,0,Tue Oct 17 10:10:47 2023,The main experiment item,TRUE,SternbergTask.osexp,/Users/test/Desktop,FALSE,mono,FALSE,18,no,white,no,yes,768,legacy,95,11,/Users/test/Desktop/at-subject-2.csv,legacy,3 4 9 6 7 8,Melodramatic Milgram,4.0.5,0,n,0,right,right,right,right,NA,942,19945,5575,942,NA,2,legacy,6,1024,2,48000,-16,experiment,2,even,2,690995,687743,688787,8105,108507,688790,651815,8225,102932,689793,692998,693942,28234,692997,NA,Sternberg Task,103,89474,108,1024
95,95,827,827,black,experiment,legacy,legacy,legacy,1,undefined,1,left,108,108,108,0,0,108,108,0,0,108,108,108,0,108,0,Tue Oct 17 10:10:47 2023,The main experiment item,TRUE,SternbergTask.osexp,/Users/test/Desktop,FALSE,mono,FALSE,18,no,white,no,yes,768,legacy,96,11,/Users/test/Desktop/at-subject-2.csv,legacy,9 8 4,Melodramatic Milgram,4.0.5,1,y,0,left,right,right,left,NA,719,19945,5575,719,NA,2,legacy,3,1024,2,48000,-16,experiment,2,even,9,697209,693945,695000,8105,108507,695004,651815,8225,102932,696006,699212,699933,28234,699211,NA,Sternberg Task,104,90193,109,1024
95,95,833,833,black,experiment,legacy,legacy,legacy,1,undefined,1,right,109,109,109,0,0,109,109,0,0,109,109,109,0,109,0,Tue Oct 17 10:10:47 2023,The main experiment item,TRUE,SternbergTask.osexp,/Users/test/Desktop,FALSE,mono,FALSE,18,no,white,no,yes,768,legacy,97,11,/Users/test/Desktop/at-subject-2.csv,legacy,5 3 8 7 2 4,Melodramatic Milgram,4.0.5,0,n,0,right,right,right,right,NA,1542,19945,5575,1542,NA,2,legacy,6,1024,2,48000,-16,experiment,2,even,9,703235,699974,701026,8105,108507,701029,651815,8225,102932,702031,705238,706782,28234,705238,NA,Sternberg Task,105,91735,110,1024
95,95,834,834,black,experiment,legacy,legacy,legacy,1,undefined,1,left,110,110,110,0,0,110,110,0,0,110,110,110,0,110,0,Tue Oct 17 10:10:47 2023,The main experiment item,TRUE,SternbergTask.osexp,/Users/test/Desktop,FALSE,mono,FALSE,18,no,white,no,yes,768,legacy,98,11,/Users/test/Desktop/at-subject-2.csv,legacy,8 9 5 6 7,Melodramatic Milgram,4.0.5,1,y,0,left,right,right,left,NA,949,19945,5575,949,NA,2,legacy,5,1024,2,48000,-16,experiment,2,even,8,710043,706787,707835,8105,108507,707838,651815,8225,102932,708841,712047,712998,28234,712046,NA,Sternberg Task,106,92684,111,1024
95,95,833,833,black,experiment,legacy,legacy,legacy,1,undefined,1,right,111,111,111,0,0,111,111,0,0,111,111,111,0,111,0,Tue Oct 17 10:10:47 2023,The main experiment item,TRUE,SternbergTask.osexp,/Users/test/Desktop,FALSE,mono,FALSE,18,no,white,no,yes,768,legacy,99,11,/Users/test/Desktop/at-subject-2.csv,legacy,6 2 9 3 8 4,Melodramatic Milgram,4.0.5,0,n,0,right,right,right,right,NA,721,19945,5575,721,NA,2,legacy,6,1024,2,48000,-16,experiment,2,even,1,716271,713003,714061,8105,108507,714064,651815,8225,102932,715068,718275,718997,28234,718274,NA,Sternberg Task,107,93405,112,1024
95,95,838,838,black,experiment,legacy,legacy,legacy,1,undefined,1,left,112,112,112,0,0,112,112,0,0,112,112,112,0,112,0,Tue Oct 17 10:10:47 2023,The main experiment item,TRUE,SternbergTask.osexp,/Users/test/Desktop,FALSE,mono,FALSE,18,no,white,no,yes,768,legacy,100,11,/Users/test/Desktop/at-subject-2.csv,legacy,6 9 7 4 5 1,Melodramatic Milgram,4.0.5,2,y,0,left,right,right,left,NA,1350,19945,5575,1350,NA,2,legacy,6,1024,2,48000,-16,experiment,2,even,9,722287,719038,720078,8105,108507,720081,651815,8225,102932,721084,724290,725641,28234,724289,NA,Sternberg Task,108,94755,113,1024
95,95,838,838,black,experiment,legacy,legacy,legacy,1,undefined,1,right,113,113,113,0,0,113,113,0,0,113,113,113,0,113,0,Tue Oct 17 10:10:47 2023,The main experiment item,TRUE,SternbergTask.osexp,/Users/test/Desktop,FALSE,mono,FALSE,18,no,white,no,yes,768,legacy,101,11,/Users/test/Desktop/at-subject-2.csv,legacy,8 5 4 2 9 6,Melodramatic Milgram,4.0.5,0,n,0,right,right,right,right,NA,864,19945,5575,864,NA,2,legacy,6,1024,2,48000,-16,experiment,2,even,3,728935,725682,726728,8105,108507,726730,651815,8225,102932,727733,730938,731804,28234,730938,NA,Sternberg Task,109,95619,114,1024
95,95,836,836,black,experiment,legacy,legacy,legacy,1,undefined,1,left,114,114,114,0,0,114,114,0,0,114,114,114,0,114,0,Tue Oct 17 10:10:47 2023,The main experiment item,TRUE,SternbergTask.osexp,/Users/test/Desktop,FALSE,mono,FALSE,18,no,white,no,yes,768,legacy,102,11,/Users/test/Desktop/at-subject-2.csv,legacy,1 4 9 3 2 5,Melodramatic Milgram,4.0.5,3,y,0,left,right,right,left,NA,607,19945,5575,607,NA,2,legacy,6,1024,2,48000,-16,experiment,2,even,9,735211,731946,733003,8105,108507,733006,651815,8225,102932,734008,737215,737824,28234,737214,NA,Sternberg Task,110,96226,115,1024
95,95,835,835,black,experiment,legacy,legacy,legacy,1,undefined,1,left,115,115,115,0,0,115,115,0,0,115,115,115,0,115,0,Tue Oct 17 10:10:47 2023,The main experiment item,TRUE,SternbergTask.osexp,/Users/test/Desktop,FALSE,mono,FALSE,18,no,white,no,yes,768,legacy,103,11,/Users/test/Desktop/at-subject-2.csv,legacy,4 1 8 7 5,Melodramatic Milgram,4.0.5,3,y,0,left,right,right,left,NA,702,19945,5575,702,NA,2,legacy,5,1024,2,48000,-16,experiment,2,even,8,741085,737828,738876,8105,108507,738879,651815,8225,102932,739882,743088,743792,28234,743087,NA,Sternberg Task,111,96928,116,1024
95,95,834,834,black,experiment,legacy,legacy,legacy,1,undefined,1,left,116,116,116,0,0,116,116,0,0,116,116,116,0,116,0,Tue Oct 17 10:10:47 2023,The main experiment item,TRUE,SternbergTask.osexp,/Users/test/Desktop,FALSE,mono,FALSE,18,no,white,no,yes,768,legacy,104,11,/Users/test/Desktop/at-subject-2.csv,legacy,2 4 8 5 1 3,Melodramatic Milgram,4.0.5,1,y,0,left,right,right,left,NA,683,19945,5575,683,NA,2,legacy,6,1024,2,48000,-16,experiment,2,even,2,747051,743795,744842,8105,108507,744845,651815,8225,102932,745848,749054,749739,28234,749054,NA,Sternberg Task,112,97611,117,1024
95,95,835,835,black,experiment,legacy,legacy,legacy,1,undefined,1,right,117,117,117,0,0,117,117,0,0,117,117,117,0,117,0,Tue Oct 17 10:10:47 2023,The main experiment item,TRUE,SternbergTask.osexp,/Users/test/Desktop,FALSE,mono,FALSE,18,no,white,no,yes,768,legacy,105,11,/Users/test/Desktop/at-subject-2.csv,legacy,7 3 2 8,Melodramatic Milgram,4.0.5,0,n,0,right,right,right,right,NA,931,19945,5575,931,NA,2,legacy,4,1024,2,48000,-16,experiment,2,even,4,753009,749742,750799,8105,108507,750802,651815,8225,102932,751806,755011,755944,28234,755011,NA,Sternberg Task,113,98542,118,1024
95,95,838,838,black,experiment,legacy,legacy,legacy,1,undefined,1,right,118,118,118,0,0,118,118,0,0,118,118,118,0,118,0,Tue Oct 17 10:10:47 2023,The main experiment item,TRUE,SternbergTask.osexp,/Users/test/Desktop,FALSE,mono,FALSE,18,no,white,no,yes,768,legacy,106,11,/Users/test/Desktop/at-subject-2.csv,legacy,2 8 9,Melodramatic Milgram,4.0.5,0,n,0,right,right,right,right,NA,1224,19945,5575,1224,NA,2,legacy,3,1024,2,48000,-16,experiment,2,even,6,759202,755948,756993,8105,108507,756996,651815,8225,102932,757999,761205,762431,28234,761204,NA,Sternberg Task,114,99766,119,1024
95,95,836,836,black,experiment,legacy,legacy,legacy,1,undefined,1,right,119,119,119,0,0,119,119,0,0,119,119,119,0,119,0,Tue Oct 17 10:10:47 2023,The main experiment item,TRUE,SternbergTask.osexp,/Users/test/Desktop,FALSE,mono,FALSE,18,no,white,no,yes,768,legacy,107,11,/Users/test/Desktop/at-subject-2.csv,legacy,9 8 2 7 4,Melodramatic Milgram,4.0.5,0,n,0,right,right,right,right,NA,631,19945,5575,631,NA,2,legacy,5,1024,2,48000,-16,experiment,2,even,5,765723,762473,763514,8105,108507,763517,651815,8225,102932,764520,767726,768358,28234,767725,NA,Sternberg Task,115,100397,120,1024
95,95,835,835,black,experiment,legacy,legacy,legacy,1,undefined,1,right,120,120,120,0,0,120,120,0,0,120,120,120,0,120,0,Tue Oct 17 10:10:47 2023,The main experiment item,TRUE,SternbergTask.osexp,/Users/test/Desktop,FALSE,mono,FALSE,18,no,white,no,yes,768,legacy,108,11,/Users/test/Desktop/at-subject-2.csv,legacy,1 4 9 3,Melodramatic Milgram,4.0.5,0,n,0,right,right,right,right,NA,721,19945,5575,721,NA,2,legacy,4,1024,2,48000,-16,experiment,2,even,5,771620,768361,769410,8105,108507,769413,651815,8225,102932,770416,773623,774345,28234,773622,NA,Sternberg Task,116,101118,121,1024
95,95,834,834,black,experiment,legacy,legacy,legacy,1,undefined,1,right,121,121,121,0,0,121,121,0,0,121,121,121,0,121,0,Tue Oct 17 10:10:47 2023,The main experiment item,TRUE,SternbergTask.osexp,/Users/test/Desktop,FALSE,mono,FALSE,18,no,white,no,yes,768,legacy,109,11,/Users/test/Desktop/at-subject-2.csv,legacy,1 3 2 6 9,Melodramatic Milgram,4.0.5,0,n,0,right,right,right,right,NA,636,19945,5575,636,NA,2,legacy,5,1024,2,48000,-16,experiment,2,even,5,777608,774349,775398,8105,108507,775400,651815,8225,102932,776404,779611,780248,28234,779610,NA,Sternberg Task,117,101754,122,1024
95,95,834,834,black,experiment,legacy,legacy,legacy,1,undefined,1,left,122,122,122,0,0,122,122,0,0,122,122,122,0,122,0,Tue Oct 17 10:10:47 2023,The main experiment item,TRUE,SternbergTask.osexp,/Users/test/Desktop,FALSE,mono,FALSE,18,no,white,no,yes,768,legacy,110,11,/Users/test/Desktop/at-subject-2.csv,legacy,9 5 3 8 4,Melodramatic Milgram,4.0.5,1,y,0,left,right,right,left,NA,937,19945,5575,937,NA,2,legacy,5,1024,2,48000,-16,experiment,2,even,9,783548,780291,781340,8105,108507,781343,651815,8225,102932,782345,785551,786489,28234,785551,NA,Sternberg Task,118,102691,123,1024
95,95,835,835,black,experiment,legacy,legacy,legacy,1,undefined,1,right,123,123,123,0,0,123,123,0,0,123,123,123,0,123,0,Tue Oct 17 10:10:47 2023,The main experiment item,TRUE,SternbergTask.osexp,/Users/test/Desktop,FALSE,mono,FALSE,18,no,white,no,yes,768,legacy,111,11,/Users/test/Desktop/at-subject-2.csv,legacy,4 2 7 6 1 3,Melodramatic Milgram,4.0.5,0,n,0,right,right,right,right,NA,877,19945,5575,877,NA,2,legacy,6,1024,2,48000,-16,experiment,2,even,8,789758,786493,787550,8105,108507,787553,651815,8225,102932,788555,791761,792641,28234,791761,NA,Sternberg Task,119,103568,124,1024
96,96,834,834,black,experiment,legacy,legacy,legacy,1,undefined,1,left,124,124,124,0,0,124,124,0,0,124,124,124,0,124,0,Tue Oct 17 10:10:47 2023,The main experiment item,TRUE,SternbergTask.osexp,/Users/test/Desktop,FALSE,mono,FALSE,18,no,white,no,yes,768,legacy,112,11,/Users/test/Desktop/at-subject-2.csv,legacy,6 1 2,Melodramatic Milgram,4.0.5,3,y,0,left,right,right,left,NA,755,19945,5575,755,NA,2,legacy,3,1024,2,48000,-16,experiment,2,even,2,795892,792645,793684,8105,108507,793687,651815,8225,102932,794690,797895,798652,28234,797895,NA,Sternberg Task,120,104323,125,1024
96,96,833,833,black,experiment,legacy,legacy,legacy,1,undefined,1,right,125,125,125,0,0,125,125,0,0,125,125,125,0,125,0,Tue Oct 17 10:10:47 2023,The main experiment item,TRUE,SternbergTask.osexp,/Users/test/Desktop,FALSE,mono,FALSE,18,no,white,no,yes,768,legacy,113,11,/Users/test/Desktop/at-subject-2.csv,legacy,2 8 6 3 1,Melodramatic Milgram,4.0.5,0,n,0,right,right,right,right,NA,677,19945,5575,677,NA,2,legacy,5,1024,2,48000,-16,experiment,2,even,7,801910,798658,799702,8105,108507,799705,651815,8225,102932,800708,803912,804590,28234,803912,NA,Sternberg Task,121,105000,126,1024
96,96,831,831,black,experiment,legacy,legacy,legacy,1,undefined,1,right,126,126,126,0,0,126,126,0,0,126,126,126,0,126,0,Tue Oct 17 10:10:47 2023,The main experiment item,TRUE,SternbergTask.osexp,/Users/test/Desktop,FALSE,mono,FALSE,18,no,white,no,yes,768,legacy,114,11,/Users/test/Desktop/at-subject-2.csv,legacy,6 9 7 3 8 2,Melodramatic Milgram,4.0.5,0,n,0,right,right,right,right,NA,652,19945,5575,652,NA,2,legacy,6,1024,2,48000,-16,experiment,2,even,5,807852,804594,805643,8105,108507,805646,651815,8225,102932,806649,809855,810508,28234,809855,NA,Sternberg Task,122,105652,127,1024
96,96,829,829,black,experiment,legacy,legacy,legacy,1,undefined,1,right,127,127,127,0,0,127,127,0,0,127,127,127,0,127,0,Tue Oct 17 10:10:47 2023,The main experiment item,TRUE,SternbergTask.osexp,/Users/test/Desktop,FALSE,mono,FALSE,18,no,white,no,yes,768,legacy,115,11,/Users/test/Desktop/at-subject-2.csv,legacy,5,Melodramatic Milgram,4.0.5,0,n,0,right,right,right,right,NA,505,19945,5575,505,NA,2,legacy,1,1024,2,48000,-16,experiment,2,even,8,813772,810511,811562,8105,108507,811565,651815,8225,102932,812568,815775,816282,28234,815774,NA,Sternberg Task,123,106157,128,1024
96,96,833,833,black,experiment,legacy,legacy,legacy,1,undefined,1,left,128,128,128,0,0,128,128,0,0,128,128,128,0,128,0,Tue Oct 17 10:10:47 2023,The main experiment item,TRUE,SternbergTask.osexp,/Users/test/Desktop,FALSE,mono,FALSE,18,no,white,no,yes,768,legacy,116,11,/Users/test/Desktop/at-subject-2.csv,legacy,6 8 9 3 4 9,Melodramatic Milgram,4.0.5,5,y,0,left,right,right,left,NA,1414,19945,5575,1414,NA,2,legacy,6,1024,2,48000,-16,experiment,2,even,4,819546,816287,817335,8105,108507,817337,651815,8225,102932,818341,821549,822964,28234,821549,NA,Sternberg Task,124,107571,129,1024
96,96,833,833,black,experiment,legacy,legacy,legacy,1,undefined,1,right,129,129,129,0,0,129,129,0,0,129,129,129,0,129,0,Tue Oct 17 10:10:47 2023,The main experiment item,TRUE,SternbergTask.osexp,/Users/test/Desktop,FALSE,mono,FALSE,18,no,white,no,yes,768,legacy,117,11,/Users/test/Desktop/at-subject-2.csv,legacy,7 4 2 8 1 9,Melodramatic Milgram,4.0.5,0,n,0,right,right,right,right,NA,723,19945,5575,723,NA,2,legacy,6,1024,2,48000,-16,experiment,2,even,5,826244,822968,824035,8105,108507,824038,651815,8225,102932,825041,828247,828973,28234,828246,NA,Sternberg Task,125,108294,130,1024
96,96,841,841,black,experiment,legacy,legacy,legacy,1,undefined,1,left,130,130,130,0,0,130,130,0,0,130,130,130,0,130,0,Tue Oct 17 10:10:47 2023,The main experiment item,TRUE,SternbergTask.osexp,/Users/test/Desktop,FALSE,mono,FALSE,18,no,white,no,yes,768,legacy,118,11,/Users/test/Desktop/at-subject-2.csv,legacy,5 2 9 6 1 7,Melodramatic Milgram,4.0.5,3,y,0,left,right,right,left,NA,1920,19945,5575,1920,NA,2,legacy,6,1024,2,48000,-16,experiment,2,even,9,832227,828976,830019,8105,108507,830022,651815,8225,102932,831024,834230,836152,28234,834229,NA,Sternberg Task,126,110214,131,1024
96,96,840,840,black,experiment,legacy,legacy,legacy,1,undefined,1,right,131,131,131,0,0,131,131,0,0,131,131,131,0,131,0,Tue Oct 17 10:10:47 2023,The main experiment item,TRUE,SternbergTask.osexp,/Users/test/Desktop,FALSE,mono,FALSE,18,no,white,no,yes,768,legacy,119,11,/Users/test/Desktop/at-subject-2.csv,legacy,7 1,Melodramatic Milgram,4.0.5,0,n,0,right,right,right,right,NA,771,19945,5575,771,NA,2,legacy,2,1024,2,48000,-16,experiment,2,even,8,839409,836155,837199,8105,108507,837202,651815,8225,102932,838206,841412,842185,28234,841411,NA,Sternberg Task,127,110985,132,1024
96,96,839,839,black,experiment,legacy,legacy,legacy,1,undefined,1,right,132,132,132,0,0,132,132,0,0,132,132,132,0,132,0,Tue Oct 17 10:10:47 2023,The main experiment item,TRUE,SternbergTask.osexp,/Users/test/Desktop,FALSE,mono,FALSE,18,no,white,no,yes,768,legacy,120,11,/Users/test/Desktop/at-subject-2.csv,legacy,6 9 4 5 2,Melodramatic Milgram,4.0.5,0,n,0,right,right,right,right,NA,660,19945,5575,660,NA,2,legacy,5,1024,2,48000,-16,experiment,2,even,1,845445,842189,843236,8105,108507,843238,651815,8225,102932,844242,847448,848111,28234,847447,NA,Sternberg Task,128,111645,133,1024
96,96,841,841,black,experiment,legacy,legacy,legacy,1,undefined,1,left,133,133,133,0,0,133,133,0,0,133,133,133,0,133,0,Tue Oct 17 10:10:47 2023,The main experiment item,TRUE,SternbergTask.osexp,/Users/test/Desktop,FALSE,mono,FALSE,18,no,white,no,yes,768,legacy,121,11,/Users/test/Desktop/at-subject-2.csv,legacy,7 1 8 5 6 2,Melodramatic Milgram,4.0.5,2,y,0,left,right,right,left,NA,1099,19945,5575,1099,NA,2,legacy,6,1024,2,48000,-16,experiment,2,even,1,851374,848114,849164,8105,108507,849167,651815,8225,102932,850170,853377,854478,28234,853376,NA,Sternberg Task,129,112744,134,1024
96,96,841,841,black,experiment,legacy,legacy,legacy,1,undefined,1,left,134,134,134,0,0,134,134,0,0,134,134,134,0,134,0,Tue Oct 17 10:10:47 2023,The main experiment item,TRUE,SternbergTask.osexp,/Users/test/Desktop,FALSE,mono,FALSE,18,no,white,no,yes,768,legacy,122,11,/Users/test/Desktop/at-subject-2.csv,legacy,8 9 6 1,Melodramatic Milgram,4.0.5,2,y,0,left,right,right,left,NA,841,19945,5575,841,NA,2,legacy,4,1024,2,48000,-16,experiment,2,even,9,857742,854482,855532,8105,108507,855534,651815,8225,102932,856538,859746,860589,28234,859746,NA,Sternberg Task,130,113585,135,1024
96,96,840,840,black,experiment,legacy,legacy,legacy,1,undefined,1,left,135,135,135,0,0,135,135,0,0,135,135,135,0,135,0,Tue Oct 17 10:10:47 2023,The main experiment item,TRUE,SternbergTask.osexp,/Users/test/Desktop,FALSE,mono,FALSE,18,no,white,no,yes,768,legacy,123,11,/Users/test/Desktop/at-subject-2.csv,legacy,4,Melodramatic Milgram,4.0.5,1,y,0,left,right,right,left,NA,764,19945,5575,764,NA,2,legacy,1,1024,2,48000,-16,experiment,2,even,4,863869,860592,861656,8105,108507,861659,651815,8225,102932,862665,865872,866638,28234,865872,NA,Sternberg Task,131,114349,136,1024
96,96,843,843,black,experiment,legacy,legacy,legacy,1,undefined,1,left,136,136,136,0,0,136,136,0,0,136,136,136,0,136,0,Tue Oct 17 10:10:47 2023,The main experiment item,TRUE,SternbergTask.osexp,/Users/test/Desktop,FALSE,mono,FALSE,18,no,white,no,yes,768,legacy,124,11,/Users/test/Desktop/at-subject-2.csv,legacy,3 4 9 6 2 9,Melodramatic Milgram,4.0.5,5,y,0,left,right,right,left,NA,1149,19945,5575,1149,NA,2,legacy,6,1024,2,48000,-16,experiment,2,even,2,869895,866642,867682,8105,108507,867686,651815,8225,102932,868689,871899,873051,28234,871899,NA,Sternberg Task,132,115498,137,1024
96,96,846,846,black,experiment,legacy,legacy,legacy,1,undefined,1,left,137,137,137,0,0,137,137,0,0,137,137,137,0,137,0,Tue Oct 17 10:10:47 2023,The main experiment item,TRUE,SternbergTask.osexp,/Users/test/Desktop,FALSE,mono,FALSE,18,no,white,no,yes,768,legacy,125,11,/Users/test/Desktop/at-subject-2.csv,legacy,7 6,Melodramatic Milgram,4.0.5,2,y,0,left,right,right,left,NA,1378,19945,5575,1378,NA,2,legacy,2,1024,2,48000,-16,experiment,2,even,6,876309,873055,874098,8105,108507,874102,651815,8225,102932,875107,878312,879693,28234,878311,NA,Sternberg Task,133,116876,138,1024