"acc","accuracy","average_response_time","avg_rt","background","block","canvas_backend","clock_backend","color_backend","compensation","coordinates","correct","correct_Instruction1","correct_keyboard_response","correct_response","count_CorrectFeedback","count_ISI","count_IncorrectFeedback","count_Instruction1","count_Instructions2","count_Practiceloop","count_Thanks","count_experiment","count_experimentloop","count_fixation","count_keyboard_response","count_logger","count_memoryset","count_probe","count_xsequence","datetime","description","disable_garbage_collection","experiment_file","experiment_path","font_bold","font_family","font_italic","font_size","font_underline","foreground","form_clicks","fullscreen","height","keyboard_backend","live_row","live_row_Practiceloop","logfile","mouse_backend","numberSet","opensesame_codename","opensesame_version","posInSet","present","repeat_cycle","response","response_Instruction1","response_Instructions2","response_Thanks","response_keyboard_response","response_time","response_time_Instruction1","response_time_Instructions2","response_time_Thanks","response_time_keyboard_response","round_decimals","sampler_backend","setSize","sound_buf_size","sound_channels","sound_freq","sound_sample_size","start","subject_nr","subject_parity","target","time_CorrectFeedback","time_ISI","time_IncorrectFeedback","time_Instruction1","time_Instructions2","time_Practiceloop","time_Thanks","time_experiment","time_experimentloop","time_fixation","time_keyboard_response","time_logger","time_memoryset","time_probe","time_xsequence","title","total_correct","total_response_time","total_responses","uniform_coordinates","width"
"0","0","2000","2000","black","practice","legacy","legacy","legacy","0","uniform","0","undefined","0","left","0","0","0","0","0","0","0","0","0","0","0","0","0","0","0","Sat Oct 23 18:40:28 2021","The main experiment item","yes","Sternbergtask.osexp","C:/Users/User/Desktop/School/Research Methods","no","mono","no","18","no","white","no","yes","768","legacy","0","0","C:/Users/User/Desktop/School/Research Methods/LW-subject-2-stern.csv","legacy","1 7 9 8 5","Lentiform Loewenfeld","3.3.9","4","y","0","None","left","NA","NA","None","2000","61284","NA","NA","2000","2","legacy","5","1024","2","48000","-16","experiment","2","even","8","NA","68568","NA","2000","NA","63285","NA","1996","NA","66364","70570","72570","67366","70570","66362","Sternberg task","0","2000","1","yes","1024"
"50","50","1380.5","1380.5","black","practice","legacy","legacy","legacy","0","uniform","1","undefined","1","left","1","1","1","0","0","0","0","0","0","1","1","1","1","1","1","Sat Oct 23 18:40:28 2021","The main experiment item","yes","Sternbergtask.osexp","C:/Users/User/Desktop/School/Research Methods","no","mono","no","18","no","white","no","yes","768","legacy","1","1","C:/Users/User/Desktop/School/Research Methods/LW-subject-2-stern.csv","legacy","4 3 1 7 9 8","Lentiform Loewenfeld","3.3.9","1","y","0","left","left","NA","NA","left","761","61284","NA","NA","761","2","legacy","6","1024","2","48000","-16","experiment","2","even","4","NA","75925","72624","2000","NA","63285","NA","1996","NA","73720","77927","78689","74723","77927","73718","Sternberg task","1","2761","2","yes","1024"
"66.66666666666667","66.66666666666667","1224.3333333333333","1224.3333333333333","black","practice","legacy","legacy","legacy","0","uniform","1","undefined","1","right","2","2","2","0","0","0","0","0","0","2","2","2","2","2","2","Sat Oct 23 18:40:28 2021","The main experiment item","yes","Sternbergtask.osexp","C:/Users/User/Desktop/School/Research Methods","no","mono","no","18","no","white","no","yes","768","legacy","2","2","C:/Users/User/Desktop/School/Research Methods/LW-subject-2-stern.csv","legacy","5 7 8 4 1 2","Lentiform Loewenfeld","3.3.9","0","n","0","right","left","NA","NA","right","912","61284","NA","NA","912","2","legacy","6","1024","2","48000","-16","experiment","2","even","6","78693","81990","72624","2000","NA","63285","NA","1996","NA","79786","83992","84904","80788","83992","79784","Sternberg task","2","3673","3","yes","1024"
"50","50","1075.25","1075.25","black","practice","legacy","legacy","legacy","0","uniform","0","undefined","0","left","3","3","3","0","0","0","0","0","0","3","3","3","3","3","3","Sat Oct 23 18:40:28 2021","The main experiment item","yes","Sternbergtask.osexp","C:/Users/User/Desktop/School/Research Methods","no","mono","no","18","no","white","no","yes","768","legacy","3","3","C:/Users/User/Desktop/School/Research Methods/LW-subject-2-stern.csv","legacy","2 9 4","Lentiform Loewenfeld","3.3.9","3","y","0","right","left","NA","NA","right","628","61284","NA","NA","628","2","legacy","3","1024","2","48000","-16","experiment","2","even","4","84911","88207","72624","2000","NA","63285","NA","1996","NA","86003","90209","90838","87005","90209","86000","Sternberg task","2","4301","4","yes","1024"
"40","40","1008.8","1008.8","black","practice","legacy","legacy","legacy","0","uniform","0","undefined","0","right","4","4","4","0","0","0","0","0","0","4","4","4","4","4","4","Sat Oct 23 18:40:28 2021","The main experiment item","yes","Sternbergtask.osexp","C:/Users/User/Desktop/School/Research Methods","no","mono","no","18","no","white","no","yes","768","legacy","4","4","C:/Users/User/Desktop/School/Research Methods/LW-subject-2-stern.csv","legacy","4 1 5","Lentiform Loewenfeld","3.3.9","0","n","0","left","left","NA","NA","left","743","61284","NA","NA","743","2","legacy","3","1024","2","48000","-16","experiment","2","even","2","84911","94139","90842","2000","NA","63285","NA","1996","NA","91934","96141","96884","92937","96141","91932","Sternberg task","2","5044","5","yes","1024"
"50","50","1073.3333333333333","1073.3333333333333","black","practice","legacy","legacy","legacy","0","uniform","1","undefined","1","left","5","5","5","0","0","0","0","0","0","5","5","5","5","5","5","Sat Oct 23 18:40:28 2021","The main experiment item","yes","Sternbergtask.osexp","C:/Users/User/Desktop/School/Research Methods","no","mono","no","18","no","white","no","yes","768","legacy","5","5","C:/Users/User/Desktop/School/Research Methods/LW-subject-2-stern.csv","legacy","6","Lentiform Loewenfeld","3.3.9","1","y","0","left","left","NA","NA","left","1396","61284","NA","NA","1396","2","legacy","1","1024","2","48000","-16","experiment","2","even","6","84911","100184","96889","2000","NA","63285","NA","1996","NA","97980","102186","103583","98982","102186","97977","Sternberg task","3","6440","6","yes","1024"
"57.142857142857146","57.142857142857146","1025.7142857142858","1025.7142857142858","black","practice","legacy","legacy","legacy","0","uniform","1","undefined","1","right","6","6","6","0","0","0","0","0","0","6","6","6","6","6","6","Sat Oct 23 18:40:28 2021","The main experiment item","yes","Sternbergtask.osexp","C:/Users/User/Desktop/School/Research Methods","no","mono","no","18","no","white","no","yes","768","legacy","6","6","C:/Users/User/Desktop/School/Research Methods/LW-subject-2-stern.csv","legacy","9 6 7 4 5","Lentiform Loewenfeld","3.3.9","0","n","0","right","left","NA","NA","right","740","61284","NA","NA","740","2","legacy","5","1024","2","48000","-16","experiment","2","even","3","103587","106881","96889","2000","NA","63285","NA","1996","NA","104677","108883","109624","105679","108883","104675","Sternberg task","4","7180","7","yes","1024"
"50","50","976.5","976.5","black","practice","legacy","legacy","legacy","0","uniform","0","undefined","0","right","7","7","7","0","0","0","0","0","0","7","7","7","7","7","7","Sat Oct 23 18:40:28 2021","The main experiment item","yes","Sternbergtask.osexp","C:/Users/User/Desktop/School/Research Methods","no","mono","no","18","no","white","no","yes","768","legacy","7","7","C:/Users/User/Desktop/School/Research Methods/LW-subject-2-stern.csv","legacy","3 1 9 4","Lentiform Loewenfeld","3.3.9","0","n","0","left","left","NA","NA","left","632","61284","NA","NA","632","2","legacy","4","1024","2","48000","-16","experiment","2","even","6","109628","112923","96889","2000","NA","63285","NA","1996","NA","110719","114925","115558","111721","114925","110717","Sternberg task","4","7812","8","yes","1024"
"55.55555555555556","55.55555555555556","917.6666666666666","917.6666666666666","black","practice","legacy","legacy","legacy","0","uniform","1","undefined","1","right","8","8","8","0","0","0","0","0","0","8","8","8","8","8","8","Sat Oct 23 18:40:28 2021","The main experiment item","yes","Sternbergtask.osexp","C:/Users/User/Desktop/School/Research Methods","no","mono","no","18","no","white","no","yes","768","legacy","8","8","C:/Users/User/Desktop/School/Research Methods/LW-subject-2-stern.csv","legacy","2 1","Lentiform Loewenfeld","3.3.9","0","n","0","right","left","NA","NA","right","447","61284","NA","NA","447","2","legacy","2","1024","2","48000","-16","experiment","2","even","5","109628","118857","115562","2000","NA","63285","NA","1996","NA","116653","120859","121307","117655","120859","116651","Sternberg task","5","8259","9","yes","1024"
"60","60","912.7","912.7","black","practice","legacy","legacy","legacy","0","uniform","1","undefined","1","right","9","9","9","0","0","0","0","0","0","9","9","9","9","9","9","Sat Oct 23 18:40:28 2021","The main experiment item","yes","Sternbergtask.osexp","C:/Users/User/Desktop/School/Research Methods","no","mono","no","18","no","white","no","yes","768","legacy","9","9","C:/Users/User/Desktop/School/Research Methods/LW-subject-2-stern.csv","legacy","5","Lentiform Loewenfeld","3.3.9","0","n","0","right","left","NA","NA","right","868","61284","NA","NA","868","2","legacy","1","1024","2","48000","-16","experiment","2","even","3","121311","124606","115562","2000","NA","63285","NA","1996","NA","122402","126608","127477","123404","126608","122400","Sternberg task","6","9127","10","yes","1024"
"63.63636363636363","63.63636363636363","872.5454545454545","872.5454545454545","black","practice","legacy","legacy","legacy","0","uniform","1","undefined","1","left","10","10","10","0","0","0","0","0","0","10","10","10","10","10","10","Sat Oct 23 18:40:28 2021","The main experiment item","yes","Sternbergtask.osexp","C:/Users/User/Desktop/School/Research Methods","no","mono","no","18","no","white","no","yes","768","legacy","10","10","C:/Users/User/Desktop/School/Research Methods/LW-subject-2-stern.csv","legacy","4 8","Lentiform Loewenfeld","3.3.9","1","y","0","left","left","NA","NA","left","471","61284","NA","NA","471","2","legacy","2","1024","2","48000","-16","experiment","2","even","4","127481","130777","115562","2000","NA","63285","NA","1996","NA","128573","132779","133251","129575","132779","128571","Sternberg task","7","9598","11","yes","1024"
"66.66666666666667","66.66666666666667","850.25","850.25","black","practice","legacy","legacy","legacy","0","uniform","1","undefined","1","left","11","11","11","0","0","0","0","0","0","11","11","11","11","11","11","Sat Oct 23 18:40:28 2021","The main experiment item","yes","Sternbergtask.osexp","C:/Users/User/Desktop/School/Research Methods","no","mono","no","18","no","white","no","yes","768","legacy","11","11","C:/Users/User/Desktop/School/Research Methods/LW-subject-2-stern.csv","legacy","1 5 2 9","Lentiform Loewenfeld","3.3.9","2","y","0","left","left","NA","NA","left","605","61284","NA","NA","605","2","legacy","4","1024","2","48000","-16","experiment","2","even","5","133255","136551","115562","2000","NA","63285","NA","1996","NA","134347","138553","139158","135349","138553","134345","Sternberg task","8","10203","12","yes","1024"
"69.23076923076923","69.23076923076923","834.8461538461538","834.8461538461538","black","experiment","legacy","legacy","legacy","0","uniform","1","undefined","1","right","12","12","12","0","0","0","0","0","0","12","12","12","12","12","12","Sat Oct 23 18:40:28 2021","The main experiment item","yes","Sternbergtask.osexp","C:/Users/User/Desktop/School/Research Methods","no","mono","no","18","no","white","no","yes","768","legacy","0","11","C:/Users/User/Desktop/School/Research Methods/LW-subject-2-stern.csv","legacy","1 4 9 3","Lentiform Loewenfeld","3.3.9","0","n","0","right","left","left","NA","right","650","61284","16040","NA","650","2","legacy","4","1024","2","48000","-16","experiment","2","even","5","139163","158541","115562","2000","140193","63285","NA","1996","156233","156337","160543","161194","157339","160543","156335","Sternberg task","9","10853","13","yes","1024"
"71.42857142857143","71.42857142857143","824.7857142857143","824.7857142857143","black","experiment","legacy","legacy","legacy","0","uniform","1","undefined","1","right","13","13","13","0","0","0","0","0","0","13","13","13","13","13","13","Sat Oct 23 18:40:28 2021","The main experiment item","yes","Sternbergtask.osexp","C:/Users/User/Desktop/School/Research Methods","no","mono","no","18","no","white","no","yes","768","legacy","1","11","C:/Users/User/Desktop/School/Research Methods/LW-subject-2-stern.csv","legacy","3 9 8 1 6 4","Lentiform Loewenfeld","3.3.9","0","n","0","right","left","left","NA","right","694","61284","16040","NA","694","2","legacy","6","1024","2","48000","-16","experiment","2","even","7","161198","164494","115562","2000","140193","63285","NA","1996","156233","162290","166496","167191","163292","166496","162288","Sternberg task","10","11547","14","yes","1024"
"73.33333333333333","73.33333333333333","820.7333333333333","820.7333333333333","black","experiment","legacy","legacy","legacy","0","uniform","1","undefined","1","left","14","14","14","0","0","0","0","0","0","14","14","14","14","14","14","Sat Oct 23 18:40:28 2021","The main experiment item","yes","Sternbergtask.osexp","C:/Users/User/Desktop/School/Research Methods","no","mono","no","18","no","white","no","yes","768","legacy","2","11","C:/Users/User/Desktop/School/Research Methods/LW-subject-2-stern.csv","legacy","5 2 9 6 1 7","Lentiform Loewenfeld","3.3.9","3","y","0","left","left","left","NA","left","764","61284","16040","NA","764","2","legacy","6","1024","2","48000","-16","experiment","2","even","9","167194","170491","115562","2000","140193","63285","NA","1996","156233","168287","172493","173257","169289","172493","168285","Sternberg task","11","12311","15","yes","1024"
"68.75","68.75","813.8125","813.8125","black","experiment","legacy","legacy","legacy","0","uniform","0","undefined","0","left","15","15","15","0","0","0","0","0","0","15","15","15","15","15","15","Sat Oct 23 18:40:28 2021","The main experiment item","yes","Sternbergtask.osexp","C:/Users/User/Desktop/School/Research Methods","no","mono","no","18","no","white","no","yes","768","legacy","3","11","C:/Users/User/Desktop/School/Research Methods/LW-subject-2-stern.csv","legacy","4 7 6 8 2 3","Lentiform Loewenfeld","3.3.9","6","y","0","right","left","left","NA","right","710","61284","16040","NA","710","2","legacy","6","1024","2","48000","-16","experiment","2","even","3","173261","176556","115562","2000","140193","63285","NA","1996","156233","174352","178558","179269","175354","178558","174350","Sternberg task","11","13021","16","yes","1024"
"70.58823529411765","70.58823529411765","833.8235294117648","833.8235294117648","black","experiment","legacy","legacy","legacy","0","uniform","1","undefined","1","right","16","16","16","0","0","0","0","0","0","16","16","16","16","16","16","Sat Oct 23 18:40:28 2021","The main experiment item","yes","Sternbergtask.osexp","C:/Users/User/Desktop/School/Research Methods","no","mono","no","18","no","white","no","yes","768","legacy","4","11","C:/Users/User/Desktop/School/Research Methods/LW-subject-2-stern.csv","legacy","7 3 2 8","Lentiform Loewenfeld","3.3.9","0","n","0","right","left","left","NA","right","1154","61284","16040","NA","1154","2","legacy","4","1024","2","48000","-16","experiment","2","even","4","173261","182568","179273","2000","140193","63285","NA","1996","156233","180364","184570","185725","181366","184570","180361","Sternberg task","12","14175","17","yes","1024"
"72.22222222222223","72.22222222222223","833.6666666666666","833.6666666666666","black","experiment","legacy","legacy","legacy","0","uniform","1","undefined","1","right","17","17","17","0","0","0","0","0","0","17","17","17","17","17","17","Sat Oct 23 18:40:28 2021","The main experiment item","yes","Sternbergtask.osexp","C:/Users/User/Desktop/School/Research Methods","no","mono","no","18","no","white","no","yes","768","legacy","5","11","C:/Users/User/Desktop/School/Research Methods/LW-subject-2-stern.csv","legacy","7 1 5 6 3","Lentiform Loewenfeld","3.3.9","0","n","0","right","left","left","NA","right","831","61284","16040","NA","831","2","legacy","5","1024","2","48000","-16","experiment","2","even","8","185729","189024","179273","2000","140193","63285","NA","1996","156233","186820","191026","191857","187822","191026","186818","Sternberg task","13","15006","18","yes","1024"
"68.42105263157895","68.42105263157895","827","827","black","experiment","legacy","legacy","legacy","0","uniform","0","undefined","0","right","18","18","18","0","0","0","0","0","0","18","18","18","18","18","18","Sat Oct 23 18:40:28 2021","The main experiment item","yes","Sternbergtask.osexp","C:/Users/User/Desktop/School/Research Methods","no","mono","no","18","no","white","no","yes","768","legacy","6","11","C:/Users/User/Desktop/School/Research Methods/LW-subject-2-stern.csv","legacy","3 9 1","Lentiform Loewenfeld","3.3.9","0","n","0","left","left","left","NA","left","707","61284","16040","NA","707","2","legacy","3","1024","2","48000","-16","experiment","2","even","7","191862","195156","179273","2000","140193","63285","NA","1996","156233","192952","197158","197865","193954","197158","192950","Sternberg task","13","15713","19","yes","1024"
"70","70","842.1","842.1","black","experiment","legacy","legacy","legacy","0","uniform","1","undefined","1","right","19","19","19","0","0","0","0","0","0","19","19","19","19","19","19","Sat Oct 23 18:40:28 2021","The main experiment item","yes","Sternbergtask.osexp","C:/Users/User/Desktop/School/Research Methods","no","mono","no","18","no","white","no","yes","768","legacy","7","11","C:/Users/User/Desktop/School/Research Methods/LW-subject-2-stern.csv","legacy","6 7 5 9","Lentiform Loewenfeld","3.3.9","0","n","0","right","left","left","NA","right","1129","61284","16040","NA","1129","2","legacy","4","1024","2","48000","-16","experiment","2","even","2","191862","201169","197870","2000","140193","63285","NA","1996","156233","198965","203171","204301","199967","203171","198963","Sternberg task","14","16842","20","yes","1024"
"71.42857142857143","71.42857142857143","835.8571428571429","835.8571428571429","black","experiment","legacy","legacy","legacy","0","uniform","1","undefined","1","right","20","20","20","0","0","0","0","0","0","20","20","20","20","20","20","Sat Oct 23 18:40:28 2021","The main experiment item","yes","Sternbergtask.osexp","C:/Users/User/Desktop/School/Research Methods","no","mono","no","18","no","white","no","yes","768","legacy","8","11","C:/Users/User/Desktop/School/Research Methods/LW-subject-2-stern.csv","legacy","5","Lentiform Loewenfeld","3.3.9","0","n","0","right","left","left","NA","right","711","61284","16040","NA","711","2","legacy","1","1024","2","48000","-16","experiment","2","even","8","204305","207600","197870","2000","140193","63285","NA","1996","156233","205396","209602","210313","206398","209602","205394","Sternberg task","15","17553","21","yes","1024"
"72.72727272727273","72.72727272727273","826.8636363636364","826.8636363636364","black","experiment","legacy","legacy","legacy","0","uniform","1","undefined","1","right","21","21","21","0","0","0","0","0","0","21","21","21","21","21","21","Sat Oct 23 18:40:28 2021","The main experiment item","yes","Sternbergtask.osexp","C:/Users/User/Desktop/School/Research Methods","no","mono","no","18","no","white","no","yes","768","legacy","9","11","C:/Users/User/Desktop/School/Research Methods/LW-subject-2-stern.csv","legacy","2 5 1 4","Lentiform Loewenfeld","3.3.9","0","n","0","right","left","left","NA","right","638","61284","16040","NA","638","2","legacy","4","1024","2","48000","-16","experiment","2","even","6","210317","213612","197870","2000","140193","63285","NA","1996","156233","211408","215614","216253","212410","215614","211406","Sternberg task","16","18191","22","yes","1024"
"73.91304347826087","73.91304347826087","853.9130434782609","853.9130434782609","black","experiment","legacy","legacy","legacy","0","uniform","1","undefined","1","left","22","22","22","0","0","0","0","0","0","22","22","22","22","22","22","Sat Oct 23 18:40:28 2021","The main experiment item","yes","Sternbergtask.osexp","C:/Users/User/Desktop/School/Research Methods","no","mono","no","18","no","white","no","yes","768","legacy","10","11","C:/Users/User/Desktop/School/Research Methods/LW-subject-2-stern.csv","legacy","7 4 2 6 3 5","Lentiform Loewenfeld","3.3.9","6","y","0","left","left","left","NA","left","1449","61284","16040","NA","1449","2","legacy","6","1024","2","48000","-16","experiment","2","even","5","216257","219552","197870","2000","140193","63285","NA","1996","156233","217348","221554","223004","218350","221554","217346","Sternberg task","17","19640","23","yes","1024"
"75","75","884.2083333333334","884.2083333333334","black","experiment","legacy","legacy","legacy","0","uniform","1","undefined","1","left","23","23","23","0","0","0","0","0","0","23","23","23","23","23","23","Sat Oct 23 18:40:28 2021","The main experiment item","yes","Sternbergtask.osexp","C:/Users/User/Desktop/School/Research Methods","no","mono","no","18","no","white","no","yes","768","legacy","11","11","C:/Users/User/Desktop/School/Research Methods/LW-subject-2-stern.csv","legacy","4 6 2 5 1","Lentiform Loewenfeld","3.3.9","5","y","0","left","left","left","NA","left","1581","61284","16040","NA","1581","2","legacy","5","1024","2","48000","-16","experiment","2","even","1","223008","226305","197870","2000","140193","63285","NA","1996","156233","224101","228307","229889","225103","228307","224098","Sternberg task","18","21221","24","yes","1024"
"76","76","874.2","874.2","black","experiment","legacy","legacy","legacy","0","uniform","1","undefined","1","right","24","24","24","0","0","0","0","0","0","24","24","24","24","24","24","Sat Oct 23 18:40:28 2021","The main experiment item","yes","Sternbergtask.osexp","C:/Users/User/Desktop/School/Research Methods","no","mono","no","18","no","white","no","yes","768","legacy","12","11","C:/Users/User/Desktop/School/Research Methods/LW-subject-2-stern.csv","legacy","9 7 4 5 8","Lentiform Loewenfeld","3.3.9","0","n","0","right","left","left","NA","right","634","61284","16040","NA","634","2","legacy","5","1024","2","48000","-16","experiment","2","even","6","229894","233189","197870","2000","140193","63285","NA","1996","156233","230985","235191","235826","231987","235191","230983","Sternberg task","19","21855","25","yes","1024"
"76.92307692307692","76.92307692307692","868.6923076923077","868.6923076923077","black","experiment","legacy","legacy","legacy","0","uniform","1","undefined","1","left","25","25","25","0","0","0","0","0","0","25","25","25","25","25","25","Sat Oct 23 18:40:28 2021","The main experiment item","yes","Sternbergtask.osexp","C:/Users/User/Desktop/School/Research Methods","no","mono","no","18","no","white","no","yes","768","legacy","13","11","C:/Users/User/Desktop/School/Research Methods/LW-subject-2-stern.csv","legacy","2 4 8 5 1 3","Lentiform Loewenfeld","3.3.9","1","y","0","left","left","left","NA","left","731","61284","16040","NA","731","2","legacy","6","1024","2","48000","-16","experiment","2","even","2","235830","239125","197870","2000","140193","63285","NA","1996","156233","236921","241127","241859","237923","241127","236919","Sternberg task","20","22586","26","yes","1024"
"77.77777777777777","77.77777777777777","871.7777777777778","871.7777777777778","black","experiment","legacy","legacy","legacy","0","uniform","1","undefined","1","right","26","26","26","0","0","0","0","0","0","26","26","26","26","26","26","Sat Oct 23 18:40:28 2021","The main experiment item","yes","Sternbergtask.osexp","C:/Users/User/Desktop/School/Research Methods","no","mono","no","18","no","white","no","yes","768","legacy","14","11","C:/Users/User/Desktop/School/Research Methods/LW-subject-2-stern.csv","legacy","4 2 6 9","Lentiform Loewenfeld","3.3.9","0","n","0","right","left","left","NA","right","952","61284","16040","NA","952","2","legacy","4","1024","2","48000","-16","experiment","2","even","7","241863","245158","197870","2000","140193","63285","NA","1996","156233","242954","247160","248113","243956","247160","242952","Sternberg task","21","23538","27","yes","1024"
"78.57142857142857","78.57142857142857","869.2142857142857","869.2142857142857","black","experiment","legacy","legacy","legacy","0","uniform","1","undefined","1","right","27","27","27","0","0","0","0","0","0","27","27","27","27","27","27","Sat Oct 23 18:40:28 2021","The main experiment item","yes","Sternbergtask.osexp","C:/Users/User/Desktop/School/Research Methods","no","mono","no","18","no","white","no","yes","768","legacy","15","11","C:/Users/User/Desktop/School/Research Methods/LW-subject-2-stern.csv","legacy","7 9","Lentiform Loewenfeld","3.3.9","0","n","0","right","left","left","NA","right","800","61284","16040","NA","800","2","legacy","2","1024","2","48000","-16","experiment","2","even","1","248117","251418","197870","2000","140193","63285","NA","1996","156233","249214","253420","254221","250216","253420","249212","Sternberg task","22","24338","28","yes","1024"
"79.3103448275862","79.3103448275862","864","864","black","experiment","legacy","legacy","legacy","0","uniform","1","undefined","1","left","28","28","28","0","0","0","0","0","0","28","28","28","28","28","28","Sat Oct 23 18:40:28 2021","The main experiment item","yes","Sternbergtask.osexp","C:/Users/User/Desktop/School/Research Methods","no","mono","no","18","no","white","no","yes","768","legacy","16","11","C:/Users/User/Desktop/School/Research Methods/LW-subject-2-stern.csv","legacy","4 6 5 8","Lentiform Loewenfeld","3.3.9","1","y","0","left","left","left","NA","left","718","61284","16040","NA","718","2","legacy","4","1024","2","48000","-16","experiment","2","even","4","254225","257527","197870","2000","140193","63285","NA","1996","156233","255323","259529","260248","256325","259529","255321","Sternberg task","23","25056","29","yes","1024"
"80","80","855.3666666666667","855.3666666666667","black","experiment","legacy","legacy","legacy","0","uniform","1","undefined","1","right","29","29","29","0","0","0","0","0","0","29","29","29","29","29","29","Sat Oct 23 18:40:28 2021","The main experiment item","yes","Sternbergtask.osexp","C:/Users/User/Desktop/School/Research Methods","no","mono","no","18","no","white","no","yes","768","legacy","17","11","C:/Users/User/Desktop/School/Research Methods/LW-subject-2-stern.csv","legacy","9 5 3 2 8 6","Lentiform Loewenfeld","3.3.9","0","n","0","right","left","left","NA","right","605","61284","16040","NA","605","2","legacy","6","1024","2","48000","-16","experiment","2","even","7","260253","263550","197870","2000","140193","63285","NA","1996","156233","261346","265552","266158","262348","265552","261343","Sternberg task","24","25661","30","yes","1024"
"80.64516129032258","80.64516129032258","864.9354838709677","864.9354838709677","black","experiment","legacy","legacy","legacy","0","uniform","1","undefined","1","right","30","30","30","0","0","0","0","0","0","30","30","30","30","30","30","Sat Oct 23 18:40:28 2021","The main experiment item","yes","Sternbergtask.osexp","C:/Users/User/Desktop/School/Research Methods","no","mono","no","18","no","white","no","yes","768","legacy","18","11","C:/Users/User/Desktop/School/Research Methods/LW-subject-2-stern.csv","legacy","7 6 4 8 1 2","Lentiform Loewenfeld","3.3.9","0","n","0","right","left","left","NA","right","1152","61284","16040","NA","1152","2","legacy","6","1024","2","48000","-16","experiment","2","even","9","266164","269459","197870","2000","140193","63285","NA","1996","156233","267255","271461","272614","268257","271461","267253","Sternberg task","25","26813","31","yes","1024"
"81.25","81.25","859.40625","859.40625","black","experiment","legacy","legacy","legacy","0","uniform","1","undefined","1","left","31","31","31","0","0","0","0","0","0","31","31","31","31","31","31","Sat Oct 23 18:40:28 2021","The main experiment item","yes","Sternbergtask.osexp","C:/Users/User/Desktop/School/Research Methods","no","mono","no","18","no","white","no","yes","768","legacy","19","11","C:/Users/User/Desktop/School/Research Methods/LW-subject-2-stern.csv","legacy","6 1 2","Lentiform Loewenfeld","3.3.9","3","y","0","left","left","left","NA","left","688","61284","16040","NA","688","2","legacy","3","1024","2","48000","-16","experiment","2","even","2","272618","275916","197870","2000","140193","63285","NA","1996","156233","273712","277918","278607","274714","277918","273709","Sternberg task","26","27501","32","yes","1024"
"81.81818181818181","81.81818181818181","855.5757575757576","855.5757575757576","black","experiment","legacy","legacy","legacy","0","uniform","1","undefined","1","right","32","32","32","0","0","0","0","0","0","32","32","32","32","32","32","Sat Oct 23 18:40:28 2021","The main experiment item","yes","Sternbergtask.osexp","C:/Users/User/Desktop/School/Research Methods","no","mono","no","18","no","white","no","yes","768","legacy","20","11","C:/Users/User/Desktop/School/Research Methods/LW-subject-2-stern.csv","legacy","2 3 8 5 6 7","Lentiform Loewenfeld","3.3.9","0","n","0","right","left","left","NA","right","733","61284","16040","NA","733","2","legacy","6","1024","2","48000","-16","experiment","2","even","1","278611","281907","197870","2000","140193","63285","NA","1996","156233","279703","283909","284643","280705","283909","279700","Sternberg task","27","28234","33","yes","1024"
"82.3529411764706","82.3529411764706","866.1470588235294","866.1470588235294","black","experiment","legacy","legacy","legacy","0","uniform","1","undefined","1","left","33","33","33","0","0","0","0","0","0","33","33","33","33","33","33","Sat Oct 23 18:40:28 2021","The main experiment item","yes","Sternbergtask.osexp","C:/Users/User/Desktop/School/Research Methods","no","mono","no","18","no","white","no","yes","768","legacy","21","11","C:/Users/User/Desktop/School/Research Methods/LW-subject-2-stern.csv","legacy","9 3 1 2 5","Lentiform Loewenfeld","3.3.9","4","y","0","left","left","left","NA","left","1215","61284","16040","NA","1215","2","legacy","5","1024","2","48000","-16","experiment","2","even","2","284647","287958","197870","2000","140193","63285","NA","1996","156233","285754","289960","291176","286756","289960","285752","Sternberg task","28","29449","34","yes","1024"
"82.85714285714286","82.85714285714286","864.7714285714286","864.7714285714286","black","experiment","legacy","legacy","legacy","0","uniform","1","undefined","1","right","34","34","34","0","0","0","0","0","0","34","34","34","34","34","34","Sat Oct 23 18:40:28 2021","The main experiment item","yes","Sternbergtask.osexp","C:/Users/User/Desktop/School/Research Methods","no","mono","no","18","no","white","no","yes","768","legacy","22","11","C:/Users/User/Desktop/School/Research Methods/LW-subject-2-stern.csv","legacy","1 6 4 3 9 7","Lentiform Loewenfeld","3.3.9","0","n","0","right","left","left","NA","right","818","61284","16040","NA","818","2","legacy","6","1024","2","48000","-16","experiment","2","even","8","291180","294475","197870","2000","140193","63285","NA","1996","156233","292271","296477","297295","293273","296477","292269","Sternberg task","29","30267","35","yes","1024"
"83.33333333333333","83.33333333333333","856.2777777777778","856.2777777777778","black","experiment","legacy","legacy","legacy","0","uniform","1","undefined","1","right","35","35","35","0","0","0","0","0","0","35","35","35","35","35","35","Sat Oct 23 18:40:28 2021","The main experiment item","yes","Sternbergtask.osexp","C:/Users/User/Desktop/School/Research Methods","no","mono","no","18","no","white","no","yes","768","legacy","23","11","C:/Users/User/Desktop/School/Research Methods/LW-subject-2-stern.csv","legacy","4 8 1 2","Lentiform Loewenfeld","3.3.9","0","n","0","right","left","left","NA","right","559","61284","16040","NA","559","2","legacy","4","1024","2","48000","-16","experiment","2","even","7","297299","300594","197870","2000","140193","63285","NA","1996","156233","298390","302596","303156","299392","302596","298388","Sternberg task","30","30826","36","yes","1024"
"83.78378378378379","83.78378378378379","872.2162162162163","872.2162162162163","black","experiment","legacy","legacy","legacy","0","uniform","1","undefined","1","left","36","36","36","0","0","0","0","0","0","36","36","36","36","36","36","Sat Oct 23 18:40:28 2021","The main experiment item","yes","Sternbergtask.osexp","C:/Users/User/Desktop/School/Research Methods","no","mono","no","18","no","white","no","yes","768","legacy","24","11","C:/Users/User/Desktop/School/Research Methods/LW-subject-2-stern.csv","legacy","7 2 3","Lentiform Loewenfeld","3.3.9","3","y","0","left","left","left","NA","left","1446","61284","16040","NA","1446","2","legacy","3","1024","2","48000","-16","experiment","2","even","3","303160","306455","197870","2000","140193","63285","NA","1996","156233","304251","308457","309904","305253","308457","304249","Sternberg task","31","32272","37","yes","1024"
"84.21052631578948","84.21052631578948","879.5263157894736","879.5263157894736","black","experiment","legacy","legacy","legacy","0","uniform","1","undefined","1","right","37","37","37","0","0","0","0","0","0","37","37","37","37","37","37","Sat Oct 23 18:40:28 2021","The main experiment item","yes","Sternbergtask.osexp","C:/Users/User/Desktop/School/Research Methods","no","mono","no","18","no","white","no","yes","768","legacy","25","11","C:/Users/User/Desktop/School/Research Methods/LW-subject-2-stern.csv","legacy","8 5 4 2 9 6","Lentiform Loewenfeld","3.3.9","0","n","0","right","left","left","NA","right","1150","61284","16040","NA","1150","2","legacy","6","1024","2","48000","-16","experiment","2","even","3","309910","313206","197870","2000","140193","63285","NA","1996","156233","311002","315208","316359","312004","315208","311000","Sternberg task","32","33422","38","yes","1024"
"84.61538461538461","84.61538461538461","885.2564102564103","885.2564102564103","black","experiment","legacy","legacy","legacy","0","uniform","1","undefined","1","right","38","38","38","0","0","0","0","0","0","38","38","38","38","38","38","Sat Oct 23 18:40:28 2021","The main experiment item","yes","Sternbergtask.osexp","C:/Users/User/Desktop/School/Research Methods","no","mono","no","18","no","white","no","yes","768","legacy","26","11","C:/Users/User/Desktop/School/Research Methods/LW-subject-2-stern.csv","legacy","6 3 1 7 9 8","Lentiform Loewenfeld","3.3.9","0","n","0","right","left","left","NA","right","1103","61284","16040","NA","1103","2","legacy","6","1024","2","48000","-16","experiment","2","even","4","316363","319658","197870","2000","140193","63285","NA","1996","156233","317454","321660","322764","318456","321660","317452","Sternberg task","33","34525","39","yes","1024"
"85","85","879.625","879.625","black","experiment","legacy","legacy","legacy","0","uniform","1","undefined","1","right","39","39","39","0","0","0","0","0","0","39","39","39","39","39","39","Sat Oct 23 18:40:28 2021","The main experiment item","yes","Sternbergtask.osexp","C:/Users/User/Desktop/School/Research Methods","no","mono","no","18","no","white","no","yes","768","legacy","27","11","C:/Users/User/Desktop/School/Research Methods/LW-subject-2-stern.csv","legacy","2 6 4 3 9","Lentiform Loewenfeld","3.3.9","0","n","0","right","left","left","NA","right","660","61284","16040","NA","660","2","legacy","5","1024","2","48000","-16","experiment","2","even","1","322768","326063","197870","2000","140193","63285","NA","1996","156233","323859","328065","328726","324861","328065","323857","Sternberg task","34","35185","40","yes","1024"
"82.92682926829268","82.92682926829268","906.9512195121952","906.9512195121952","black","experiment","legacy","legacy","legacy","0","uniform","0","undefined","0","right","40","40","40","0","0","0","0","0","0","40","40","40","40","40","40","Sat Oct 23 18:40:28 2021","The main experiment item","yes","Sternbergtask.osexp","C:/Users/User/Desktop/School/Research Methods","no","mono","no","18","no","white","no","yes","768","legacy","28","11","C:/Users/User/Desktop/School/Research Methods/LW-subject-2-stern.csv","legacy","6 9 5","Lentiform Loewenfeld","3.3.9","0","n","0","None","left","left","NA","None","2000","61284","16040","NA","2000","2","legacy","3","1024","2","48000","-16","experiment","2","even","8","328730","332025","197870","2000","140193","63285","NA","1996","156233","329821","334027","336027","330823","334027","329819","Sternberg task","34","37185","41","yes","1024"
"83.33333333333333","83.33333333333333","904.3571428571429","904.3571428571429","black","experiment","legacy","legacy","legacy","0","uniform","1","undefined","1","left","41","41","41","0","0","0","0","0","0","41","41","41","41","41","41","Sat Oct 23 18:40:28 2021","The main experiment item","yes","Sternbergtask.osexp","C:/Users/User/Desktop/School/Research Methods","no","mono","no","18","no","white","no","yes","768","legacy","29","11","C:/Users/User/Desktop/School/Research Methods/LW-subject-2-stern.csv","legacy","8 9 6 1","Lentiform Loewenfeld","3.3.9","2","y","0","left","left","left","NA","left","798","61284","16040","NA","798","2","legacy","4","1024","2","48000","-16","experiment","2","even","9","328730","339326","336031","2000","140193","63285","NA","1996","156233","337122","341328","342127","338124","341328","337120","Sternberg task","35","37983","42","yes","1024"
"83.72093023255815","83.72093023255815","904.0930232558139","904.0930232558139","black","experiment","legacy","legacy","legacy","0","uniform","1","undefined","1","left","42","42","42","0","0","0","0","0","0","42","42","42","42","42","42","Sat Oct 23 18:40:28 2021","The main experiment item","yes","Sternbergtask.osexp","C:/Users/User/Desktop/School/Research Methods","no","mono","no","18","no","white","no","yes","768","legacy","30","11","C:/Users/User/Desktop/School/Research Methods/LW-subject-2-stern.csv","legacy","1 4 9 3 2 5","Lentiform Loewenfeld","3.3.9","3","y","0","left","left","left","NA","left","893","61284","16040","NA","893","2","legacy","6","1024","2","48000","-16","experiment","2","even","9","342131","345426","336031","2000","140193","63285","NA","1996","156233","343222","347428","348322","344224","347428","343220","Sternberg task","36","38876","43","yes","1024"
"84.0909090909091","84.0909090909091","906.3181818181819","906.3181818181819","black","experiment","legacy","legacy","legacy","0","uniform","1","undefined","1","right","43","43","43","0","0","0","0","0","0","43","43","43","43","43","43","Sat Oct 23 18:40:28 2021","The main experiment item","yes","Sternbergtask.osexp","C:/Users/User/Desktop/School/Research Methods","no","mono","no","18","no","white","no","yes","768","legacy","31","11","C:/Users/User/Desktop/School/Research Methods/LW-subject-2-stern.csv","legacy","4 2 7 6 1 3","Lentiform Loewenfeld","3.3.9","0","n","0","right","left","left","NA","right","1002","61284","16040","NA","1002","2","legacy","6","1024","2","48000","-16","experiment","2","even","8","348326","351622","336031","2000","140193","63285","NA","1996","156233","349417","353624","354628","350420","353624","349415","Sternberg task","37","39878","44","yes","1024"
"84.44444444444444","84.44444444444444","902.2666666666667","902.2666666666667","black","experiment","legacy","legacy","legacy","0","uniform","1","undefined","1","left","44","44","44","0","0","0","0","0","0","44","44","44","44","44","44","Sat Oct 23 18:40:28 2021","The main experiment item","yes","Sternbergtask.osexp","C:/Users/User/Desktop/School/Research Methods","no","mono","no","18","no","white","no","yes","768","legacy","32","11","C:/Users/User/Desktop/School/Research Methods/LW-subject-2-stern.csv","legacy","9 6 2 4 1","Lentiform Loewenfeld","3.3.9","4","y","0","left","left","left","NA","left","724","61284","16040","NA","724","2","legacy","5","1024","2","48000","-16","experiment","2","even","4","354631","357926","336031","2000","140193","63285","NA","1996","156233","355722","359928","360653","356724","359928","355720","Sternberg task","38","40602","45","yes","1024"
"84.78260869565217","84.78260869565217","904.6086956521739","904.6086956521739","black","experiment","legacy","legacy","legacy","0","uniform","1","undefined","1","right","45","45","45","0","0","0","0","0","0","45","45","45","45","45","45","Sat Oct 23 18:40:28 2021","The main experiment item","yes","Sternbergtask.osexp","C:/Users/User/Desktop/School/Research Methods","no","mono","no","18","no","white","no","yes","768","legacy","33","11","C:/Users/User/Desktop/School/Research Methods/LW-subject-2-stern.csv","legacy","2 8 9 4 1","Lentiform Loewenfeld","3.3.9","0","n","0","right","left","left","NA","right","1010","61284","16040","NA","1010","2","legacy","5","1024","2","48000","-16","experiment","2","even","5","360657","363952","336031","2000","140193","63285","NA","1996","156233","361748","365954","366965","362750","365954","361746","Sternberg task","39","41612","46","yes","1024"
"82.97872340425532","82.97872340425532","896.6595744680851","896.6595744680851","black","experiment","legacy","legacy","legacy","0","uniform","0","undefined","0","left","46","46","46","0","0","0","0","0","0","46","46","46","46","46","46","Sat Oct 23 18:40:28 2021","The main experiment item","yes","Sternbergtask.osexp","C:/Users/User/Desktop/School/Research Methods","no","mono","no","18","no","white","no","yes","768","legacy","34","11","C:/Users/User/Desktop/School/Research Methods/LW-subject-2-stern.csv","legacy","8 3","Lentiform Loewenfeld","3.3.9","2","y","0","right","left","left","NA","right","531","61284","16040","NA","531","2","legacy","2","1024","2","48000","-16","experiment","2","even","3","366969","370264","336031","2000","140193","63285","NA","1996","156233","368060","372266","372798","369062","372266","368058","Sternberg task","39","42143","47","yes","1024"
"83.33333333333333","83.33333333333333","889.9791666666666","889.9791666666666","black","experiment","legacy","legacy","legacy","0","uniform","1","undefined","1","left","47","47","47","0","0","0","0","0","0","47","47","47","47","47","47","Sat Oct 23 18:40:28 2021","The main experiment item","yes","Sternbergtask.osexp","C:/Users/User/Desktop/School/Research Methods","no","mono","no","18","no","white","no","yes","768","legacy","35","11","C:/Users/User/Desktop/School/Research Methods/LW-subject-2-stern.csv","legacy","9 1 6 7 8","Lentiform Loewenfeld","3.3.9","1","y","0","left","left","left","NA","left","576","61284","16040","NA","576","2","legacy","5","1024","2","48000","-16","experiment","2","even","9","366969","376098","372802","2000","140193","63285","NA","1996","156233","373894","378100","378677","374896","378100","373892","Sternberg task","40","42719","48","yes","1024"
"83.6734693877551","83.6734693877551","885.9591836734694","885.9591836734694","black","experiment","legacy","legacy","legacy","0","uniform","1","undefined","1","right","48","48","48","0","0","0","0","0","0","48","48","48","48","48","48","Sat Oct 23 18:40:28 2021","The main experiment item","yes","Sternbergtask.osexp","C:/Users/User/Desktop/School/Research Methods","no","mono","no","18","no","white","no","yes","768","legacy","36","11","C:/Users/User/Desktop/School/Research Methods/LW-subject-2-stern.csv","legacy","6 9 4 5 2","Lentiform Loewenfeld","3.3.9","0","n","0","right","left","left","NA","right","693","61284","16040","NA","693","2","legacy","5","1024","2","48000","-16","experiment","2","even","1","378680","381977","372802","2000","140193","63285","NA","1996","156233","379773","383979","384673","380775","383979","379770","Sternberg task","41","43412","49","yes","1024"
"84","84","882.26","882.26","black","experiment","legacy","legacy","legacy","0","uniform","1","undefined","1","left","49","49","49","0","0","0","0","0","0","49","49","49","49","49","49","Sat Oct 23 18:40:28 2021","The main experiment item","yes","Sternbergtask.osexp","C:/Users/User/Desktop/School/Research Methods","no","mono","no","18","no","white","no","yes","768","legacy","37","11","C:/Users/User/Desktop/School/Research Methods/LW-subject-2-stern.csv","legacy","8 5 1 3 9","Lentiform Loewenfeld","3.3.9","4","y","0","left","left","left","NA","left","701","61284","16040","NA","701","2","legacy","5","1024","2","48000","-16","experiment","2","even","3","384678","387973","372802","2000","140193","63285","NA","1996","156233","385769","389975","390677","386771","389975","385767","Sternberg task","42","44113","50","yes","1024"
"84.31372549019608","84.31372549019608","880.0784313725491","880.0784313725491","black","experiment","legacy","legacy","legacy","0","uniform","1","undefined","1","left","50","50","50","0","0","0","0","0","0","50","50","50","50","50","50","Sat Oct 23 18:40:28 2021","The main experiment item","yes","Sternbergtask.osexp","C:/Users/User/Desktop/School/Research Methods","no","mono","no","18","no","white","no","yes","768","legacy","38","11","C:/Users/User/Desktop/School/Research Methods/LW-subject-2-stern.csv","legacy","9 3 8 2 1 4","Lentiform Loewenfeld","3.3.9","3","y","0","left","left","left","NA","left","771","61284","16040","NA","771","2","legacy","6","1024","2","48000","-16","experiment","2","even","8","390681","393977","372802","2000","140193","63285","NA","1996","156233","391773","395979","396751","392775","395979","391771","Sternberg task","43","44884","51","yes","1024"
"84.61538461538461","84.61538461538461","874.1346153846154","874.1346153846154","black","experiment","legacy","legacy","legacy","0","uniform","1","undefined","1","left","51","51","51","0","0","0","0","0","0","51","51","51","51","51","51","Sat Oct 23 18:40:28 2021","The main experiment item","yes","Sternbergtask.osexp","C:/Users/User/Desktop/School/Research Methods","no","mono","no","18","no","white","no","yes","768","legacy","39","11","C:/Users/User/Desktop/School/Research Methods/LW-subject-2-stern.csv","legacy","7 8 6 3 1","Lentiform Loewenfeld","3.3.9","5","y","0","left","left","left","NA","left","571","61284","16040","NA","571","2","legacy","5","1024","2","48000","-16","experiment","2","even","1","396755","400050","372802","2000","140193","63285","NA","1996","156233","397846","402052","402624","398848","402052","397844","Sternberg task","44","45455","52","yes","1024"
"83.01886792452831","83.01886792452831","875.4150943396227","875.4150943396227","black","experiment","legacy","legacy","legacy","0","uniform","0","undefined","0","right","52","52","52","0","0","0","0","0","0","52","52","52","52","52","52","Sat Oct 23 18:40:28 2021","The main experiment item","yes","Sternbergtask.osexp","C:/Users/User/Desktop/School/Research Methods","no","mono","no","18","no","white","no","yes","768","legacy","40","11","C:/Users/User/Desktop/School/Research Methods/LW-subject-2-stern.csv","legacy","8 4 3 5","Lentiform Loewenfeld","3.3.9","0","n","0","left","left","left","NA","left","942","61284","16040","NA","942","2","legacy","4","1024","2","48000","-16","experiment","2","even","6","402628","405924","372802","2000","140193","63285","NA","1996","156233","403720","407926","408869","404722","407926","403718","Sternberg task","44","46397","53","yes","1024"
"83.33333333333333","83.33333333333333","874.9814814814815","874.9814814814815","black","experiment","legacy","legacy","legacy","0","uniform","1","undefined","1","right","53","53","53","0","0","0","0","0","0","53","53","53","53","53","53","Sat Oct 23 18:40:28 2021","The main experiment item","yes","Sternbergtask.osexp","C:/Users/User/Desktop/School/Research Methods","no","mono","no","18","no","white","no","yes","768","legacy","41","11","C:/Users/User/Desktop/School/Research Methods/LW-subject-2-stern.csv","legacy","9 8 2 7 4","Lentiform Loewenfeld","3.3.9","0","n","0","right","left","left","NA","right","852","61284","16040","NA","852","2","legacy","5","1024","2","48000","-16","experiment","2","even","5","402628","412169","408873","2000","140193","63285","NA","1996","156233","409965","414171","415024","410967","414171","409963","Sternberg task","45","47249","54","yes","1024"
"83.63636363636364","83.63636363636364","870.2","870.2","black","experiment","legacy","legacy","legacy","0","uniform","1","undefined","1","left","54","54","54","0","0","0","0","0","0","54","54","54","54","54","54","Sat Oct 23 18:40:28 2021","The main experiment item","yes","Sternbergtask.osexp","C:/Users/User/Desktop/School/Research Methods","no","mono","no","18","no","white","no","yes","768","legacy","42","11","C:/Users/User/Desktop/School/Research Methods/LW-subject-2-stern.csv","legacy","2 3 7 4","Lentiform Loewenfeld","3.3.9","1","y","0","left","left","left","NA","left","612","61284","16040","NA","612","2","legacy","4","1024","2","48000","-16","experiment","2","even","2","415028","418322","408873","2000","140193","63285","NA","1996","156233","416118","420324","420937","417120","420324","416116","Sternberg task","46","47861","55","yes","1024"
"83.92857142857143","83.92857142857143","870.8035714285714","870.8035714285714","black","experiment","legacy","legacy","legacy","0","uniform","1","undefined","1","left","55","55","55","0","0","0","0","0","0","55","55","55","55","55","55","Sat Oct 23 18:40:28 2021","The main experiment item","yes","Sternbergtask.osexp","C:/Users/User/Desktop/School/Research Methods","no","mono","no","18","no","white","no","yes","768","legacy","43","11","C:/Users/User/Desktop/School/Research Methods/LW-subject-2-stern.csv","legacy","4 9 7 8 5 3","Lentiform Loewenfeld","3.3.9","4","y","0","left","left","left","NA","left","904","61284","16040","NA","904","2","legacy","6","1024","2","48000","-16","experiment","2","even","8","420941","424237","408873","2000","140193","63285","NA","1996","156233","422033","426239","427144","423035","426239","422030","Sternberg task","47","48765","56","yes","1024"
"84.21052631578948","84.21052631578948","875.8070175438596","875.8070175438596","black","experiment","legacy","legacy","legacy","0","uniform","1","undefined","1","left","56","56","56","0","0","0","0","0","0","56","56","56","56","56","56","Sat Oct 23 18:40:28 2021","The main experiment item","yes","Sternbergtask.osexp","C:/Users/User/Desktop/School/Research Methods","no","mono","no","18","no","white","no","yes","768","legacy","44","11","C:/Users/User/Desktop/School/Research Methods/LW-subject-2-stern.csv","legacy","3 9 7 6 4","Lentiform Loewenfeld","3.3.9","3","y","0","left","left","left","NA","left","1156","61284","16040","NA","1156","2","legacy","5","1024","2","48000","-16","experiment","2","even","7","427148","430444","408873","2000","140193","63285","NA","1996","156233","428240","432446","433603","429242","432446","428238","Sternberg task","48","49921","57","yes","1024"
"84.48275862068965","84.48275862068965","877.0689655172414","877.0689655172414","black","experiment","legacy","legacy","legacy","0","uniform","1","undefined","1","left","57","57","57","0","0","0","0","0","0","57","57","57","57","57","57","Sat Oct 23 18:40:28 2021","The main experiment item","yes","Sternbergtask.osexp","C:/Users/User/Desktop/School/Research Methods","no","mono","no","18","no","white","no","yes","768","legacy","45","11","C:/Users/User/Desktop/School/Research Methods/LW-subject-2-stern.csv","legacy","9 5 3 8 4","Lentiform Loewenfeld","3.3.9","1","y","0","left","left","left","NA","left","949","61284","16040","NA","949","2","legacy","5","1024","2","48000","-16","experiment","2","even","9","433607","436902","408873","2000","140193","63285","NA","1996","156233","434698","438904","439855","435700","438904","434695","Sternberg task","49","50870","58","yes","1024"
"84.7457627118644","84.7457627118644","874.8983050847457","874.8983050847457","black","experiment","legacy","legacy","legacy","0","uniform","1","undefined","1","left","58","58","58","0","0","0","0","0","0","58","58","58","58","58","58","Sat Oct 23 18:40:28 2021","The main experiment item","yes","Sternbergtask.osexp","C:/Users/User/Desktop/School/Research Methods","no","mono","no","18","no","white","no","yes","768","legacy","46","11","C:/Users/User/Desktop/School/Research Methods/LW-subject-2-stern.csv","legacy","6 7 8 5","Lentiform Loewenfeld","3.3.9","3","y","0","left","left","left","NA","left","749","61284","16040","NA","749","2","legacy","4","1024","2","48000","-16","experiment","2","even","8","439859","443154","408873","2000","140193","63285","NA","1996","156233","440950","445156","445906","441952","445156","440948","Sternberg task","50","51619","59","yes","1024"
"85","85","875.6833333333333","875.6833333333333","black","experiment","legacy","legacy","legacy","0","uniform","1","undefined","1","left","59","59","59","0","0","0","0","0","0","59","59","59","59","59","59","Sat Oct 23 18:40:28 2021","The main experiment item","yes","Sternbergtask.osexp","C:/Users/User/Desktop/School/Research Methods","no","mono","no","18","no","white","no","yes","768","legacy","47","11","C:/Users/User/Desktop/School/Research Methods/LW-subject-2-stern.csv","legacy","7 1 8 5 6 2","Lentiform Loewenfeld","3.3.9","2","y","0","left","left","left","NA","left","922","61284","16040","NA","922","2","legacy","6","1024","2","48000","-16","experiment","2","even","1","445910","449205","408873","2000","140193","63285","NA","1996","156233","447001","451207","452131","448003","451207","446999","Sternberg task","51","52541","60","yes","1024"
"85.24590163934427","85.24590163934427","878.0983606557377","878.0983606557377","black","experiment","legacy","legacy","legacy","0","uniform","1","undefined","1","right","60","60","60","0","0","0","0","0","0","60","60","60","60","60","60","Sat Oct 23 18:40:28 2021","The main experiment item","yes","Sternbergtask.osexp","C:/Users/User/Desktop/School/Research Methods","no","mono","no","18","no","white","no","yes","768","legacy","48","11","C:/Users/User/Desktop/School/Research Methods/LW-subject-2-stern.csv","legacy","7 8 6 1","Lentiform Loewenfeld","3.3.9","0","n","0","right","left","left","NA","right","1023","61284","16040","NA","1023","2","legacy","4","1024","2","48000","-16","experiment","2","even","3","452134","455431","408873","2000","140193","63285","NA","1996","156233","453227","457433","458457","454229","457433","453225","Sternberg task","52","53564","61","yes","1024"
"85.48387096774194","85.48387096774194","875.9677419354839","875.9677419354839","black","experiment","legacy","legacy","legacy","0","uniform","1","undefined","1","left","61","61","61","0","0","0","0","0","0","61","61","61","61","61","61","Sat Oct 23 18:40:28 2021","The main experiment item","yes","Sternbergtask.osexp","C:/Users/User/Desktop/School/Research Methods","no","mono","no","18","no","white","no","yes","768","legacy","49","11","C:/Users/User/Desktop/School/Research Methods/LW-subject-2-stern.csv","legacy","2 4 6 9","Lentiform Loewenfeld","3.3.9","3","y","0","left","left","left","NA","left","746","61284","16040","NA","746","2","legacy","4","1024","2","48000","-16","experiment","2","even","6","458461","461756","408873","2000","140193","63285","NA","1996","156233","459552","463758","464505","460554","463758","459550","Sternberg task","53","54310","62","yes","1024"
"84.12698412698413","84.12698412698413","873.2063492063492","873.2063492063492","black","experiment","legacy","legacy","legacy","0","uniform","0","undefined","0","right","62","62","62","0","0","0","0","0","0","62","62","62","62","62","62","Sat Oct 23 18:40:28 2021","The main experiment item","yes","Sternbergtask.osexp","C:/Users/User/Desktop/School/Research Methods","no","mono","no","18","no","white","no","yes","768","legacy","50","11","C:/Users/User/Desktop/School/Research Methods/LW-subject-2-stern.csv","legacy","6 8","Lentiform Loewenfeld","3.3.9","0","n","0","left","left","left","NA","left","702","61284","16040","NA","702","2","legacy","2","1024","2","48000","-16","experiment","2","even","9","464509","467804","408873","2000","140193","63285","NA","1996","156233","465600","469806","470510","466602","469806","465598","Sternberg task","53","55012","63","yes","1024"
"84.375","84.375","881.109375","881.109375","black","experiment","legacy","legacy","legacy","0","uniform","1","undefined","1","right","63","63","63","0","0","0","0","0","0","63","63","63","63","63","63","Sat Oct 23 18:40:28 2021","The main experiment item","yes","Sternbergtask.osexp","C:/Users/User/Desktop/School/Research Methods","no","mono","no","18","no","white","no","yes","768","legacy","51","11","C:/Users/User/Desktop/School/Research Methods/LW-subject-2-stern.csv","legacy","6 9 4 5 3 2","Lentiform Loewenfeld","3.3.9","0","n","0","right","left","left","NA","right","1379","61284","16040","NA","1379","2","legacy","6","1024","2","48000","-16","experiment","2","even","8","464509","473809","470514","2000","140193","63285","NA","1996","156233","471605","475811","477191","472607","475811","471603","Sternberg task","54","56391","64","yes","1024"
"84.61538461538461","84.61538461538461","886.2461538461539","886.2461538461539","black","experiment","legacy","legacy","legacy","0","uniform","1","undefined","1","right","64","64","64","0","0","0","0","0","0","64","64","64","64","64","64","Sat Oct 23 18:40:28 2021","The main experiment item","yes","Sternbergtask.osexp","C:/Users/User/Desktop/School/Research Methods","no","mono","no","18","no","white","no","yes","768","legacy","52","11","C:/Users/User/Desktop/School/Research Methods/LW-subject-2-stern.csv","legacy","8 5 7 3 6","Lentiform Loewenfeld","3.3.9","0","n","0","right","left","left","NA","right","1215","61284","16040","NA","1215","2","legacy","5","1024","2","48000","-16","experiment","2","even","9","477195","480490","470514","2000","140193","63285","NA","1996","156233","478286","482492","483709","479288","482492","478284","Sternberg task","55","57606","65","yes","1024"
"83.33333333333333","83.33333333333333","903.1212121212121","903.1212121212121","black","experiment","legacy","legacy","legacy","0","uniform","0","undefined","0","left","65","65","65","0","0","0","0","0","0","65","65","65","65","65","65","Sat Oct 23 18:40:28 2021","The main experiment item","yes","Sternbergtask.osexp","C:/Users/User/Desktop/School/Research Methods","no","mono","no","18","no","white","no","yes","768","legacy","53","11","C:/Users/User/Desktop/School/Research Methods/LW-subject-2-stern.csv","legacy","7 6","Lentiform Loewenfeld","3.3.9","2","y","0","None","left","left","NA","None","2000","61284","16040","NA","2000","2","legacy","2","1024","2","48000","-16","experiment","2","even","6","483713","487008","470514","2000","140193","63285","NA","1996","156233","484804","489010","491010","485806","489010","484802","Sternberg task","55","59606","66","yes","1024"
"83.58208955223881","83.58208955223881","901.0597014925373","901.0597014925373","black","experiment","legacy","legacy","legacy","0","uniform","1","undefined","1","left","66","66","66","0","0","0","0","0","0","66","66","66","66","66","66","Sat Oct 23 18:40:28 2021","The main experiment item","yes","Sternbergtask.osexp","C:/Users/User/Desktop/School/Research Methods","no","mono","no","18","no","white","no","yes","768","legacy","54","11","C:/Users/User/Desktop/School/Research Methods/LW-subject-2-stern.csv","legacy","9 1 7 2","Lentiform Loewenfeld","3.3.9","2","y","0","left","left","left","NA","left","765","61284","16040","NA","765","2","legacy","4","1024","2","48000","-16","experiment","2","even","1","483713","494309","491014","2000","140193","63285","NA","1996","156233","492105","496311","497077","493107","496311","492103","Sternberg task","56","60371","67","yes","1024"
"83.82352941176471","83.82352941176471","896.8529411764706","896.8529411764706","black","experiment","legacy","legacy","legacy","0","uniform","1","undefined","1","left","67","67","67","0","0","0","0","0","0","67","67","67","67","67","67","Sat Oct 23 18:40:28 2021","The main experiment item","yes","Sternbergtask.osexp","C:/Users/User/Desktop/School/Research Methods","no","mono","no","18","no","white","no","yes","768","legacy","55","11","C:/Users/User/Desktop/School/Research Methods/LW-subject-2-stern.csv","legacy","8 7 3","Lentiform Loewenfeld","3.3.9","1","y","0","left","left","left","NA","left","615","61284","16040","NA","615","2","legacy","3","1024","2","48000","-16","experiment","2","even","8","497081","500379","491014","2000","140193","63285","NA","1996","156233","498175","502381","502998","499177","502381","498172","Sternberg task","57","60986","68","yes","1024"
"84.05797101449275","84.05797101449275","896.4927536231884","896.4927536231884","black","experiment","legacy","legacy","legacy","0","uniform","1","undefined","1","right","68","68","68","0","0","0","0","0","0","68","68","68","68","68","68","Sat Oct 23 18:40:28 2021","The main experiment item","yes","Sternbergtask.osexp","C:/Users/User/Desktop/School/Research Methods","no","mono","no","18","no","white","no","yes","768","legacy","56","11","C:/Users/User/Desktop/School/Research Methods/LW-subject-2-stern.csv","legacy","2 8 7 9 5 3","Lentiform Loewenfeld","3.3.9","0","n","0","right","left","left","NA","right","872","61284","16040","NA","872","2","legacy","6","1024","2","48000","-16","experiment","2","even","6","503002","506298","491014","2000","140193","63285","NA","1996","156233","504093","508300","509173","505096","508300","504091","Sternberg task","58","61858","69","yes","1024"
"84.28571428571429","84.28571428571429","895.3857142857142","895.3857142857142","black","experiment","legacy","legacy","legacy","0","uniform","1","undefined","1","right","69","69","69","0","0","0","0","0","0","69","69","69","69","69","69","Sat Oct 23 18:40:28 2021","The main experiment item","yes","Sternbergtask.osexp","C:/Users/User/Desktop/School/Research Methods","no","mono","no","18","no","white","no","yes","768","legacy","57","11","C:/Users/User/Desktop/School/Research Methods/LW-subject-2-stern.csv","legacy","5 2","Lentiform Loewenfeld","3.3.9","0","n","0","right","left","left","NA","right","819","61284","16040","NA","819","2","legacy","2","1024","2","48000","-16","experiment","2","even","7","509177","512473","491014","2000","140193","63285","NA","1996","156233","510269","514475","515296","511271","514475","510266","Sternberg task","59","62677","70","yes","1024"
"84.50704225352112","84.50704225352112","895.3380281690141","895.3380281690141","black","experiment","legacy","legacy","legacy","0","uniform","1","undefined","1","right","70","70","70","0","0","0","0","0","0","70","70","70","70","70","70","Sat Oct 23 18:40:28 2021","The main experiment item","yes","Sternbergtask.osexp","C:/Users/User/Desktop/School/Research Methods","no","mono","no","18","no","white","no","yes","768","legacy","58","11","C:/Users/User/Desktop/School/Research Methods/LW-subject-2-stern.csv","legacy","2 8 9","Lentiform Loewenfeld","3.3.9","0","n","0","right","left","left","NA","right","892","61284","16040","NA","892","2","legacy","3","1024","2","48000","-16","experiment","2","even","6","515299","518595","491014","2000","140193","63285","NA","1996","156233","516391","520597","521490","517393","520597","516389","Sternberg task","60","63569","71","yes","1024"
"84.72222222222223","84.72222222222223","890.9861111111111","890.9861111111111","black","experiment","legacy","legacy","legacy","0","uniform","1","undefined","1","left","71","71","71","0","0","0","0","0","0","71","71","71","71","71","71","Sat Oct 23 18:40:28 2021","The main experiment item","yes","Sternbergtask.osexp","C:/Users/User/Desktop/School/Research Methods","no","mono","no","18","no","white","no","yes","768","legacy","59","11","C:/Users/User/Desktop/School/Research Methods/LW-subject-2-stern.csv","legacy","4 1 5","Lentiform Loewenfeld","3.3.9","2","y","0","left","left","left","NA","left","582","61284","16040","NA","582","2","legacy","3","1024","2","48000","-16","experiment","2","even","1","521494","524791","491014","2000","140193","63285","NA","1996","156233","522587","526793","527377","523589","526793","522585","Sternberg task","61","64151","72","yes","1024"
"84.93150684931507","84.93150684931507","888.5753424657535","888.5753424657535","black","experiment","legacy","legacy","legacy","0","uniform","1","undefined","1","left","72","72","72","0","0","0","0","0","0","72","72","72","72","72","72","Sat Oct 23 18:40:28 2021","The main experiment item","yes","Sternbergtask.osexp","C:/Users/User/Desktop/School/Research Methods","no","mono","no","18","no","white","no","yes","768","legacy","60","11","C:/Users/User/Desktop/School/Research Methods/LW-subject-2-stern.csv","legacy","6 7 9 3 1 2","Lentiform Loewenfeld","3.3.9","1","y","0","left","left","left","NA","left","715","61284","16040","NA","715","2","legacy","6","1024","2","48000","-16","experiment","2","even","6","527381","530676","491014","2000","140193","63285","NA","1996","156233","528472","532678","533395","529474","532678","528470","Sternberg task","62","64866","73","yes","1024"
"85.13513513513513","85.13513513513513","887.027027027027","887.027027027027","black","experiment","legacy","legacy","legacy","0","uniform","1","undefined","1","right","73","73","73","0","0","0","0","0","0","73","73","73","73","73","73","Sat Oct 23 18:40:28 2021","The main experiment item","yes","Sternbergtask.osexp","C:/Users/User/Desktop/School/Research Methods","no","mono","no","18","no","white","no","yes","768","legacy","61","11","C:/Users/User/Desktop/School/Research Methods/LW-subject-2-stern.csv","legacy","5 3 2 6 9 8","Lentiform Loewenfeld","3.3.9","0","n","0","right","left","left","NA","right","774","61284","16040","NA","774","2","legacy","6","1024","2","48000","-16","experiment","2","even","4","533398","536694","491014","2000","140193","63285","NA","1996","156233","534490","538696","539472","535492","538696","534487","Sternberg task","63","65640","74","yes","1024"
"85.33333333333333","85.33333333333333","887.6666666666666","887.6666666666666","black","experiment","legacy","legacy","legacy","0","uniform","1","undefined","1","right","74","74","74","0","0","0","0","0","0","74","74","74","74","74","74","Sat Oct 23 18:40:28 2021","The main experiment item","yes","Sternbergtask.osexp","C:/Users/User/Desktop/School/Research Methods","no","mono","no","18","no","white","no","yes","768","legacy","62","11","C:/Users/User/Desktop/School/Research Methods/LW-subject-2-stern.csv","legacy","9","Lentiform Loewenfeld","3.3.9","0","n","0","right","left","left","NA","right","935","61284","16040","NA","935","2","legacy","1","1024","2","48000","-16","experiment","2","even","6","539476","542772","491014","2000","140193","63285","NA","1996","156233","540568","544774","545710","541570","544774","540566","Sternberg task","64","66575","75","yes","1024"
"85.52631578947368","85.52631578947368","887","887","black","experiment","legacy","legacy","legacy","0","uniform","1","undefined","1","right","75","75","75","0","0","0","0","0","0","75","75","75","75","75","75","Sat Oct 23 18:40:28 2021","The main experiment item","yes","Sternbergtask.osexp","C:/Users/User/Desktop/School/Research Methods","no","mono","no","18","no","white","no","yes","768","legacy","63","11","C:/Users/User/Desktop/School/Research Methods/LW-subject-2-stern.csv","legacy","2 7 5","Lentiform Loewenfeld","3.3.9","0","n","0","right","left","left","NA","right","837","61284","16040","NA","837","2","legacy","3","1024","2","48000","-16","experiment","2","even","8","545714","549010","491014","2000","140193","63285","NA","1996","156233","546806","551012","551851","547808","551012","546803","Sternberg task","65","67412","76","yes","1024"
"85.71428571428571","85.71428571428571","886.038961038961","886.038961038961","black","experiment","legacy","legacy","legacy","0","uniform","1","undefined","1","left","76","76","76","0","0","0","0","0","0","76","76","76","76","76","76","Sat Oct 23 18:40:28 2021","The main experiment item","yes","Sternbergtask.osexp","C:/Users/User/Desktop/School/Research Methods","no","mono","no","18","no","white","no","yes","768","legacy","64","11","C:/Users/User/Desktop/School/Research Methods/LW-subject-2-stern.csv","legacy","7 1 3","Lentiform Loewenfeld","3.3.9","2","y","0","left","left","left","NA","left","813","61284","16040","NA","813","2","legacy","3","1024","2","48000","-16","experiment","2","even","1","551854","555150","491014","2000","140193","63285","NA","1996","156233","552946","557152","557966","553948","557152","552943","Sternberg task","66","68225","77","yes","1024"
"85.8974358974359","85.8974358974359","883.9358974358975","883.9358974358975","black","experiment","legacy","legacy","legacy","0","uniform","1","undefined","1","right","77","77","77","0","0","0","0","0","0","77","77","77","77","77","77","Sat Oct 23 18:40:28 2021","The main experiment item","yes","Sternbergtask.osexp","C:/Users/User/Desktop/School/Research Methods","no","mono","no","18","no","white","no","yes","768","legacy","65","11","C:/Users/User/Desktop/School/Research Methods/LW-subject-2-stern.csv","legacy","1 6 4","Lentiform Loewenfeld","3.3.9","0","n","0","right","left","left","NA","right","722","61284","16040","NA","722","2","legacy","3","1024","2","48000","-16","experiment","2","even","7","557970","561264","491014","2000","140193","63285","NA","1996","156233","559060","563266","563990","560062","563266","559058","Sternberg task","67","68947","78","yes","1024"
"86.07594936708861","86.07594936708861","883.2405063291139","883.2405063291139","black","experiment","legacy","legacy","legacy","0","uniform","1","undefined","1","right","78","78","78","0","0","0","0","0","0","78","78","78","78","78","78","Sat Oct 23 18:40:28 2021","The main experiment item","yes","Sternbergtask.osexp","C:/Users/User/Desktop/School/Research Methods","no","mono","no","18","no","white","no","yes","768","legacy","66","11","C:/Users/User/Desktop/School/Research Methods/LW-subject-2-stern.csv","legacy","1 7 5 2 9","Lentiform Loewenfeld","3.3.9","0","n","0","right","left","left","NA","right","829","61284","16040","NA","829","2","legacy","5","1024","2","48000","-16","experiment","2","even","3","563994","567290","491014","2000","140193","63285","NA","1996","156233","565086","569292","570122","566088","569292","565083","Sternberg task","68","69776","79","yes","1024"
"86.25","86.25","887.1375","887.1375","black","experiment","legacy","legacy","legacy","0","uniform","1","undefined","1","left","79","79","79","0","0","0","0","0","0","79","79","79","79","79","79","Sat Oct 23 18:40:28 2021","The main experiment item","yes","Sternbergtask.osexp","C:/Users/User/Desktop/School/Research Methods","no","mono","no","18","no","white","no","yes","768","legacy","67","11","C:/Users/User/Desktop/School/Research Methods/LW-subject-2-stern.csv","legacy","5 7 3 6 2","Lentiform Loewenfeld","3.3.9","5","y","0","left","left","left","NA","left","1195","61284","16040","NA","1195","2","legacy","5","1024","2","48000","-16","experiment","2","even","2","570126","573422","491014","2000","140193","63285","NA","1996","156233","571218","575424","576620","572220","575424","571215","Sternberg task","69","70971","80","yes","1024"
"86.41975308641975","86.41975308641975","886.9506172839506","886.9506172839506","black","experiment","legacy","legacy","legacy","0","uniform","1","undefined","1","right","80","80","80","0","0","0","0","0","0","80","80","80","80","80","80","Sat Oct 23 18:40:28 2021","The main experiment item","yes","Sternbergtask.osexp","C:/Users/User/Desktop/School/Research Methods","no","mono","no","18","no","white","no","yes","768","legacy","68","11","C:/Users/User/Desktop/School/Research Methods/LW-subject-2-stern.csv","legacy","1 5 3 2 8","Lentiform Loewenfeld","3.3.9","0","n","0","right","left","left","NA","right","872","61284","16040","NA","872","2","legacy","5","1024","2","48000","-16","experiment","2","even","4","576741","580036","491014","2000","140193","63285","NA","1996","156233","577832","582038","582912","578834","582038","577830","Sternberg task","70","71843","81","yes","1024"
"86.58536585365853","86.58536585365853","886.9634146341464","886.9634146341464","black","experiment","legacy","legacy","legacy","0","uniform","1","undefined","1","left","81","81","81","0","0","0","0","0","0","81","81","81","81","81","81","Sat Oct 23 18:40:28 2021","The main experiment item","yes","Sternbergtask.osexp","C:/Users/User/Desktop/School/Research Methods","no","mono","no","18","no","white","no","yes","768","legacy","69","11","C:/Users/User/Desktop/School/Research Methods/LW-subject-2-stern.csv","legacy","3 9 6 2","Lentiform Loewenfeld","3.3.9","4","y","0","left","left","left","NA","left","888","61284","16040","NA","888","2","legacy","4","1024","2","48000","-16","experiment","2","even","2","582916","586211","491014","2000","140193","63285","NA","1996","156233","584007","588213","589102","585009","588213","584005","Sternberg task","71","72731","82","yes","1024"
"86.74698795180723","86.74698795180723","885.843373493976","885.843373493976","black","experiment","legacy","legacy","legacy","0","uniform","1","undefined","1","left","82","82","82","0","0","0","0","0","0","82","82","82","82","82","82","Sat Oct 23 18:40:28 2021","The main experiment item","yes","Sternbergtask.osexp","C:/Users/User/Desktop/School/Research Methods","no","mono","no","18","no","white","no","yes","768","legacy","70","11","C:/Users/User/Desktop/School/Research Methods/LW-subject-2-stern.csv","legacy","6 9 7 4 5 1","Lentiform Loewenfeld","3.3.9","2","y","0","left","left","left","NA","left","794","61284","16040","NA","794","2","legacy","6","1024","2","48000","-16","experiment","2","even","9","589106","592401","491014","2000","140193","63285","NA","1996","156233","590197","594403","595199","591199","594403","590195","Sternberg task","72","73525","83","yes","1024"
"86.9047619047619","86.9047619047619","882.2261904761905","882.2261904761905","black","experiment","legacy","legacy","legacy","0","uniform","1","undefined","1","left","83","83","83","0","0","0","0","0","0","83","83","83","83","83","83","Sat Oct 23 18:40:28 2021","The main experiment item","yes","Sternbergtask.osexp","C:/Users/User/Desktop/School/Research Methods","no","mono","no","18","no","white","no","yes","768","legacy","71","11","C:/Users/User/Desktop/School/Research Methods/LW-subject-2-stern.csv","legacy","9 8 4","Lentiform Loewenfeld","3.3.9","1","y","0","left","left","left","NA","left","582","61284","16040","NA","582","2","legacy","3","1024","2","48000","-16","experiment","2","even","9","595203","598498","491014","2000","140193","63285","NA","1996","156233","596294","600500","601083","597296","600500","596292","Sternberg task","73","74107","84","yes","1024"
"87.05882352941177","87.05882352941177","880.3764705882353","880.3764705882353","black","experiment","legacy","legacy","legacy","0","uniform","1","undefined","1","right","84","84","84","0","0","0","0","0","0","84","84","84","84","84","84","Sat Oct 23 18:40:28 2021","The main experiment item","yes","Sternbergtask.osexp","C:/Users/User/Desktop/School/Research Methods","no","mono","no","18","no","white","no","yes","768","legacy","72","11","C:/Users/User/Desktop/School/Research Methods/LW-subject-2-stern.csv","legacy","1 8 7","Lentiform Loewenfeld","3.3.9","0","n","0","right","left","left","NA","right","725","61284","16040","NA","725","2","legacy","3","1024","2","48000","-16","experiment","2","even","4","601088","604383","491014","2000","140193","63285","NA","1996","156233","602179","606385","607111","603181","606385","602177","Sternberg task","74","74832","85","yes","1024"
"87.20930232558139","87.20930232558139","890.1395348837209","890.1395348837209","black","experiment","legacy","legacy","legacy","0","uniform","1","undefined","1","right","85","85","85","0","0","0","0","0","0","85","85","85","85","85","85","Sat Oct 23 18:40:28 2021","The main experiment item","yes","Sternbergtask.osexp","C:/Users/User/Desktop/School/Research Methods","no","mono","no","18","no","white","no","yes","768","legacy","73","11","C:/Users/User/Desktop/School/Research Methods/LW-subject-2-stern.csv","legacy","5 3 8 7 2 4","Lentiform Loewenfeld","3.3.9","0","n","0","right","left","left","NA","right","1720","61284","16040","NA","1720","2","legacy","6","1024","2","48000","-16","experiment","2","even","9","607115","610410","491014","2000","140193","63285","NA","1996","156233","608206","612412","614134","609208","612412","608204","Sternberg task","75","76552","86","yes","1024"
"87.35632183908046","87.35632183908046","889.0114942528736","889.0114942528736","black","experiment","legacy","legacy","legacy","0","uniform","1","undefined","1","right","86","86","86","0","0","0","0","0","0","86","86","86","86","86","86","Sat Oct 23 18:40:28 2021","The main experiment item","yes","Sternbergtask.osexp","C:/Users/User/Desktop/School/Research Methods","no","mono","no","18","no","white","no","yes","768","legacy","74","11","C:/Users/User/Desktop/School/Research Methods/LW-subject-2-stern.csv","legacy","6 8 4","Lentiform Loewenfeld","3.3.9","0","n","0","right","left","left","NA","right","792","61284","16040","NA","792","2","legacy","3","1024","2","48000","-16","experiment","2","even","1","614138","617452","491014","2000","140193","63285","NA","1996","156233","615248","619454","620247","616250","619454","615246","Sternberg task","76","77344","87","yes","1024"
"87.5","87.5","889.9545454545455","889.9545454545455","black","experiment","legacy","legacy","legacy","0","uniform","1","undefined","1","left","87","87","87","0","0","0","0","0","0","87","87","87","87","87","87","Sat Oct 23 18:40:28 2021","The main experiment item","yes","Sternbergtask.osexp","C:/Users/User/Desktop/School/Research Methods","no","mono","no","18","no","white","no","yes","768","legacy","75","11","C:/Users/User/Desktop/School/Research Methods/LW-subject-2-stern.csv","legacy","8 1 6","Lentiform Loewenfeld","3.3.9","3","y","0","left","left","left","NA","left","972","61284","16040","NA","972","2","legacy","3","1024","2","48000","-16","experiment","2","even","6","620251","623546","491014","2000","140193","63285","NA","1996","156233","621342","625548","626522","622344","625548","621340","Sternberg task","77","78316","88","yes","1024"
"87.64044943820225","87.64044943820225","890.1348314606741","890.1348314606741","black","experiment","legacy","legacy","legacy","0","uniform","1","undefined","1","right","88","88","88","0","0","0","0","0","0","88","88","88","88","88","88","Sat Oct 23 18:40:28 2021","The main experiment item","yes","Sternbergtask.osexp","C:/Users/User/Desktop/School/Research Methods","no","mono","no","18","no","white","no","yes","768","legacy","76","11","C:/Users/User/Desktop/School/Research Methods/LW-subject-2-stern.csv","legacy","1 4 3 6 5","Lentiform Loewenfeld","3.3.9","0","n","0","right","left","left","NA","right","906","61284","16040","NA","906","2","legacy","5","1024","2","48000","-16","experiment","2","even","8","626525","629821","491014","2000","140193","63285","NA","1996","156233","627617","631823","632731","628619","631823","627615","Sternberg task","78","79222","89","yes","1024"
"87.77777777777777","87.77777777777777","894.2111111111111","894.2111111111111","black","experiment","legacy","legacy","legacy","0","uniform","1","undefined","1","left","89","89","89","0","0","0","0","0","0","89","89","89","89","89","89","Sat Oct 23 18:40:28 2021","The main experiment item","yes","Sternbergtask.osexp","C:/Users/User/Desktop/School/Research Methods","no","mono","no","18","no","white","no","yes","768","legacy","77","11","C:/Users/User/Desktop/School/Research Methods/LW-subject-2-stern.csv","legacy","3 5 7 1","Lentiform Loewenfeld","3.3.9","3","y","0","left","left","left","NA","left","1257","61284","16040","NA","1257","2","legacy","4","1024","2","48000","-16","experiment","2","even","7","632735","636030","491014","2000","140193","63285","NA","1996","156233","633826","638032","639291","634828","638032","633824","Sternberg task","79","80479","90","yes","1024"
"87.91208791208791","87.91208791208791","891.054945054945","891.054945054945","black","experiment","legacy","legacy","legacy","0","uniform","1","undefined","1","left","90","90","90","0","0","0","0","0","0","90","90","90","90","90","90","Sat Oct 23 18:40:28 2021","The main experiment item","yes","Sternbergtask.osexp","C:/Users/User/Desktop/School/Research Methods","no","mono","no","18","no","white","no","yes","768","legacy","78","11","C:/Users/User/Desktop/School/Research Methods/LW-subject-2-stern.csv","legacy","3 5 4 7","Lentiform Loewenfeld","3.3.9","1","y","0","left","left","left","NA","left","607","61284","16040","NA","607","2","legacy","4","1024","2","48000","-16","experiment","2","even","3","639294","642589","491014","2000","140193","63285","NA","1996","156233","640385","644591","645199","641387","644591","640383","Sternberg task","80","81086","91","yes","1024"
"86.95652173913044","86.95652173913044","891.1521739130435","891.1521739130435","black","experiment","legacy","legacy","legacy","0","uniform","0","undefined","0","left","91","91","91","0","0","0","0","0","0","91","91","91","91","91","91","Sat Oct 23 18:40:28 2021","The main experiment item","yes","Sternbergtask.osexp","C:/Users/User/Desktop/School/Research Methods","no","mono","no","18","no","white","no","yes","768","legacy","79","11","C:/Users/User/Desktop/School/Research Methods/LW-subject-2-stern.csv","legacy","5 7 8 2 3 8","Lentiform Loewenfeld","3.3.9","5","y","0","right","left","left","NA","right","900","61284","16040","NA","900","2","legacy","6","1024","2","48000","-16","experiment","2","even","3","645203","648500","491014","2000","140193","63285","NA","1996","156233","646296","650502","651404","647298","650502","646293","Sternberg task","80","81986","92","yes","1024"
"87.09677419354838","87.09677419354838","890.0537634408602","890.0537634408602","black","experiment","legacy","legacy","legacy","0","uniform","1","undefined","1","left","92","92","92","0","0","0","0","0","0","92","92","92","92","92","92","Sat Oct 23 18:40:28 2021","The main experiment item","yes","Sternbergtask.osexp","C:/Users/User/Desktop/School/Research Methods","no","mono","no","18","no","white","no","yes","768","legacy","80","11","C:/Users/User/Desktop/School/Research Methods/LW-subject-2-stern.csv","legacy","4","Lentiform Loewenfeld","3.3.9","1","y","0","left","left","left","NA","left","789","61284","16040","NA","789","2","legacy","1","1024","2","48000","-16","experiment","2","even","4","645203","654703","651408","2000","140193","63285","NA","1996","156233","652499","656705","657496","653501","656705","652496","Sternberg task","81","82775","93","yes","1024"
"87.23404255319149","87.23404255319149","889.2446808510638","889.2446808510638","black","experiment","legacy","legacy","legacy","0","uniform","1","undefined","1","right","93","93","93","0","0","0","0","0","0","93","93","93","93","93","93","Sat Oct 23 18:40:28 2021","The main experiment item","yes","Sternbergtask.osexp","C:/Users/User/Desktop/School/Research Methods","no","mono","no","18","no","white","no","yes","768","legacy","81","11","C:/Users/User/Desktop/School/Research Methods/LW-subject-2-stern.csv","legacy","7 1 8 4 9 3","Lentiform Loewenfeld","3.3.9","0","n","0","right","left","left","NA","right","814","61284","16040","NA","814","2","legacy","6","1024","2","48000","-16","experiment","2","even","6","657500","660795","651408","2000","140193","63285","NA","1996","156233","658591","662797","663613","659593","662797","658588","Sternberg task","82","83589","94","yes","1024"
"87.36842105263158","87.36842105263158","887.1368421052632","887.1368421052632","black","experiment","legacy","legacy","legacy","0","uniform","1","undefined","1","left","94","94","94","0","0","0","0","0","0","94","94","94","94","94","94","Sat Oct 23 18:40:28 2021","The main experiment item","yes","Sternbergtask.osexp","C:/Users/User/Desktop/School/Research Methods","no","mono","no","18","no","white","no","yes","768","legacy","82","11","C:/Users/User/Desktop/School/Research Methods/LW-subject-2-stern.csv","legacy","4 3 2 5 8","Lentiform Loewenfeld","3.3.9","2","y","0","left","left","left","NA","left","689","61284","16040","NA","689","2","legacy","5","1024","2","48000","-16","experiment","2","even","3","663617","666912","651408","2000","140193","63285","NA","1996","156233","664708","668914","669605","665710","668914","664706","Sternberg task","83","84278","95","yes","1024"
"87.5","87.5","885.875","885.875","black","experiment","legacy","legacy","legacy","0","uniform","1","undefined","1","left","95","95","95","0","0","0","0","0","0","95","95","95","95","95","95","Sat Oct 23 18:40:28 2021","The main experiment item","yes","Sternbergtask.osexp","C:/Users/User/Desktop/School/Research Methods","no","mono","no","18","no","white","no","yes","768","legacy","83","11","C:/Users/User/Desktop/School/Research Methods/LW-subject-2-stern.csv","legacy","4 1 8 7 5","Lentiform Loewenfeld","3.3.9","3","y","0","left","left","left","NA","left","766","61284","16040","NA","766","2","legacy","5","1024","2","48000","-16","experiment","2","even","8","669609","672906","651408","2000","140193","63285","NA","1996","156233","670702","674908","675676","671704","674908","670700","Sternberg task","84","85044","96","yes","1024"
"87.62886597938144","87.62886597938144","885.3711340206186","885.3711340206186","black","experiment","legacy","legacy","legacy","0","uniform","1","undefined","1","right","96","96","96","0","0","0","0","0","0","96","96","96","96","96","96","Sat Oct 23 18:40:28 2021","The main experiment item","yes","Sternbergtask.osexp","C:/Users/User/Desktop/School/Research Methods","no","mono","no","18","no","white","no","yes","768","legacy","84","11","C:/Users/User/Desktop/School/Research Methods/LW-subject-2-stern.csv","legacy","4 1","Lentiform Loewenfeld","3.3.9","0","n","0","right","left","left","NA","right","837","61284","16040","NA","837","2","legacy","2","1024","2","48000","-16","experiment","2","even","6","675679","678976","651408","2000","140193","63285","NA","1996","156233","676771","680978","681817","677774","680978","676769","Sternberg task","85","85881","97","yes","1024"
"87.75510204081633","87.75510204081633","887.7142857142857","887.7142857142857","black","experiment","legacy","legacy","legacy","0","uniform","1","undefined","1","right","97","97","97","0","0","0","0","0","0","97","97","97","97","97","97","Sat Oct 23 18:40:28 2021","The main experiment item","yes","Sternbergtask.osexp","C:/Users/User/Desktop/School/Research Methods","no","mono","no","18","no","white","no","yes","768","legacy","85","11","C:/Users/User/Desktop/School/Research Methods/LW-subject-2-stern.csv","legacy","3 4 9 6 7 8","Lentiform Loewenfeld","3.3.9","0","n","0","right","left","left","NA","right","1115","61284","16040","NA","1115","2","legacy","6","1024","2","48000","-16","experiment","2","even","2","681821","685117","651408","2000","140193","63285","NA","1996","156233","682913","687119","688236","683915","687119","682911","Sternberg task","86","86996","98","yes","1024"
"87.87878787878788","87.87878787878788","892.6868686868687","892.6868686868687","black","experiment","legacy","legacy","legacy","0","uniform","1","undefined","1","left","98","98","98","0","0","0","0","0","0","98","98","98","98","98","98","Sat Oct 23 18:40:28 2021","The main experiment item","yes","Sternbergtask.osexp","C:/Users/User/Desktop/School/Research Methods","no","mono","no","18","no","white","no","yes","768","legacy","86","11","C:/Users/User/Desktop/School/Research Methods/LW-subject-2-stern.csv","legacy","6 5","Lentiform Loewenfeld","3.3.9","2","y","0","left","left","left","NA","left","1380","61284","16040","NA","1380","2","legacy","2","1024","2","48000","-16","experiment","2","even","5","688240","691553","651408","2000","140193","63285","NA","1996","156233","689349","693555","694936","690351","693555","689347","Sternberg task","87","88376","99","yes","1024"
"88","88","890.99","890.99","black","experiment","legacy","legacy","legacy","0","uniform","1","undefined","1","left","99","99","99","0","0","0","0","0","0","99","99","99","99","99","99","Sat Oct 23 18:40:28 2021","The main experiment item","yes","Sternbergtask.osexp","C:/Users/User/Desktop/School/Research Methods","no","mono","no","18","no","white","no","yes","768","legacy","87","11","C:/Users/User/Desktop/School/Research Methods/LW-subject-2-stern.csv","legacy","8 9 5 7 1 6","Lentiform Loewenfeld","3.3.9","4","y","0","left","left","left","NA","left","723","61284","16040","NA","723","2","legacy","6","1024","2","48000","-16","experiment","2","even","7","694940","698236","651408","2000","140193","63285","NA","1996","156233","696032","700238","700963","697034","700238","696030","Sternberg task","88","89099","100","yes","1024"
"88.11881188118812","88.11881188118812","888.4950495049505","888.4950495049505","black","experiment","legacy","legacy","legacy","0","uniform","1","undefined","1","right","100","100","100","0","0","0","0","0","0","100","100","100","100","100","100","Sat Oct 23 18:40:28 2021","The main experiment item","yes","Sternbergtask.osexp","C:/Users/User/Desktop/School/Research Methods","no","mono","no","18","no","white","no","yes","768","legacy","88","11","C:/Users/User/Desktop/School/Research Methods/LW-subject-2-stern.csv","legacy","7 9 1 6","Lentiform Loewenfeld","3.3.9","0","n","0","right","left","left","NA","right","639","61284","16040","NA","639","2","legacy","4","1024","2","48000","-16","experiment","2","even","4","700967","704262","651408","2000","140193","63285","NA","1996","156233","702058","706264","706905","703060","706264","702056","Sternberg task","89","89738","101","yes","1024"
"88.23529411764706","88.23529411764706","892.0294117647059","892.0294117647059","black","experiment","legacy","legacy","legacy","0","uniform","1","undefined","1","right","101","101","101","0","0","0","0","0","0","101","101","101","101","101","101","Sat Oct 23 18:40:28 2021","The main experiment item","yes","Sternbergtask.osexp","C:/Users/User/Desktop/School/Research Methods","no","mono","no","18","no","white","no","yes","768","legacy","89","11","C:/Users/User/Desktop/School/Research Methods/LW-subject-2-stern.csv","legacy","6 9 7 3 8 2","Lentiform Loewenfeld","3.3.9","0","n","0","right","left","left","NA","right","1249","61284","16040","NA","1249","2","legacy","6","1024","2","48000","-16","experiment","2","even","5","706909","710204","651408","2000","140193","63285","NA","1996","156233","708000","712206","713457","709002","712206","707998","Sternberg task","90","90987","102","yes","1024"
"88.3495145631068","88.3495145631068","891.495145631068","891.495145631068","black","experiment","legacy","legacy","legacy","0","uniform","1","undefined","1","right","102","102","102","0","0","0","0","0","0","102","102","102","102","102","102","Sat Oct 23 18:40:28 2021","The main experiment item","yes","Sternbergtask.osexp","C:/Users/User/Desktop/School/Research Methods","no","mono","no","18","no","white","no","yes","768","legacy","90","11","C:/Users/User/Desktop/School/Research Methods/LW-subject-2-stern.csv","legacy","6 2 9 3 8 4","Lentiform Loewenfeld","3.3.9","0","n","0","right","left","left","NA","right","837","61284","16040","NA","837","2","legacy","6","1024","2","48000","-16","experiment","2","even","1","713461","716758","651408","2000","140193","63285","NA","1996","156233","714554","718760","719599","715556","718760","714552","Sternberg task","91","91824","103","yes","1024"
"88.46153846153847","88.46153846153847","895.8557692307693","895.8557692307693","black","experiment","legacy","legacy","legacy","0","uniform","1","undefined","1","left","103","103","103","0","0","0","0","0","0","103","103","103","103","103","103","Sat Oct 23 18:40:28 2021","The main experiment item","yes","Sternbergtask.osexp","C:/Users/User/Desktop/School/Research Methods","no","mono","no","18","no","white","no","yes","768","legacy","91","11","C:/Users/User/Desktop/School/Research Methods/LW-subject-2-stern.csv","legacy","8 5 3 7 4 6","Lentiform Loewenfeld","3.3.9","6","y","0","left","left","left","NA","left","1345","61284","16040","NA","1345","2","legacy","6","1024","2","48000","-16","experiment","2","even","6","719602","722898","651408","2000","140193","63285","NA","1996","156233","720694","724900","726247","721696","724900","720692","Sternberg task","92","93169","104","yes","1024"
"88.57142857142857","88.57142857142857","894.7333333333333","894.7333333333333","black","experiment","legacy","legacy","legacy","0","uniform","1","undefined","1","left","104","104","104","0","0","0","0","0","0","104","104","104","104","104","104","Sat Oct 23 18:40:28 2021","The main experiment item","yes","Sternbergtask.osexp","C:/Users/User/Desktop/School/Research Methods","no","mono","no","18","no","white","no","yes","768","legacy","92","11","C:/Users/User/Desktop/School/Research Methods/LW-subject-2-stern.csv","legacy","3 5 9 6 2 4","Lentiform Loewenfeld","3.3.9","1","y","0","left","left","left","NA","left","778","61284","16040","NA","778","2","legacy","6","1024","2","48000","-16","experiment","2","even","3","726251","729548","651408","2000","140193","63285","NA","1996","156233","727344","731550","732330","728346","731550","727342","Sternberg task","93","93947","105","yes","1024"
"88.67924528301887","88.67924528301887","895.6698113207547","895.6698113207547","black","experiment","legacy","legacy","legacy","0","uniform","1","undefined","1","right","105","105","105","0","0","0","0","0","0","105","105","105","105","105","105","Sat Oct 23 18:40:28 2021","The main experiment item","yes","Sternbergtask.osexp","C:/Users/User/Desktop/School/Research Methods","no","mono","no","18","no","white","no","yes","768","legacy","93","11","C:/Users/User/Desktop/School/Research Methods/LW-subject-2-stern.csv","legacy","2 8 6 3 1","Lentiform Loewenfeld","3.3.9","0","n","0","right","left","left","NA","right","994","61284","16040","NA","994","2","legacy","5","1024","2","48000","-16","experiment","2","even","7","732335","735633","651408","2000","140193","63285","NA","1996","156233","733429","737635","738631","734431","737635","733426","Sternberg task","94","94941","106","yes","1024"
"88.78504672897196","88.78504672897196","894.588785046729","894.588785046729","black","experiment","legacy","legacy","legacy","0","uniform","1","undefined","1","right","106","106","106","0","0","0","0","0","0","106","106","106","106","106","106","Sat Oct 23 18:40:28 2021","The main experiment item","yes","Sternbergtask.osexp","C:/Users/User/Desktop/School/Research Methods","no","mono","no","18","no","white","no","yes","768","legacy","94","11","C:/Users/User/Desktop/School/Research Methods/LW-subject-2-stern.csv","legacy","7 4 2 8 1 9","Lentiform Loewenfeld","3.3.9","0","n","0","right","left","left","NA","right","780","61284","16040","NA","780","2","legacy","6","1024","2","48000","-16","experiment","2","even","5","738635","741936","651408","2000","140193","63285","NA","1996","156233","739732","743938","744720","740734","743938","739730","Sternberg task","95","95721","107","yes","1024"
"88.88888888888889","88.88888888888889","893.3981481481482","893.3981481481482","black","experiment","legacy","legacy","legacy","0","uniform","1","undefined","1","right","107","107","107","0","0","0","0","0","0","107","107","107","107","107","107","Sat Oct 23 18:40:28 2021","The main experiment item","yes","Sternbergtask.osexp","C:/Users/User/Desktop/School/Research Methods","no","mono","no","18","no","white","no","yes","768","legacy","95","11","C:/Users/User/Desktop/School/Research Methods/LW-subject-2-stern.csv","legacy","3 4 2","Lentiform Loewenfeld","3.3.9","0","n","0","right","left","left","NA","right","766","61284","16040","NA","766","2","legacy","3","1024","2","48000","-16","experiment","2","even","5","744724","748022","651408","2000","140193","63285","NA","1996","156233","745818","750024","750791","746820","750024","745816","Sternberg task","96","96487","108","yes","1024"
"88.9908256880734","88.9908256880734","893.5045871559633","893.5045871559633","black","experiment","legacy","legacy","legacy","0","uniform","1","undefined","1","right","108","108","108","0","0","0","0","0","0","108","108","108","108","108","108","Sat Oct 23 18:40:28 2021","The main experiment item","yes","Sternbergtask.osexp","C:/Users/User/Desktop/School/Research Methods","no","mono","no","18","no","white","no","yes","768","legacy","96","11","C:/Users/User/Desktop/School/Research Methods/LW-subject-2-stern.csv","legacy","7 1","Lentiform Loewenfeld","3.3.9","0","n","0","right","left","left","NA","right","905","61284","16040","NA","905","2","legacy","2","1024","2","48000","-16","experiment","2","even","8","750795","754090","651408","2000","140193","63285","NA","1996","156233","751886","756092","756999","752888","756092","751884","Sternberg task","97","97392","109","yes","1024"
"89.0909090909091","89.0909090909091","892.0727272727273","892.0727272727273","black","experiment","legacy","legacy","legacy","0","uniform","1","undefined","1","left","109","109","109","0","0","0","0","0","0","109","109","109","109","109","109","Sat Oct 23 18:40:28 2021","The main experiment item","yes","Sternbergtask.osexp","C:/Users/User/Desktop/School/Research Methods","no","mono","no","18","no","white","no","yes","768","legacy","97","11","C:/Users/User/Desktop/School/Research Methods/LW-subject-2-stern.csv","legacy","5 2 6","Lentiform Loewenfeld","3.3.9","2","y","0","left","left","left","NA","left","736","61284","16040","NA","736","2","legacy","3","1024","2","48000","-16","experiment","2","even","2","757003","760298","651408","2000","140193","63285","NA","1996","156233","758094","762300","763038","759096","762300","758092","Sternberg task","98","98128","110","yes","1024"
"89.1891891891892","89.1891891891892","891.9549549549549","891.9549549549549","black","experiment","legacy","legacy","legacy","0","uniform","1","undefined","1","right","110","110","110","0","0","0","0","0","0","110","110","110","110","110","110","Sat Oct 23 18:40:28 2021","The main experiment item","yes","Sternbergtask.osexp","C:/Users/User/Desktop/School/Research Methods","no","mono","no","18","no","white","no","yes","768","legacy","98","11","C:/Users/User/Desktop/School/Research Methods/LW-subject-2-stern.csv","legacy","8 4 3 9","Lentiform Loewenfeld","3.3.9","0","n","0","right","left","left","NA","right","879","61284","16040","NA","879","2","legacy","4","1024","2","48000","-16","experiment","2","even","5","763042","766338","651408","2000","140193","63285","NA","1996","156233","764134","768340","769221","765136","768340","764132","Sternberg task","99","99007","111","yes","1024"
"89.28571428571429","89.28571428571429","891.375","891.375","black","experiment","legacy","legacy","legacy","0","uniform","1","undefined","1","left","111","111","111","0","0","0","0","0","0","111","111","111","111","111","111","Sat Oct 23 18:40:28 2021","The main experiment item","yes","Sternbergtask.osexp","C:/Users/User/Desktop/School/Research Methods","no","mono","no","18","no","white","no","yes","768","legacy","99","11","C:/Users/User/Desktop/School/Research Methods/LW-subject-2-stern.csv","legacy","6 2","Lentiform Loewenfeld","3.3.9","1","y","0","left","left","left","NA","left","827","61284","16040","NA","827","2","legacy","2","1024","2","48000","-16","experiment","2","even","6","769225","772520","651408","2000","140193","63285","NA","1996","156233","770316","774522","775351","771318","774522","770313","Sternberg task","100","99834","112","yes","1024"
