"acc","accuracy","average_response_time","avg_rt","background","block","canvas_backend","clock_backend","color_backend","compensation","coordinates","correct","correct_instruction1","correct_keyboard_response","correct_response","count_ISI","count_correctFeedback","count_expSequence","count_experiment","count_experimentLoop","count_fixation","count_incorrectFeedback","count_instruction1","count_instruction2","count_instructional","count_keyboard_response","count_logger","count_memorySet","count_practiceLoop","count_probe","count_thankYou","datetime","description","disable_garbage_collection","empty_column","experiment_file","experiment_path","font_bold","font_family","font_italic","font_size","font_underline","foreground","form_clicks","fullscreen","height","keyboard_backend","live_row","live_row_practiceLoop","logfile","mouse_backend","numberSet","opensesame_codename","opensesame_version","posInSet","present","repeat_cycle","response","response_instruction1","response_instruction2","response_keyboard_response","response_thankYou","response_time","response_time_instruction1","response_time_instruction2","response_time_keyboard_response","response_time_thankYou","round_decimals","sampler_backend","setSize","sound_buf_size","sound_channels","sound_freq","sound_sample_size","start","subject_nr","subject_parity","target","time_ISI","time_correctFeedback","time_expSequence","time_experiment","time_experimentLoop","time_fixation","time_incorrectFeedback","time_instruction1","time_instruction2","time_instructional","time_keyboard_response","time_logger","time_memorySet","time_practiceLoop","time_probe","time_thankYou","title","total_correct","total_response_time","total_responses","uniform_coordinates","width"
"100","100","1374","1374","black","practice","legacy","legacy","legacy","0","uniform","1","undefined","1","right","0","0","0","0","0","0","0","0","0","NA","0","0","0","0","0","0","Sun Oct 25 12:34:58 2020","The main experiment item","yes","NA","SternbergTask.osexp","C:/Users/chelsea/OneDrive - Tarleton State University/psych 5316- adv/Sternberg test","no","mono","no","18","no","white","no","no","768","legacy","0","0","C:/Users/chelsea/OneDrive - Tarleton State University/psych 5316- adv/Sternberg test/subject-4 JK.csv","legacy","2 1","Lentiform Loewenfeld","3.3.3","0","n","0","right","left","NA","right","NA","1374","28550","NA","1374","NA","2","legacy","2","1024","2","48000","-16","experiment","4","even","5","37258","NA","35037","5559","NA","35043","NA","5567","NA","NA","39264","40639","36048","34120","39264","NA","Sternberg Task","1","1374","1","yes","1024"
"50","50","1213.5","1213.5","black","practice","legacy","legacy","legacy","0","uniform","0","undefined","0","right","1","1","1","0","0","1","1","0","0","NA","1","1","1","0","1","0","Sun Oct 25 12:34:58 2020","The main experiment item","yes","NA","SternbergTask.osexp","C:/Users/chelsea/OneDrive - Tarleton State University/psych 5316- adv/Sternberg test","no","mono","no","18","no","white","no","no","768","legacy","1","1","C:/Users/chelsea/OneDrive - Tarleton State University/psych 5316- adv/Sternberg test/subject-4 JK.csv","legacy","5","Lentiform Loewenfeld","3.3.3","0","n","0","left","left","NA","left","NA","1053","28550","NA","1053","NA","2","legacy","1","1024","2","48000","-16","experiment","4","even","3","44941","41201","42716","5559","NA","42730","NA","5567","NA","NA","46953","48007","43735","34120","46952","NA","Sternberg Task","1","2427","2","yes","1024"
"66.66666666666667","66.66666666666667","1236.3333333333333","1236.3333333333333","black","practice","legacy","legacy","legacy","0","uniform","1","undefined","1","right","2","2","2","0","0","2","2","0","0","NA","2","2","2","0","2","0","Sun Oct 25 12:34:58 2020","The main experiment item","yes","NA","SternbergTask.osexp","C:/Users/chelsea/OneDrive - Tarleton State University/psych 5316- adv/Sternberg test","no","mono","no","18","no","white","no","no","768","legacy","2","2","C:/Users/chelsea/OneDrive - Tarleton State University/psych 5316- adv/Sternberg test/subject-4 JK.csv","legacy","3 1 9 4","Lentiform Loewenfeld","3.3.3","0","n","0","right","left","NA","right","NA","1282","28550","NA","1282","NA","2","legacy","4","1024","2","48000","-16","experiment","4","even","6","51877","41201","49646","5559","NA","49653","48088","5567","NA","NA","53882","55165","50663","34120","53882","NA","Sternberg Task","2","3709","3","yes","1024"
"75","75","1244.75","1244.75","black","practice","legacy","legacy","legacy","0","uniform","1","undefined","1","left","3","3","3","0","0","3","3","0","0","NA","3","3","3","0","3","0","Sun Oct 25 12:34:58 2020","The main experiment item","yes","NA","SternbergTask.osexp","C:/Users/chelsea/OneDrive - Tarleton State University/psych 5316- adv/Sternberg test","no","mono","no","18","no","white","no","no","768","legacy","3","3","C:/Users/chelsea/OneDrive - Tarleton State University/psych 5316- adv/Sternberg test/subject-4 JK.csv","legacy","2 9 4","Lentiform Loewenfeld","3.3.3","3","y","0","left","left","NA","left","NA","1270","28550","NA","1270","NA","2","legacy","3","1024","2","48000","-16","experiment","4","even","4","58900","55222","56669","5559","NA","56680","48088","5567","NA","NA","60915","62191","57690","34120","60915","NA","Sternberg Task","3","4979","4","yes","1024"
"80","80","1155.8","1155.8","black","practice","legacy","legacy","legacy","0","uniform","1","undefined","1","right","4","4","4","0","0","4","4","0","0","NA","4","4","4","0","4","0","Sun Oct 25 12:34:58 2020","The main experiment item","yes","NA","SternbergTask.osexp","C:/Users/chelsea/OneDrive - Tarleton State University/psych 5316- adv/Sternberg test","no","mono","no","18","no","white","no","no","768","legacy","4","4","C:/Users/chelsea/OneDrive - Tarleton State University/psych 5316- adv/Sternberg test/subject-4 JK.csv","legacy","4 1 5","Lentiform Loewenfeld","3.3.3","0","n","0","right","left","NA","right","NA","800","28550","NA","800","NA","2","legacy","3","1024","2","48000","-16","experiment","4","even","2","65962","62269","63724","5559","NA","63735","48088","5567","NA","NA","67968","68769","64747","34120","67967","NA","Sternberg Task","4","5779","5","yes","1024"
"83.33333333333333","83.33333333333333","1162.5","1162.5","black","practice","legacy","legacy","legacy","0","uniform","1","undefined","1","left","5","5","5","0","0","5","5","0","0","NA","5","5","5","0","5","0","Sun Oct 25 12:34:58 2020","The main experiment item","yes","NA","SternbergTask.osexp","C:/Users/chelsea/OneDrive - Tarleton State University/psych 5316- adv/Sternberg test","no","mono","no","18","no","white","no","no","768","legacy","5","5","C:/Users/chelsea/OneDrive - Tarleton State University/psych 5316- adv/Sternberg test/subject-4 JK.csv","legacy","1 7 9 8 5","Lentiform Loewenfeld","3.3.3","4","y","0","left","left","NA","left","NA","1196","28550","NA","1196","NA","2","legacy","5","1024","2","48000","-16","experiment","4","even","8","72451","68805","70220","5559","NA","70226","48088","5567","NA","NA","74455","75652","71237","34120","74455","NA","Sternberg Task","5","6975","6","yes","1024"
"85.71428571428571","85.71428571428571","1130.2857142857142","1130.2857142857142","black","practice","legacy","legacy","legacy","0","uniform","1","undefined","1","left","6","6","6","0","0","6","6","0","0","NA","6","6","6","0","6","0","Sun Oct 25 12:34:58 2020","The main experiment item","yes","NA","SternbergTask.osexp","C:/Users/chelsea/OneDrive - Tarleton State University/psych 5316- adv/Sternberg test","no","mono","no","18","no","white","no","no","768","legacy","6","6","C:/Users/chelsea/OneDrive - Tarleton State University/psych 5316- adv/Sternberg test/subject-4 JK.csv","legacy","4 8","Lentiform Loewenfeld","3.3.3","1","y","0","left","left","NA","left","NA","937","28550","NA","937","NA","2","legacy","2","1024","2","48000","-16","experiment","4","even","4","79344","75712","77127","5559","NA","77131","48088","5567","NA","NA","81349","82288","78140","34120","81349","NA","Sternberg Task","6","7912","7","yes","1024"
"75","75","1239.125","1239.125","black","practice","legacy","legacy","legacy","0","uniform","0","undefined","0","left","7","7","7","0","0","7","7","0","0","NA","7","7","7","0","7","0","Sun Oct 25 12:34:58 2020","The main experiment item","yes","NA","SternbergTask.osexp","C:/Users/chelsea/OneDrive - Tarleton State University/psych 5316- adv/Sternberg test","no","mono","no","18","no","white","no","no","768","legacy","7","7","C:/Users/chelsea/OneDrive - Tarleton State University/psych 5316- adv/Sternberg test/subject-4 JK.csv","legacy","6","Lentiform Loewenfeld","3.3.3","1","y","0","None","left","NA","None","NA","2001","28550","NA","2001","NA","2","legacy","1","1024","2","48000","-16","experiment","4","even","6","85991","82326","83766","5559","NA","83772","48088","5567","NA","NA","87996","89998","84784","34120","87996","NA","Sternberg Task","6","9913","8","yes","1024"
"66.66666666666667","66.66666666666667","1323.6666666666667","1323.6666666666667","black","practice","legacy","legacy","legacy","0","uniform","0","undefined","0","right","8","8","8","0","0","8","8","0","0","NA","8","8","8","0","8","0","Sun Oct 25 12:34:58 2020","The main experiment item","yes","NA","SternbergTask.osexp","C:/Users/chelsea/OneDrive - Tarleton State University/psych 5316- adv/Sternberg test","no","mono","no","18","no","white","no","no","768","legacy","8","8","C:/Users/chelsea/OneDrive - Tarleton State University/psych 5316- adv/Sternberg test/subject-4 JK.csv","legacy","9 6 7 4 5","Lentiform Loewenfeld","3.3.3","0","n","0","None","left","NA","None","NA","2000","28550","NA","2000","NA","2","legacy","5","1024","2","48000","-16","experiment","4","even","3","93729","82326","91515","5559","NA","91520","90067","5567","NA","NA","95733","97734","92525","34120","95733","NA","Sternberg Task","6","11913","9","yes","1024"
"60","60","1391.3","1391.3","black","practice","legacy","legacy","legacy","0","uniform","0","undefined","0","left","9","9","9","0","0","9","9","0","0","NA","9","9","9","0","9","0","Sun Oct 25 12:34:58 2020","The main experiment item","yes","NA","SternbergTask.osexp","C:/Users/chelsea/OneDrive - Tarleton State University/psych 5316- adv/Sternberg test","no","mono","no","18","no","white","no","no","768","legacy","9","9","C:/Users/chelsea/OneDrive - Tarleton State University/psych 5316- adv/Sternberg test/subject-4 JK.csv","legacy","1 5 2 9","Lentiform Loewenfeld","3.3.3","2","y","0","None","left","NA","None","NA","2000","28550","NA","2000","NA","2","legacy","4","1024","2","48000","-16","experiment","4","even","5","101435","82326","99214","5559","NA","99218","97806","5567","NA","NA","103440","105442","100230","34120","103439","NA","Sternberg Task","6","13913","10","yes","1024"
"54.54545454545455","54.54545454545455","1446.6363636363637","1446.6363636363637","black","practice","legacy","legacy","legacy","0","uniform","0","undefined","0","left","10","10","10","0","0","10","10","0","0","NA","10","10","10","0","10","0","Sun Oct 25 12:34:58 2020","The main experiment item","yes","NA","SternbergTask.osexp","C:/Users/chelsea/OneDrive - Tarleton State University/psych 5316- adv/Sternberg test","no","mono","no","18","no","white","no","no","768","legacy","10","10","C:/Users/chelsea/OneDrive - Tarleton State University/psych 5316- adv/Sternberg test/subject-4 JK.csv","legacy","4 3 1 7 9 8","Lentiform Loewenfeld","3.3.3","1","y","0","None","left","NA","None","NA","2000","28550","NA","2000","NA","2","legacy","6","1024","2","48000","-16","experiment","4","even","4","109132","82326","106916","5559","NA","106921","105515","5567","NA","NA","111137","113139","107928","34120","111137","NA","Sternberg Task","6","15913","11","yes","1024"
"58.333333333333336","58.333333333333336","1386.4166666666667","1386.4166666666667","black","practice","legacy","legacy","legacy","0","uniform","1","undefined","1","right","11","11","11","0","0","11","11","0","0","NA","11","11","11","0","11","0","Sun Oct 25 12:34:58 2020","The main experiment item","yes","NA","SternbergTask.osexp","C:/Users/chelsea/OneDrive - Tarleton State University/psych 5316- adv/Sternberg test","no","mono","no","18","no","white","no","no","768","legacy","11","11","C:/Users/chelsea/OneDrive - Tarleton State University/psych 5316- adv/Sternberg test/subject-4 JK.csv","legacy","5 7 8 4 1 2","Lentiform Loewenfeld","3.3.3","0","n","0","right","left","NA","right","NA","724","28550","NA","724","NA","2","legacy","6","1024","2","48000","-16","experiment","4","even","6","116836","82326","114607","5559","NA","114612","113211","5567","NA","NA","118845","119571","115621","34120","118844","NA","Sternberg Task","7","16637","12","yes","1024"
"53.84615384615385","53.84615384615385","1374.6153846153845","1374.6153846153845","black","experiment","legacy","legacy","legacy","0","uniform","0","undefined","0","right","12","12","12","0","0","12","12","0","0","NA","12","12","12","0","12","0","Sun Oct 25 12:34:58 2020","The main experiment item","yes","NA","SternbergTask.osexp","C:/Users/chelsea/OneDrive - Tarleton State University/psych 5316- adv/Sternberg test","no","mono","no","18","no","white","no","no","768","legacy","0","11","C:/Users/chelsea/OneDrive - Tarleton State University/psych 5316- adv/Sternberg test/subject-4 JK.csv","legacy","7 8 6 1","Lentiform Loewenfeld","3.3.3","0","n","0","left","left","left","left","NA","1233","28550","31690","1233","NA","2","legacy","4","1024","2","48000","-16","experiment","4","even","3","155368","119641","153150","5559","152537","153159","113211","5567","120843","NA","157372","158607","154164","34120","157372","NA","Sternberg Task","7","17870","13","yes","1024"
"57.142857142857146","57.142857142857146","1339.857142857143","1339.857142857143","black","experiment","legacy","legacy","legacy","0","uniform","1","undefined","1","right","13","13","13","0","0","13","13","0","0","NA","13","13","13","0","13","0","Sun Oct 25 12:34:58 2020","The main experiment item","yes","NA","SternbergTask.osexp","C:/Users/chelsea/OneDrive - Tarleton State University/psych 5316- adv/Sternberg test","no","mono","no","18","no","white","no","no","768","legacy","1","11","C:/Users/chelsea/OneDrive - Tarleton State University/psych 5316- adv/Sternberg test/subject-4 JK.csv","legacy","5 7 3","Lentiform Loewenfeld","3.3.3","0","n","0","right","left","left","right","NA","888","28550","31690","888","NA","2","legacy","3","1024","2","48000","-16","experiment","4","even","9","162453","119641","160236","5559","152537","160244","158721","5567","120843","NA","164459","165349","161249","34120","164459","NA","Sternberg Task","8","18758","14","yes","1024"
"60","60","1293.4666666666667","1293.4666666666667","black","experiment","legacy","legacy","legacy","0","uniform","1","undefined","1","left","14","14","14","0","0","14","14","0","0","NA","14","14","14","0","14","0","Sun Oct 25 12:34:58 2020","The main experiment item","yes","NA","SternbergTask.osexp","C:/Users/chelsea/OneDrive - Tarleton State University/psych 5316- adv/Sternberg test","no","mono","no","18","no","white","no","no","768","legacy","2","11","C:/Users/chelsea/OneDrive - Tarleton State University/psych 5316- adv/Sternberg test/subject-4 JK.csv","legacy","9 5 3 8 4","Lentiform Loewenfeld","3.3.3","1","y","0","left","left","left","left","NA","644","28550","31690","644","NA","2","legacy","5","1024","2","48000","-16","experiment","4","even","9","169098","165390","166879","5559","152537","166885","158721","5567","120843","NA","171103","171748","167895","34120","171103","NA","Sternberg Task","9","19402","15","yes","1024"
"56.25","56.25","1259.5625","1259.5625","black","experiment","legacy","legacy","legacy","0","uniform","0","undefined","0","left","15","15","15","0","0","15","15","0","0","NA","15","15","15","0","15","0","Sun Oct 25 12:34:58 2020","The main experiment item","yes","NA","SternbergTask.osexp","C:/Users/chelsea/OneDrive - Tarleton State University/psych 5316- adv/Sternberg test","no","mono","no","18","no","white","no","no","768","legacy","3","11","C:/Users/chelsea/OneDrive - Tarleton State University/psych 5316- adv/Sternberg test/subject-4 JK.csv","legacy","8 5 3 7 4 6","Lentiform Loewenfeld","3.3.3","6","y","0","right","left","left","right","NA","751","28550","31690","751","NA","2","legacy","6","1024","2","48000","-16","experiment","4","even","6","175446","171818","173231","5559","152537","173235","158721","5567","120843","NA","177451","178204","174240","34120","177451","NA","Sternberg Task","9","20153","16","yes","1024"
"52.94117647058823","52.94117647058823","1303.1176470588234","1303.1176470588234","black","experiment","legacy","legacy","legacy","0","uniform","0","undefined","0","left","16","16","16","0","0","16","16","0","0","NA","16","16","16","0","16","0","Sun Oct 25 12:34:58 2020","The main experiment item","yes","NA","SternbergTask.osexp","C:/Users/chelsea/OneDrive - Tarleton State University/psych 5316- adv/Sternberg test","no","mono","no","18","no","white","no","no","768","legacy","4","11","C:/Users/chelsea/OneDrive - Tarleton State University/psych 5316- adv/Sternberg test/subject-4 JK.csv","legacy","6 9 7 4 5 1","Lentiform Loewenfeld","3.3.3","2","y","0","None","left","left","None","NA","2000","28550","31690","2000","NA","2","legacy","6","1024","2","48000","-16","experiment","4","even","9","181927","171818","179711","5559","152537","179716","178271","5567","120843","NA","183932","185933","180721","34120","183931","NA","Sternberg Task","9","22153","17","yes","1024"
"55.55555555555556","55.55555555555556","1291.111111111111","1291.111111111111","black","experiment","legacy","legacy","legacy","0","uniform","1","undefined","1","left","17","17","17","0","0","17","17","0","0","NA","17","17","17","0","17","0","Sun Oct 25 12:34:58 2020","The main experiment item","yes","NA","SternbergTask.osexp","C:/Users/chelsea/OneDrive - Tarleton State University/psych 5316- adv/Sternberg test","no","mono","no","18","no","white","no","no","768","legacy","5","11","C:/Users/chelsea/OneDrive - Tarleton State University/psych 5316- adv/Sternberg test/subject-4 JK.csv","legacy","9 3 8 2 1 4","Lentiform Loewenfeld","3.3.3","3","y","0","left","left","left","left","NA","1087","28550","31690","1087","NA","2","legacy","6","1024","2","48000","-16","experiment","4","even","8","189630","171818","187406","5559","152537","187411","186011","5567","120843","NA","191634","192722","188421","34120","191634","NA","Sternberg Task","10","23240","18","yes","1024"
"57.89473684210526","57.89473684210526","1314","1314","black","experiment","legacy","legacy","legacy","0","uniform","1","undefined","1","left","18","18","18","0","0","18","18","0","0","NA","18","18","18","0","18","0","Sun Oct 25 12:34:58 2020","The main experiment item","yes","NA","SternbergTask.osexp","C:/Users/chelsea/OneDrive - Tarleton State University/psych 5316- adv/Sternberg test","no","mono","no","18","no","white","no","no","768","legacy","6","11","C:/Users/chelsea/OneDrive - Tarleton State University/psych 5316- adv/Sternberg test/subject-4 JK.csv","legacy","7 8 4 6 9 5","Lentiform Loewenfeld","3.3.3","4","y","0","left","left","left","left","NA","1726","28550","31690","1726","NA","2","legacy","6","1024","2","48000","-16","experiment","4","even","6","196429","192793","194211","5559","152537","194216","186011","5567","120843","NA","198434","200163","195223","34120","198434","NA","Sternberg Task","11","24966","19","yes","1024"
"55","55","1314.75","1314.75","black","experiment","legacy","legacy","legacy","0","uniform","0","undefined","0","right","19","19","19","0","0","19","19","0","0","NA","19","19","19","0","19","0","Sun Oct 25 12:34:58 2020","The main experiment item","yes","NA","SternbergTask.osexp","C:/Users/chelsea/OneDrive - Tarleton State University/psych 5316- adv/Sternberg test","no","mono","no","18","no","white","no","no","768","legacy","7","11","C:/Users/chelsea/OneDrive - Tarleton State University/psych 5316- adv/Sternberg test/subject-4 JK.csv","legacy","7 1 8 4 9 3","Lentiform Loewenfeld","3.3.3","0","n","0","left","left","left","left","NA","1329","28550","31690","1329","NA","2","legacy","6","1024","2","48000","-16","experiment","4","even","6","203854","200245","201623","5559","152537","201629","186011","5567","120843","NA","205861","207192","202640","34120","205860","NA","Sternberg Task","11","26295","20","yes","1024"
"57.142857142857146","57.142857142857146","1287.047619047619","1287.047619047619","black","experiment","legacy","legacy","legacy","0","uniform","1","undefined","1","left","20","20","20","0","0","20","20","0","0","NA","20","20","20","0","20","0","Sun Oct 25 12:34:58 2020","The main experiment item","yes","NA","SternbergTask.osexp","C:/Users/chelsea/OneDrive - Tarleton State University/psych 5316- adv/Sternberg test","no","mono","no","18","no","white","no","no","768","legacy","8","11","C:/Users/chelsea/OneDrive - Tarleton State University/psych 5316- adv/Sternberg test/subject-4 JK.csv","legacy","4 6 5 8","Lentiform Loewenfeld","3.3.3","1","y","0","left","left","left","left","NA","733","28550","31690","733","NA","2","legacy","4","1024","2","48000","-16","experiment","4","even","4","210885","200245","208652","5559","152537","208675","207266","5567","120843","NA","212889","213623","209681","34120","212889","NA","Sternberg Task","12","27028","21","yes","1024"
"59.09090909090909","59.09090909090909","1269.590909090909","1269.590909090909","black","experiment","legacy","legacy","legacy","0","uniform","1","undefined","1","right","21","21","21","0","0","21","21","0","0","NA","21","21","21","0","21","0","Sun Oct 25 12:34:58 2020","The main experiment item","yes","NA","SternbergTask.osexp","C:/Users/chelsea/OneDrive - Tarleton State University/psych 5316- adv/Sternberg test","no","mono","no","18","no","white","no","no","768","legacy","9","11","C:/Users/chelsea/OneDrive - Tarleton State University/psych 5316- adv/Sternberg test/subject-4 JK.csv","legacy","6 9 4 5 2","Lentiform Loewenfeld","3.3.3","0","n","0","right","left","left","right","NA","903","28550","31690","903","NA","2","legacy","5","1024","2","48000","-16","experiment","4","even","1","217313","213687","215088","5559","152537","215093","207266","5567","120843","NA","219317","220222","216106","34120","219317","NA","Sternberg Task","13","27931","22","yes","1024"
"60.869565217391305","60.869565217391305","1250.9565217391305","1250.9565217391305","black","experiment","legacy","legacy","legacy","0","uniform","1","undefined","1","right","22","22","22","0","0","22","22","0","0","NA","22","22","22","0","22","0","Sun Oct 25 12:34:58 2020","The main experiment item","yes","NA","SternbergTask.osexp","C:/Users/chelsea/OneDrive - Tarleton State University/psych 5316- adv/Sternberg test","no","mono","no","18","no","white","no","no","768","legacy","10","11","C:/Users/chelsea/OneDrive - Tarleton State University/psych 5316- adv/Sternberg test/subject-4 JK.csv","legacy","6 8","Lentiform Loewenfeld","3.3.3","0","n","0","right","left","left","right","NA","841","28550","31690","841","NA","2","legacy","2","1024","2","48000","-16","experiment","4","even","9","223908","220261","221684","5559","152537","221689","207266","5567","120843","NA","225916","226758","222704","34120","225916","NA","Sternberg Task","14","28772","23","yes","1024"
"58.333333333333336","58.333333333333336","1251.3333333333333","1251.3333333333333","black","experiment","legacy","legacy","legacy","0","uniform","0","undefined","0","left","23","23","23","0","0","23","23","0","0","NA","23","23","23","0","23","0","Sun Oct 25 12:34:58 2020","The main experiment item","yes","NA","SternbergTask.osexp","C:/Users/chelsea/OneDrive - Tarleton State University/psych 5316- adv/Sternberg test","no","mono","no","18","no","white","no","no","768","legacy","11","11","C:/Users/chelsea/OneDrive - Tarleton State University/psych 5316- adv/Sternberg test/subject-4 JK.csv","legacy","3 5 9 6 2 4","Lentiform Loewenfeld","3.3.3","1","y","0","right","left","left","right","NA","1260","28550","31690","1260","NA","2","legacy","6","1024","2","48000","-16","experiment","4","even","3","230425","226792","228206","5559","152537","228214","207266","5567","120843","NA","232431","233693","229221","34120","232431","NA","Sternberg Task","14","30032","24","yes","1024"
"60","60","1274.32","1274.32","black","experiment","legacy","legacy","legacy","0","uniform","1","undefined","1","right","24","24","24","0","0","24","24","0","0","NA","24","24","24","0","24","0","Sun Oct 25 12:34:58 2020","The main experiment item","yes","NA","SternbergTask.osexp","C:/Users/chelsea/OneDrive - Tarleton State University/psych 5316- adv/Sternberg test","no","mono","no","18","no","white","no","no","768","legacy","12","11","C:/Users/chelsea/OneDrive - Tarleton State University/psych 5316- adv/Sternberg test/subject-4 JK.csv","legacy","6 7 5 9","Lentiform Loewenfeld","3.3.3","0","n","0","right","left","left","right","NA","1826","28550","31690","1826","NA","2","legacy","4","1024","2","48000","-16","experiment","4","even","2","237349","226792","235131","5559","152537","235137","233750","5567","120843","NA","239353","241181","236145","34120","239352","NA","Sternberg Task","15","31858","25","yes","1024"
"61.53846153846154","61.53846153846154","1277.7307692307693","1277.7307692307693","black","experiment","legacy","legacy","legacy","0","uniform","1","undefined","1","right","25","25","25","0","0","25","25","0","0","NA","25","25","25","0","25","0","Sun Oct 25 12:34:58 2020","The main experiment item","yes","NA","SternbergTask.osexp","C:/Users/chelsea/OneDrive - Tarleton State University/psych 5316- adv/Sternberg test","no","mono","no","18","no","white","no","no","768","legacy","13","11","C:/Users/chelsea/OneDrive - Tarleton State University/psych 5316- adv/Sternberg test/subject-4 JK.csv","legacy","1 4 9 2 5","Lentiform Loewenfeld","3.3.3","0","n","0","right","left","left","right","NA","1363","28550","31690","1363","NA","2","legacy","5","1024","2","48000","-16","experiment","4","even","7","244835","241234","242615","5559","152537","242619","233750","5567","120843","NA","246839","248204","243631","34120","246839","NA","Sternberg Task","16","33221","26","yes","1024"
"59.25925925925926","59.25925925925926","1275.5925925925926","1275.5925925925926","black","experiment","legacy","legacy","legacy","0","uniform","0","undefined","0","left","26","26","26","0","0","26","26","0","0","NA","26","26","26","0","26","0","Sun Oct 25 12:34:58 2020","The main experiment item","yes","NA","SternbergTask.osexp","C:/Users/chelsea/OneDrive - Tarleton State University/psych 5316- adv/Sternberg test","no","mono","no","18","no","white","no","no","768","legacy","14","11","C:/Users/chelsea/OneDrive - Tarleton State University/psych 5316- adv/Sternberg test/subject-4 JK.csv","legacy","2 4 8 5 1 3","Lentiform Loewenfeld","3.3.3","1","y","0","right","left","left","right","NA","1220","28550","31690","1220","NA","2","legacy","6","1024","2","48000","-16","experiment","4","even","2","251887","248282","249666","5559","152537","249672","233750","5567","120843","NA","253891","255114","250683","34120","253891","NA","Sternberg Task","16","34441","27","yes","1024"
"60.714285714285715","60.714285714285715","1254.892857142857","1254.892857142857","black","experiment","legacy","legacy","legacy","0","uniform","1","undefined","1","left","27","27","27","0","0","27","27","0","0","NA","27","27","27","0","27","0","Sun Oct 25 12:34:58 2020","The main experiment item","yes","NA","SternbergTask.osexp","C:/Users/chelsea/OneDrive - Tarleton State University/psych 5316- adv/Sternberg test","no","mono","no","18","no","white","no","no","768","legacy","15","11","C:/Users/chelsea/OneDrive - Tarleton State University/psych 5316- adv/Sternberg test/subject-4 JK.csv","legacy","1 4 9 3 2 5","Lentiform Loewenfeld","3.3.3","3","y","0","left","left","left","left","NA","696","28550","31690","696","NA","2","legacy","6","1024","2","48000","-16","experiment","4","even","9","258787","248282","256566","5559","152537","256571","255177","5567","120843","NA","260791","261495","257583","34120","260791","NA","Sternberg Task","17","35137","28","yes","1024"
"62.06896551724138","62.06896551724138","1243.2068965517242","1243.2068965517242","black","experiment","legacy","legacy","legacy","0","uniform","1","undefined","1","left","28","28","28","0","0","28","28","0","0","NA","28","28","28","0","28","0","Sun Oct 25 12:34:58 2020","The main experiment item","yes","NA","SternbergTask.osexp","C:/Users/chelsea/OneDrive - Tarleton State University/psych 5316- adv/Sternberg test","no","mono","no","18","no","white","no","no","768","legacy","16","11","C:/Users/chelsea/OneDrive - Tarleton State University/psych 5316- adv/Sternberg test/subject-4 JK.csv","legacy","7 6","Lentiform Loewenfeld","3.3.3","2","y","0","left","left","left","left","NA","916","28550","31690","916","NA","2","legacy","2","1024","2","48000","-16","experiment","4","even","6","265192","261566","262969","5559","152537","262974","255177","5567","120843","NA","267200","268118","263987","34120","267199","NA","Sternberg Task","18","36053","29","yes","1024"
"63.333333333333336","63.333333333333336","1225.5666666666666","1225.5666666666666","black","experiment","legacy","legacy","legacy","0","uniform","1","undefined","1","left","29","29","29","0","0","29","29","0","0","NA","29","29","29","0","29","0","Sun Oct 25 12:34:58 2020","The main experiment item","yes","NA","SternbergTask.osexp","C:/Users/chelsea/OneDrive - Tarleton State University/psych 5316- adv/Sternberg test","no","mono","no","18","no","white","no","no","768","legacy","17","11","C:/Users/chelsea/OneDrive - Tarleton State University/psych 5316- adv/Sternberg test/subject-4 JK.csv","legacy","6 2","Lentiform Loewenfeld","3.3.3","1","y","0","left","left","left","left","NA","714","28550","31690","714","NA","2","legacy","2","1024","2","48000","-16","experiment","4","even","6","271820","268197","269592","5559","152537","269602","255177","5567","120843","NA","273824","274540","270616","34120","273824","NA","Sternberg Task","19","36767","30","yes","1024"
"64.51612903225806","64.51612903225806","1215.9032258064517","1215.9032258064517","black","experiment","legacy","legacy","legacy","0","uniform","1","undefined","1","right","30","30","30","0","0","30","30","0","0","NA","30","30","30","0","30","0","Sun Oct 25 12:34:58 2020","The main experiment item","yes","NA","SternbergTask.osexp","C:/Users/chelsea/OneDrive - Tarleton State University/psych 5316- adv/Sternberg test","no","mono","no","18","no","white","no","no","768","legacy","18","11","C:/Users/chelsea/OneDrive - Tarleton State University/psych 5316- adv/Sternberg test/subject-4 JK.csv","legacy","8 9","Lentiform Loewenfeld","3.3.3","0","n","0","right","left","left","right","NA","926","28550","31690","926","NA","2","legacy","2","1024","2","48000","-16","experiment","4","even","5","278363","274605","276145","5559","152537","276149","255177","5567","120843","NA","280367","281296","277157","34120","280367","NA","Sternberg Task","20","37693","31","yes","1024"
"65.625","65.625","1223.25","1223.25","black","experiment","legacy","legacy","legacy","0","uniform","1","undefined","1","right","31","31","31","0","0","31","31","0","0","NA","31","31","31","0","31","0","Sun Oct 25 12:34:58 2020","The main experiment item","yes","NA","SternbergTask.osexp","C:/Users/chelsea/OneDrive - Tarleton State University/psych 5316- adv/Sternberg test","no","mono","no","18","no","white","no","no","768","legacy","19","11","C:/Users/chelsea/OneDrive - Tarleton State University/psych 5316- adv/Sternberg test/subject-4 JK.csv","legacy","7 6 4 8 1 2","Lentiform Loewenfeld","3.3.3","0","n","0","right","left","left","right","NA","1451","28550","31690","1451","NA","2","legacy","6","1024","2","48000","-16","experiment","4","even","9","284948","281328","282729","5559","152537","282733","255177","5567","120843","NA","286952","288406","283743","34120","286951","NA","Sternberg Task","21","39144","32","yes","1024"
"66.66666666666667","66.66666666666667","1212.3030303030303","1212.3030303030303","black","experiment","legacy","legacy","legacy","0","uniform","1","undefined","1","right","32","32","32","0","0","32","32","0","0","NA","32","32","32","0","32","0","Sun Oct 25 12:34:58 2020","The main experiment item","yes","NA","SternbergTask.osexp","C:/Users/chelsea/OneDrive - Tarleton State University/psych 5316- adv/Sternberg test","no","mono","no","18","no","white","no","no","768","legacy","20","11","C:/Users/chelsea/OneDrive - Tarleton State University/psych 5316- adv/Sternberg test/subject-4 JK.csv","legacy","4 2 6 9","Lentiform Loewenfeld","3.3.3","0","n","0","right","left","left","right","NA","862","28550","31690","862","NA","2","legacy","4","1024","2","48000","-16","experiment","4","even","7","292082","288458","289857","5559","152537","289865","255177","5567","120843","NA","294086","294951","290877","34120","294086","NA","Sternberg Task","22","40006","33","yes","1024"
"67.6470588235294","67.6470588235294","1208.6470588235295","1208.6470588235295","black","experiment","legacy","legacy","legacy","0","uniform","1","undefined","1","left","33","33","33","0","0","33","33","0","0","NA","33","33","33","0","33","0","Sun Oct 25 12:34:58 2020","The main experiment item","yes","NA","SternbergTask.osexp","C:/Users/chelsea/OneDrive - Tarleton State University/psych 5316- adv/Sternberg test","no","mono","no","18","no","white","no","no","768","legacy","21","11","C:/Users/chelsea/OneDrive - Tarleton State University/psych 5316- adv/Sternberg test/subject-4 JK.csv","legacy","6 5","Lentiform Loewenfeld","3.3.3","2","y","0","left","left","left","left","NA","1088","28550","31690","1088","NA","2","legacy","2","1024","2","48000","-16","experiment","4","even","5","298642","295027","296427","5559","152537","296434","255177","5567","120843","NA","300651","301741","297438","34120","300650","NA","Sternberg Task","23","41094","34","yes","1024"
"68.57142857142857","68.57142857142857","1194.2857142857142","1194.2857142857142","black","experiment","legacy","legacy","legacy","0","uniform","1","undefined","1","right","34","34","34","0","0","34","34","0","0","NA","34","34","34","0","34","0","Sun Oct 25 12:34:58 2020","The main experiment item","yes","NA","SternbergTask.osexp","C:/Users/chelsea/OneDrive - Tarleton State University/psych 5316- adv/Sternberg test","no","mono","no","18","no","white","no","no","768","legacy","22","11","C:/Users/chelsea/OneDrive - Tarleton State University/psych 5316- adv/Sternberg test/subject-4 JK.csv","legacy","9 8 2 7 4","Lentiform Loewenfeld","3.3.3","0","n","0","right","left","left","right","NA","706","28550","31690","706","NA","2","legacy","5","1024","2","48000","-16","experiment","4","even","5","305406","301805","303185","5559","152537","303193","255177","5567","120843","NA","307411","308119","304202","34120","307411","NA","Sternberg Task","24","41800","35","yes","1024"
"69.44444444444444","69.44444444444444","1200.5555555555557","1200.5555555555557","black","experiment","legacy","legacy","legacy","0","uniform","1","undefined","1","right","35","35","35","0","0","35","35","0","0","NA","35","35","35","0","35","0","Sun Oct 25 12:34:58 2020","The main experiment item","yes","NA","SternbergTask.osexp","C:/Users/chelsea/OneDrive - Tarleton State University/psych 5316- adv/Sternberg test","no","mono","no","18","no","white","no","no","768","legacy","23","11","C:/Users/chelsea/OneDrive - Tarleton State University/psych 5316- adv/Sternberg test/subject-4 JK.csv","legacy","7 9","Lentiform Loewenfeld","3.3.3","0","n","0","right","left","left","right","NA","1420","28550","31690","1420","NA","2","legacy","2","1024","2","48000","-16","experiment","4","even","1","311859","308193","309640","5559","152537","309645","255177","5567","120843","NA","313864","315286","310655","34120","313864","NA","Sternberg Task","25","43220","36","yes","1024"
"70.27027027027027","70.27027027027027","1214.6756756756756","1214.6756756756756","black","experiment","legacy","legacy","legacy","0","uniform","1","undefined","1","right","36","36","36","0","0","36","36","0","0","NA","36","36","36","0","36","0","Sun Oct 25 12:34:58 2020","The main experiment item","yes","NA","SternbergTask.osexp","C:/Users/chelsea/OneDrive - Tarleton State University/psych 5316- adv/Sternberg test","no","mono","no","18","no","white","no","no","768","legacy","24","11","C:/Users/chelsea/OneDrive - Tarleton State University/psych 5316- adv/Sternberg test/subject-4 JK.csv","legacy","1 7 8 3 9","Lentiform Loewenfeld","3.3.3","0","n","0","right","left","left","right","NA","1723","28550","31690","1723","NA","2","legacy","5","1024","2","48000","-16","experiment","4","even","2","318982","315361","316763","5559","152537","316768","255177","5567","120843","NA","320987","322713","317777","34120","320987","NA","Sternberg Task","26","44943","37","yes","1024"
"71.05263157894737","71.05263157894737","1210.421052631579","1210.421052631579","black","experiment","legacy","legacy","legacy","0","uniform","1","undefined","1","right","37","37","37","0","0","37","37","0","0","NA","37","37","37","0","37","0","Sun Oct 25 12:34:58 2020","The main experiment item","yes","NA","SternbergTask.osexp","C:/Users/chelsea/OneDrive - Tarleton State University/psych 5316- adv/Sternberg test","no","mono","no","18","no","white","no","no","768","legacy","25","11","C:/Users/chelsea/OneDrive - Tarleton State University/psych 5316- adv/Sternberg test/subject-4 JK.csv","legacy","8 4 3 5","Lentiform Loewenfeld","3.3.3","0","n","0","right","left","left","right","NA","1053","28550","31690","1053","NA","2","legacy","4","1024","2","48000","-16","experiment","4","even","6","326379","322778","324157","5559","152537","324165","255177","5567","120843","NA","328385","329441","325175","34120","328385","NA","Sternberg Task","27","45996","38","yes","1024"
"69.23076923076923","69.23076923076923","1230.6666666666667","1230.6666666666667","black","experiment","legacy","legacy","legacy","0","uniform","0","undefined","0","left","38","38","38","0","0","38","38","0","0","NA","38","38","38","0","38","0","Sun Oct 25 12:34:58 2020","The main experiment item","yes","NA","SternbergTask.osexp","C:/Users/chelsea/OneDrive - Tarleton State University/psych 5316- adv/Sternberg test","no","mono","no","18","no","white","no","no","768","legacy","26","11","C:/Users/chelsea/OneDrive - Tarleton State University/psych 5316- adv/Sternberg test/subject-4 JK.csv","legacy","7 4 2 6 3 5","Lentiform Loewenfeld","3.3.3","6","y","0","None","left","left","None","NA","2000","28550","31690","2000","NA","2","legacy","6","1024","2","48000","-16","experiment","4","even","5","333138","329526","330921","5559","152537","330928","255177","5567","120843","NA","335143","337145","331933","34120","335142","NA","Sternberg Task","27","47996","39","yes","1024"
"67.5","67.5","1249.9","1249.9","black","experiment","legacy","legacy","legacy","0","uniform","0","undefined","0","left","39","39","39","0","0","39","39","0","0","NA","39","39","39","0","39","0","Sun Oct 25 12:34:58 2020","The main experiment item","yes","NA","SternbergTask.osexp","C:/Users/chelsea/OneDrive - Tarleton State University/psych 5316- adv/Sternberg test","no","mono","no","18","no","white","no","no","768","legacy","27","11","C:/Users/chelsea/OneDrive - Tarleton State University/psych 5316- adv/Sternberg test/subject-4 JK.csv","legacy","9 6 2 4 1","Lentiform Loewenfeld","3.3.3","4","y","0","None","left","left","None","NA","2000","28550","31690","2000","NA","2","legacy","5","1024","2","48000","-16","experiment","4","even","4","340801","329526","338577","5559","152537","338582","337180","5567","120843","NA","342806","344808","339595","34120","342806","NA","Sternberg Task","27","49996","40","yes","1024"
"65.85365853658537","65.85365853658537","1243.1951219512196","1243.1951219512196","black","experiment","legacy","legacy","legacy","0","uniform","0","undefined","0","left","40","40","40","0","0","40","40","0","0","NA","40","40","40","0","40","0","Sun Oct 25 12:34:58 2020","The main experiment item","yes","NA","SternbergTask.osexp","C:/Users/chelsea/OneDrive - Tarleton State University/psych 5316- adv/Sternberg test","no","mono","no","18","no","white","no","no","768","legacy","28","11","C:/Users/chelsea/OneDrive - Tarleton State University/psych 5316- adv/Sternberg test/subject-4 JK.csv","legacy","3 5 4 7","Lentiform Loewenfeld","3.3.3","1","y","0","right","left","left","right","NA","975","28550","31690","975","NA","2","legacy","4","1024","2","48000","-16","experiment","4","even","3","348572","329526","346337","5559","152537","346344","344880","5567","120843","NA","350584","351561","347357","34120","350584","NA","Sternberg Task","27","50971","41","yes","1024"
"64.28571428571429","64.28571428571429","1257.7142857142858","1257.7142857142858","black","experiment","legacy","legacy","legacy","0","uniform","0","undefined","0","right","41","41","41","0","0","41","41","0","0","NA","41","41","41","0","41","0","Sun Oct 25 12:34:58 2020","The main experiment item","yes","NA","SternbergTask.osexp","C:/Users/chelsea/OneDrive - Tarleton State University/psych 5316- adv/Sternberg test","no","mono","no","18","no","white","no","no","768","legacy","29","11","C:/Users/chelsea/OneDrive - Tarleton State University/psych 5316- adv/Sternberg test/subject-4 JK.csv","legacy","1 6 4 3 9 7","Lentiform Loewenfeld","3.3.3","0","n","0","left","left","left","left","NA","1853","28550","31690","1853","NA","2","legacy","6","1024","2","48000","-16","experiment","4","even","8","355230","329526","353008","5559","152537","353014","351631","5567","120843","NA","357236","359092","354025","34120","357236","NA","Sternberg Task","27","52824","42","yes","1024"
"65.11627906976744","65.11627906976744","1271.7209302325582","1271.7209302325582","black","experiment","legacy","legacy","legacy","0","uniform","1","undefined","1","right","42","42","42","0","0","42","42","0","0","NA","42","42","42","0","42","0","Sun Oct 25 12:34:58 2020","The main experiment item","yes","NA","SternbergTask.osexp","C:/Users/chelsea/OneDrive - Tarleton State University/psych 5316- adv/Sternberg test","no","mono","no","18","no","white","no","no","768","legacy","30","11","C:/Users/chelsea/OneDrive - Tarleton State University/psych 5316- adv/Sternberg test/subject-4 JK.csv","legacy","2 3 8 5 6 7","Lentiform Loewenfeld","3.3.3","0","n","0","right","left","left","right","NA","1860","28550","31690","1860","NA","2","legacy","6","1024","2","48000","-16","experiment","4","even","1","362760","329526","360540","5559","152537","360544","359159","5567","120843","NA","364765","366628","361556","34120","364764","NA","Sternberg Task","28","54684","43","yes","1024"
"65.9090909090909","65.9090909090909","1269.75","1269.75","black","experiment","legacy","legacy","legacy","0","uniform","1","undefined","1","right","43","43","43","0","0","43","43","0","0","NA","43","43","43","0","43","0","Sun Oct 25 12:34:58 2020","The main experiment item","yes","NA","SternbergTask.osexp","C:/Users/chelsea/OneDrive - Tarleton State University/psych 5316- adv/Sternberg test","no","mono","no","18","no","white","no","no","768","legacy","31","11","C:/Users/chelsea/OneDrive - Tarleton State University/psych 5316- adv/Sternberg test/subject-4 JK.csv","legacy","4 1","Lentiform Loewenfeld","3.3.3","0","n","0","right","left","left","right","NA","1185","28550","31690","1185","NA","2","legacy","2","1024","2","48000","-16","experiment","4","even","6","370291","366694","368077","5559","152537","368083","359159","5567","120843","NA","372295","373485","369087","34120","372295","NA","Sternberg Task","29","55869","44","yes","1024"
"64.44444444444444","64.44444444444444","1270.8","1270.8","black","experiment","legacy","legacy","legacy","0","uniform","0","undefined","0","left","44","44","44","0","0","44","44","0","0","NA","44","44","44","0","44","0","Sun Oct 25 12:34:58 2020","The main experiment item","yes","NA","SternbergTask.osexp","C:/Users/chelsea/OneDrive - Tarleton State University/psych 5316- adv/Sternberg test","no","mono","no","18","no","white","no","no","768","legacy","32","11","C:/Users/chelsea/OneDrive - Tarleton State University/psych 5316- adv/Sternberg test/subject-4 JK.csv","legacy","4 9 7 8 5 3","Lentiform Loewenfeld","3.3.3","4","y","0","right","left","left","right","NA","1317","28550","31690","1317","NA","2","legacy","6","1024","2","48000","-16","experiment","4","even","8","377171","373560","374942","5559","152537","374952","359159","5567","120843","NA","379175","380500","375964","34120","379175","NA","Sternberg Task","29","57186","45","yes","1024"
"63.04347826086956","63.04347826086956","1286.6521739130435","1286.6521739130435","black","experiment","legacy","legacy","legacy","0","uniform","0","undefined","0","right","45","45","45","0","0","45","45","0","0","NA","45","45","45","0","45","0","Sun Oct 25 12:34:58 2020","The main experiment item","yes","NA","SternbergTask.osexp","C:/Users/chelsea/OneDrive - Tarleton State University/psych 5316- adv/Sternberg test","no","mono","no","18","no","white","no","no","768","legacy","33","11","C:/Users/chelsea/OneDrive - Tarleton State University/psych 5316- adv/Sternberg test/subject-4 JK.csv","legacy","2 6 4 3 9","Lentiform Loewenfeld","3.3.3","0","n","0","None","left","left","None","NA","2000","28550","31690","2000","NA","2","legacy","5","1024","2","48000","-16","experiment","4","even","1","384168","373560","381948","5559","152537","381952","380568","5567","120843","NA","386172","388174","382963","34120","386172","NA","Sternberg Task","29","59186","46","yes","1024"
"61.702127659574465","61.702127659574465","1301.8297872340424","1301.8297872340424","black","experiment","legacy","legacy","legacy","0","uniform","0","undefined","0","left","46","46","46","0","0","46","46","0","0","NA","46","46","46","0","46","0","Sun Oct 25 12:34:58 2020","The main experiment item","yes","NA","SternbergTask.osexp","C:/Users/chelsea/OneDrive - Tarleton State University/psych 5316- adv/Sternberg test","no","mono","no","18","no","white","no","no","768","legacy","34","11","C:/Users/chelsea/OneDrive - Tarleton State University/psych 5316- adv/Sternberg test/subject-4 JK.csv","legacy","7 8 6 3 1","Lentiform Loewenfeld","3.3.3","5","y","0","None","left","left","None","NA","2000","28550","31690","2000","NA","2","legacy","5","1024","2","48000","-16","experiment","4","even","1","391837","373560","389611","5559","152537","389617","388211","5567","120843","NA","393842","395845","390627","34120","393841","NA","Sternberg Task","29","61186","47","yes","1024"
"62.5","62.5","1293.9791666666667","1293.9791666666667","black","experiment","legacy","legacy","legacy","0","uniform","1","undefined","1","right","47","47","47","0","0","47","47","0","0","NA","47","47","47","0","47","0","Sun Oct 25 12:34:58 2020","The main experiment item","yes","NA","SternbergTask.osexp","C:/Users/chelsea/OneDrive - Tarleton State University/psych 5316- adv/Sternberg test","no","mono","no","18","no","white","no","no","768","legacy","35","11","C:/Users/chelsea/OneDrive - Tarleton State University/psych 5316- adv/Sternberg test/subject-4 JK.csv","legacy","1 4 9 3","Lentiform Loewenfeld","3.3.3","0","n","0","right","left","left","right","NA","925","28550","31690","925","NA","2","legacy","4","1024","2","48000","-16","experiment","4","even","5","399590","373560","397372","5559","152537","397376","395907","5567","120843","NA","401595","402522","398381","34120","401595","NA","Sternberg Task","30","62111","48","yes","1024"
"61.224489795918366","61.224489795918366","1288.1836734693877","1288.1836734693877","black","experiment","legacy","legacy","legacy","0","uniform","0","undefined","0","left","48","48","48","0","0","48","48","0","0","NA","48","48","48","0","48","0","Sun Oct 25 12:34:58 2020","The main experiment item","yes","NA","SternbergTask.osexp","C:/Users/chelsea/OneDrive - Tarleton State University/psych 5316- adv/Sternberg test","no","mono","no","18","no","white","no","no","768","legacy","36","11","C:/Users/chelsea/OneDrive - Tarleton State University/psych 5316- adv/Sternberg test/subject-4 JK.csv","legacy","4 7 6 8 2 3","Lentiform Loewenfeld","3.3.3","6","y","0","right","left","left","right","NA","1010","28550","31690","1010","NA","2","legacy","6","1024","2","48000","-16","experiment","4","even","3","406186","402588","403969","5559","152537","403974","395907","5567","120843","NA","408193","409206","404980","34120","408193","NA","Sternberg Task","30","63121","49","yes","1024"
"62","62","1286.5","1286.5","black","experiment","legacy","legacy","legacy","0","uniform","1","undefined","1","right","49","49","49","0","0","49","49","0","0","NA","49","49","49","0","49","0","Sun Oct 25 12:34:58 2020","The main experiment item","yes","NA","SternbergTask.osexp","C:/Users/chelsea/OneDrive - Tarleton State University/psych 5316- adv/Sternberg test","no","mono","no","18","no","white","no","no","768","legacy","37","11","C:/Users/chelsea/OneDrive - Tarleton State University/psych 5316- adv/Sternberg test/subject-4 JK.csv","legacy","1 3 2 6 9","Lentiform Loewenfeld","3.3.3","0","n","0","right","left","left","right","NA","1204","28550","31690","1204","NA","2","legacy","5","1024","2","48000","-16","experiment","4","even","5","412896","402588","410682","5559","152537","410687","409279","5567","120843","NA","414902","416109","411692","34120","414902","NA","Sternberg Task","31","64325","50","yes","1024"
"62.745098039215684","62.745098039215684","1282.921568627451","1282.921568627451","black","experiment","legacy","legacy","legacy","0","uniform","1","undefined","1","left","50","50","50","0","0","50","50","0","0","NA","50","50","50","0","50","0","Sun Oct 25 12:34:58 2020","The main experiment item","yes","NA","SternbergTask.osexp","C:/Users/chelsea/OneDrive - Tarleton State University/psych 5316- adv/Sternberg test","no","mono","no","18","no","white","no","no","768","legacy","38","11","C:/Users/chelsea/OneDrive - Tarleton State University/psych 5316- adv/Sternberg test/subject-4 JK.csv","legacy","6 7 9 3 1 2","Lentiform Loewenfeld","3.3.3","1","y","0","left","left","left","left","NA","1104","28550","31690","1104","NA","2","legacy","6","1024","2","48000","-16","experiment","4","even","6","419789","416185","417571","5559","152537","417575","409279","5567","120843","NA","421794","422908","418585","34120","421794","NA","Sternberg Task","32","65429","51","yes","1024"
"63.46153846153846","63.46153846153846","1284.9615384615386","1284.9615384615386","black","experiment","legacy","legacy","legacy","0","uniform","1","undefined","1","right","51","51","51","0","0","51","51","0","0","NA","51","51","51","0","51","0","Sun Oct 25 12:34:58 2020","The main experiment item","yes","NA","SternbergTask.osexp","C:/Users/chelsea/OneDrive - Tarleton State University/psych 5316- adv/Sternberg test","no","mono","no","18","no","white","no","no","768","legacy","39","11","C:/Users/chelsea/OneDrive - Tarleton State University/psych 5316- adv/Sternberg test/subject-4 JK.csv","legacy","7 3 2 8","Lentiform Loewenfeld","3.3.3","0","n","0","right","left","left","right","NA","1389","28550","31690","1389","NA","2","legacy","4","1024","2","48000","-16","experiment","4","even","4","426596","422983","424379","5559","152537","424385","409279","5567","120843","NA","428603","429996","425392","34120","428603","NA","Sternberg Task","33","66818","52","yes","1024"
"64.15094339622641","64.15094339622641","1286.9245283018868","1286.9245283018868","black","experiment","legacy","legacy","legacy","0","uniform","1","undefined","1","left","52","52","52","0","0","52","52","0","0","NA","52","52","52","0","52","0","Sun Oct 25 12:34:58 2020","The main experiment item","yes","NA","SternbergTask.osexp","C:/Users/chelsea/OneDrive - Tarleton State University/psych 5316- adv/Sternberg test","no","mono","no","18","no","white","no","no","768","legacy","40","11","C:/Users/chelsea/OneDrive - Tarleton State University/psych 5316- adv/Sternberg test/subject-4 JK.csv","legacy","6 9 3 1","Lentiform Loewenfeld","3.3.3","4","y","0","left","left","left","left","NA","1389","28550","31690","1389","NA","2","legacy","4","1024","2","48000","-16","experiment","4","even","1","433670","430062","431445","5559","152537","431453","409279","5567","120843","NA","435675","437068","432464","34120","435675","NA","Sternberg Task","34","68207","53","yes","1024"
"64.81481481481481","64.81481481481481","1285.2222222222222","1285.2222222222222","black","experiment","legacy","legacy","legacy","0","uniform","1","undefined","1","right","53","53","53","0","0","53","53","0","0","NA","53","53","53","0","53","0","Sun Oct 25 12:34:58 2020","The main experiment item","yes","NA","SternbergTask.osexp","C:/Users/chelsea/OneDrive - Tarleton State University/psych 5316- adv/Sternberg test","no","mono","no","18","no","white","no","no","768","legacy","41","11","C:/Users/chelsea/OneDrive - Tarleton State University/psych 5316- adv/Sternberg test/subject-4 JK.csv","legacy","6 3 1 7 9 8","Lentiform Loewenfeld","3.3.3","0","n","0","right","left","left","right","NA","1195","28550","31690","1195","NA","2","legacy","6","1024","2","48000","-16","experiment","4","even","4","440720","437107","438503","5559","152537","438507","409279","5567","120843","NA","442724","443928","439516","34120","442724","NA","Sternberg Task","35","69402","54","yes","1024"
"65.45454545454545","65.45454545454545","1290.0181818181818","1290.0181818181818","black","experiment","legacy","legacy","legacy","0","uniform","1","undefined","1","right","54","54","54","0","0","54","54","0","0","NA","54","54","54","0","54","0","Sun Oct 25 12:34:58 2020","The main experiment item","yes","NA","SternbergTask.osexp","C:/Users/chelsea/OneDrive - Tarleton State University/psych 5316- adv/Sternberg test","no","mono","no","18","no","white","no","no","768","legacy","42","11","C:/Users/chelsea/OneDrive - Tarleton State University/psych 5316- adv/Sternberg test/subject-4 JK.csv","legacy","3 9 8 1 6 4","Lentiform Loewenfeld","3.3.3","0","n","0","right","left","left","right","NA","1549","28550","31690","1549","NA","2","legacy","6","1024","2","48000","-16","experiment","4","even","7","447566","443969","445346","5559","152537","445352","409279","5567","120843","NA","449571","451123","446361","34120","449571","NA","Sternberg Task","36","70951","55","yes","1024"
"66.07142857142857","66.07142857142857","1284.267857142857","1284.267857142857","black","experiment","legacy","legacy","legacy","0","uniform","1","undefined","1","right","55","55","55","0","0","55","55","0","0","NA","55","55","55","0","55","0","Sun Oct 25 12:34:58 2020","The main experiment item","yes","NA","SternbergTask.osexp","C:/Users/chelsea/OneDrive - Tarleton State University/psych 5316- adv/Sternberg test","no","mono","no","18","no","white","no","no","768","legacy","43","11","C:/Users/chelsea/OneDrive - Tarleton State University/psych 5316- adv/Sternberg test/subject-4 JK.csv","legacy","1 4 3 6 5","Lentiform Loewenfeld","3.3.3","0","n","0","right","left","left","right","NA","968","28550","31690","968","NA","2","legacy","5","1024","2","48000","-16","experiment","4","even","8","454809","451209","452591","5559","152537","452595","409279","5567","120843","NA","456813","457784","453605","34120","456813","NA","Sternberg Task","37","71919","56","yes","1024"
"66.66666666666667","66.66666666666667","1280.5263157894738","1280.5263157894738","black","experiment","legacy","legacy","legacy","0","uniform","1","undefined","1","right","56","56","56","0","0","56","56","0","0","NA","56","56","56","0","56","0","Sun Oct 25 12:34:58 2020","The main experiment item","yes","NA","SternbergTask.osexp","C:/Users/chelsea/OneDrive - Tarleton State University/psych 5316- adv/Sternberg test","no","mono","no","18","no","white","no","no","768","legacy","44","11","C:/Users/chelsea/OneDrive - Tarleton State University/psych 5316- adv/Sternberg test/subject-4 JK.csv","legacy","4 8 1 2","Lentiform Loewenfeld","3.3.3","0","n","0","right","left","left","right","NA","1071","28550","31690","1071","NA","2","legacy","4","1024","2","48000","-16","experiment","4","even","7","461440","457845","459223","5559","152537","459227","409279","5567","120843","NA","463444","464519","460235","34120","463444","NA","Sternberg Task","38","72990","57","yes","1024"
"67.24137931034483","67.24137931034483","1271.603448275862","1271.603448275862","black","experiment","legacy","legacy","legacy","0","uniform","1","undefined","1","left","57","57","57","0","0","57","57","0","0","NA","57","57","57","0","57","0","Sun Oct 25 12:34:58 2020","The main experiment item","yes","NA","SternbergTask.osexp","C:/Users/chelsea/OneDrive - Tarleton State University/psych 5316- adv/Sternberg test","no","mono","no","18","no","white","no","no","768","legacy","45","11","C:/Users/chelsea/OneDrive - Tarleton State University/psych 5316- adv/Sternberg test/subject-4 JK.csv","legacy","3 2 1 4 7","Lentiform Loewenfeld","3.3.3","2","y","0","left","left","left","left","NA","763","28550","31690","763","NA","2","legacy","5","1024","2","48000","-16","experiment","4","even","2","468189","464575","465964","5559","152537","465970","409279","5567","120843","NA","470193","470959","466981","34120","470193","NA","Sternberg Task","39","73753","58","yes","1024"
"66.10169491525424","66.10169491525424","1264.2881355932204","1264.2881355932204","black","experiment","legacy","legacy","legacy","0","uniform","0","undefined","0","left","58","58","58","0","0","58","58","0","0","NA","58","58","58","0","58","0","Sun Oct 25 12:34:58 2020","The main experiment item","yes","NA","SternbergTask.osexp","C:/Users/chelsea/OneDrive - Tarleton State University/psych 5316- adv/Sternberg test","no","mono","no","18","no","white","no","no","768","legacy","46","11","C:/Users/chelsea/OneDrive - Tarleton State University/psych 5316- adv/Sternberg test/subject-4 JK.csv","legacy","3 9 7 6 4","Lentiform Loewenfeld","3.3.3","3","y","0","right","left","left","right","NA","840","28550","31690","840","NA","2","legacy","5","1024","2","48000","-16","experiment","4","even","7","474637","471005","472421","5559","152537","472427","409279","5567","120843","NA","476642","477491","473432","34120","476642","NA","Sternberg Task","39","74593","59","yes","1024"
"66.66666666666667","66.66666666666667","1259.8166666666666","1259.8166666666666","black","experiment","legacy","legacy","legacy","0","uniform","1","undefined","1","left","59","59","59","0","0","59","59","0","0","NA","59","59","59","0","59","0","Sun Oct 25 12:34:58 2020","The main experiment item","yes","NA","SternbergTask.osexp","C:/Users/chelsea/OneDrive - Tarleton State University/psych 5316- adv/Sternberg test","no","mono","no","18","no","white","no","no","768","legacy","47","11","C:/Users/chelsea/OneDrive - Tarleton State University/psych 5316- adv/Sternberg test/subject-4 JK.csv","legacy","5 2 9 6 1 7","Lentiform Loewenfeld","3.3.3","3","y","0","left","left","left","left","NA","996","28550","31690","996","NA","2","legacy","6","1024","2","48000","-16","experiment","4","even","9","481177","471005","478957","5559","152537","478961","477568","5567","120843","NA","483181","484187","479973","34120","483181","NA","Sternberg Task","40","75589","60","yes","1024"
"67.21311475409836","67.21311475409836","1253.327868852459","1253.327868852459","black","experiment","legacy","legacy","legacy","0","uniform","1","undefined","1","left","60","60","60","0","0","60","60","0","0","NA","60","60","60","0","60","0","Sun Oct 25 12:34:58 2020","The main experiment item","yes","NA","SternbergTask.osexp","C:/Users/chelsea/OneDrive - Tarleton State University/psych 5316- adv/Sternberg test","no","mono","no","18","no","white","no","no","768","legacy","48","11","C:/Users/chelsea/OneDrive - Tarleton State University/psych 5316- adv/Sternberg test/subject-4 JK.csv","legacy","9 4 2","Lentiform Loewenfeld","3.3.3","1","y","0","left","left","left","left","NA","864","28550","31690","864","NA","2","legacy","3","1024","2","48000","-16","experiment","4","even","9","487883","484263","485660","5559","152537","485666","477568","5567","120843","NA","489889","490757","486679","34120","489889","NA","Sternberg Task","41","76453","61","yes","1024"
"67.74193548387096","67.74193548387096","1252.725806451613","1252.725806451613","black","experiment","legacy","legacy","legacy","0","uniform","1","undefined","1","right","61","61","61","0","0","61","61","0","0","NA","61","61","61","0","61","0","Sun Oct 25 12:34:58 2020","The main experiment item","yes","NA","SternbergTask.osexp","C:/Users/chelsea/OneDrive - Tarleton State University/psych 5316- adv/Sternberg test","no","mono","no","18","no","white","no","no","768","legacy","49","11","C:/Users/chelsea/OneDrive - Tarleton State University/psych 5316- adv/Sternberg test/subject-4 JK.csv","legacy","9","Lentiform Loewenfeld","3.3.3","0","n","0","right","left","left","right","NA","1216","28550","31690","1216","NA","2","legacy","1","1024","2","48000","-16","experiment","4","even","6","494464","490832","492242","5559","152537","492247","477568","5567","120843","NA","496471","497691","493259","34120","496470","NA","Sternberg Task","42","77669","62","yes","1024"
"66.66666666666667","66.66666666666667","1264.6507936507937","1264.6507936507937","black","experiment","legacy","legacy","legacy","0","uniform","0","undefined","0","left","62","62","62","0","0","62","62","0","0","NA","62","62","62","0","62","0","Sun Oct 25 12:34:58 2020","The main experiment item","yes","NA","SternbergTask.osexp","C:/Users/chelsea/OneDrive - Tarleton State University/psych 5316- adv/Sternberg test","no","mono","no","18","no","white","no","no","768","legacy","50","11","C:/Users/chelsea/OneDrive - Tarleton State University/psych 5316- adv/Sternberg test/subject-4 JK.csv","legacy","9 3 1 2 5","Lentiform Loewenfeld","3.3.3","4","y","0","None","left","left","None","NA","2004","28550","31690","2004","NA","2","legacy","5","1024","2","48000","-16","experiment","4","even","2","501376","497762","499157","5559","152537","499162","477568","5567","120843","NA","503380","505388","500170","34120","503380","NA","Sternberg Task","42","79673","63","yes","1024"
"67.1875","67.1875","1256.609375","1256.609375","black","experiment","legacy","legacy","legacy","0","uniform","1","undefined","1","right","63","63","63","0","0","63","63","0","0","NA","63","63","63","0","63","0","Sun Oct 25 12:34:58 2020","The main experiment item","yes","NA","SternbergTask.osexp","C:/Users/chelsea/OneDrive - Tarleton State University/psych 5316- adv/Sternberg test","no","mono","no","18","no","white","no","no","768","legacy","51","11","C:/Users/chelsea/OneDrive - Tarleton State University/psych 5316- adv/Sternberg test/subject-4 JK.csv","legacy","1 7 5 2","Lentiform Loewenfeld","3.3.3","0","n","0","right","left","left","right","NA","750","28550","31690","750","NA","2","legacy","4","1024","2","48000","-16","experiment","4","even","3","509209","497762","506991","5559","152537","506996","505490","5567","120843","NA","511215","511970","508005","34120","511214","NA","Sternberg Task","43","80423","64","yes","1024"
"67.6923076923077","67.6923076923077","1249.4","1249.4","black","experiment","legacy","legacy","legacy","0","uniform","1","undefined","1","left","64","64","64","0","0","64","64","0","0","NA","64","64","64","0","64","0","Sun Oct 25 12:34:58 2020","The main experiment item","yes","NA","SternbergTask.osexp","C:/Users/chelsea/OneDrive - Tarleton State University/psych 5316- adv/Sternberg test","no","mono","no","18","no","white","no","no","768","legacy","52","11","C:/Users/chelsea/OneDrive - Tarleton State University/psych 5316- adv/Sternberg test/subject-4 JK.csv","legacy","9 8 4","Lentiform Loewenfeld","3.3.3","1","y","0","left","left","left","left","NA","788","28550","31690","788","NA","2","legacy","3","1024","2","48000","-16","experiment","4","even","9","515725","512006","513504","5559","152537","513509","505490","5567","120843","NA","517729","518526","514521","34120","517729","NA","Sternberg Task","44","81211","65","yes","1024"
"68.18181818181819","68.18181818181819","1247.1969696969697","1247.1969696969697","black","experiment","legacy","legacy","legacy","0","uniform","1","undefined","1","right","65","65","65","0","0","65","65","0","0","NA","65","65","65","0","65","0","Sun Oct 25 12:34:58 2020","The main experiment item","yes","NA","SternbergTask.osexp","C:/Users/chelsea/OneDrive - Tarleton State University/psych 5316- adv/Sternberg test","no","mono","no","18","no","white","no","no","768","legacy","53","11","C:/Users/chelsea/OneDrive - Tarleton State University/psych 5316- adv/Sternberg test/subject-4 JK.csv","legacy","4 2 7 6 1 3","Lentiform Loewenfeld","3.3.3","0","n","0","right","left","left","right","NA","1104","28550","31690","1104","NA","2","legacy","6","1024","2","48000","-16","experiment","4","even","8","522227","518590","520009","5559","152537","520014","505490","5567","120843","NA","524232","525340","521023","34120","524231","NA","Sternberg Task","45","82315","66","yes","1024"
"67.16417910447761","67.16417910447761","1240.7164179104477","1240.7164179104477","black","experiment","legacy","legacy","legacy","0","uniform","0","undefined","0","left","66","66","66","0","0","66","66","0","0","NA","66","66","66","0","66","0","Sun Oct 25 12:34:58 2020","The main experiment item","yes","NA","SternbergTask.osexp","C:/Users/chelsea/OneDrive - Tarleton State University/psych 5316- adv/Sternberg test","no","mono","no","18","no","white","no","no","768","legacy","54","11","C:/Users/chelsea/OneDrive - Tarleton State University/psych 5316- adv/Sternberg test/subject-4 JK.csv","legacy","8 9 5 7 1 6","Lentiform Loewenfeld","3.3.3","4","y","0","right","left","left","right","NA","813","28550","31690","813","NA","2","legacy","6","1024","2","48000","-16","experiment","4","even","7","529231","525412","527009","5559","152537","527014","505490","5567","120843","NA","531237","532060","528027","34120","531236","NA","Sternberg Task","45","83128","67","yes","1024"
"67.6470588235294","67.6470588235294","1238.235294117647","1238.235294117647","black","experiment","legacy","legacy","legacy","0","uniform","1","undefined","1","left","67","67","67","0","0","67","67","0","0","NA","67","67","67","0","67","0","Sun Oct 25 12:34:58 2020","The main experiment item","yes","NA","SternbergTask.osexp","C:/Users/chelsea/OneDrive - Tarleton State University/psych 5316- adv/Sternberg test","no","mono","no","18","no","white","no","no","768","legacy","55","11","C:/Users/chelsea/OneDrive - Tarleton State University/psych 5316- adv/Sternberg test/subject-4 JK.csv","legacy","8 9 6 1","Lentiform Loewenfeld","3.3.3","2","y","0","left","left","left","left","NA","1072","28550","31690","1072","NA","2","legacy","4","1024","2","48000","-16","experiment","4","even","9","535862","525412","533642","5559","152537","533648","532141","5567","120843","NA","537866","538942","534658","34120","537866","NA","Sternberg Task","46","84200","68","yes","1024"
"68.1159420289855","68.1159420289855","1231.927536231884","1231.927536231884","black","experiment","legacy","legacy","legacy","0","uniform","1","undefined","1","left","68","68","68","0","0","68","68","0","0","NA","68","68","68","0","68","0","Sun Oct 25 12:34:58 2020","The main experiment item","yes","NA","SternbergTask.osexp","C:/Users/chelsea/OneDrive - Tarleton State University/psych 5316- adv/Sternberg test","no","mono","no","18","no","white","no","no","768","legacy","56","11","C:/Users/chelsea/OneDrive - Tarleton State University/psych 5316- adv/Sternberg test/subject-4 JK.csv","legacy","8 7 3","Lentiform Loewenfeld","3.3.3","1","y","0","left","left","left","left","NA","803","28550","31690","803","NA","2","legacy","3","1024","2","48000","-16","experiment","4","even","8","542713","538979","540484","5559","152537","540497","532141","5567","120843","NA","544718","545531","541506","34120","544718","NA","Sternberg Task","47","85003","69","yes","1024"
"68.57142857142857","68.57142857142857","1227.5142857142857","1227.5142857142857","black","experiment","legacy","legacy","legacy","0","uniform","1","undefined","1","right","69","69","69","0","0","69","69","0","0","NA","69","69","69","0","69","0","Sun Oct 25 12:34:58 2020","The main experiment item","yes","NA","SternbergTask.osexp","C:/Users/chelsea/OneDrive - Tarleton State University/psych 5316- adv/Sternberg test","no","mono","no","18","no","white","no","no","768","legacy","57","11","C:/Users/chelsea/OneDrive - Tarleton State University/psych 5316- adv/Sternberg test/subject-4 JK.csv","legacy","1 7 5 2 9","Lentiform Loewenfeld","3.3.3","0","n","0","right","left","left","right","NA","923","28550","31690","923","NA","2","legacy","5","1024","2","48000","-16","experiment","4","even","3","549273","545613","547052","5559","152537","547057","532141","5567","120843","NA","551279","552207","548068","34120","551279","NA","Sternberg Task","48","85926","70","yes","1024"
"67.6056338028169","67.6056338028169","1221.394366197183","1221.394366197183","black","experiment","legacy","legacy","legacy","0","uniform","0","undefined","0","right","70","70","70","0","0","70","70","0","0","NA","70","70","70","0","70","0","Sun Oct 25 12:34:58 2020","The main experiment item","yes","NA","SternbergTask.osexp","C:/Users/chelsea/OneDrive - Tarleton State University/psych 5316- adv/Sternberg test","no","mono","no","18","no","white","no","no","768","legacy","58","11","C:/Users/chelsea/OneDrive - Tarleton State University/psych 5316- adv/Sternberg test/subject-4 JK.csv","legacy","6 9 4 5 3 2","Lentiform Loewenfeld","3.3.3","0","n","0","left","left","left","left","NA","793","28550","31690","793","NA","2","legacy","6","1024","2","48000","-16","experiment","4","even","8","555898","552286","553682","5559","152537","553689","532141","5567","120843","NA","557903","558700","554694","34120","557902","NA","Sternberg Task","48","86719","71","yes","1024"
"66.66666666666667","66.66666666666667","1224.7222222222222","1224.7222222222222","black","experiment","legacy","legacy","legacy","0","uniform","0","undefined","0","left","71","71","71","0","0","71","71","0","0","NA","71","71","71","0","71","0","Sun Oct 25 12:34:58 2020","The main experiment item","yes","NA","SternbergTask.osexp","C:/Users/chelsea/OneDrive - Tarleton State University/psych 5316- adv/Sternberg test","no","mono","no","18","no","white","no","no","768","legacy","59","11","C:/Users/chelsea/OneDrive - Tarleton State University/psych 5316- adv/Sternberg test/subject-4 JK.csv","legacy","5 7 8 2 3 8","Lentiform Loewenfeld","3.3.3","5","y","0","right","left","left","right","NA","1461","28550","31690","1461","NA","2","legacy","6","1024","2","48000","-16","experiment","4","even","3","562374","552286","560157","5559","152537","560161","558773","5567","120843","NA","564379","565844","561169","34120","564379","NA","Sternberg Task","48","88180","72","yes","1024"
"67.12328767123287","67.12328767123287","1221.0821917808219","1221.0821917808219","black","experiment","legacy","legacy","legacy","0","uniform","1","undefined","1","left","72","72","72","0","0","72","72","0","0","NA","72","72","72","0","72","0","Sun Oct 25 12:34:58 2020","The main experiment item","yes","NA","SternbergTask.osexp","C:/Users/chelsea/OneDrive - Tarleton State University/psych 5316- adv/Sternberg test","no","mono","no","18","no","white","no","no","768","legacy","60","11","C:/Users/chelsea/OneDrive - Tarleton State University/psych 5316- adv/Sternberg test/subject-4 JK.csv","legacy","6 8 9 3 4 9","Lentiform Loewenfeld","3.3.3","5","y","0","left","left","left","left","NA","959","28550","31690","959","NA","2","legacy","6","1024","2","48000","-16","experiment","4","even","4","569567","552286","567355","5559","152537","567359","565918","5567","120843","NA","571575","572540","568364","34120","571574","NA","Sternberg Task","49","89139","73","yes","1024"
"67.56756756756756","67.56756756756756","1228.7027027027027","1228.7027027027027","black","experiment","legacy","legacy","legacy","0","uniform","1","undefined","1","right","73","73","73","0","0","73","73","0","0","NA","73","73","73","0","73","0","Sun Oct 25 12:34:58 2020","The main experiment item","yes","NA","SternbergTask.osexp","C:/Users/chelsea/OneDrive - Tarleton State University/psych 5316- adv/Sternberg test","no","mono","no","18","no","white","no","no","768","legacy","61","11","C:/Users/chelsea/OneDrive - Tarleton State University/psych 5316- adv/Sternberg test/subject-4 JK.csv","legacy","7 1 5 6 3","Lentiform Loewenfeld","3.3.3","0","n","0","right","left","left","right","NA","1785","28550","31690","1785","NA","2","legacy","5","1024","2","48000","-16","experiment","4","even","8","576295","572623","574075","5559","152537","574082","565918","5567","120843","NA","578299","580089","575090","34120","578299","NA","Sternberg Task","50","90924","74","yes","1024"
"68","68","1235.8133333333333","1235.8133333333333","black","experiment","legacy","legacy","legacy","0","uniform","1","undefined","1","left","74","74","74","0","0","74","74","0","0","NA","74","74","74","0","74","0","Sun Oct 25 12:34:58 2020","The main experiment item","yes","NA","SternbergTask.osexp","C:/Users/chelsea/OneDrive - Tarleton State University/psych 5316- adv/Sternberg test","no","mono","no","18","no","white","no","no","768","legacy","62","11","C:/Users/chelsea/OneDrive - Tarleton State University/psych 5316- adv/Sternberg test/subject-4 JK.csv","legacy","8 3","Lentiform Loewenfeld","3.3.3","2","y","0","left","left","left","left","NA","1762","28550","31690","1762","NA","2","legacy","2","1024","2","48000","-16","experiment","4","even","3","583744","580154","581528","5559","152537","581533","565918","5567","120843","NA","585748","587514","582540","34120","585748","NA","Sternberg Task","51","92686","75","yes","1024"
"68.42105263157895","68.42105263157895","1234.2236842105262","1234.2236842105262","black","experiment","legacy","legacy","legacy","0","uniform","1","undefined","1","right","75","75","75","0","0","75","75","0","0","NA","75","75","75","0","75","0","Sun Oct 25 12:34:58 2020","The main experiment item","yes","NA","SternbergTask.osexp","C:/Users/chelsea/OneDrive - Tarleton State University/psych 5316- adv/Sternberg test","no","mono","no","18","no","white","no","no","768","legacy","63","11","C:/Users/chelsea/OneDrive - Tarleton State University/psych 5316- adv/Sternberg test/subject-4 JK.csv","legacy","6 9 5","Lentiform Loewenfeld","3.3.3","0","n","0","right","left","left","right","NA","1115","28550","31690","1115","NA","2","legacy","3","1024","2","48000","-16","experiment","4","even","8","591155","587568","588938","5559","152537","588943","565918","5567","120843","NA","593160","594279","589950","34120","593160","NA","Sternberg Task","52","93801","76","yes","1024"
"68.83116883116882","68.83116883116882","1231.2467532467533","1231.2467532467533","black","experiment","legacy","legacy","legacy","0","uniform","1","undefined","1","right","76","76","76","0","0","76","76","0","0","NA","76","76","76","0","76","0","Sun Oct 25 12:34:58 2020","The main experiment item","yes","NA","SternbergTask.osexp","C:/Users/chelsea/OneDrive - Tarleton State University/psych 5316- adv/Sternberg test","no","mono","no","18","no","white","no","no","768","legacy","64","11","C:/Users/chelsea/OneDrive - Tarleton State University/psych 5316- adv/Sternberg test/subject-4 JK.csv","legacy","7 1","Lentiform Loewenfeld","3.3.3","0","n","0","right","left","left","right","NA","1005","28550","31690","1005","NA","2","legacy","2","1024","2","48000","-16","experiment","4","even","8","597961","594360","595742","5559","152537","595746","565918","5567","120843","NA","599965","600977","596756","34120","599965","NA","Sternberg Task","53","94806","77","yes","1024"
"69.23076923076923","69.23076923076923","1234.7179487179487","1234.7179487179487","black","experiment","legacy","legacy","legacy","0","uniform","1","undefined","1","right","77","77","77","0","0","77","77","0","0","NA","77","77","77","0","77","0","Sun Oct 25 12:34:58 2020","The main experiment item","yes","NA","SternbergTask.osexp","C:/Users/chelsea/OneDrive - Tarleton State University/psych 5316- adv/Sternberg test","no","mono","no","18","no","white","no","no","768","legacy","65","11","C:/Users/chelsea/OneDrive - Tarleton State University/psych 5316- adv/Sternberg test/subject-4 JK.csv","legacy","1 5 3 2 8","Lentiform Loewenfeld","3.3.3","0","n","0","right","left","left","right","NA","1502","28550","31690","1502","NA","2","legacy","5","1024","2","48000","-16","experiment","4","even","4","604734","601050","602518","5559","152537","602524","565918","5567","120843","NA","606741","608247","603530","34120","606740","NA","Sternberg Task","54","96308","78","yes","1024"
"69.62025316455696","69.62025316455696","1233.860759493671","1233.860759493671","black","experiment","legacy","legacy","legacy","0","uniform","1","undefined","1","left","78","78","78","0","0","78","78","0","0","NA","78","78","78","0","78","0","Sun Oct 25 12:34:58 2020","The main experiment item","yes","NA","SternbergTask.osexp","C:/Users/chelsea/OneDrive - Tarleton State University/psych 5316- adv/Sternberg test","no","mono","no","18","no","white","no","no","768","legacy","66","11","C:/Users/chelsea/OneDrive - Tarleton State University/psych 5316- adv/Sternberg test/subject-4 JK.csv","legacy","6 1 2","Lentiform Loewenfeld","3.3.3","3","y","0","left","left","left","left","NA","1167","28550","31690","1167","NA","2","legacy","3","1024","2","48000","-16","experiment","4","even","2","611924","608320","609705","5559","152537","609710","565918","5567","120843","NA","613928","615100","610719","34120","613928","NA","Sternberg Task","55","97475","79","yes","1024"
"70","70","1234.275","1234.275","black","experiment","legacy","legacy","legacy","0","uniform","1","undefined","1","left","79","79","79","0","0","79","79","0","0","NA","79","79","79","0","79","0","Sun Oct 25 12:34:58 2020","The main experiment item","yes","NA","SternbergTask.osexp","C:/Users/chelsea/OneDrive - Tarleton State University/psych 5316- adv/Sternberg test","no","mono","no","18","no","white","no","no","768","legacy","67","11","C:/Users/chelsea/OneDrive - Tarleton State University/psych 5316- adv/Sternberg test/subject-4 JK.csv","legacy","3 4 9 6 2 9","Lentiform Loewenfeld","3.3.3","5","y","0","left","left","left","left","NA","1267","28550","31690","1267","NA","2","legacy","6","1024","2","48000","-16","experiment","4","even","2","618743","615141","616527","5559","152537","616532","565918","5567","120843","NA","620747","622019","617536","34120","620747","NA","Sternberg Task","56","98742","80","yes","1024"
"70.37037037037037","70.37037037037037","1227.5185185185185","1227.5185185185185","black","experiment","legacy","legacy","legacy","0","uniform","1","undefined","1","left","80","80","80","0","0","80","80","0","0","NA","80","80","80","0","80","0","Sun Oct 25 12:34:58 2020","The main experiment item","yes","NA","SternbergTask.osexp","C:/Users/chelsea/OneDrive - Tarleton State University/psych 5316- adv/Sternberg test","no","mono","no","18","no","white","no","no","768","legacy","68","11","C:/Users/chelsea/OneDrive - Tarleton State University/psych 5316- adv/Sternberg test/subject-4 JK.csv","legacy","3 5 7 1","Lentiform Loewenfeld","3.3.3","3","y","0","left","left","left","left","NA","687","28550","31690","687","NA","2","legacy","4","1024","2","48000","-16","experiment","4","even","7","625732","622097","623512","5559","152537","623518","565918","5567","120843","NA","627736","628437","624528","34120","627736","NA","Sternberg Task","57","99429","81","yes","1024"
"70.73170731707317","70.73170731707317","1227.6829268292684","1227.6829268292684","black","experiment","legacy","legacy","legacy","0","uniform","1","undefined","1","left","81","81","81","0","0","81","81","0","0","NA","81","81","81","0","81","0","Sun Oct 25 12:34:58 2020","The main experiment item","yes","NA","SternbergTask.osexp","C:/Users/chelsea/OneDrive - Tarleton State University/psych 5316- adv/Sternberg test","no","mono","no","18","no","white","no","no","768","legacy","69","11","C:/Users/chelsea/OneDrive - Tarleton State University/psych 5316- adv/Sternberg test/subject-4 JK.csv","legacy","3 9 6 2","Lentiform Loewenfeld","3.3.3","4","y","0","left","left","left","left","NA","1241","28550","31690","1241","NA","2","legacy","4","1024","2","48000","-16","experiment","4","even","2","632160","628515","629942","5559","152537","629946","565918","5567","120843","NA","634164","635416","630956","34120","634164","NA","Sternberg Task","58","100670","82","yes","1024"
"69.87951807228916","69.87951807228916","1236.987951807229","1236.987951807229","black","experiment","legacy","legacy","legacy","0","uniform","0","undefined","0","left","82","82","82","0","0","82","82","0","0","NA","82","82","82","0","82","0","Sun Oct 25 12:34:58 2020","The main experiment item","yes","NA","SternbergTask.osexp","C:/Users/chelsea/OneDrive - Tarleton State University/psych 5316- adv/Sternberg test","no","mono","no","18","no","white","no","no","768","legacy","70","11","C:/Users/chelsea/OneDrive - Tarleton State University/psych 5316- adv/Sternberg test/subject-4 JK.csv","legacy","5 7 3 6 2","Lentiform Loewenfeld","3.3.3","5","y","0","None","left","left","None","NA","2000","28550","31690","2000","NA","2","legacy","5","1024","2","48000","-16","experiment","4","even","2","639073","635468","636852","5559","152537","636858","565918","5567","120843","NA","641078","643087","637867","34120","641077","NA","Sternberg Task","58","102670","83","yes","1024"
"70.23809523809524","70.23809523809524","1229.202380952381","1229.202380952381","black","experiment","legacy","legacy","legacy","0","uniform","1","undefined","1","left","83","83","83","0","0","83","83","0","0","NA","83","83","83","0","83","0","Sun Oct 25 12:34:58 2020","The main experiment item","yes","NA","SternbergTask.osexp","C:/Users/chelsea/OneDrive - Tarleton State University/psych 5316- adv/Sternberg test","no","mono","no","18","no","white","no","no","768","legacy","71","11","C:/Users/chelsea/OneDrive - Tarleton State University/psych 5316- adv/Sternberg test/subject-4 JK.csv","legacy","2 3","Lentiform Loewenfeld","3.3.3","1","y","0","left","left","left","left","NA","583","28550","31690","583","NA","2","legacy","2","1024","2","48000","-16","experiment","4","even","2","646751","635468","644530","5559","152537","644535","643132","5567","120843","NA","648756","649350","645547","34120","648756","NA","Sternberg Task","59","103253","84","yes","1024"
"70.58823529411765","70.58823529411765","1230.8235294117646","1230.8235294117646","black","experiment","legacy","legacy","legacy","0","uniform","1","undefined","1","left","84","84","84","0","0","84","84","0","0","NA","84","84","84","0","84","0","Sun Oct 25 12:34:58 2020","The main experiment item","yes","NA","SternbergTask.osexp","C:/Users/chelsea/OneDrive - Tarleton State University/psych 5316- adv/Sternberg test","no","mono","no","18","no","white","no","no","768","legacy","72","11","C:/Users/chelsea/OneDrive - Tarleton State University/psych 5316- adv/Sternberg test/subject-4 JK.csv","legacy","2 5 4 8 7","Lentiform Loewenfeld","3.3.3","3","y","0","left","left","left","left","NA","1367","28550","31690","1367","NA","2","legacy","5","1024","2","48000","-16","experiment","4","even","4","653087","649436","650870","5559","152537","650875","643132","5567","120843","NA","655092","656464","651883","34120","655092","NA","Sternberg Task","60","104620","85","yes","1024"
"69.76744186046511","69.76744186046511","1239.7674418604652","1239.7674418604652","black","experiment","legacy","legacy","legacy","0","uniform","0","undefined","0","left","85","85","85","0","0","85","85","0","0","NA","85","85","85","0","85","0","Sun Oct 25 12:34:58 2020","The main experiment item","yes","NA","SternbergTask.osexp","C:/Users/chelsea/OneDrive - Tarleton State University/psych 5316- adv/Sternberg test","no","mono","no","18","no","white","no","no","768","legacy","73","11","C:/Users/chelsea/OneDrive - Tarleton State University/psych 5316- adv/Sternberg test/subject-4 JK.csv","legacy","4","Lentiform Loewenfeld","3.3.3","1","y","0","None","left","left","None","NA","2000","28550","31690","2000","NA","2","legacy","1","1024","2","48000","-16","experiment","4","even","4","660130","656521","657911","5559","152537","657916","643132","5567","120843","NA","662134","664138","658926","34120","662134","NA","Sternberg Task","60","106620","86","yes","1024"
"70.11494252873563","70.11494252873563","1234.9540229885058","1234.9540229885058","black","experiment","legacy","legacy","legacy","0","uniform","1","undefined","1","left","86","86","86","0","0","86","86","0","0","NA","86","86","86","0","86","0","Sun Oct 25 12:34:58 2020","The main experiment item","yes","NA","SternbergTask.osexp","C:/Users/chelsea/OneDrive - Tarleton State University/psych 5316- adv/Sternberg test","no","mono","no","18","no","white","no","no","768","legacy","74","11","C:/Users/chelsea/OneDrive - Tarleton State University/psych 5316- adv/Sternberg test/subject-4 JK.csv","legacy","9 5 8 1","Lentiform Loewenfeld","3.3.3","2","y","0","left","left","left","left","NA","821","28550","31690","821","NA","2","legacy","4","1024","2","48000","-16","experiment","4","even","5","667799","656521","665580","5559","152537","665585","664181","5567","120843","NA","669804","670630","666596","34120","669803","NA","Sternberg Task","61","107441","87","yes","1024"
"70.45454545454545","70.45454545454545","1228.125","1228.125","black","experiment","legacy","legacy","legacy","0","uniform","1","undefined","1","left","87","87","87","0","0","87","87","0","0","NA","87","87","87","0","87","0","Sun Oct 25 12:34:58 2020","The main experiment item","yes","NA","SternbergTask.osexp","C:/Users/chelsea/OneDrive - Tarleton State University/psych 5316- adv/Sternberg test","no","mono","no","18","no","white","no","no","768","legacy","75","11","C:/Users/chelsea/OneDrive - Tarleton State University/psych 5316- adv/Sternberg test/subject-4 JK.csv","legacy","4 3 2 5 8","Lentiform Loewenfeld","3.3.3","2","y","0","left","left","left","left","NA","634","28550","31690","634","NA","2","legacy","5","1024","2","48000","-16","experiment","4","even","3","674320","670668","672100","5559","152537","672105","664181","5567","120843","NA","676326","676964","673116","34120","676325","NA","Sternberg Task","62","108075","88","yes","1024"
"69.66292134831461","69.66292134831461","1236.7977528089887","1236.7977528089887","black","experiment","legacy","legacy","legacy","0","uniform","0","undefined","0","right","88","88","88","0","0","88","88","0","0","NA","88","88","88","0","88","0","Sun Oct 25 12:34:58 2020","The main experiment item","yes","NA","SternbergTask.osexp","C:/Users/chelsea/OneDrive - Tarleton State University/psych 5316- adv/Sternberg test","no","mono","no","18","no","white","no","no","768","legacy","76","11","C:/Users/chelsea/OneDrive - Tarleton State University/psych 5316- adv/Sternberg test/subject-4 JK.csv","legacy","7 9 1 6","Lentiform Loewenfeld","3.3.3","0","n","0","None","left","left","None","NA","2000","28550","31690","2000","NA","2","legacy","4","1024","2","48000","-16","experiment","4","even","4","680677","677007","678460","5559","152537","678464","664181","5567","120843","NA","682681","684685","679473","34120","682681","NA","Sternberg Task","62","110075","89","yes","1024"
"70","70","1230.7444444444445","1230.7444444444445","black","experiment","legacy","legacy","legacy","0","uniform","1","undefined","1","left","89","89","89","0","0","89","89","0","0","NA","89","89","89","0","89","0","Sun Oct 25 12:34:58 2020","The main experiment item","yes","NA","SternbergTask.osexp","C:/Users/chelsea/OneDrive - Tarleton State University/psych 5316- adv/Sternberg test","no","mono","no","18","no","white","no","no","768","legacy","77","11","C:/Users/chelsea/OneDrive - Tarleton State University/psych 5316- adv/Sternberg test/subject-4 JK.csv","legacy","5 2 6","Lentiform Loewenfeld","3.3.3","2","y","0","left","left","left","left","NA","692","28550","31690","692","NA","2","legacy","3","1024","2","48000","-16","experiment","4","even","2","688368","677007","686149","5559","152537","686153","684757","5567","120843","NA","690374","691070","687165","34120","690374","NA","Sternberg Task","63","110767","90","yes","1024"
"70.32967032967034","70.32967032967034","1226.2307692307693","1226.2307692307693","black","experiment","legacy","legacy","legacy","0","uniform","1","undefined","1","right","90","90","90","0","0","90","90","0","0","NA","90","90","90","0","90","0","Sun Oct 25 12:34:58 2020","The main experiment item","yes","NA","SternbergTask.osexp","C:/Users/chelsea/OneDrive - Tarleton State University/psych 5316- adv/Sternberg test","no","mono","no","18","no","white","no","no","768","legacy","78","11","C:/Users/chelsea/OneDrive - Tarleton State University/psych 5316- adv/Sternberg test/subject-4 JK.csv","legacy","6 2 9 3 8 4","Lentiform Loewenfeld","3.3.3","0","n","0","right","left","left","right","NA","820","28550","31690","820","NA","2","legacy","6","1024","2","48000","-16","experiment","4","even","1","694811","691154","692593","5559","152537","692599","684757","5567","120843","NA","696816","697641","693605","34120","696815","NA","Sternberg Task","64","111587","91","yes","1024"
"70.65217391304348","70.65217391304348","1221.0978260869565","1221.0978260869565","black","experiment","legacy","legacy","legacy","0","uniform","1","undefined","1","left","91","91","91","0","0","91","91","0","0","NA","91","91","91","0","91","0","Sun Oct 25 12:34:58 2020","The main experiment item","yes","NA","SternbergTask.osexp","C:/Users/chelsea/OneDrive - Tarleton State University/psych 5316- adv/Sternberg test","no","mono","no","18","no","white","no","no","768","legacy","79","11","C:/Users/chelsea/OneDrive - Tarleton State University/psych 5316- adv/Sternberg test/subject-4 JK.csv","legacy","2 4 6 9","Lentiform Loewenfeld","3.3.3","3","y","0","left","left","left","left","NA","754","28550","31690","754","NA","2","legacy","4","1024","2","48000","-16","experiment","4","even","6","701301","697666","699081","5559","152537","699087","684757","5567","120843","NA","703306","704070","700097","34120","703306","NA","Sternberg Task","65","112341","92","yes","1024"
"70.96774193548387","70.96774193548387","1220.215053763441","1220.215053763441","black","experiment","legacy","legacy","legacy","0","uniform","1","undefined","1","right","92","92","92","0","0","92","92","0","0","NA","92","92","92","0","92","0","Sun Oct 25 12:34:58 2020","The main experiment item","yes","NA","SternbergTask.osexp","C:/Users/chelsea/OneDrive - Tarleton State University/psych 5316- adv/Sternberg test","no","mono","no","18","no","white","no","no","768","legacy","80","11","C:/Users/chelsea/OneDrive - Tarleton State University/psych 5316- adv/Sternberg test/subject-4 JK.csv","legacy","3 9 1","Lentiform Loewenfeld","3.3.3","0","n","0","right","left","left","right","NA","1139","28550","31690","1139","NA","2","legacy","3","1024","2","48000","-16","experiment","4","even","7","707781","704119","705556","5559","152537","705566","684757","5567","120843","NA","709785","710931","706575","34120","709785","NA","Sternberg Task","66","113480","93","yes","1024"
"71.27659574468085","71.27659574468085","1220.4574468085107","1220.4574468085107","black","experiment","legacy","legacy","legacy","0","uniform","1","undefined","1","left","93","93","93","0","0","93","93","0","0","NA","93","93","93","0","93","0","Sun Oct 25 12:34:58 2020","The main experiment item","yes","NA","SternbergTask.osexp","C:/Users/chelsea/OneDrive - Tarleton State University/psych 5316- adv/Sternberg test","no","mono","no","18","no","white","no","no","768","legacy","81","11","C:/Users/chelsea/OneDrive - Tarleton State University/psych 5316- adv/Sternberg test/subject-4 JK.csv","legacy","8 5 1 3 9","Lentiform Loewenfeld","3.3.3","4","y","0","left","left","left","left","NA","1243","28550","31690","1243","NA","2","legacy","5","1024","2","48000","-16","experiment","4","even","3","714564","710962","712345","5559","152537","712350","684757","5567","120843","NA","716568","717817","713360","34120","716568","NA","Sternberg Task","67","114723","94","yes","1024"
"71.57894736842105","71.57894736842105","1217.8631578947368","1217.8631578947368","black","experiment","legacy","legacy","legacy","0","uniform","1","undefined","1","left","94","94","94","0","0","94","94","0","0","NA","94","94","94","0","94","0","Sun Oct 25 12:34:58 2020","The main experiment item","yes","NA","SternbergTask.osexp","C:/Users/chelsea/OneDrive - Tarleton State University/psych 5316- adv/Sternberg test","no","mono","no","18","no","white","no","no","768","legacy","82","11","C:/Users/chelsea/OneDrive - Tarleton State University/psych 5316- adv/Sternberg test/subject-4 JK.csv","legacy","7 1 3","Lentiform Loewenfeld","3.3.3","2","y","0","left","left","left","left","NA","974","28550","31690","974","NA","2","legacy","3","1024","2","48000","-16","experiment","4","even","1","721497","717891","719275","5559","152537","719282","684757","5567","120843","NA","723502","724481","720293","34120","723502","NA","Sternberg Task","68","115697","95","yes","1024"
"71.875","71.875","1214.9479166666667","1214.9479166666667","black","experiment","legacy","legacy","legacy","0","uniform","1","undefined","1","right","95","95","95","0","0","95","95","0","0","NA","95","95","95","0","95","0","Sun Oct 25 12:34:58 2020","The main experiment item","yes","NA","SternbergTask.osexp","C:/Users/chelsea/OneDrive - Tarleton State University/psych 5316- adv/Sternberg test","no","mono","no","18","no","white","no","no","768","legacy","83","11","C:/Users/chelsea/OneDrive - Tarleton State University/psych 5316- adv/Sternberg test/subject-4 JK.csv","legacy","2 8 7 9 5 3","Lentiform Loewenfeld","3.3.3","0","n","0","right","left","left","right","NA","938","28550","31690","938","NA","2","legacy","6","1024","2","48000","-16","experiment","4","even","6","728181","724551","725962","5559","152537","725967","684757","5567","120843","NA","730186","731130","726975","34120","730185","NA","Sternberg Task","69","116635","96","yes","1024"
"71.1340206185567","71.1340206185567","1223.041237113402","1223.041237113402","black","experiment","legacy","legacy","legacy","0","uniform","0","undefined","0","left","96","96","96","0","0","96","96","0","0","NA","96","96","96","0","96","0","Sun Oct 25 12:34:58 2020","The main experiment item","yes","NA","SternbergTask.osexp","C:/Users/chelsea/OneDrive - Tarleton State University/psych 5316- adv/Sternberg test","no","mono","no","18","no","white","no","no","768","legacy","84","11","C:/Users/chelsea/OneDrive - Tarleton State University/psych 5316- adv/Sternberg test/subject-4 JK.csv","legacy","8 5 4 7 3 1","Lentiform Loewenfeld","3.3.3","2","y","0","None","left","left","None","NA","2000","28550","31690","2000","NA","2","legacy","6","1024","2","48000","-16","experiment","4","even","5","734848","731169","732627","5559","152537","732633","684757","5567","120843","NA","736852","738862","733643","34120","736852","NA","Sternberg Task","69","118635","97","yes","1024"
"71.42857142857143","71.42857142857143","1219.1020408163265","1219.1020408163265","black","experiment","legacy","legacy","legacy","0","uniform","1","undefined","1","right","97","97","97","0","0","97","97","0","0","NA","97","97","97","0","97","0","Sun Oct 25 12:34:58 2020","The main experiment item","yes","NA","SternbergTask.osexp","C:/Users/chelsea/OneDrive - Tarleton State University/psych 5316- adv/Sternberg test","no","mono","no","18","no","white","no","no","768","legacy","85","11","C:/Users/chelsea/OneDrive - Tarleton State University/psych 5316- adv/Sternberg test/subject-4 JK.csv","legacy","8 4 3 9","Lentiform Loewenfeld","3.3.3","0","n","0","right","left","left","right","NA","837","28550","31690","837","NA","2","legacy","4","1024","2","48000","-16","experiment","4","even","5","742582","731169","740368","5559","152537","740372","738953","5567","120843","NA","744586","745428","741378","34120","744586","NA","Sternberg Task","70","119472","98","yes","1024"
"70.70707070707071","70.70707070707071","1217.5151515151515","1217.5151515151515","black","experiment","legacy","legacy","legacy","0","uniform","0","undefined","0","left","98","98","98","0","0","98","98","0","0","NA","98","98","98","0","98","0","Sun Oct 25 12:34:58 2020","The main experiment item","yes","NA","SternbergTask.osexp","C:/Users/chelsea/OneDrive - Tarleton State University/psych 5316- adv/Sternberg test","no","mono","no","18","no","white","no","no","768","legacy","86","11","C:/Users/chelsea/OneDrive - Tarleton State University/psych 5316- adv/Sternberg test/subject-4 JK.csv","legacy","2 8 5 1","Lentiform Loewenfeld","3.3.3","4","y","0","right","left","left","right","NA","1062","28550","31690","1062","NA","2","legacy","4","1024","2","48000","-16","experiment","4","even","1","749088","745475","746868","5559","152537","746873","738953","5567","120843","NA","751095","752164","747884","34120","751095","NA","Sternberg Task","70","120534","99","yes","1024"
"71","71","1212.63","1212.63","black","experiment","legacy","legacy","legacy","0","uniform","1","undefined","1","right","99","99","99","0","0","99","99","0","0","NA","99","99","99","0","99","0","Sun Oct 25 12:34:58 2020","The main experiment item","yes","NA","SternbergTask.osexp","C:/Users/chelsea/OneDrive - Tarleton State University/psych 5316- adv/Sternberg test","no","mono","no","18","no","white","no","no","768","legacy","87","11","C:/Users/chelsea/OneDrive - Tarleton State University/psych 5316- adv/Sternberg test/subject-4 JK.csv","legacy","6 8 4","Lentiform Loewenfeld","3.3.3","0","n","0","right","left","left","right","NA","729","28550","31690","729","NA","2","legacy","3","1024","2","48000","-16","experiment","4","even","1","755836","745475","753617","5559","152537","753622","752210","5567","120843","NA","757840","758574","754632","34120","757839","NA","Sternberg Task","71","121263","100","yes","1024"
"70.29702970297029","70.29702970297029","1220.4257425742574","1220.4257425742574","black","experiment","legacy","legacy","legacy","0","uniform","0","undefined","0","left","100","100","100","0","0","100","100","0","0","NA","100","100","100","0","100","0","Sun Oct 25 12:34:58 2020","The main experiment item","yes","NA","SternbergTask.osexp","C:/Users/chelsea/OneDrive - Tarleton State University/psych 5316- adv/Sternberg test","no","mono","no","18","no","white","no","no","768","legacy","88","11","C:/Users/chelsea/OneDrive - Tarleton State University/psych 5316- adv/Sternberg test/subject-4 JK.csv","legacy","9 1 6 7 8","Lentiform Loewenfeld","3.3.3","1","y","0","None","left","left","None","NA","2000","28550","31690","2000","NA","2","legacy","5","1024","2","48000","-16","experiment","4","even","9","762259","758621","760045","5559","152537","760049","752210","5567","120843","NA","764264","766269","761055","34120","764263","NA","Sternberg Task","71","123263","101","yes","1024"
"69.6078431372549","69.6078431372549","1215.3431372549019","1215.3431372549019","black","experiment","legacy","legacy","legacy","0","uniform","0","undefined","0","right","101","101","101","0","0","101","101","0","0","NA","101","101","101","0","101","0","Sun Oct 25 12:34:58 2020","The main experiment item","yes","NA","SternbergTask.osexp","C:/Users/chelsea/OneDrive - Tarleton State University/psych 5316- adv/Sternberg test","no","mono","no","18","no","white","no","no","768","legacy","89","11","C:/Users/chelsea/OneDrive - Tarleton State University/psych 5316- adv/Sternberg test/subject-4 JK.csv","legacy","5 3 8 7 2 4","Lentiform Loewenfeld","3.3.3","0","n","0","left","left","left","left","NA","702","28550","31690","702","NA","2","legacy","6","1024","2","48000","-16","experiment","4","even","9","769944","758621","767728","5559","152537","767733","766315","5567","120843","NA","771948","772657","768738","34120","771948","NA","Sternberg Task","71","123965","102","yes","1024"
