"acc","accuracy","average_response_time","avg_rt","background","block","canvas_backend","clock_backend","color_backend","correct","correct_Instruction1","correct_keyboard_response","correct_response","count_CorrectFeedback","count_Fixation","count_ISI","count_IncorrectFeedback","count_Instruction1","count_Instructions2","count_MemorySet","count_Probe","count_ThankYou","count_expSequence","count_experiment","count_experimentLoop","count_keyboard_response","count_logger","count_practiceLoop","datetime","description","disable_garbage_collection","experiment_file","experiment_path","font_bold","font_family","font_italic","font_size","font_underline","foreground","form_clicks","fullscreen","height","keyboard_backend","live_row","live_row_practiceLoop","logfile","mouse_backend","numberSet","opensesame_codename","opensesame_version","posInSet","present","repeat_cycle","response","response_Instruction1","response_Instructions2","response_ThankYou","response_keyboard_response","response_time","response_time_Instruction1","response_time_Instructions2","response_time_ThankYou","response_time_keyboard_response","round_decimals","sampler_backend","setSize","sound_buf_size","sound_channels","sound_freq","sound_sample_size","start","subject_nr","subject_parity","target","time_CorrectFeedback","time_Fixation","time_ISI","time_IncorrectFeedback","time_Instruction1","time_Instructions2","time_MemorySet","time_Probe","time_ThankYou","time_expSequence","time_experiment","time_experimentLoop","time_keyboard_response","time_logger","time_practiceLoop","title","total_correct","total_response_time","total_responses","width"
"0","0","2000","2000","#3d3846","practice","legacy","legacy","legacy","0","undefined","0","left","0","0","0","0","0","0","0","0","0","0","0","0","0","0","0","Sun Oct 22 20:49:30 2023","The main experiment item","True","SternbergTask.osexp","C:\Users\Hannah Laskoskie\Desktop\OpenSesame SternburgTask","False","mono","False","18","no","white","no","yes","768","legacy","0","0","C:/Users/Hannah Laskoskie/Desktop/OpenSesame SternburgTask/HL-subject-4.csv","legacy","4 3 1 7 9 8","Melodramatic Milgram","4.0.5","1","y","0","None","right","NA","NA","None","2000.0","111455","NA","NA","2000","2","legacy","6","1024","2","48000","-16","experiment","4","even","4","NA","115816","118018","NA","4046","NA","116817","120019","NA","115814","4043","NA","120019","122019","115502","Sternberg Task","0","2000.0","1","1024"
"0","0","2000","2000","#3d3846","practice","legacy","legacy","legacy","0","undefined","0","left","1","1","1","1","0","0","1","1","0","1","0","0","1","1","0","Sun Oct 22 20:49:30 2023","The main experiment item","True","SternbergTask.osexp","C:\Users\Hannah Laskoskie\Desktop\OpenSesame SternburgTask","False","mono","False","18","no","white","no","yes","768","legacy","1","1","C:/Users/Hannah Laskoskie/Desktop/OpenSesame SternburgTask/HL-subject-4.csv","legacy","1 7 9 8 5","Melodramatic Milgram","4.0.5","4","y","0","None","right","NA","NA","None","2000.0","111455","NA","NA","2000","2","legacy","5","1024","2","48000","-16","experiment","4","even","8","NA","123110","125313","122056","4046","NA","124112","127315","NA","123109","4043","NA","127315","129315","115502","Sternberg Task","0","4000.0","2","1024"
"0","0","2000","2000","#3d3846","practice","legacy","legacy","legacy","0","undefined","0","right","2","2","2","2","0","0","2","2","0","2","0","0","2","2","0","Sun Oct 22 20:49:30 2023","The main experiment item","True","SternbergTask.osexp","C:\Users\Hannah Laskoskie\Desktop\OpenSesame SternburgTask","False","mono","False","18","no","white","no","yes","768","legacy","2","2","C:/Users/Hannah Laskoskie/Desktop/OpenSesame SternburgTask/HL-subject-4.csv","legacy","5 7 8 4 1 2","Melodramatic Milgram","4.0.5","0","n","0","None","right","NA","NA","None","2000.0","111455","NA","NA","2000","2","legacy","6","1024","2","48000","-16","experiment","4","even","6","NA","130370","132572","129318","4046","NA","131371","134573","NA","130368","4043","NA","134574","136574","115502","Sternberg Task","0","6000.0","3","1024"
"0","0","2000","2000","#3d3846","practice","legacy","legacy","legacy","0","undefined","0","right","3","3","3","3","0","0","3","3","0","3","0","0","3","3","0","Sun Oct 22 20:49:30 2023","The main experiment item","True","SternbergTask.osexp","C:\Users\Hannah Laskoskie\Desktop\OpenSesame SternburgTask","False","mono","False","18","no","white","no","yes","768","legacy","3","3","C:/Users/Hannah Laskoskie/Desktop/OpenSesame SternburgTask/HL-subject-4.csv","legacy","2 1","Melodramatic Milgram","4.0.5","0","n","0","None","right","NA","NA","None","2000.0","111455","NA","NA","2000","2","legacy","2","1024","2","48000","-16","experiment","4","even","5","NA","137632","139834","136582","4046","NA","138633","141835","NA","137630","4043","NA","141836","143836","115502","Sternberg Task","0","8000.0","4","1024"
"0","0","1751","1751","#3d3846","practice","legacy","legacy","legacy","0","undefined","0","left","4","4","4","4","0","0","4","4","0","4","0","0","4","4","0","Sun Oct 22 20:49:30 2023","The main experiment item","True","SternbergTask.osexp","C:\Users\Hannah Laskoskie\Desktop\OpenSesame SternburgTask","False","mono","False","18","no","white","no","yes","768","legacy","4","4","C:/Users/Hannah Laskoskie/Desktop/OpenSesame SternburgTask/HL-subject-4.csv","legacy","4 8","Melodramatic Milgram","4.0.5","1","y","0","right","right","NA","NA","right","759.0","111455","NA","NA","759","2","legacy","2","1024","2","48000","-16","experiment","4","even","4","NA","144904","147106","143844","4046","NA","145905","149107","NA","144902","4043","NA","149108","149868","115502","Sternberg Task","0","8759.0","5","1024"
"0","0","1511","1511","#3d3846","practice","legacy","legacy","legacy","0","undefined","0","right","5","5","5","5","0","0","5","5","0","5","0","0","5","5","0","Sun Oct 22 20:49:30 2023","The main experiment item","True","SternbergTask.osexp","C:\Users\Hannah Laskoskie\Desktop\OpenSesame SternburgTask","False","mono","False","18","no","white","no","yes","768","legacy","5","5","C:/Users/Hannah Laskoskie/Desktop/OpenSesame SternburgTask/HL-subject-4.csv","legacy","5","Melodramatic Milgram","4.0.5","0","n","0","left","right","NA","NA","left","308.0","111455","NA","NA","308","2","legacy","1","1024","2","48000","-16","experiment","4","even","3","NA","150925","153127","149877","4046","NA","151926","155128","NA","150923","4043","NA","155129","155438","115502","Sternberg Task","0","9067.0","6","1024"
"14","14","1414","1414","#3d3846","practice","legacy","legacy","legacy","1","undefined","1","right","6","6","6","6","0","0","6","6","0","6","0","0","6","6","0","Sun Oct 22 20:49:30 2023","The main experiment item","True","SternbergTask.osexp","C:\Users\Hannah Laskoskie\Desktop\OpenSesame SternburgTask","False","mono","False","18","no","white","no","yes","768","legacy","6","6","C:/Users/Hannah Laskoskie/Desktop/OpenSesame SternburgTask/HL-subject-4.csv","legacy","3 1 9 4","Melodramatic Milgram","4.0.5","0","n","0","right","right","NA","NA","right","833.0","111455","NA","NA","833","2","legacy","4","1024","2","48000","-16","experiment","4","even","6","NA","156490","158692","155447","4046","NA","157491","160693","NA","156488","4043","NA","160694","161528","115502","Sternberg Task","1","9900.0","7","1024"
"12","12","1258","1258","#3d3846","practice","legacy","legacy","legacy","0","undefined","0","left","7","7","7","7","0","0","7","7","0","7","0","0","7","7","0","Sun Oct 22 20:49:30 2023","The main experiment item","True","SternbergTask.osexp","C:\Users\Hannah Laskoskie\Desktop\OpenSesame SternburgTask","False","mono","False","18","no","white","no","yes","768","legacy","7","7","C:/Users/Hannah Laskoskie/Desktop/OpenSesame SternburgTask/HL-subject-4.csv","legacy","6","Melodramatic Milgram","4.0.5","1","y","0","right","right","NA","NA","right","165.0","111455","NA","NA","165","2","legacy","1","1024","2","48000","-16","experiment","4","even","6","161532","162587","164789","155447","4046","NA","163588","166790","NA","162585","4043","NA","166791","166956","115502","Sternberg Task","1","10065.0","8","1024"
"11","11","1152","1152","#3d3846","practice","legacy","legacy","legacy","0","undefined","0","right","8","8","8","8","0","0","8","8","0","8","0","0","8","8","0","Sun Oct 22 20:49:30 2023","The main experiment item","True","SternbergTask.osexp","C:\Users\Hannah Laskoskie\Desktop\OpenSesame SternburgTask","False","mono","False","18","no","white","no","yes","768","legacy","8","8","C:/Users/Hannah Laskoskie/Desktop/OpenSesame SternburgTask/HL-subject-4.csv","legacy","9 6 7 4 5","Melodramatic Milgram","4.0.5","0","n","0","left","right","NA","NA","left","311.0","111455","NA","NA","311","2","legacy","5","1024","2","48000","-16","experiment","4","even","3","161532","168015","170217","166965","4046","NA","169016","172218","NA","168012","4043","NA","172218","172530","115502","Sternberg Task","1","10376.0","9","1024"
"10","10","1073","1073","#3d3846","practice","legacy","legacy","legacy","0","undefined","0","left","9","9","9","9","0","0","9","9","0","9","0","0","9","9","0","Sun Oct 22 20:49:30 2023","The main experiment item","True","SternbergTask.osexp","C:\Users\Hannah Laskoskie\Desktop\OpenSesame SternburgTask","False","mono","False","18","no","white","no","yes","768","legacy","9","9","C:/Users/Hannah Laskoskie/Desktop/OpenSesame SternburgTask/HL-subject-4.csv","legacy","1 5 2 9","Melodramatic Milgram","4.0.5","2","y","0","right","right","NA","NA","right","360.0","111455","NA","NA","360","2","legacy","4","1024","2","48000","-16","experiment","4","even","5","161532","173582","175784","172533","4046","NA","174583","177785","NA","173580","4043","NA","177785","178146","115502","Sternberg Task","1","10736.0","10","1024"
"18","18","1009","1009","#3d3846","practice","legacy","legacy","legacy","1","undefined","1","left","10","10","10","10","0","0","10","10","0","10","0","0","10","10","0","Sun Oct 22 20:49:30 2023","The main experiment item","True","SternbergTask.osexp","C:\Users\Hannah Laskoskie\Desktop\OpenSesame SternburgTask","False","mono","False","18","no","white","no","yes","768","legacy","10","10","C:/Users/Hannah Laskoskie/Desktop/OpenSesame SternburgTask/HL-subject-4.csv","legacy","2 9 4","Melodramatic Milgram","4.0.5","3","y","0","left","right","NA","NA","left","367.0","111455","NA","NA","367","2","legacy","3","1024","2","48000","-16","experiment","4","even","4","161532","179222","181424","178155","4046","NA","180223","183425","NA","179220","4043","NA","183425","183792","115502","Sternberg Task","2","11103.0","11","1024"
"25","25","993","993","#3d3846","practice","legacy","legacy","legacy","1","undefined","1","right","11","11","11","11","0","0","11","11","0","11","0","0","11","11","0","Sun Oct 22 20:49:30 2023","The main experiment item","True","SternbergTask.osexp","C:\Users\Hannah Laskoskie\Desktop\OpenSesame SternburgTask","False","mono","False","18","no","white","no","yes","768","legacy","11","11","C:/Users/Hannah Laskoskie/Desktop/OpenSesame SternburgTask/HL-subject-4.csv","legacy","4 1 5","Melodramatic Milgram","4.0.5","0","n","0","right","right","NA","NA","right","817.0","111455","NA","NA","817","2","legacy","3","1024","2","48000","-16","experiment","4","even","2","183801","184851","187053","178155","4046","NA","185852","189055","NA","184849","4043","NA","189055","189873","115502","Sternberg Task","3","11920.0","12","1024"
"30","30","963","963","#3d3846","experiment","legacy","legacy","legacy","1","undefined","1","left","12","12","12","12","0","0","12","12","0","12","0","0","12","12","0","Sun Oct 22 20:49:30 2023","The main experiment item","True","SternbergTask.osexp","C:\Users\Hannah Laskoskie\Desktop\OpenSesame SternburgTask","False","mono","False","18","no","white","no","yes","768","legacy","0","11","C:/Users/Hannah Laskoskie/Desktop/OpenSesame SternburgTask/HL-subject-4.csv","legacy","6 9 7 4 5 1","Melodramatic Milgram","4.0.5","2","y","0","left","right","right","NA","left","604.0","111455","14325","NA","604","2","legacy","6","1024","2","48000","-16","experiment","4","even","9","189883","205334","207536","178155","4046","190884","206335","209537","NA","205333","4043","205209","209537","210142","115502","Sternberg Task","4","12524.0","13","1024"
"35","35","925","925","#3d3846","experiment","legacy","legacy","legacy","1","undefined","1","right","13","13","13","13","0","0","13","13","0","13","0","0","13","13","0","Sun Oct 22 20:49:30 2023","The main experiment item","True","SternbergTask.osexp","C:\Users\Hannah Laskoskie\Desktop\OpenSesame SternburgTask","False","mono","False","18","no","white","no","yes","768","legacy","1","11","C:/Users/Hannah Laskoskie/Desktop/OpenSesame SternburgTask/HL-subject-4.csv","legacy","3 4 9 6 7 8","Melodramatic Milgram","4.0.5","0","n","0","right","right","right","NA","right","439.0","111455","14325","NA","439","2","legacy","6","1024","2","48000","-16","experiment","4","even","2","210151","211205","213407","178155","4046","190884","212206","215408","NA","211202","4043","205209","215408","215848","115502","Sternberg Task","5","12963.0","14","1024"
"33","33","895","895","#3d3846","experiment","legacy","legacy","legacy","0","undefined","0","left","14","14","14","14","0","0","14","14","0","14","0","0","14","14","0","Sun Oct 22 20:49:30 2023","The main experiment item","True","SternbergTask.osexp","C:\Users\Hannah Laskoskie\Desktop\OpenSesame SternburgTask","False","mono","False","18","no","white","no","yes","768","legacy","2","11","C:/Users/Hannah Laskoskie/Desktop/OpenSesame SternburgTask/HL-subject-4.csv","legacy","9 8 4","Melodramatic Milgram","4.0.5","1","y","0","right","right","right","NA","right","472.0","111455","14325","NA","472","2","legacy","3","1024","2","48000","-16","experiment","4","even","9","215851","216898","219100","178155","4046","190884","217899","221101","NA","216896","4043","205209","221101","221574","115502","Sternberg Task","5","13435.0","15","1024"
"37","37","878","878","#3d3846","experiment","legacy","legacy","legacy","1","undefined","1","left","15","15","15","15","0","0","15","15","0","15","0","0","15","15","0","Sun Oct 22 20:49:30 2023","The main experiment item","True","SternbergTask.osexp","C:\Users\Hannah Laskoskie\Desktop\OpenSesame SternburgTask","False","mono","False","18","no","white","no","yes","768","legacy","3","11","C:/Users/Hannah Laskoskie/Desktop/OpenSesame SternburgTask/HL-subject-4.csv","legacy","2 8 5 1","Melodramatic Milgram","4.0.5","4","y","0","left","right","right","NA","left","627.0","111455","14325","NA","627","2","legacy","4","1024","2","48000","-16","experiment","4","even","1","215851","222623","224825","221577","4046","190884","223624","226826","NA","222621","4043","205209","226826","227454","115502","Sternberg Task","6","14062.0","16","1024"
"41","41","855","855","#3d3846","experiment","legacy","legacy","legacy","1","undefined","1","right","16","16","16","16","0","0","16","16","0","16","0","0","16","16","0","Sun Oct 22 20:49:30 2023","The main experiment item","True","SternbergTask.osexp","C:\Users\Hannah Laskoskie\Desktop\OpenSesame SternburgTask","False","mono","False","18","no","white","no","yes","768","legacy","4","11","C:/Users/Hannah Laskoskie/Desktop/OpenSesame SternburgTask/HL-subject-4.csv","legacy","4 2 7 6 1 3","Melodramatic Milgram","4.0.5","0","n","0","right","right","right","NA","right","488.0","111455","14325","NA","488","2","legacy","6","1024","2","48000","-16","experiment","4","even","8","227463","228515","230717","221577","4046","190884","229516","232719","NA","228513","4043","205209","232719","233208","115502","Sternberg Task","7","14550.0","17","1024"
"38","38","849","849","#3d3846","experiment","legacy","legacy","legacy","0","undefined","0","right","17","17","17","17","0","0","17","17","0","17","0","0","17","17","0","Sun Oct 22 20:49:30 2023","The main experiment item","True","SternbergTask.osexp","C:\Users\Hannah Laskoskie\Desktop\OpenSesame SternburgTask","False","mono","False","18","no","white","no","yes","768","legacy","5","11","C:/Users/Hannah Laskoskie/Desktop/OpenSesame SternburgTask/HL-subject-4.csv","legacy","1 8 7","Melodramatic Milgram","4.0.5","0","n","0","left","right","right","NA","left","738.0","111455","14325","NA","738","2","legacy","3","1024","2","48000","-16","experiment","4","even","4","233217","234269","236471","221577","4046","190884","235270","238472","NA","234267","4043","205209","238472","239211","115502","Sternberg Task","7","15288.0","18","1024"
"36","36","836","836","#3d3846","experiment","legacy","legacy","legacy","0","undefined","0","left","18","18","18","18","0","0","18","18","0","18","0","0","18","18","0","Sun Oct 22 20:49:30 2023","The main experiment item","True","SternbergTask.osexp","C:\Users\Hannah Laskoskie\Desktop\OpenSesame SternburgTask","False","mono","False","18","no","white","no","yes","768","legacy","6","11","C:/Users/Hannah Laskoskie/Desktop/OpenSesame SternburgTask/HL-subject-4.csv","legacy","4 7 6 8 2 3","Melodramatic Milgram","4.0.5","6","y","0","right","right","right","NA","right","602.0","111455","14325","NA","602","2","legacy","6","1024","2","48000","-16","experiment","4","even","3","233217","240282","242485","239216","4046","190884","241284","244486","NA","240279","4043","205209","244487","245090","115502","Sternberg Task","7","15890.0","19","1024"
"40","40","836","836","#3d3846","experiment","legacy","legacy","legacy","1","undefined","1","right","19","19","19","19","0","0","19","19","0","19","0","0","19","19","0","Sun Oct 22 20:49:30 2023","The main experiment item","True","SternbergTask.osexp","C:\Users\Hannah Laskoskie\Desktop\OpenSesame SternburgTask","False","mono","False","18","no","white","no","yes","768","legacy","7","11","C:/Users/Hannah Laskoskie/Desktop/OpenSesame SternburgTask/HL-subject-4.csv","legacy","7 1","Melodramatic Milgram","4.0.5","0","n","0","right","right","right","NA","right","844.0","111455","14325","NA","844","2","legacy","2","1024","2","48000","-16","experiment","4","even","8","233217","246142","248346","245093","4046","190884","247145","250347","NA","246138","4043","205209","250347","251192","115502","Sternberg Task","8","16734.0","20","1024"
"42","42","853","853","#3d3846","experiment","legacy","legacy","legacy","1","undefined","1","left","20","20","20","20","0","0","20","20","0","20","0","0","20","20","0","Sun Oct 22 20:49:30 2023","The main experiment item","True","SternbergTask.osexp","C:\Users\Hannah Laskoskie\Desktop\OpenSesame SternburgTask","False","mono","False","18","no","white","no","yes","768","legacy","8","11","C:/Users/Hannah Laskoskie/Desktop/OpenSesame SternburgTask/HL-subject-4.csv","legacy","3 9 7 6 4","Melodramatic Milgram","4.0.5","3","y","0","left","right","right","NA","left","1186.0","111455","14325","NA","1186","2","legacy","5","1024","2","48000","-16","experiment","4","even","7","251195","252271","254473","245093","4046","190884","253272","256474","NA","252265","4043","205209","256474","257660","115502","Sternberg Task","9","17920.0","21","1024"
"45","45","844","844","#3d3846","experiment","legacy","legacy","legacy","1","undefined","1","right","21","21","21","21","0","0","21","21","0","21","0","0","21","21","0","Sun Oct 22 20:49:30 2023","The main experiment item","True","SternbergTask.osexp","C:\Users\Hannah Laskoskie\Desktop\OpenSesame SternburgTask","False","mono","False","18","no","white","no","yes","768","legacy","9","11","C:/Users/Hannah Laskoskie/Desktop/OpenSesame SternburgTask/HL-subject-4.csv","legacy","1 3 2 6 9","Melodramatic Milgram","4.0.5","0","n","0","right","right","right","NA","right","664.0","111455","14325","NA","664","2","legacy","5","1024","2","48000","-16","experiment","4","even","5","257663","258719","260922","245093","4046","190884","259721","262923","NA","258716","4043","205209","262923","263588","115502","Sternberg Task","10","18584.0","22","1024"
"43","43","839","839","#3d3846","experiment","legacy","legacy","legacy","0","undefined","0","left","22","22","22","22","0","0","22","22","0","22","0","0","22","22","0","Sun Oct 22 20:49:30 2023","The main experiment item","True","SternbergTask.osexp","C:\Users\Hannah Laskoskie\Desktop\OpenSesame SternburgTask","False","mono","False","18","no","white","no","yes","768","legacy","10","11","C:/Users/Hannah Laskoskie/Desktop/OpenSesame SternburgTask/HL-subject-4.csv","legacy","6 1 2","Melodramatic Milgram","4.0.5","3","y","0","right","right","right","NA","right","714.0","111455","14325","NA","714","2","legacy","3","1024","2","48000","-16","experiment","4","even","2","263598","264643","266845","245093","4046","190884","265644","268846","NA","264641","4043","205209","268846","269561","115502","Sternberg Task","10","19298.0","23","1024"
"45","45","824","824","#3d3846","experiment","legacy","legacy","legacy","1","undefined","1","left","23","23","23","23","0","0","23","23","0","23","0","0","23","23","0","Sun Oct 22 20:49:30 2023","The main experiment item","True","SternbergTask.osexp","C:\Users\Hannah Laskoskie\Desktop\OpenSesame SternburgTask","False","mono","False","18","no","white","no","yes","768","legacy","11","11","C:/Users/Hannah Laskoskie/Desktop/OpenSesame SternburgTask/HL-subject-4.csv","legacy","1 4 9 3 2 5","Melodramatic Milgram","4.0.5","3","y","0","left","right","right","NA","left","492.0","111455","14325","NA","492","2","legacy","6","1024","2","48000","-16","experiment","4","even","9","263598","270628","272831","269571","4046","190884","271630","274832","NA","270626","4043","205209","274832","275326","115502","Sternberg Task","11","19790.0","24","1024"
"48","48","835","835","#3d3846","experiment","legacy","legacy","legacy","1","undefined","1","left","24","24","24","24","0","0","24","24","0","24","0","0","24","24","0","Sun Oct 22 20:49:30 2023","The main experiment item","True","SternbergTask.osexp","C:\Users\Hannah Laskoskie\Desktop\OpenSesame SternburgTask","False","mono","False","18","no","white","no","yes","768","legacy","12","11","C:/Users/Hannah Laskoskie/Desktop/OpenSesame SternburgTask/HL-subject-4.csv","legacy","5 7 3 6 2","Melodramatic Milgram","4.0.5","5","y","0","left","right","right","NA","left","1100.0","111455","14325","NA","1100","2","legacy","5","1024","2","48000","-16","experiment","4","even","2","275329","276379","278581","269571","4046","190884","277380","280582","NA","276376","4043","205209","280582","281683","115502","Sternberg Task","12","20890.0","25","1024"
"50","50","841","841","#3d3846","experiment","legacy","legacy","legacy","1","undefined","1","right","25","25","25","25","0","0","25","25","0","25","0","0","25","25","0","Sun Oct 22 20:49:30 2023","The main experiment item","True","SternbergTask.osexp","C:\Users\Hannah Laskoskie\Desktop\OpenSesame SternburgTask","False","mono","False","18","no","white","no","yes","768","legacy","13","11","C:/Users/Hannah Laskoskie/Desktop/OpenSesame SternburgTask/HL-subject-4.csv","legacy","6 2 9 3 8 4","Melodramatic Milgram","4.0.5","0","n","0","right","right","right","NA","right","978.0","111455","14325","NA","978","2","legacy","6","1024","2","48000","-16","experiment","4","even","1","281686","282731","284933","269571","4046","190884","283732","286934","NA","282729","4043","205209","286934","287913","115502","Sternberg Task","13","21868.0","26","1024"
"51","51","835","835","#3d3846","experiment","legacy","legacy","legacy","1","undefined","1","left","26","26","26","26","0","0","26","26","0","26","0","0","26","26","0","Sun Oct 22 20:49:30 2023","The main experiment item","True","SternbergTask.osexp","C:\Users\Hannah Laskoskie\Desktop\OpenSesame SternburgTask","False","mono","False","18","no","white","no","yes","768","legacy","14","11","C:/Users/Hannah Laskoskie/Desktop/OpenSesame SternburgTask/HL-subject-4.csv","legacy","4 1 5","Melodramatic Milgram","4.0.5","2","y","0","left","right","right","NA","left","702.0","111455","14325","NA","702","2","legacy","3","1024","2","48000","-16","experiment","4","even","1","287922","288970","291172","269571","4046","190884","289971","293173","NA","288967","4043","205209","293173","293876","115502","Sternberg Task","14","22570.0","27","1024"
"50","50","825","825","#3d3846","experiment","legacy","legacy","legacy","0","undefined","0","left","27","27","27","27","0","0","27","27","0","27","0","0","27","27","0","Sun Oct 22 20:49:30 2023","The main experiment item","True","SternbergTask.osexp","C:\Users\Hannah Laskoskie\Desktop\OpenSesame SternburgTask","False","mono","False","18","no","white","no","yes","768","legacy","15","11","C:/Users/Hannah Laskoskie/Desktop/OpenSesame SternburgTask/HL-subject-4.csv","legacy","4 3 2 5 8","Melodramatic Milgram","4.0.5","2","y","0","right","right","right","NA","right","547.0","111455","14325","NA","547","2","legacy","5","1024","2","48000","-16","experiment","4","even","3","293885","294930","297132","269571","4046","190884","295931","299133","NA","294928","4043","205209","299133","299681","115502","Sternberg Task","14","23117.0","28","1024"
"51","51","821","821","#3d3846","experiment","legacy","legacy","legacy","1","undefined","1","left","28","28","28","28","0","0","28","28","0","28","0","0","28","28","0","Sun Oct 22 20:49:30 2023","The main experiment item","True","SternbergTask.osexp","C:\Users\Hannah Laskoskie\Desktop\OpenSesame SternburgTask","False","mono","False","18","no","white","no","yes","768","legacy","16","11","C:/Users/Hannah Laskoskie/Desktop/OpenSesame SternburgTask/HL-subject-4.csv","legacy","6 2","Melodramatic Milgram","4.0.5","1","y","0","left","right","right","NA","left","703.0","111455","14325","NA","703","2","legacy","2","1024","2","48000","-16","experiment","4","even","6","293885","300735","302937","299690","4046","190884","301736","304938","NA","300733","4043","205209","304938","305643","115502","Sternberg Task","15","23820.0","29","1024"
"50","50","815","815","#3d3846","experiment","legacy","legacy","legacy","0","undefined","0","left","29","29","29","29","0","0","29","29","0","29","0","0","29","29","0","Sun Oct 22 20:49:30 2023","The main experiment item","True","SternbergTask.osexp","C:\Users\Hannah Laskoskie\Desktop\OpenSesame SternburgTask","False","mono","False","18","no","white","no","yes","768","legacy","17","11","C:/Users/Hannah Laskoskie/Desktop/OpenSesame SternburgTask/HL-subject-4.csv","legacy","2 4 8 5 1 3","Melodramatic Milgram","4.0.5","1","y","0","right","right","right","NA","right","641.0","111455","14325","NA","641","2","legacy","6","1024","2","48000","-16","experiment","4","even","2","305651","306702","308904","299690","4046","190884","307703","310905","NA","306699","4043","205209","310905","311547","115502","Sternberg Task","15","24461.0","30","1024"
"48","48","807","807","#3d3846","experiment","legacy","legacy","legacy","0","undefined","0","right","30","30","30","30","0","0","30","30","0","30","0","0","30","30","0","Sun Oct 22 20:49:30 2023","The main experiment item","True","SternbergTask.osexp","C:\Users\Hannah Laskoskie\Desktop\OpenSesame SternburgTask","False","mono","False","18","no","white","no","yes","768","legacy","18","11","C:/Users/Hannah Laskoskie/Desktop/OpenSesame SternburgTask/HL-subject-4.csv","legacy","1 6 4","Melodramatic Milgram","4.0.5","0","n","0","left","right","right","NA","left","559.0","111455","14325","NA","559","2","legacy","3","1024","2","48000","-16","experiment","4","even","7","305651","312601","314803","311557","4046","190884","313602","316804","NA","312599","4043","205209","316804","317364","115502","Sternberg Task","15","25020.0","31","1024"
"50","50","800","800","#3d3846","experiment","legacy","legacy","legacy","1","undefined","1","right","31","31","31","31","0","0","31","31","0","31","0","0","31","31","0","Sun Oct 22 20:49:30 2023","The main experiment item","True","SternbergTask.osexp","C:\Users\Hannah Laskoskie\Desktop\OpenSesame SternburgTask","False","mono","False","18","no","white","no","yes","768","legacy","19","11","C:/Users/Hannah Laskoskie/Desktop/OpenSesame SternburgTask/HL-subject-4.csv","legacy","1 7 5 2 9","Melodramatic Milgram","4.0.5","0","n","0","right","right","right","NA","right","591.0","111455","14325","NA","591","2","legacy","5","1024","2","48000","-16","experiment","4","even","3","305651","318432","320634","317373","4046","190884","319433","322635","NA","318430","4043","205209","322635","323227","115502","Sternberg Task","16","25611.0","32","1024"
"48","48","793","793","#3d3846","experiment","legacy","legacy","legacy","0","undefined","0","left","32","32","32","32","0","0","32","32","0","32","0","0","32","32","0","Sun Oct 22 20:49:30 2023","The main experiment item","True","SternbergTask.osexp","C:\Users\Hannah Laskoskie\Desktop\OpenSesame SternburgTask","False","mono","False","18","no","white","no","yes","768","legacy","20","11","C:/Users/Hannah Laskoskie/Desktop/OpenSesame SternburgTask/HL-subject-4.csv","legacy","7 6","Melodramatic Milgram","4.0.5","2","y","0","right","right","right","NA","right","560.0","111455","14325","NA","560","2","legacy","2","1024","2","48000","-16","experiment","4","even","6","323237","324285","326489","317373","4046","190884","325288","328490","NA","324283","4043","205209","328491","329052","115502","Sternberg Task","16","26171.0","33","1024"
"50","50","780","780","#3d3846","experiment","legacy","legacy","legacy","1","undefined","1","left","33","33","33","33","0","0","33","33","0","33","0","0","33","33","0","Sun Oct 22 20:49:30 2023","The main experiment item","True","SternbergTask.osexp","C:\Users\Hannah Laskoskie\Desktop\OpenSesame SternburgTask","False","mono","False","18","no","white","no","yes","768","legacy","21","11","C:/Users/Hannah Laskoskie/Desktop/OpenSesame SternburgTask/HL-subject-4.csv","legacy","7","Melodramatic Milgram","4.0.5","1","y","0","left","right","right","NA","left","355.0","111455","14325","NA","355","2","legacy","1","1024","2","48000","-16","experiment","4","even","7","323237","330104","332306","329061","4046","190884","331105","334307","NA","330103","4043","205209","334307","334663","115502","Sternberg Task","17","26526.0","34","1024"
"51","51","797","797","#3d3846","experiment","legacy","legacy","legacy","1","undefined","1","left","34","34","34","34","0","0","34","34","0","34","0","0","34","34","0","Sun Oct 22 20:49:30 2023","The main experiment item","True","SternbergTask.osexp","C:\Users\Hannah Laskoskie\Desktop\OpenSesame SternburgTask","False","mono","False","18","no","white","no","yes","768","legacy","22","11","C:/Users/Hannah Laskoskie/Desktop/OpenSesame SternburgTask/HL-subject-4.csv","legacy","7 1 3","Melodramatic Milgram","4.0.5","2","y","0","left","right","right","NA","left","1392.0","111455","14325","NA","1392","2","legacy","3","1024","2","48000","-16","experiment","4","even","1","334674","335719","337921","329061","4046","190884","336720","339922","NA","335717","4043","205209","339923","341316","115502","Sternberg Task","18","27918.0","35","1024"
"52","52","793","793","#3d3846","experiment","legacy","legacy","legacy","1","undefined","1","right","35","35","35","35","0","0","35","35","0","35","0","0","35","35","0","Sun Oct 22 20:49:30 2023","The main experiment item","True","SternbergTask.osexp","C:\Users\Hannah Laskoskie\Desktop\OpenSesame SternburgTask","False","mono","False","18","no","white","no","yes","768","legacy","23","11","C:/Users/Hannah Laskoskie/Desktop/OpenSesame SternburgTask/HL-subject-4.csv","legacy","8 5 4 2 9 6","Melodramatic Milgram","4.0.5","0","n","0","right","right","right","NA","right","653.0","111455","14325","NA","653","2","legacy","6","1024","2","48000","-16","experiment","4","even","3","341324","342368","344570","329061","4046","190884","343369","346571","NA","342366","4043","205209","346571","347226","115502","Sternberg Task","19","28571.0","36","1024"
"54","54","787","787","#3d3846","experiment","legacy","legacy","legacy","1","undefined","1","right","36","36","36","36","0","0","36","36","0","36","0","0","36","36","0","Sun Oct 22 20:49:30 2023","The main experiment item","True","SternbergTask.osexp","C:\Users\Hannah Laskoskie\Desktop\OpenSesame SternburgTask","False","mono","False","18","no","white","no","yes","768","legacy","24","11","C:/Users/Hannah Laskoskie/Desktop/OpenSesame SternburgTask/HL-subject-4.csv","legacy","5 2","Melodramatic Milgram","4.0.5","0","n","0","right","right","right","NA","right","584.0","111455","14325","NA","584","2","legacy","2","1024","2","48000","-16","experiment","4","even","7","347234","348285","350487","329061","4046","190884","349286","352488","NA","348282","4043","205209","352488","353073","115502","Sternberg Task","20","29155.0","37","1024"
"55","55","782","782","#3d3846","experiment","legacy","legacy","legacy","1","undefined","1","right","37","37","37","37","0","0","37","37","0","37","0","0","37","37","0","Sun Oct 22 20:49:30 2023","The main experiment item","True","SternbergTask.osexp","C:\Users\Hannah Laskoskie\Desktop\OpenSesame SternburgTask","False","mono","False","18","no","white","no","yes","768","legacy","25","11","C:/Users/Hannah Laskoskie/Desktop/OpenSesame SternburgTask/HL-subject-4.csv","legacy","2 8 6 3 1","Melodramatic Milgram","4.0.5","0","n","0","right","right","right","NA","right","570.0","111455","14325","NA","570","2","legacy","5","1024","2","48000","-16","experiment","4","even","7","353076","354126","356328","329061","4046","190884","355127","358329","NA","354124","4043","205209","358329","358900","115502","Sternberg Task","21","29725.0","38","1024"
"56","56","775","775","#3d3846","experiment","legacy","legacy","legacy","1","undefined","1","right","38","38","38","38","0","0","38","38","0","38","0","0","38","38","0","Sun Oct 22 20:49:30 2023","The main experiment item","True","SternbergTask.osexp","C:\Users\Hannah Laskoskie\Desktop\OpenSesame SternburgTask","False","mono","False","18","no","white","no","yes","768","legacy","26","11","C:/Users/Hannah Laskoskie/Desktop/OpenSesame SternburgTask/HL-subject-4.csv","legacy","7 9","Melodramatic Milgram","4.0.5","0","n","0","right","right","right","NA","right","505.0","111455","14325","NA","505","2","legacy","2","1024","2","48000","-16","experiment","4","even","1","358910","359972","362174","329061","4046","190884","360973","364175","NA","359970","4043","205209","364175","364681","115502","Sternberg Task","22","30230.0","39","1024"
"55","55","768","768","#3d3846","experiment","legacy","legacy","legacy","0","undefined","0","left","39","39","39","39","0","0","39","39","0","39","0","0","39","39","0","Sun Oct 22 20:49:30 2023","The main experiment item","True","SternbergTask.osexp","C:\Users\Hannah Laskoskie\Desktop\OpenSesame SternburgTask","False","mono","False","18","no","white","no","yes","768","legacy","27","11","C:/Users/Hannah Laskoskie/Desktop/OpenSesame SternburgTask/HL-subject-4.csv","legacy","8 9 5 6 7","Melodramatic Milgram","4.0.5","1","y","0","right","right","right","NA","right","511.0","111455","14325","NA","511","2","legacy","5","1024","2","48000","-16","experiment","4","even","8","364690","365740","367942","329061","4046","190884","366741","369943","NA","365738","4043","205209","369943","370456","115502","Sternberg Task","22","30741.0","40","1024"
"53","53","770","770","#3d3846","experiment","legacy","legacy","legacy","0","undefined","0","left","40","40","40","40","0","0","40","40","0","40","0","0","40","40","0","Sun Oct 22 20:49:30 2023","The main experiment item","True","SternbergTask.osexp","C:\Users\Hannah Laskoskie\Desktop\OpenSesame SternburgTask","False","mono","False","18","no","white","no","yes","768","legacy","28","11","C:/Users/Hannah Laskoskie/Desktop/OpenSesame SternburgTask/HL-subject-4.csv","legacy","7 8 6 3 1","Melodramatic Milgram","4.0.5","5","y","0","right","right","right","NA","right","850.0","111455","14325","NA","850","2","legacy","5","1024","2","48000","-16","experiment","4","even","1","364690","371512","373714","370465","4046","190884","372513","375715","NA","371509","4043","205209","375715","376566","115502","Sternberg Task","22","31591.0","41","1024"
"54","54","774","774","#3d3846","experiment","legacy","legacy","legacy","1","undefined","1","right","41","41","41","41","0","0","41","41","0","41","0","0","41","41","0","Sun Oct 22 20:49:30 2023","The main experiment item","True","SternbergTask.osexp","C:\Users\Hannah Laskoskie\Desktop\OpenSesame SternburgTask","False","mono","False","18","no","white","no","yes","768","legacy","29","11","C:/Users/Hannah Laskoskie/Desktop/OpenSesame SternburgTask/HL-subject-4.csv","legacy","1 4 9 2 5","Melodramatic Milgram","4.0.5","0","n","0","right","right","right","NA","right","928.0","111455","14325","NA","928","2","legacy","5","1024","2","48000","-16","experiment","4","even","7","364690","377619","379821","376575","4046","190884","378620","381822","NA","377617","4043","205209","381822","382751","115502","Sternberg Task","23","32519.0","42","1024"
"53","53","776","776","#3d3846","experiment","legacy","legacy","legacy","0","undefined","0","left","42","42","42","42","0","0","42","42","0","42","0","0","42","42","0","Sun Oct 22 20:49:30 2023","The main experiment item","True","SternbergTask.osexp","C:\Users\Hannah Laskoskie\Desktop\OpenSesame SternburgTask","False","mono","False","18","no","white","no","yes","768","legacy","30","11","C:/Users/Hannah Laskoskie/Desktop/OpenSesame SternburgTask/HL-subject-4.csv","legacy","2 4 6 9","Melodramatic Milgram","4.0.5","3","y","0","right","right","right","NA","right","861.0","111455","14325","NA","861","2","legacy","4","1024","2","48000","-16","experiment","4","even","6","382760","383807","386009","376575","4046","190884","384808","388010","NA","383805","4043","205209","388010","388872","115502","Sternberg Task","23","33380.0","43","1024"
"54","54","775","775","#3d3846","experiment","legacy","legacy","legacy","1","undefined","1","right","43","43","43","43","0","0","43","43","0","43","0","0","43","43","0","Sun Oct 22 20:49:30 2023","The main experiment item","True","SternbergTask.osexp","C:\Users\Hannah Laskoskie\Desktop\OpenSesame SternburgTask","False","mono","False","18","no","white","no","yes","768","legacy","31","11","C:/Users/Hannah Laskoskie/Desktop/OpenSesame SternburgTask/HL-subject-4.csv","legacy","9 7 4 5 8","Melodramatic Milgram","4.0.5","0","n","0","right","right","right","NA","right","741.0","111455","14325","NA","741","2","legacy","5","1024","2","48000","-16","experiment","4","even","6","382760","389926","392128","388882","4046","190884","390927","394130","NA","389924","4043","205209","394130","394873","115502","Sternberg Task","24","34121.0","44","1024"
"55","55","768","768","#3d3846","experiment","legacy","legacy","legacy","1","undefined","1","left","44","44","44","44","0","0","44","44","0","44","0","0","44","44","0","Sun Oct 22 20:49:30 2023","The main experiment item","True","SternbergTask.osexp","C:\Users\Hannah Laskoskie\Desktop\OpenSesame SternburgTask","False","mono","False","18","no","white","no","yes","768","legacy","32","11","C:/Users/Hannah Laskoskie/Desktop/OpenSesame SternburgTask/HL-subject-4.csv","legacy","2 3","Melodramatic Milgram","4.0.5","1","y","0","left","right","right","NA","left","442.0","111455","14325","NA","442","2","legacy","2","1024","2","48000","-16","experiment","4","even","2","394877","395928","398130","388882","4046","190884","396929","400131","NA","395926","4043","205209","400131","400574","115502","Sternberg Task","25","34563.0","45","1024"
"56","56","768","768","#3d3846","experiment","legacy","legacy","legacy","1","undefined","1","right","45","45","45","45","0","0","45","45","0","45","0","0","45","45","0","Sun Oct 22 20:49:30 2023","The main experiment item","True","SternbergTask.osexp","C:\Users\Hannah Laskoskie\Desktop\OpenSesame SternburgTask","False","mono","False","18","no","white","no","yes","768","legacy","33","11","C:/Users/Hannah Laskoskie/Desktop/OpenSesame SternburgTask/HL-subject-4.csv","legacy","6 9 4 5 2","Melodramatic Milgram","4.0.5","0","n","0","right","right","right","NA","right","783.0","111455","14325","NA","783","2","legacy","5","1024","2","48000","-16","experiment","4","even","1","400577","401625","403828","388882","4046","190884","402627","405829","NA","401623","4043","205209","405829","406614","115502","Sternberg Task","26","35346.0","46","1024"
"55","55","767","767","#3d3846","experiment","legacy","legacy","legacy","0","undefined","0","right","46","46","46","46","0","0","46","46","0","46","0","0","46","46","0","Sun Oct 22 20:49:30 2023","The main experiment item","True","SternbergTask.osexp","C:\Users\Hannah Laskoskie\Desktop\OpenSesame SternburgTask","False","mono","False","18","no","white","no","yes","768","legacy","34","11","C:/Users/Hannah Laskoskie/Desktop/OpenSesame SternburgTask/HL-subject-4.csv","legacy","6 7 5 9","Melodramatic Milgram","4.0.5","0","n","0","left","right","right","NA","left","721.0","111455","14325","NA","721","2","legacy","4","1024","2","48000","-16","experiment","4","even","2","406623","407679","409881","388882","4046","190884","408680","411882","NA","407677","4043","205209","411882","412604","115502","Sternberg Task","26","36067.0","47","1024"
"56","56","769","769","#3d3846","experiment","legacy","legacy","legacy","1","undefined","1","right","47","47","47","47","0","0","47","47","0","47","0","0","47","47","0","Sun Oct 22 20:49:30 2023","The main experiment item","True","SternbergTask.osexp","C:\Users\Hannah Laskoskie\Desktop\OpenSesame SternburgTask","False","mono","False","18","no","white","no","yes","768","legacy","35","11","C:/Users/Hannah Laskoskie/Desktop/OpenSesame SternburgTask/HL-subject-4.csv","legacy","7 3 2 8","Melodramatic Milgram","4.0.5","0","n","0","right","right","right","NA","right","853.0","111455","14325","NA","853","2","legacy","4","1024","2","48000","-16","experiment","4","even","4","406623","413661","415863","412613","4046","190884","414662","417864","NA","413659","4043","205209","417864","418719","115502","Sternberg Task","27","36920.0","48","1024"
"55","55","770","770","#3d3846","experiment","legacy","legacy","legacy","0","undefined","0","right","48","48","48","48","0","0","48","48","0","48","0","0","48","48","0","Sun Oct 22 20:49:30 2023","The main experiment item","True","SternbergTask.osexp","C:\Users\Hannah Laskoskie\Desktop\OpenSesame SternburgTask","False","mono","False","18","no","white","no","yes","768","legacy","36","11","C:/Users/Hannah Laskoskie/Desktop/OpenSesame SternburgTask/HL-subject-4.csv","legacy","6 9 7 3 8 2","Melodramatic Milgram","4.0.5","0","n","0","left","right","right","NA","left","857.0","111455","14325","NA","857","2","legacy","6","1024","2","48000","-16","experiment","4","even","5","418722","419769","421971","412613","4046","190884","420770","423972","NA","419767","4043","205209","423972","424830","115502","Sternberg Task","27","37777.0","49","1024"
"56","56","777","777","#3d3846","experiment","legacy","legacy","legacy","1","undefined","1","right","49","49","49","49","0","0","49","49","0","49","0","0","49","49","0","Sun Oct 22 20:49:30 2023","The main experiment item","True","SternbergTask.osexp","C:\Users\Hannah Laskoskie\Desktop\OpenSesame SternburgTask","False","mono","False","18","no","white","no","yes","768","legacy","37","11","C:/Users/Hannah Laskoskie/Desktop/OpenSesame SternburgTask/HL-subject-4.csv","legacy","8 9","Melodramatic Milgram","4.0.5","0","n","0","right","right","right","NA","right","1101.0","111455","14325","NA","1101","2","legacy","2","1024","2","48000","-16","experiment","4","even","5","418722","425884","428086","424840","4046","190884","426885","430087","NA","425882","4043","205209","430087","431189","115502","Sternberg Task","28","38878.0","50","1024"
"56","56","792","792","#3d3846","experiment","legacy","legacy","legacy","1","undefined","1","right","50","50","50","50","0","0","50","50","0","50","0","0","50","50","0","Sun Oct 22 20:49:30 2023","The main experiment item","True","SternbergTask.osexp","C:\Users\Hannah Laskoskie\Desktop\OpenSesame SternburgTask","False","mono","False","18","no","white","no","yes","768","legacy","38","11","C:/Users/Hannah Laskoskie/Desktop/OpenSesame SternburgTask/HL-subject-4.csv","legacy","3 4 2","Melodramatic Milgram","4.0.5","0","n","0","right","right","right","NA","right","1562.0","111455","14325","NA","1562","2","legacy","3","1024","2","48000","-16","experiment","4","even","5","431199","432248","434450","424840","4046","190884","433249","436451","NA","432245","4043","205209","436451","438015","115502","Sternberg Task","29","40440.0","51","1024"
"57","57","791","791","#3d3846","experiment","legacy","legacy","legacy","1","undefined","1","right","51","51","51","51","0","0","51","51","0","51","0","0","51","51","0","Sun Oct 22 20:49:30 2023","The main experiment item","True","SternbergTask.osexp","C:\Users\Hannah Laskoskie\Desktop\OpenSesame SternburgTask","False","mono","False","18","no","white","no","yes","768","legacy","39","11","C:/Users/Hannah Laskoskie/Desktop/OpenSesame SternburgTask/HL-subject-4.csv","legacy","8 4 3 5","Melodramatic Milgram","4.0.5","0","n","0","right","right","right","NA","right","718.0","111455","14325","NA","718","2","legacy","4","1024","2","48000","-16","experiment","4","even","6","438018","439069","441272","424840","4046","190884","440070","443273","NA","439066","4043","205209","443273","443992","115502","Sternberg Task","30","41158.0","52","1024"
"56","56","790","790","#3d3846","experiment","legacy","legacy","legacy","0","undefined","0","left","52","52","52","52","0","0","52","52","0","52","0","0","52","52","0","Sun Oct 22 20:49:30 2023","The main experiment item","True","SternbergTask.osexp","C:\Users\Hannah Laskoskie\Desktop\OpenSesame SternburgTask","False","mono","False","18","no","white","no","yes","768","legacy","40","11","C:/Users/Hannah Laskoskie/Desktop/OpenSesame SternburgTask/HL-subject-4.csv","legacy","2 5 4 8 7","Melodramatic Milgram","4.0.5","3","y","0","right","right","right","NA","right","719.0","111455","14325","NA","719","2","legacy","5","1024","2","48000","-16","experiment","4","even","4","444001","445048","447250","424840","4046","190884","446049","449251","NA","445046","4043","205209","449251","449971","115502","Sternberg Task","30","41877.0","53","1024"
"57","57","788","788","#3d3846","experiment","legacy","legacy","legacy","1","undefined","1","left","53","53","53","53","0","0","53","53","0","53","0","0","53","53","0","Sun Oct 22 20:49:30 2023","The main experiment item","True","SternbergTask.osexp","C:\Users\Hannah Laskoskie\Desktop\OpenSesame SternburgTask","False","mono","False","18","no","white","no","yes","768","legacy","41","11","C:/Users/Hannah Laskoskie/Desktop/OpenSesame SternburgTask/HL-subject-4.csv","legacy","9 1 6 7 8","Melodramatic Milgram","4.0.5","1","y","0","left","right","right","NA","left","683.0","111455","14325","NA","683","2","legacy","5","1024","2","48000","-16","experiment","4","even","9","444001","451045","453247","449980","4046","190884","452046","455248","NA","451042","4043","205209","455248","455932","115502","Sternberg Task","31","42560.0","54","1024"
"58","58","788","788","#3d3846","experiment","legacy","legacy","legacy","1","undefined","1","left","54","54","54","54","0","0","54","54","0","54","0","0","54","54","0","Sun Oct 22 20:49:30 2023","The main experiment item","True","SternbergTask.osexp","C:\Users\Hannah Laskoskie\Desktop\OpenSesame SternburgTask","False","mono","False","18","no","white","no","yes","768","legacy","42","11","C:/Users/Hannah Laskoskie/Desktop/OpenSesame SternburgTask/HL-subject-4.csv","legacy","6 9 3 1","Melodramatic Milgram","4.0.5","4","y","0","left","right","right","NA","left","825.0","111455","14325","NA","825","2","legacy","4","1024","2","48000","-16","experiment","4","even","1","455942","456993","459195","449980","4046","190884","457994","461196","NA","456990","4043","205209","461196","462022","115502","Sternberg Task","32","43385.0","55","1024"
"58","58","784","784","#3d3846","experiment","legacy","legacy","legacy","1","undefined","1","left","55","55","55","55","0","0","55","55","0","55","0","0","55","55","0","Sun Oct 22 20:49:30 2023","The main experiment item","True","SternbergTask.osexp","C:\Users\Hannah Laskoskie\Desktop\OpenSesame SternburgTask","False","mono","False","18","no","white","no","yes","768","legacy","43","11","C:/Users/Hannah Laskoskie/Desktop/OpenSesame SternburgTask/HL-subject-4.csv","legacy","3 4","Melodramatic Milgram","4.0.5","1","y","0","left","right","right","NA","left","564.0","111455","14325","NA","564","2","legacy","2","1024","2","48000","-16","experiment","4","even","3","462031","463075","465277","449980","4046","190884","464076","467278","NA","463073","4043","205209","467278","467843","115502","Sternberg Task","33","43949.0","56","1024"
"59","59","786","786","#3d3846","experiment","legacy","legacy","legacy","1","undefined","1","right","56","56","56","56","0","0","56","56","0","56","0","0","56","56","0","Sun Oct 22 20:49:30 2023","The main experiment item","True","SternbergTask.osexp","C:\Users\Hannah Laskoskie\Desktop\OpenSesame SternburgTask","False","mono","False","18","no","white","no","yes","768","legacy","44","11","C:/Users/Hannah Laskoskie/Desktop/OpenSesame SternburgTask/HL-subject-4.csv","legacy","5 7 3","Melodramatic Milgram","4.0.5","0","n","0","right","right","right","NA","right","871.0","111455","14325","NA","871","2","legacy","3","1024","2","48000","-16","experiment","4","even","9","467852","468898","471101","449980","4046","190884","469899","473102","NA","468896","4043","205209","473102","473974","115502","Sternberg Task","34","44820.0","57","1024"
"60","60","788","788","#3d3846","experiment","legacy","legacy","legacy","1","undefined","1","left","57","57","57","57","0","0","57","57","0","57","0","0","57","57","0","Sun Oct 22 20:49:30 2023","The main experiment item","True","SternbergTask.osexp","C:\Users\Hannah Laskoskie\Desktop\OpenSesame SternburgTask","False","mono","False","18","no","white","no","yes","768","legacy","45","11","C:/Users/Hannah Laskoskie/Desktop/OpenSesame SternburgTask/HL-subject-4.csv","legacy","9 3 8 2 1 4","Melodramatic Milgram","4.0.5","3","y","0","left","right","right","NA","left","940.0","111455","14325","NA","940","2","legacy","6","1024","2","48000","-16","experiment","4","even","8","473983","475027","477229","449980","4046","190884","476028","479230","NA","475025","4043","205209","479230","480171","115502","Sternberg Task","35","45760.0","58","1024"
"61","61","794","794","#3d3846","experiment","legacy","legacy","legacy","1","undefined","1","right","58","58","58","58","0","0","58","58","0","58","0","0","58","58","0","Sun Oct 22 20:49:30 2023","The main experiment item","True","SternbergTask.osexp","C:\Users\Hannah Laskoskie\Desktop\OpenSesame SternburgTask","False","mono","False","18","no","white","no","yes","768","legacy","46","11","C:/Users/Hannah Laskoskie/Desktop/OpenSesame SternburgTask/HL-subject-4.csv","legacy","7 9 1 6","Melodramatic Milgram","4.0.5","0","n","0","right","right","right","NA","right","1127.0","111455","14325","NA","1127","2","legacy","4","1024","2","48000","-16","experiment","4","even","4","480181","481224","483426","449980","4046","190884","482225","485427","NA","481222","4043","205209","485427","486555","115502","Sternberg Task","36","46887.0","59","1024"
"61","61","792","792","#3d3846","experiment","legacy","legacy","legacy","1","undefined","1","left","59","59","59","59","0","0","59","59","0","59","0","0","59","59","0","Sun Oct 22 20:49:30 2023","The main experiment item","True","SternbergTask.osexp","C:\Users\Hannah Laskoskie\Desktop\OpenSesame SternburgTask","False","mono","False","18","no","white","no","yes","768","legacy","47","11","C:/Users/Hannah Laskoskie/Desktop/OpenSesame SternburgTask/HL-subject-4.csv","legacy","4","Melodramatic Milgram","4.0.5","1","y","0","left","right","right","NA","left","687.0","111455","14325","NA","687","2","legacy","1","1024","2","48000","-16","experiment","4","even","4","486564","487609","489811","449980","4046","190884","488610","491812","NA","487607","4043","205209","491812","492500","115502","Sternberg Task","37","47574.0","60","1024"
"62","62","795","795","#3d3846","experiment","legacy","legacy","legacy","1","undefined","1","right","60","60","60","60","0","0","60","60","0","60","0","0","60","60","0","Sun Oct 22 20:49:30 2023","The main experiment item","True","SternbergTask.osexp","C:\Users\Hannah Laskoskie\Desktop\OpenSesame SternburgTask","False","mono","False","18","no","white","no","yes","768","legacy","48","11","C:/Users/Hannah Laskoskie/Desktop/OpenSesame SternburgTask/HL-subject-4.csv","legacy","2 6 4 3 9","Melodramatic Milgram","4.0.5","0","n","0","right","right","right","NA","right","948.0","111455","14325","NA","948","2","legacy","5","1024","2","48000","-16","experiment","4","even","1","492509","493557","495759","449980","4046","190884","494558","497760","NA","493555","4043","205209","497760","498709","115502","Sternberg Task","38","48522.0","61","1024"
"61","61","794","794","#3d3846","experiment","legacy","legacy","legacy","0","undefined","0","left","61","61","61","61","0","0","61","61","0","61","0","0","61","61","0","Sun Oct 22 20:49:30 2023","The main experiment item","True","SternbergTask.osexp","C:\Users\Hannah Laskoskie\Desktop\OpenSesame SternburgTask","False","mono","False","18","no","white","no","yes","768","legacy","49","11","C:/Users/Hannah Laskoskie/Desktop/OpenSesame SternburgTask/HL-subject-4.csv","legacy","4 6 2 5 1","Melodramatic Milgram","4.0.5","5","y","0","right","right","right","NA","right","711.0","111455","14325","NA","711","2","legacy","5","1024","2","48000","-16","experiment","4","even","1","498718","499776","501978","449980","4046","190884","500777","503979","NA","499774","4043","205209","503979","504691","115502","Sternberg Task","38","49233.0","62","1024"
"61","61","795","795","#3d3846","experiment","legacy","legacy","legacy","1","undefined","1","right","62","62","62","62","0","0","62","62","0","62","0","0","62","62","0","Sun Oct 22 20:49:30 2023","The main experiment item","True","SternbergTask.osexp","C:\Users\Hannah Laskoskie\Desktop\OpenSesame SternburgTask","False","mono","False","18","no","white","no","yes","768","legacy","50","11","C:/Users/Hannah Laskoskie/Desktop/OpenSesame SternburgTask/HL-subject-4.csv","legacy","6 9 4 5 3 2","Melodramatic Milgram","4.0.5","0","n","0","right","right","right","NA","right","891.0","111455","14325","NA","891","2","legacy","6","1024","2","48000","-16","experiment","4","even","8","498718","505751","507953","504701","4046","190884","506752","509955","NA","505749","4043","205209","509955","510847","115502","Sternberg Task","39","50124.0","63","1024"
"60","60","800","800","#3d3846","experiment","legacy","legacy","legacy","0","undefined","0","right","63","63","63","63","0","0","63","63","0","63","0","0","63","63","0","Sun Oct 22 20:49:30 2023","The main experiment item","True","SternbergTask.osexp","C:\Users\Hannah Laskoskie\Desktop\OpenSesame SternburgTask","False","mono","False","18","no","white","no","yes","768","legacy","51","11","C:/Users/Hannah Laskoskie/Desktop/OpenSesame SternburgTask/HL-subject-4.csv","legacy","5 9 2 3","Melodramatic Milgram","4.0.5","0","n","0","left","right","right","NA","left","1087.0","111455","14325","NA","1087","2","legacy","4","1024","2","48000","-16","experiment","4","even","8","510857","511902","514104","504701","4046","190884","512903","516105","NA","511899","4043","205209","516105","517193","115502","Sternberg Task","39","51211.0","64","1024"
"61","61","800","800","#3d3846","experiment","legacy","legacy","legacy","1","undefined","1","right","64","64","64","64","0","0","64","64","0","64","0","0","64","64","0","Sun Oct 22 20:49:30 2023","The main experiment item","True","SternbergTask.osexp","C:\Users\Hannah Laskoskie\Desktop\OpenSesame SternburgTask","False","mono","False","18","no","white","no","yes","768","legacy","52","11","C:/Users/Hannah Laskoskie/Desktop/OpenSesame SternburgTask/HL-subject-4.csv","legacy","7 4 2 8 1 9","Melodramatic Milgram","4.0.5","0","n","0","right","right","right","NA","right","848.0","111455","14325","NA","848","2","legacy","6","1024","2","48000","-16","experiment","4","even","5","510857","518247","520449","517203","4046","190884","519248","522450","NA","518245","4043","205209","522450","523299","115502","Sternberg Task","40","52059.0","65","1024"
"62","62","799","799","#3d3846","experiment","legacy","legacy","legacy","1","undefined","1","right","65","65","65","65","0","0","65","65","0","65","0","0","65","65","0","Sun Oct 22 20:49:30 2023","The main experiment item","True","SternbergTask.osexp","C:\Users\Hannah Laskoskie\Desktop\OpenSesame SternburgTask","False","mono","False","18","no","white","no","yes","768","legacy","53","11","C:/Users/Hannah Laskoskie/Desktop/OpenSesame SternburgTask/HL-subject-4.csv","legacy","6 8","Melodramatic Milgram","4.0.5","0","n","0","right","right","right","NA","right","733.0","111455","14325","NA","733","2","legacy","2","1024","2","48000","-16","experiment","4","even","9","523309","524353","526555","517203","4046","190884","525354","528556","NA","524350","4043","205209","528556","529290","115502","Sternberg Task","41","52792.0","66","1024"
"61","61","802","802","#3d3846","experiment","legacy","legacy","legacy","0","undefined","0","left","66","66","66","66","0","0","66","66","0","66","0","0","66","66","0","Sun Oct 22 20:49:30 2023","The main experiment item","True","SternbergTask.osexp","C:\Users\Hannah Laskoskie\Desktop\OpenSesame SternburgTask","False","mono","False","18","no","white","no","yes","768","legacy","54","11","C:/Users/Hannah Laskoskie/Desktop/OpenSesame SternburgTask/HL-subject-4.csv","legacy","9 5 3 8 4","Melodramatic Milgram","4.0.5","1","y","0","right","right","right","NA","right","980.0","111455","14325","NA","980","2","legacy","5","1024","2","48000","-16","experiment","4","even","9","529293","530339","532541","517203","4046","190884","531340","534542","NA","530337","4043","205209","534542","535523","115502","Sternberg Task","41","53772.0","67","1024"
"60","60","820","820","#3d3846","experiment","legacy","legacy","legacy","0","undefined","0","left","67","67","67","67","0","0","67","67","0","67","0","0","67","67","0","Sun Oct 22 20:49:30 2023","The main experiment item","True","SternbergTask.osexp","C:\Users\Hannah Laskoskie\Desktop\OpenSesame SternburgTask","False","mono","False","18","no","white","no","yes","768","legacy","55","11","C:/Users/Hannah Laskoskie/Desktop/OpenSesame SternburgTask/HL-subject-4.csv","legacy","5 7 8 2 3 8","Melodramatic Milgram","4.0.5","5","y","0","None","right","right","NA","None","2000.0","111455","14325","NA","2000","2","legacy","6","1024","2","48000","-16","experiment","4","even","3","529293","536578","538780","535532","4046","190884","537579","540781","NA","536576","4043","205209","540781","542781","115502","Sternberg Task","41","55772.0","68","1024"
"60","60","821","821","#3d3846","experiment","legacy","legacy","legacy","1","undefined","1","right","68","68","68","68","0","0","68","68","0","68","0","0","68","68","0","Sun Oct 22 20:49:30 2023","The main experiment item","True","SternbergTask.osexp","C:\Users\Hannah Laskoskie\Desktop\OpenSesame SternburgTask","False","mono","False","18","no","white","no","yes","768","legacy","56","11","C:/Users/Hannah Laskoskie/Desktop/OpenSesame SternburgTask/HL-subject-4.csv","legacy","6 8 4","Melodramatic Milgram","4.0.5","0","n","0","right","right","right","NA","right","912.0","111455","14325","NA","912","2","legacy","3","1024","2","48000","-16","experiment","4","even","1","529293","543855","546057","542791","4046","190884","544856","548058","NA","543853","4043","205209","548058","548971","115502","Sternberg Task","42","56684.0","69","1024"
"61","61","818","818","#3d3846","experiment","legacy","legacy","legacy","1","undefined","1","left","69","69","69","69","0","0","69","69","0","69","0","0","69","69","0","Sun Oct 22 20:49:30 2023","The main experiment item","True","SternbergTask.osexp","C:\Users\Hannah Laskoskie\Desktop\OpenSesame SternburgTask","False","mono","False","18","no","white","no","yes","768","legacy","57","11","C:/Users/Hannah Laskoskie/Desktop/OpenSesame SternburgTask/HL-subject-4.csv","legacy","4 9 7 8 5 3","Melodramatic Milgram","4.0.5","4","y","0","left","right","right","NA","left","608.0","111455","14325","NA","608","2","legacy","6","1024","2","48000","-16","experiment","4","even","8","548980","550031","552233","542791","4046","190884","551032","554234","NA","550029","4043","205209","554234","554843","115502","Sternberg Task","43","57292.0","70","1024"
"61","61","819","819","#3d3846","experiment","legacy","legacy","legacy","1","undefined","1","left","70","70","70","70","0","0","70","70","0","70","0","0","70","70","0","Sun Oct 22 20:49:30 2023","The main experiment item","True","SternbergTask.osexp","C:\Users\Hannah Laskoskie\Desktop\OpenSesame SternburgTask","False","mono","False","18","no","white","no","yes","768","legacy","58","11","C:/Users/Hannah Laskoskie/Desktop/OpenSesame SternburgTask/HL-subject-4.csv","legacy","8 7 3","Melodramatic Milgram","4.0.5","1","y","0","left","right","right","NA","left","916.0","111455","14325","NA","916","2","legacy","3","1024","2","48000","-16","experiment","4","even","8","554853","555896","558098","542791","4046","190884","556897","560099","NA","555894","4043","205209","560099","561016","115502","Sternberg Task","44","58208.0","71","1024"
"62","62","819","819","#3d3846","experiment","legacy","legacy","legacy","1","undefined","1","left","71","71","71","71","0","0","71","71","0","71","0","0","71","71","0","Sun Oct 22 20:49:30 2023","The main experiment item","True","SternbergTask.osexp","C:\Users\Hannah Laskoskie\Desktop\OpenSesame SternburgTask","False","mono","False","18","no","white","no","yes","768","legacy","59","11","C:/Users/Hannah Laskoskie/Desktop/OpenSesame SternburgTask/HL-subject-4.csv","legacy","8 9 5 7 1 6","Melodramatic Milgram","4.0.5","4","y","0","left","right","right","NA","left","766.0","111455","14325","NA","766","2","legacy","6","1024","2","48000","-16","experiment","4","even","7","561025","562070","564272","542791","4046","190884","563071","566273","NA","562068","4043","205209","566273","567040","115502","Sternberg Task","45","58974.0","72","1024"
"63","63","818","818","#3d3846","experiment","legacy","legacy","legacy","1","undefined","1","right","72","72","72","72","0","0","72","72","0","72","0","0","72","72","0","Sun Oct 22 20:49:30 2023","The main experiment item","True","SternbergTask.osexp","C:\Users\Hannah Laskoskie\Desktop\OpenSesame SternburgTask","False","mono","False","18","no","white","no","yes","768","legacy","60","11","C:/Users/Hannah Laskoskie/Desktop/OpenSesame SternburgTask/HL-subject-4.csv","legacy","1 4 9 3","Melodramatic Milgram","4.0.5","0","n","0","right","right","right","NA","right","744.0","111455","14325","NA","744","2","legacy","4","1024","2","48000","-16","experiment","4","even","5","567049","568092","570294","542791","4046","190884","569093","572295","NA","568090","4043","205209","572295","573041","115502","Sternberg Task","46","59718.0","73","1024"
"63","63","816","816","#3d3846","experiment","legacy","legacy","legacy","1","undefined","1","right","73","73","73","73","0","0","73","73","0","73","0","0","73","73","0","Sun Oct 22 20:49:30 2023","The main experiment item","True","SternbergTask.osexp","C:\Users\Hannah Laskoskie\Desktop\OpenSesame SternburgTask","False","mono","False","18","no","white","no","yes","768","legacy","61","11","C:/Users/Hannah Laskoskie/Desktop/OpenSesame SternburgTask/HL-subject-4.csv","legacy","7 8 6 1","Melodramatic Milgram","4.0.5","0","n","0","right","right","right","NA","right","729.0","111455","14325","NA","729","2","legacy","4","1024","2","48000","-16","experiment","4","even","3","573050","574098","576300","542791","4046","190884","575099","578301","NA","574096","4043","205209","578301","579031","115502","Sternberg Task","47","60447.0","74","1024"
"64","64","816","816","#3d3846","experiment","legacy","legacy","legacy","1","undefined","1","right","74","74","74","74","0","0","74","74","0","74","0","0","74","74","0","Sun Oct 22 20:49:30 2023","The main experiment item","True","SternbergTask.osexp","C:\Users\Hannah Laskoskie\Desktop\OpenSesame SternburgTask","False","mono","False","18","no","white","no","yes","768","legacy","62","11","C:/Users/Hannah Laskoskie/Desktop/OpenSesame SternburgTask/HL-subject-4.csv","legacy","3 9 1","Melodramatic Milgram","4.0.5","0","n","0","right","right","right","NA","right","795.0","111455","14325","NA","795","2","legacy","3","1024","2","48000","-16","experiment","4","even","7","579040","580087","582289","542791","4046","190884","581088","584290","NA","580085","4043","205209","584290","585086","115502","Sternberg Task","48","61242.0","75","1024"
"64","64","818","818","#3d3846","experiment","legacy","legacy","legacy","1","undefined","1","left","75","75","75","75","0","0","75","75","0","75","0","0","75","75","0","Sun Oct 22 20:49:30 2023","The main experiment item","True","SternbergTask.osexp","C:\Users\Hannah Laskoskie\Desktop\OpenSesame SternburgTask","False","mono","False","18","no","white","no","yes","768","legacy","63","11","C:/Users/Hannah Laskoskie/Desktop/OpenSesame SternburgTask/HL-subject-4.csv","legacy","9 4 2","Melodramatic Milgram","4.0.5","1","y","0","left","right","right","NA","left","941.0","111455","14325","NA","941","2","legacy","3","1024","2","48000","-16","experiment","4","even","9","585089","586139","588341","542791","4046","190884","587140","590343","NA","586137","4043","205209","590343","591286","115502","Sternberg Task","49","62183.0","76","1024"
"64","64","816","816","#3d3846","experiment","legacy","legacy","legacy","1","undefined","1","right","76","76","76","76","0","0","76","76","0","76","0","0","76","76","0","Sun Oct 22 20:49:30 2023","The main experiment item","True","SternbergTask.osexp","C:\Users\Hannah Laskoskie\Desktop\OpenSesame SternburgTask","False","mono","False","18","no","white","no","yes","768","legacy","64","11","C:/Users/Hannah Laskoskie/Desktop/OpenSesame SternburgTask/HL-subject-4.csv","legacy","1 4 3 6 5","Melodramatic Milgram","4.0.5","0","n","0","right","right","right","NA","right","696.0","111455","14325","NA","696","2","legacy","5","1024","2","48000","-16","experiment","4","even","8","591295","592359","594561","542791","4046","190884","593360","596562","NA","592357","4043","205209","596562","597259","115502","Sternberg Task","50","62879.0","77","1024"
"65","65","823","823","#3d3846","experiment","legacy","legacy","legacy","1","undefined","1","left","77","77","77","77","0","0","77","77","0","77","0","0","77","77","0","Sun Oct 22 20:49:30 2023","The main experiment item","True","SternbergTask.osexp","C:\Users\Hannah Laskoskie\Desktop\OpenSesame SternburgTask","False","mono","False","18","no","white","no","yes","768","legacy","65","11","C:/Users/Hannah Laskoskie/Desktop/OpenSesame SternburgTask/HL-subject-4.csv","legacy","7 2 3","Melodramatic Milgram","4.0.5","3","y","0","left","right","right","NA","left","1365.0","111455","14325","NA","1365","2","legacy","3","1024","2","48000","-16","experiment","4","even","3","597268","598317","600519","542791","4046","190884","599318","602520","NA","598315","4043","205209","602520","603886","115502","Sternberg Task","51","64244.0","78","1024"
"65","65","825","825","#3d3846","experiment","legacy","legacy","legacy","1","undefined","1","right","78","78","78","78","0","0","78","78","0","78","0","0","78","78","0","Sun Oct 22 20:49:30 2023","The main experiment item","True","SternbergTask.osexp","C:\Users\Hannah Laskoskie\Desktop\OpenSesame SternburgTask","False","mono","False","18","no","white","no","yes","768","legacy","66","11","C:/Users/Hannah Laskoskie/Desktop/OpenSesame SternburgTask/HL-subject-4.csv","legacy","8 4 3 9","Melodramatic Milgram","4.0.5","0","n","0","right","right","right","NA","right","947.0","111455","14325","NA","947","2","legacy","4","1024","2","48000","-16","experiment","4","even","5","603895","604939","607141","542791","4046","190884","605940","609142","NA","604937","4043","205209","609142","610090","115502","Sternberg Task","52","65191.0","79","1024"
"66","66","823","823","#3d3846","experiment","legacy","legacy","legacy","1","undefined","1","right","79","79","79","79","0","0","79","79","0","79","0","0","79","79","0","Sun Oct 22 20:49:30 2023","The main experiment item","True","SternbergTask.osexp","C:\Users\Hannah Laskoskie\Desktop\OpenSesame SternburgTask","False","mono","False","18","no","white","no","yes","768","legacy","67","11","C:/Users/Hannah Laskoskie/Desktop/OpenSesame SternburgTask/HL-subject-4.csv","legacy","2 5 1 4","Melodramatic Milgram","4.0.5","0","n","0","right","right","right","NA","right","676.0","111455","14325","NA","676","2","legacy","4","1024","2","48000","-16","experiment","4","even","6","610093","611137","613339","542791","4046","190884","612138","615340","NA","611135","4043","205209","615340","616018","115502","Sternberg Task","53","65867.0","80","1024"
"66","66","819","819","#3d3846","experiment","legacy","legacy","legacy","1","undefined","1","right","80","80","80","80","0","0","80","80","0","80","0","0","80","80","0","Sun Oct 22 20:49:30 2023","The main experiment item","True","SternbergTask.osexp","C:\Users\Hannah Laskoskie\Desktop\OpenSesame SternburgTask","False","mono","False","18","no","white","no","yes","768","legacy","68","11","C:/Users/Hannah Laskoskie/Desktop/OpenSesame SternburgTask/HL-subject-4.csv","legacy","5","Melodramatic Milgram","4.0.5","0","n","0","right","right","right","NA","right","550.0","111455","14325","NA","550","2","legacy","1","1024","2","48000","-16","experiment","4","even","8","616027","617080","619282","542791","4046","190884","618081","621283","NA","617078","4043","205209","621283","621834","115502","Sternberg Task","54","66417.0","81","1024"
"67","67","825","825","#3d3846","experiment","legacy","legacy","legacy","1","undefined","1","left","81","81","81","81","0","0","81","81","0","81","0","0","81","81","0","Sun Oct 22 20:49:30 2023","The main experiment item","True","SternbergTask.osexp","C:\Users\Hannah Laskoskie\Desktop\OpenSesame SternburgTask","False","mono","False","18","no","white","no","yes","768","legacy","69","11","C:/Users/Hannah Laskoskie/Desktop/OpenSesame SternburgTask/HL-subject-4.csv","legacy","9 1 7 2","Melodramatic Milgram","4.0.5","2","y","0","left","right","right","NA","left","1267.0","111455","14325","NA","1267","2","legacy","4","1024","2","48000","-16","experiment","4","even","1","621838","622887","625089","542791","4046","190884","623888","627090","NA","622885","4043","205209","627090","628359","115502","Sternberg Task","55","67684.0","82","1024"
"67","67","823","823","#3d3846","experiment","legacy","legacy","legacy","1","undefined","1","right","82","82","82","82","0","0","82","82","0","82","0","0","82","82","0","Sun Oct 22 20:49:30 2023","The main experiment item","True","SternbergTask.osexp","C:\Users\Hannah Laskoskie\Desktop\OpenSesame SternburgTask","False","mono","False","18","no","white","no","yes","768","legacy","70","11","C:/Users/Hannah Laskoskie/Desktop/OpenSesame SternburgTask/HL-subject-4.csv","legacy","3 9 8 1 6 4","Melodramatic Milgram","4.0.5","0","n","0","right","right","right","NA","right","680.0","111455","14325","NA","680","2","legacy","6","1024","2","48000","-16","experiment","4","even","7","628368","629418","631620","542791","4046","190884","630419","633621","NA","629415","4043","205209","633621","634302","115502","Sternberg Task","56","68364.0","83","1024"
"67","67","826","826","#3d3846","experiment","legacy","legacy","legacy","1","undefined","1","left","83","83","83","83","0","0","83","83","0","83","0","0","83","83","0","Sun Oct 22 20:49:30 2023","The main experiment item","True","SternbergTask.osexp","C:\Users\Hannah Laskoskie\Desktop\OpenSesame SternburgTask","False","mono","False","18","no","white","no","yes","768","legacy","71","11","C:/Users/Hannah Laskoskie/Desktop/OpenSesame SternburgTask/HL-subject-4.csv","legacy","2 6 1 7 4","Melodramatic Milgram","4.0.5","2","y","0","left","right","right","NA","left","1087.0","111455","14325","NA","1087","2","legacy","5","1024","2","48000","-16","experiment","4","even","6","634311","635371","637574","542791","4046","190884","636373","639575","NA","635369","4043","205209","639575","640663","115502","Sternberg Task","57","69451.0","84","1024"
"67","67","827","827","#3d3846","experiment","legacy","legacy","legacy","0","undefined","0","right","84","84","84","84","0","0","84","84","0","84","0","0","84","84","0","Sun Oct 22 20:49:30 2023","The main experiment item","True","SternbergTask.osexp","C:\Users\Hannah Laskoskie\Desktop\OpenSesame SternburgTask","False","mono","False","18","no","white","no","yes","768","legacy","72","11","C:/Users/Hannah Laskoskie/Desktop/OpenSesame SternburgTask/HL-subject-4.csv","legacy","2 8 7 9 5 3","Melodramatic Milgram","4.0.5","0","n","0","left","right","right","NA","left","897.0","111455","14325","NA","897","2","legacy","6","1024","2","48000","-16","experiment","4","even","6","640672","641725","643927","542791","4046","190884","642726","645929","NA","641722","4043","205209","645929","646828","115502","Sternberg Task","57","70348.0","85","1024"
"67","67","828","828","#3d3846","experiment","legacy","legacy","legacy","1","undefined","1","right","85","85","85","85","0","0","85","85","0","85","0","0","85","85","0","Sun Oct 22 20:49:30 2023","The main experiment item","True","SternbergTask.osexp","C:\Users\Hannah Laskoskie\Desktop\OpenSesame SternburgTask","False","mono","False","18","no","white","no","yes","768","legacy","73","11","C:/Users/Hannah Laskoskie/Desktop/OpenSesame SternburgTask/HL-subject-4.csv","legacy","4 8 1 2","Melodramatic Milgram","4.0.5","0","n","0","right","right","right","NA","right","862.0","111455","14325","NA","862","2","legacy","4","1024","2","48000","-16","experiment","4","even","7","640672","647880","650082","646837","4046","190884","648881","652083","NA","647878","4043","205209","652083","652946","115502","Sternberg Task","58","71210.0","86","1024"
"67","67","826","826","#3d3846","experiment","legacy","legacy","legacy","1","undefined","1","left","86","86","86","86","0","0","86","86","0","86","0","0","86","86","0","Sun Oct 22 20:49:30 2023","The main experiment item","True","SternbergTask.osexp","C:\Users\Hannah Laskoskie\Desktop\OpenSesame SternburgTask","False","mono","False","18","no","white","no","yes","768","legacy","74","11","C:/Users/Hannah Laskoskie/Desktop/OpenSesame SternburgTask/HL-subject-4.csv","legacy","7 4 2 6 3 5","Melodramatic Milgram","4.0.5","6","y","0","left","right","right","NA","left","717.0","111455","14325","NA","717","2","legacy","6","1024","2","48000","-16","experiment","4","even","5","652955","653999","656201","646837","4046","190884","655000","658202","NA","653997","4043","205209","658202","658920","115502","Sternberg Task","59","71927.0","87","1024"
"67","67","824","824","#3d3846","experiment","legacy","legacy","legacy","0","undefined","0","right","87","87","87","87","0","0","87","87","0","87","0","0","87","87","0","Sun Oct 22 20:49:30 2023","The main experiment item","True","SternbergTask.osexp","C:\Users\Hannah Laskoskie\Desktop\OpenSesame SternburgTask","False","mono","False","18","no","white","no","yes","768","legacy","75","11","C:/Users/Hannah Laskoskie/Desktop/OpenSesame SternburgTask/HL-subject-4.csv","legacy","2 8 9","Melodramatic Milgram","4.0.5","0","n","0","left","right","right","NA","left","645.0","111455","14325","NA","645","2","legacy","3","1024","2","48000","-16","experiment","4","even","6","658930","659978","662181","646837","4046","190884","660980","664182","NA","659977","4043","205209","664182","664829","115502","Sternberg Task","59","72572.0","88","1024"
"67","67","819","819","#3d3846","experiment","legacy","legacy","legacy","1","undefined","1","left","88","88","88","88","0","0","88","88","0","88","0","0","88","88","0","Sun Oct 22 20:49:30 2023","The main experiment item","True","SternbergTask.osexp","C:\Users\Hannah Laskoskie\Desktop\OpenSesame SternburgTask","False","mono","False","18","no","white","no","yes","768","legacy","76","11","C:/Users/Hannah Laskoskie/Desktop/OpenSesame SternburgTask/HL-subject-4.csv","legacy","8","Melodramatic Milgram","4.0.5","1","y","0","left","right","right","NA","left","400.0","111455","14325","NA","400","2","legacy","1","1024","2","48000","-16","experiment","4","even","8","658930","665886","668089","664838","4046","190884","666888","670090","NA","665884","4043","205209","670090","670491","115502","Sternberg Task","60","72972.0","89","1024"
"67","67","820","820","#3d3846","experiment","legacy","legacy","legacy","1","undefined","1","right","89","89","89","89","0","0","89","89","0","89","0","0","89","89","0","Sun Oct 22 20:49:30 2023","The main experiment item","True","SternbergTask.osexp","C:\Users\Hannah Laskoskie\Desktop\OpenSesame SternburgTask","False","mono","False","18","no","white","no","yes","768","legacy","77","11","C:/Users/Hannah Laskoskie/Desktop/OpenSesame SternburgTask/HL-subject-4.csv","legacy","4 2 6 9","Melodramatic Milgram","4.0.5","0","n","0","right","right","right","NA","right","842.0","111455","14325","NA","842","2","legacy","4","1024","2","48000","-16","experiment","4","even","7","670500","671547","673749","664838","4046","190884","672548","675750","NA","671545","4043","205209","675750","676594","115502","Sternberg Task","61","73814.0","90","1024"
"68","68","821","821","#3d3846","experiment","legacy","legacy","legacy","1","undefined","1","right","90","90","90","90","0","0","90","90","0","90","0","0","90","90","0","Sun Oct 22 20:49:30 2023","The main experiment item","True","SternbergTask.osexp","C:\Users\Hannah Laskoskie\Desktop\OpenSesame SternburgTask","False","mono","False","18","no","white","no","yes","768","legacy","78","11","C:/Users/Hannah Laskoskie/Desktop/OpenSesame SternburgTask/HL-subject-4.csv","legacy","1","Melodramatic Milgram","4.0.5","0","n","0","right","right","right","NA","right","940.0","111455","14325","NA","940","2","legacy","1","1024","2","48000","-16","experiment","4","even","7","676603","677655","679857","664838","4046","190884","678656","681858","NA","677652","4043","205209","681858","682800","115502","Sternberg Task","62","74754.0","91","1024"
"68","68","825","825","#3d3846","experiment","legacy","legacy","legacy","1","undefined","1","right","91","91","91","91","0","0","91","91","0","91","0","0","91","91","0","Sun Oct 22 20:49:30 2023","The main experiment item","True","SternbergTask.osexp","C:\Users\Hannah Laskoskie\Desktop\OpenSesame SternburgTask","False","mono","False","18","no","white","no","yes","768","legacy","79","11","C:/Users/Hannah Laskoskie/Desktop/OpenSesame SternburgTask/HL-subject-4.csv","legacy","2 3 8 5 6 7","Melodramatic Milgram","4.0.5","0","n","0","right","right","right","NA","right","1190.0","111455","14325","NA","1190","2","legacy","6","1024","2","48000","-16","experiment","4","even","1","682809","683889","686091","664838","4046","190884","684890","688092","NA","683886","4043","205209","688092","689283","115502","Sternberg Task","63","75944.0","92","1024"
"67","67","825","825","#3d3846","experiment","legacy","legacy","legacy","0","undefined","0","left","92","92","92","92","0","0","92","92","0","92","0","0","92","92","0","Sun Oct 22 20:49:30 2023","The main experiment item","True","SternbergTask.osexp","C:\Users\Hannah Laskoskie\Desktop\OpenSesame SternburgTask","False","mono","False","18","no","white","no","yes","768","legacy","80","11","C:/Users/Hannah Laskoskie/Desktop/OpenSesame SternburgTask/HL-subject-4.csv","legacy","3 5 4 7","Melodramatic Milgram","4.0.5","1","y","0","right","right","right","NA","right","806.0","111455","14325","NA","806","2","legacy","4","1024","2","48000","-16","experiment","4","even","3","689291","690346","692548","664838","4046","190884","691347","694549","NA","690344","4043","205209","694549","695357","115502","Sternberg Task","63","76750.0","93","1024"
"68","68","825","825","#3d3846","experiment","legacy","legacy","legacy","1","undefined","1","right","93","93","93","93","0","0","93","93","0","93","0","0","93","93","0","Sun Oct 22 20:49:30 2023","The main experiment item","True","SternbergTask.osexp","C:\Users\Hannah Laskoskie\Desktop\OpenSesame SternburgTask","False","mono","False","18","no","white","no","yes","768","legacy","81","11","C:/Users/Hannah Laskoskie/Desktop/OpenSesame SternburgTask/HL-subject-4.csv","legacy","1 5 3 2 8","Melodramatic Milgram","4.0.5","0","n","0","right","right","right","NA","right","800.0","111455","14325","NA","800","2","legacy","5","1024","2","48000","-16","experiment","4","even","4","689291","696413","698615","695361","4046","190884","697414","700616","NA","696410","4043","205209","700616","701417","115502","Sternberg Task","64","77550.0","94","1024"
"67","67","828","828","#3d3846","experiment","legacy","legacy","legacy","0","undefined","0","left","94","94","94","94","0","0","94","94","0","94","0","0","94","94","0","Sun Oct 22 20:49:30 2023","The main experiment item","True","SternbergTask.osexp","C:\Users\Hannah Laskoskie\Desktop\OpenSesame SternburgTask","False","mono","False","18","no","white","no","yes","768","legacy","82","11","C:/Users/Hannah Laskoskie/Desktop/OpenSesame SternburgTask/HL-subject-4.csv","legacy","6 8 9 3 4 9","Melodramatic Milgram","4.0.5","5","y","0","right","right","right","NA","right","1154.0","111455","14325","NA","1154","2","legacy","6","1024","2","48000","-16","experiment","4","even","4","701426","702470","704672","695361","4046","190884","703471","706673","NA","702468","4043","205209","706673","707829","115502","Sternberg Task","64","78704.0","95","1024"
"66","66","828","828","#3d3846","experiment","legacy","legacy","legacy","0","undefined","0","right","95","95","95","95","0","0","95","95","0","95","0","0","95","95","0","Sun Oct 22 20:49:30 2023","The main experiment item","True","SternbergTask.osexp","C:\Users\Hannah Laskoskie\Desktop\OpenSesame SternburgTask","False","mono","False","18","no","white","no","yes","768","legacy","83","11","C:/Users/Hannah Laskoskie/Desktop/OpenSesame SternburgTask/HL-subject-4.csv","legacy","4 1","Melodramatic Milgram","4.0.5","0","n","0","left","right","right","NA","left","851.0","111455","14325","NA","851","2","legacy","2","1024","2","48000","-16","experiment","4","even","6","701426","708881","711083","707837","4046","190884","709882","713085","NA","708879","4043","205209","713085","713937","115502","Sternberg Task","64","79555.0","96","1024"
"65","65","833","833","#3d3846","experiment","legacy","legacy","legacy","0","undefined","0","left","96","96","96","96","0","0","96","96","0","96","0","0","96","96","0","Sun Oct 22 20:49:30 2023","The main experiment item","True","SternbergTask.osexp","C:\Users\Hannah Laskoskie\Desktop\OpenSesame SternburgTask","False","mono","False","18","no","white","no","yes","768","legacy","84","11","C:/Users/Hannah Laskoskie/Desktop/OpenSesame SternburgTask/HL-subject-4.csv","legacy","3 9 6 2","Melodramatic Milgram","4.0.5","4","y","0","right","right","right","NA","right","1323.0","111455","14325","NA","1323","2","legacy","4","1024","2","48000","-16","experiment","4","even","2","701426","714989","717191","713946","4046","190884","715990","719192","NA","714987","4043","205209","719193","720517","115502","Sternberg Task","64","80878.0","97","1024"
"66","66","837","837","#3d3846","experiment","legacy","legacy","legacy","1","undefined","1","right","97","97","97","97","0","0","97","97","0","97","0","0","97","97","0","Sun Oct 22 20:49:30 2023","The main experiment item","True","SternbergTask.osexp","C:\Users\Hannah Laskoskie\Desktop\OpenSesame SternburgTask","False","mono","False","18","no","white","no","yes","768","legacy","85","11","C:/Users/Hannah Laskoskie/Desktop/OpenSesame SternburgTask/HL-subject-4.csv","legacy","1 6 4 3 9 7","Melodramatic Milgram","4.0.5","0","n","0","right","right","right","NA","right","1231.0","111455","14325","NA","1231","2","legacy","6","1024","2","48000","-16","experiment","4","even","8","701426","721577","723779","720527","4046","190884","722578","725780","NA","721575","4043","205209","725780","727012","115502","Sternberg Task","65","82109.0","98","1024"
"66","66","842","842","#3d3846","experiment","legacy","legacy","legacy","1","undefined","1","left","98","98","98","98","0","0","98","98","0","98","0","0","98","98","0","Sun Oct 22 20:49:30 2023","The main experiment item","True","SternbergTask.osexp","C:\Users\Hannah Laskoskie\Desktop\OpenSesame SternburgTask","False","mono","False","18","no","white","no","yes","768","legacy","86","11","C:/Users/Hannah Laskoskie/Desktop/OpenSesame SternburgTask/HL-subject-4.csv","legacy","8 5 1 3 9","Melodramatic Milgram","4.0.5","4","y","0","left","right","right","NA","left","1273.0","111455","14325","NA","1273","2","legacy","5","1024","2","48000","-16","experiment","4","even","3","727021","728080","730282","720527","4046","190884","729081","732283","NA","728078","4043","205209","732283","733558","115502","Sternberg Task","66","83382.0","99","1024"
"67","67","842","842","#3d3846","experiment","legacy","legacy","legacy","1","undefined","1","right","99","99","99","99","0","0","99","99","0","99","0","0","99","99","0","Sun Oct 22 20:49:30 2023","The main experiment item","True","SternbergTask.osexp","C:\Users\Hannah Laskoskie\Desktop\OpenSesame SternburgTask","False","mono","False","18","no","white","no","yes","768","legacy","87","11","C:/Users/Hannah Laskoskie/Desktop/OpenSesame SternburgTask/HL-subject-4.csv","legacy","6 3 1 7 9 8","Melodramatic Milgram","4.0.5","0","n","0","right","right","right","NA","right","841.0","111455","14325","NA","841","2","legacy","6","1024","2","48000","-16","experiment","4","even","4","733567","734615","736817","720527","4046","190884","735616","738819","NA","734612","4043","205209","738819","739662","115502","Sternberg Task","67","84223.0","100","1024"
"67","67","839","839","#3d3846","experiment","legacy","legacy","legacy","1","undefined","1","right","100","100","100","100","0","0","100","100","0","100","0","0","100","100","0","Sun Oct 22 20:49:30 2023","The main experiment item","True","SternbergTask.osexp","C:\Users\Hannah Laskoskie\Desktop\OpenSesame SternburgTask","False","mono","False","18","no","white","no","yes","768","legacy","88","11","C:/Users/Hannah Laskoskie/Desktop/OpenSesame SternburgTask/HL-subject-4.csv","legacy","5 3 8 7 2 4","Melodramatic Milgram","4.0.5","0","n","0","right","right","right","NA","right","604.0","111455","14325","NA","604","2","legacy","6","1024","2","48000","-16","experiment","4","even","9","739671","740714","742916","720527","4046","190884","741715","744917","NA","740712","4043","205209","744917","745522","115502","Sternberg Task","68","84827.0","101","1024"
"67","67","838","838","#3d3846","experiment","legacy","legacy","legacy","1","undefined","1","right","101","101","101","101","0","0","101","101","0","101","0","0","101","101","0","Sun Oct 22 20:49:30 2023","The main experiment item","True","SternbergTask.osexp","C:\Users\Hannah Laskoskie\Desktop\OpenSesame SternburgTask","False","mono","False","18","no","white","no","yes","768","legacy","89","11","C:/Users/Hannah Laskoskie/Desktop/OpenSesame SternburgTask/HL-subject-4.csv","legacy","7 1 8 4 9 3","Melodramatic Milgram","4.0.5","0","n","0","right","right","right","NA","right","711.0","111455","14325","NA","711","2","legacy","6","1024","2","48000","-16","experiment","4","even","6","745532","746575","748777","720527","4046","190884","747576","750779","NA","746573","4043","205209","750779","751491","115502","Sternberg Task","69","85538.0","102","1024"
"66","66","838","838","#3d3846","experiment","legacy","legacy","legacy","0","undefined","0","left","102","102","102","102","0","0","102","102","0","102","0","0","102","102","0","Sun Oct 22 20:49:30 2023","The main experiment item","True","SternbergTask.osexp","C:\Users\Hannah Laskoskie\Desktop\OpenSesame SternburgTask","False","mono","False","18","no","white","no","yes","768","legacy","90","11","C:/Users/Hannah Laskoskie/Desktop/OpenSesame SternburgTask/HL-subject-4.csv","legacy","9 3 1 2 5","Melodramatic Milgram","4.0.5","4","y","0","right","right","right","NA","right","871.0","111455","14325","NA","871","2","legacy","5","1024","2","48000","-16","experiment","4","even","2","751500","752544","754747","720527","4046","190884","753545","756748","NA","752542","4043","205209","756748","757620","115502","Sternberg Task","69","86409.0","103","1024"
"67","67","841","841","#3d3846","experiment","legacy","legacy","legacy","1","undefined","1","left","103","103","103","103","0","0","103","103","0","103","0","0","103","103","0","Sun Oct 22 20:49:30 2023","The main experiment item","True","SternbergTask.osexp","C:\Users\Hannah Laskoskie\Desktop\OpenSesame SternburgTask","False","mono","False","18","no","white","no","yes","768","legacy","91","11","C:/Users/Hannah Laskoskie/Desktop/OpenSesame SternburgTask/HL-subject-4.csv","legacy","6 5","Melodramatic Milgram","4.0.5","2","y","0","left","right","right","NA","left","1081.0","111455","14325","NA","1081","2","legacy","2","1024","2","48000","-16","experiment","4","even","5","751500","758674","760876","757630","4046","190884","759675","762877","NA","758672","4043","205209","762877","763959","115502","Sternberg Task","70","87490.0","104","1024"
"67","67","846","846","#3d3846","experiment","legacy","legacy","legacy","1","undefined","1","right","104","104","104","104","0","0","104","104","0","104","0","0","104","104","0","Sun Oct 22 20:49:30 2023","The main experiment item","True","SternbergTask.osexp","C:\Users\Hannah Laskoskie\Desktop\OpenSesame SternburgTask","False","mono","False","18","no","white","no","yes","768","legacy","92","11","C:/Users/Hannah Laskoskie/Desktop/OpenSesame SternburgTask/HL-subject-4.csv","legacy","8 5 7 3 6","Melodramatic Milgram","4.0.5","0","n","0","right","right","right","NA","right","1378.0","111455","14325","NA","1378","2","legacy","5","1024","2","48000","-16","experiment","4","even","9","763968","765011","767213","757630","4046","190884","766012","769214","NA","765009","4043","205209","769214","770593","115502","Sternberg Task","71","88868.0","105","1024"
"67","67","849","849","#3d3846","experiment","legacy","legacy","legacy","1","undefined","1","right","105","105","105","105","0","0","105","105","0","105","0","0","105","105","0","Sun Oct 22 20:49:30 2023","The main experiment item","True","SternbergTask.osexp","C:\Users\Hannah Laskoskie\Desktop\OpenSesame SternburgTask","False","mono","False","18","no","white","no","yes","768","legacy","93","11","C:/Users/Hannah Laskoskie/Desktop/OpenSesame SternburgTask/HL-subject-4.csv","legacy","8 6 3 4 7","Melodramatic Milgram","4.0.5","0","n","0","right","right","right","NA","right","1126.0","111455","14325","NA","1126","2","legacy","5","1024","2","48000","-16","experiment","4","even","1","770602","771647","773849","757630","4046","190884","772648","775850","NA","771645","4043","205209","775850","776977","115502","Sternberg Task","72","89994.0","106","1024"
"67","67","853","853","#3d3846","experiment","legacy","legacy","legacy","0","undefined","0","left","106","106","106","106","0","0","106","106","0","106","0","0","106","106","0","Sun Oct 22 20:49:30 2023","The main experiment item","True","SternbergTask.osexp","C:\Users\Hannah Laskoskie\Desktop\OpenSesame SternburgTask","False","mono","False","18","no","white","no","yes","768","legacy","94","11","C:/Users/Hannah Laskoskie/Desktop/OpenSesame SternburgTask/HL-subject-4.csv","legacy","8 5 4 7 3 1","Melodramatic Milgram","4.0.5","2","y","0","right","right","right","NA","right","1291.0","111455","14325","NA","1291","2","legacy","6","1024","2","48000","-16","experiment","4","even","5","776987","778047","780250","757630","4046","190884","779049","782251","NA","778045","4043","205209","782251","783543","115502","Sternberg Task","72","91285.0","107","1024"
"66","66","854","854","#3d3846","experiment","legacy","legacy","legacy","0","undefined","0","left","107","107","107","107","0","0","107","107","0","107","0","0","107","107","0","Sun Oct 22 20:49:30 2023","The main experiment item","True","SternbergTask.osexp","C:\Users\Hannah Laskoskie\Desktop\OpenSesame SternburgTask","False","mono","False","18","no","white","no","yes","768","legacy","95","11","C:/Users/Hannah Laskoskie/Desktop/OpenSesame SternburgTask/HL-subject-4.csv","legacy","6 7 9 3 1 2","Melodramatic Milgram","4.0.5","1","y","0","right","right","right","NA","right","966.0","111455","14325","NA","966","2","legacy","6","1024","2","48000","-16","experiment","4","even","6","776987","784606","786808","783552","4046","190884","785607","788809","NA","784603","4043","205209","788809","789777","115502","Sternberg Task","72","92251.0","108","1024"
"66","66","850","850","#3d3846","experiment","legacy","legacy","legacy","1","undefined","1","left","108","108","108","108","0","0","108","108","0","108","0","0","108","108","0","Sun Oct 22 20:49:30 2023","The main experiment item","True","SternbergTask.osexp","C:\Users\Hannah Laskoskie\Desktop\OpenSesame SternburgTask","False","mono","False","18","no","white","no","yes","768","legacy","96","11","C:/Users/Hannah Laskoskie/Desktop/OpenSesame SternburgTask/HL-subject-4.csv","legacy","8 5 3 7 4 6","Melodramatic Milgram","4.0.5","6","y","0","left","right","right","NA","left","470.0","111455","14325","NA","470","2","legacy","6","1024","2","48000","-16","experiment","4","even","6","776987","790830","793032","789786","4046","190884","791831","795033","NA","790828","4043","205209","795033","795504","115502","Sternberg Task","73","92721.0","109","1024"
"67","67","852","852","#3d3846","experiment","legacy","legacy","legacy","1","undefined","1","right","109","109","109","109","0","0","109","109","0","109","0","0","109","109","0","Sun Oct 22 20:49:30 2023","The main experiment item","True","SternbergTask.osexp","C:\Users\Hannah Laskoskie\Desktop\OpenSesame SternburgTask","False","mono","False","18","no","white","no","yes","768","legacy","97","11","C:/Users/Hannah Laskoskie/Desktop/OpenSesame SternburgTask/HL-subject-4.csv","legacy","7 1 5 6 3","Melodramatic Milgram","4.0.5","0","n","0","right","right","right","NA","right","1087.0","111455","14325","NA","1087","2","legacy","5","1024","2","48000","-16","experiment","4","even","8","795507","796552","798754","789786","4046","190884","797553","800755","NA","796550","4043","205209","800755","801844","115502","Sternberg Task","74","93808.0","110","1024"
"66","66","853","853","#3d3846","experiment","legacy","legacy","legacy","0","undefined","0","left","110","110","110","110","0","0","110","110","0","110","0","0","110","110","0","Sun Oct 22 20:49:30 2023","The main experiment item","True","SternbergTask.osexp","C:\Users\Hannah Laskoskie\Desktop\OpenSesame SternburgTask","False","mono","False","18","no","white","no","yes","768","legacy","98","11","C:/Users/Hannah Laskoskie/Desktop/OpenSesame SternburgTask/HL-subject-4.csv","legacy","5 2 9 6 1 7","Melodramatic Milgram","4.0.5","3","y","0","right","right","right","NA","right","898.0","111455","14325","NA","898","2","legacy","6","1024","2","48000","-16","experiment","4","even","9","801853","802896","805098","789786","4046","190884","803897","807099","NA","802894","4043","205209","807099","807999","115502","Sternberg Task","74","94706.0","111","1024"
"66","66","855","855","#3d3846","experiment","legacy","legacy","legacy","1","undefined","1","left","111","111","111","111","0","0","111","111","0","111","0","0","111","111","0","Sun Oct 22 20:49:30 2023","The main experiment item","True","SternbergTask.osexp","C:\Users\Hannah Laskoskie\Desktop\OpenSesame SternburgTask","False","mono","False","18","no","white","no","yes","768","legacy","99","11","C:/Users/Hannah Laskoskie/Desktop/OpenSesame SternburgTask/HL-subject-4.csv","legacy","3 5 7 1","Melodramatic Milgram","4.0.5","3","y","0","left","right","right","NA","left","1076.0","111455","14325","NA","1076","2","legacy","4","1024","2","48000","-16","experiment","4","even","7","801853","809051","811253","808008","4046","190884","810052","813254","NA","809049","4043","205209","813254","814331","115502","Sternberg Task","75","95782.0","112","1024"
"66","66","858","858","#3d3846","experiment","legacy","legacy","legacy","0","undefined","0","left","112","112","112","112","0","0","112","112","0","112","0","0","112","112","0","Sun Oct 22 20:49:30 2023","The main experiment item","True","SternbergTask.osexp","C:\Users\Hannah Laskoskie\Desktop\OpenSesame SternburgTask","False","mono","False","18","no","white","no","yes","768","legacy","100","11","C:/Users/Hannah Laskoskie/Desktop/OpenSesame SternburgTask/HL-subject-4.csv","legacy","2 3 7 4","Melodramatic Milgram","4.0.5","1","y","0","right","right","right","NA","right","1254.0","111455","14325","NA","1254","2","legacy","4","1024","2","48000","-16","experiment","4","even","2","814341","815384","817586","808008","4046","190884","816385","819587","NA","815382","4043","205209","819587","820842","115502","Sternberg Task","75","97036.0","113","1024"
"66","66","862","862","#3d3846","experiment","legacy","legacy","legacy","1","undefined","1","left","113","113","113","113","0","0","113","113","0","113","0","0","113","113","0","Sun Oct 22 20:49:30 2023","The main experiment item","True","SternbergTask.osexp","C:\Users\Hannah Laskoskie\Desktop\OpenSesame SternburgTask","False","mono","False","18","no","white","no","yes","768","legacy","101","11","C:/Users/Hannah Laskoskie/Desktop/OpenSesame SternburgTask/HL-subject-4.csv","legacy","8 9 6 1","Melodramatic Milgram","4.0.5","2","y","0","left","right","right","NA","left","1334.0","111455","14325","NA","1334","2","legacy","4","1024","2","48000","-16","experiment","4","even","9","814341","821908","824110","820851","4046","190884","822909","826111","NA","821906","4043","205209","826111","827446","115502","Sternberg Task","76","98370.0","114","1024"
"66","66","861","861","#3d3846","experiment","legacy","legacy","legacy","1","undefined","1","left","114","114","114","114","0","0","114","114","0","114","0","0","114","114","0","Sun Oct 22 20:49:30 2023","The main experiment item","True","SternbergTask.osexp","C:\Users\Hannah Laskoskie\Desktop\OpenSesame SternburgTask","False","mono","False","18","no","white","no","yes","768","legacy","102","11","C:/Users/Hannah Laskoskie/Desktop/OpenSesame SternburgTask/HL-subject-4.csv","legacy","9 6 2 4 1","Melodramatic Milgram","4.0.5","4","y","0","left","right","right","NA","left","702.0","111455","14325","NA","702","2","legacy","5","1024","2","48000","-16","experiment","4","even","4","827455","828504","830706","820851","4046","190884","829505","832707","NA","828502","4043","205209","832707","833411","115502","Sternberg Task","77","99072.0","115","1024"
"67","67","863","863","#3d3846","experiment","legacy","legacy","legacy","1","undefined","1","left","115","115","115","115","0","0","115","115","0","115","0","0","115","115","0","Sun Oct 22 20:49:30 2023","The main experiment item","True","SternbergTask.osexp","C:\Users\Hannah Laskoskie\Desktop\OpenSesame SternburgTask","False","mono","False","18","no","white","no","yes","768","legacy","103","11","C:/Users/Hannah Laskoskie/Desktop/OpenSesame SternburgTask/HL-subject-4.csv","legacy","8 1 6","Melodramatic Milgram","4.0.5","3","y","0","left","right","right","NA","left","1148.0","111455","14325","NA","1148","2","legacy","3","1024","2","48000","-16","experiment","4","even","6","833414","834459","836661","820851","4046","190884","835460","838662","NA","834457","4043","205209","838662","839812","115502","Sternberg Task","78","100220.0","116","1024"
