"acc","accuracy","average_response_time","avg_rt","background","block","canvas_backend","clock_backend","color_backend","compensation","coordinates","correct","correct_instruction1","correct_keyboard_response","correct_response","count_ISI","count_Practiceloop","count_correctFeedback","count_expSequence","count_experiment","count_experimentLoop","count_fixation","count_incorrectFeedback","count_instruction1","count_instructions2","count_keyboard_response","count_logger","count_memorySet","count_probe","count_thankYou","datetime","description","disable_garbage_collection","experiment_file","experiment_path","font_bold","font_family","font_italic","font_size","font_underline","foreground","form_clicks","fullscreen","height","keyboard_backend","live_row","live_row_Practiceloop","logfile","mouse_backend","numberSet","opensesame_codename","opensesame_version","posInSet","present","repeat_cycle","response","response_instruction1","response_instructions2","response_keyboard_response","response_thankYou","response_time","response_time_instruction1","response_time_instructions2","response_time_keyboard_response","response_time_thankYou","round_decimals","sampler_backend","setSize","sound_buf_size","sound_channels","sound_freq","sound_sample_size","start","subject_nr","subject_parity","target","time_ISI","time_Practiceloop","time_correctFeedback","time_expSequence","time_experiment","time_experimentLoop","time_fixation","time_incorrectFeedback","time_instruction1","time_instructions2","time_keyboard_response","time_logger","time_memorySet","time_probe","time_thankYou","title","total_correct","total_response_time","total_responses","uniform_coordinates","width"
"100","100","549","549","black","practice","legacy","legacy","legacy","0","uniform","1","undefined","1","right","0","0","0","0","0","0","0","0","0","0","0","0","0","0","0","Fri Sep 24 19:48:22 2021","The main experiment item","yes","Sternbergtask.osexp","C:/Users/Simon M. Rook/Documents/School/1Tarleton/Classes/Adv Quant/Lab 3","no","mono","no","18","no","white","no","no","768","legacy","0","0","C:/Users/Simon M. Rook/Documents/School/1Tarleton/Classes/Adv Quant/Lab 3/New folder/subject-2.csv","legacy","2 1","Lentiform Loewenfeld","3.3.10","0","n","0","right","left","NA","right","NA","549","4075","NA","549","NA","2","legacy","2","1024","2","48000","-16","experiment","2","even","5","7857","5232","NA","5653","1152","NA","5655","NA","1155","NA","9858","10407","6656","9858","NA","Sternberg task","1","549","1","yes","1024"
"100","100","857.5","857.5","black","practice","legacy","legacy","legacy","0","uniform","1","undefined","1","left","1","0","1","1","0","0","1","1","0","0","1","1","1","1","0","Fri Sep 24 19:48:22 2021","The main experiment item","yes","Sternbergtask.osexp","C:/Users/Simon M. Rook/Documents/School/1Tarleton/Classes/Adv Quant/Lab 3","no","mono","no","18","no","white","no","no","768","legacy","1","1","C:/Users/Simon M. Rook/Documents/School/1Tarleton/Classes/Adv Quant/Lab 3/New folder/subject-2.csv","legacy","1 5 2 9","Lentiform Loewenfeld","3.3.10","2","y","0","left","left","NA","left","NA","1166","4075","NA","1166","NA","2","legacy","4","1024","2","48000","-16","experiment","2","even","5","13768","5232","10472","11564","1152","NA","11565","NA","1155","NA","15769","16936","12567","15769","NA","Sternberg task","2","1715","2","yes","1024"
"100","100","994.6666666666666","994.6666666666666","black","practice","legacy","legacy","legacy","0","uniform","1","undefined","1","left","2","0","2","2","0","0","2","2","0","0","2","2","2","2","0","Fri Sep 24 19:48:22 2021","The main experiment item","yes","Sternbergtask.osexp","C:/Users/Simon M. Rook/Documents/School/1Tarleton/Classes/Adv Quant/Lab 3","no","mono","no","18","no","white","no","no","768","legacy","2","2","C:/Users/Simon M. Rook/Documents/School/1Tarleton/Classes/Adv Quant/Lab 3/New folder/subject-2.csv","legacy","4 3 1 7 9 8","Lentiform Loewenfeld","3.3.10","1","y","0","left","left","NA","left","NA","1269","4075","NA","1269","NA","2","legacy","6","1024","2","48000","-16","experiment","2","even","4","20242","5232","16948","18038","1152","NA","18040","NA","1155","NA","22243","23513","19041","22243","NA","Sternberg task","3","2984","3","yes","1024"
"100","100","1204.75","1204.75","black","practice","legacy","legacy","legacy","0","uniform","1","undefined","1","left","3","0","3","3","0","0","3","3","0","0","3","3","3","3","0","Fri Sep 24 19:48:22 2021","The main experiment item","yes","Sternbergtask.osexp","C:/Users/Simon M. Rook/Documents/School/1Tarleton/Classes/Adv Quant/Lab 3","no","mono","no","18","no","white","no","no","768","legacy","3","3","C:/Users/Simon M. Rook/Documents/School/1Tarleton/Classes/Adv Quant/Lab 3/New folder/subject-2.csv","legacy","1 7 9 8 5","Lentiform Loewenfeld","3.3.10","4","y","0","left","left","NA","left","NA","1835","4075","NA","1835","NA","2","legacy","5","1024","2","48000","-16","experiment","2","even","8","26812","5232","23517","24608","1152","NA","24609","NA","1155","NA","28813","30649","25611","28813","NA","Sternberg task","4","4819","4","yes","1024"
"100","100","1098.8","1098.8","black","practice","legacy","legacy","legacy","0","uniform","1","undefined","1","left","4","0","4","4","0","0","4","4","0","0","4","4","4","4","0","Fri Sep 24 19:48:22 2021","The main experiment item","yes","Sternbergtask.osexp","C:/Users/Simon M. Rook/Documents/School/1Tarleton/Classes/Adv Quant/Lab 3","no","mono","no","18","no","white","no","no","768","legacy","4","4","C:/Users/Simon M. Rook/Documents/School/1Tarleton/Classes/Adv Quant/Lab 3/New folder/subject-2.csv","legacy","6","Lentiform Loewenfeld","3.3.10","1","y","0","left","left","NA","left","NA","675","4075","NA","675","NA","2","legacy","1","1024","2","48000","-16","experiment","2","even","6","33974","5232","30656","31771","1152","NA","31772","NA","1155","NA","35975","36650","32773","35975","NA","Sternberg task","5","5494","5","yes","1024"
"100","100","1024.6666666666667","1024.6666666666667","black","practice","legacy","legacy","legacy","0","uniform","1","undefined","1","right","5","0","5","5","0","0","5","5","0","0","5","5","5","5","0","Fri Sep 24 19:48:22 2021","The main experiment item","yes","Sternbergtask.osexp","C:/Users/Simon M. Rook/Documents/School/1Tarleton/Classes/Adv Quant/Lab 3","no","mono","no","18","no","white","no","no","768","legacy","5","5","C:/Users/Simon M. Rook/Documents/School/1Tarleton/Classes/Adv Quant/Lab 3/New folder/subject-2.csv","legacy","4 1 5","Lentiform Loewenfeld","3.3.10","0","n","0","right","left","NA","right","NA","654","4075","NA","654","NA","2","legacy","3","1024","2","48000","-16","experiment","2","even","2","39955","5232","36663","37752","1152","NA","37753","NA","1155","NA","41956","42610","38754","41956","NA","Sternberg task","6","6148","6","yes","1024"
"100","100","998","998","black","practice","legacy","legacy","legacy","0","uniform","1","undefined","1","left","6","0","6","6","0","0","6","6","0","0","6","6","6","6","0","Fri Sep 24 19:48:22 2021","The main experiment item","yes","Sternbergtask.osexp","C:/Users/Simon M. Rook/Documents/School/1Tarleton/Classes/Adv Quant/Lab 3","no","mono","no","18","no","white","no","no","768","legacy","6","6","C:/Users/Simon M. Rook/Documents/School/1Tarleton/Classes/Adv Quant/Lab 3/New folder/subject-2.csv","legacy","2 9 4","Lentiform Loewenfeld","3.3.10","3","y","0","left","left","NA","left","NA","838","4075","NA","838","NA","2","legacy","3","1024","2","48000","-16","experiment","2","even","4","45908","5232","42616","43704","1152","NA","43706","NA","1155","NA","47909","48747","44707","47909","NA","Sternberg task","7","6986","7","yes","1024"
"100","100","932.625","932.625","black","practice","legacy","legacy","legacy","0","uniform","1","undefined","1","right","7","0","7","7","0","0","7","7","0","0","7","7","7","7","0","Fri Sep 24 19:48:22 2021","The main experiment item","yes","Sternbergtask.osexp","C:/Users/Simon M. Rook/Documents/School/1Tarleton/Classes/Adv Quant/Lab 3","no","mono","no","18","no","white","no","no","768","legacy","7","7","C:/Users/Simon M. Rook/Documents/School/1Tarleton/Classes/Adv Quant/Lab 3/New folder/subject-2.csv","legacy","5","Lentiform Loewenfeld","3.3.10","0","n","0","right","left","NA","right","NA","475","4075","NA","475","NA","2","legacy","1","1024","2","48000","-16","experiment","2","even","3","52047","5232","48756","49843","1152","NA","49845","NA","1155","NA","54048","54524","50846","54048","NA","Sternberg task","8","7461","8","yes","1024"
"100","100","959.7777777777778","959.7777777777778","black","practice","legacy","legacy","legacy","0","uniform","1","undefined","1","right","8","0","8","8","0","0","8","8","0","0","8","8","8","8","0","Fri Sep 24 19:48:22 2021","The main experiment item","yes","Sternbergtask.osexp","C:/Users/Simon M. Rook/Documents/School/1Tarleton/Classes/Adv Quant/Lab 3","no","mono","no","18","no","white","no","no","768","legacy","8","8","C:/Users/Simon M. Rook/Documents/School/1Tarleton/Classes/Adv Quant/Lab 3/New folder/subject-2.csv","legacy","5 7 8 4 1 2","Lentiform Loewenfeld","3.3.10","0","n","0","right","left","NA","right","NA","1177","4075","NA","1177","NA","2","legacy","6","1024","2","48000","-16","experiment","2","even","6","57819","5232","54528","55615","1152","NA","55617","NA","1155","NA","59820","60997","56618","59820","NA","Sternberg task","9","8638","9","yes","1024"
"100","100","975.7","975.7","black","practice","legacy","legacy","legacy","0","uniform","1","undefined","1","right","9","0","9","9","0","0","9","9","0","0","9","9","9","9","0","Fri Sep 24 19:48:22 2021","The main experiment item","yes","Sternbergtask.osexp","C:/Users/Simon M. Rook/Documents/School/1Tarleton/Classes/Adv Quant/Lab 3","no","mono","no","18","no","white","no","no","768","legacy","9","9","C:/Users/Simon M. Rook/Documents/School/1Tarleton/Classes/Adv Quant/Lab 3/New folder/subject-2.csv","legacy","9 6 7 4 5","Lentiform Loewenfeld","3.3.10","0","n","0","right","left","NA","right","NA","1119","4075","NA","1119","NA","2","legacy","5","1024","2","48000","-16","experiment","2","even","3","64301","5232","61009","62098","1152","NA","62099","NA","1155","NA","66302","67421","63100","66302","NA","Sternberg task","10","9757","10","yes","1024"
"90.9090909090909","90.9090909090909","963.4545454545455","963.4545454545455","black","practice","legacy","legacy","legacy","0","uniform","0","undefined","0","right","10","0","10","10","0","0","10","10","0","0","10","10","10","10","0","Fri Sep 24 19:48:22 2021","The main experiment item","yes","Sternbergtask.osexp","C:/Users/Simon M. Rook/Documents/School/1Tarleton/Classes/Adv Quant/Lab 3","no","mono","no","18","no","white","no","no","768","legacy","10","10","C:/Users/Simon M. Rook/Documents/School/1Tarleton/Classes/Adv Quant/Lab 3/New folder/subject-2.csv","legacy","3 1 9 4","Lentiform Loewenfeld","3.3.10","0","n","0","left","left","NA","left","NA","841","4075","NA","841","NA","2","legacy","4","1024","2","48000","-16","experiment","2","even","6","70716","5232","67425","68512","1152","NA","68514","NA","1155","NA","72717","73559","69515","72717","NA","Sternberg task","10","10598","11","yes","1024"
"91.66666666666667","91.66666666666667","953.1666666666666","953.1666666666666","black","practice","legacy","legacy","legacy","0","uniform","1","undefined","1","left","11","0","11","11","0","0","11","11","0","0","11","11","11","11","0","Fri Sep 24 19:48:22 2021","The main experiment item","yes","Sternbergtask.osexp","C:/Users/Simon M. Rook/Documents/School/1Tarleton/Classes/Adv Quant/Lab 3","no","mono","no","18","no","white","no","no","768","legacy","11","11","C:/Users/Simon M. Rook/Documents/School/1Tarleton/Classes/Adv Quant/Lab 3/New folder/subject-2.csv","legacy","4 8","Lentiform Loewenfeld","3.3.10","1","y","0","left","left","NA","left","NA","840","4075","NA","840","NA","2","legacy","2","1024","2","48000","-16","experiment","2","even","4","76853","5232","67425","74650","1152","NA","74651","73563","1155","NA","78854","79695","75652","78854","NA","Sternberg task","11","11438","12","yes","1024"
"92.3076923076923","92.3076923076923","939","939","black","experiment","legacy","legacy","legacy","0","uniform","1","undefined","1","left","12","0","12","12","0","0","12","12","0","0","12","12","12","12","0","Fri Sep 24 19:48:22 2021","The main experiment item","yes","Sternbergtask.osexp","C:/Users/Simon M. Rook/Documents/School/1Tarleton/Classes/Adv Quant/Lab 3","no","mono","no","18","no","white","no","no","768","legacy","0","11","C:/Users/Simon M. Rook/Documents/School/1Tarleton/Classes/Adv Quant/Lab 3/New folder/subject-2.csv","legacy","4 6 2 5 1","Lentiform Loewenfeld","3.3.10","5","y","0","left","left","right","left","NA","769","4075","7730","769","NA","2","legacy","5","1024","2","48000","-16","experiment","2","even","1","90798","5232","79699","88588","1152","88480","88594","73563","1155","80750","92799","93568","89595","92799","NA","Sternberg task","12","12207","13","yes","1024"
"92.85714285714286","92.85714285714286","939.1428571428571","939.1428571428571","black","experiment","legacy","legacy","legacy","0","uniform","1","undefined","1","right","13","0","13","13","0","0","13","13","0","0","13","13","13","13","0","Fri Sep 24 19:48:22 2021","The main experiment item","yes","Sternbergtask.osexp","C:/Users/Simon M. Rook/Documents/School/1Tarleton/Classes/Adv Quant/Lab 3","no","mono","no","18","no","white","no","no","768","legacy","1","11","C:/Users/Simon M. Rook/Documents/School/1Tarleton/Classes/Adv Quant/Lab 3/New folder/subject-2.csv","legacy","6 3 1 7 9 8","Lentiform Loewenfeld","3.3.10","0","n","0","right","left","right","right","NA","941","4075","7730","941","NA","2","legacy","6","1024","2","48000","-16","experiment","2","even","4","96882","5232","93575","94678","1152","88480","94680","73563","1155","80750","98883","99825","95681","98883","NA","Sternberg task","13","13148","14","yes","1024"
"86.66666666666667","86.66666666666667","949.8","949.8","black","experiment","legacy","legacy","legacy","0","uniform","0","undefined","0","left","14","0","14","14","0","0","14","14","0","0","14","14","14","14","0","Fri Sep 24 19:48:22 2021","The main experiment item","yes","Sternbergtask.osexp","C:/Users/Simon M. Rook/Documents/School/1Tarleton/Classes/Adv Quant/Lab 3","no","mono","no","18","no","white","no","no","768","legacy","2","11","C:/Users/Simon M. Rook/Documents/School/1Tarleton/Classes/Adv Quant/Lab 3/New folder/subject-2.csv","legacy","4 7 6 8 2 3","Lentiform Loewenfeld","3.3.10","6","y","0","right","left","right","right","NA","1099","4075","7730","1099","NA","2","legacy","6","1024","2","48000","-16","experiment","2","even","3","103126","5232","99831","100922","1152","88480","100924","73563","1155","80750","105127","106226","101925","105127","NA","Sternberg task","13","14247","15","yes","1024"
"87.5","87.5","962.75","962.75","black","experiment","legacy","legacy","legacy","0","uniform","1","undefined","1","left","15","0","15","15","0","0","15","15","0","0","15","15","15","15","0","Fri Sep 24 19:48:22 2021","The main experiment item","yes","Sternbergtask.osexp","C:/Users/Simon M. Rook/Documents/School/1Tarleton/Classes/Adv Quant/Lab 3","no","mono","no","18","no","white","no","no","768","legacy","3","11","C:/Users/Simon M. Rook/Documents/School/1Tarleton/Classes/Adv Quant/Lab 3/New folder/subject-2.csv","legacy","8 5 3 7 4 6","Lentiform Loewenfeld","3.3.10","6","y","0","left","left","right","left","NA","1157","4075","7730","1157","NA","2","legacy","6","1024","2","48000","-16","experiment","2","even","6","109525","5232","99831","107322","1152","88480","107323","106233","1155","80750","111526","112683","108324","111526","NA","Sternberg task","14","15404","16","yes","1024"
"88.23529411764706","88.23529411764706","974.8823529411765","974.8823529411765","black","experiment","legacy","legacy","legacy","0","uniform","1","undefined","1","left","16","0","16","16","0","0","16","16","0","0","16","16","16","16","0","Fri Sep 24 19:48:22 2021","The main experiment item","yes","Sternbergtask.osexp","C:/Users/Simon M. Rook/Documents/School/1Tarleton/Classes/Adv Quant/Lab 3","no","mono","no","18","no","white","no","no","768","legacy","4","11","C:/Users/Simon M. Rook/Documents/School/1Tarleton/Classes/Adv Quant/Lab 3/New folder/subject-2.csv","legacy","3 4 9 6 2 9","Lentiform Loewenfeld","3.3.10","5","y","0","left","left","right","left","NA","1169","4075","7730","1169","NA","2","legacy","6","1024","2","48000","-16","experiment","2","even","2","115985","5232","112694","113782","1152","88480","113783","106233","1155","80750","117986","119156","114784","117986","NA","Sternberg task","15","16573","17","yes","1024"
"88.88888888888889","88.88888888888889","1003.3333333333334","1003.3333333333334","black","experiment","legacy","legacy","legacy","0","uniform","1","undefined","1","right","17","0","17","17","0","0","17","17","0","0","17","17","17","17","0","Fri Sep 24 19:48:22 2021","The main experiment item","yes","Sternbergtask.osexp","C:/Users/Simon M. Rook/Documents/School/1Tarleton/Classes/Adv Quant/Lab 3","no","mono","no","18","no","white","no","no","768","legacy","5","11","C:/Users/Simon M. Rook/Documents/School/1Tarleton/Classes/Adv Quant/Lab 3/New folder/subject-2.csv","legacy","6 9 7 3 8 2","Lentiform Loewenfeld","3.3.10","0","n","0","right","left","right","right","NA","1487","4075","7730","1487","NA","2","legacy","6","1024","2","48000","-16","experiment","2","even","5","122460","5232","119167","120255","1152","88480","120257","106233","1155","80750","124461","125949","121259","124461","NA","Sternberg task","16","18060","18","yes","1024"
"89.47368421052632","89.47368421052632","1040.1052631578948","1040.1052631578948","black","experiment","legacy","legacy","legacy","0","uniform","1","undefined","1","right","18","0","18","18","0","0","18","18","0","0","18","18","18","18","0","Fri Sep 24 19:48:22 2021","The main experiment item","yes","Sternbergtask.osexp","C:/Users/Simon M. Rook/Documents/School/1Tarleton/Classes/Adv Quant/Lab 3","no","mono","no","18","no","white","no","no","768","legacy","6","11","C:/Users/Simon M. Rook/Documents/School/1Tarleton/Classes/Adv Quant/Lab 3/New folder/subject-2.csv","legacy","8 6 3 4 7","Lentiform Loewenfeld","3.3.10","0","n","0","right","left","right","right","NA","1702","4075","7730","1702","NA","2","legacy","5","1024","2","48000","-16","experiment","2","even","1","129278","5232","125961","127075","1152","88480","127076","106233","1155","80750","131279","132981","128077","131279","NA","Sternberg task","17","19762","19","yes","1024"
"90","90","1055.25","1055.25","black","experiment","legacy","legacy","legacy","0","uniform","1","undefined","1","right","19","0","19","19","0","0","19","19","0","0","19","19","19","19","0","Fri Sep 24 19:48:22 2021","The main experiment item","yes","Sternbergtask.osexp","C:/Users/Simon M. Rook/Documents/School/1Tarleton/Classes/Adv Quant/Lab 3","no","mono","no","18","no","white","no","no","768","legacy","7","11","C:/Users/Simon M. Rook/Documents/School/1Tarleton/Classes/Adv Quant/Lab 3/New folder/subject-2.csv","legacy","2 8 6 3 1","Lentiform Loewenfeld","3.3.10","0","n","0","right","left","right","right","NA","1343","4075","7730","1343","NA","2","legacy","5","1024","2","48000","-16","experiment","2","even","7","136302","5232","132987","134099","1152","88480","134100","106233","1155","80750","138303","139646","135101","138303","NA","Sternberg task","18","21105","20","yes","1024"
"90.47619047619048","90.47619047619048","1046.5714285714287","1046.5714285714287","black","experiment","legacy","legacy","legacy","0","uniform","1","undefined","1","right","20","0","20","20","0","0","20","20","0","0","20","20","20","20","0","Fri Sep 24 19:48:22 2021","The main experiment item","yes","Sternbergtask.osexp","C:/Users/Simon M. Rook/Documents/School/1Tarleton/Classes/Adv Quant/Lab 3","no","mono","no","18","no","white","no","no","768","legacy","8","11","C:/Users/Simon M. Rook/Documents/School/1Tarleton/Classes/Adv Quant/Lab 3/New folder/subject-2.csv","legacy","2 3 8 5 6 7","Lentiform Loewenfeld","3.3.10","0","n","0","right","left","right","right","NA","873","4075","7730","873","NA","2","legacy","6","1024","2","48000","-16","experiment","2","even","1","142948","5232","139650","140744","1152","88480","140746","106233","1155","80750","144949","145823","141747","144949","NA","Sternberg task","19","21978","21","yes","1024"
"90.9090909090909","90.9090909090909","1048.090909090909","1048.090909090909","black","experiment","legacy","legacy","legacy","0","uniform","1","undefined","1","right","21","0","21","21","0","0","21","21","0","0","21","21","21","21","0","Fri Sep 24 19:48:22 2021","The main experiment item","yes","Sternbergtask.osexp","C:/Users/Simon M. Rook/Documents/School/1Tarleton/Classes/Adv Quant/Lab 3","no","mono","no","18","no","white","no","no","768","legacy","9","11","C:/Users/Simon M. Rook/Documents/School/1Tarleton/Classes/Adv Quant/Lab 3/New folder/subject-2.csv","legacy","2 8 9","Lentiform Loewenfeld","3.3.10","0","n","0","right","left","right","right","NA","1080","4075","7730","1080","NA","2","legacy","3","1024","2","48000","-16","experiment","2","even","6","149117","5232","145827","146914","1152","88480","146915","106233","1155","80750","151118","152199","147916","151118","NA","Sternberg task","20","23058","22","yes","1024"
"91.30434782608695","91.30434782608695","1050.1739130434783","1050.1739130434783","black","experiment","legacy","legacy","legacy","0","uniform","1","undefined","1","left","22","0","22","22","0","0","22","22","0","0","22","22","22","22","0","Fri Sep 24 19:48:22 2021","The main experiment item","yes","Sternbergtask.osexp","C:/Users/Simon M. Rook/Documents/School/1Tarleton/Classes/Adv Quant/Lab 3","no","mono","no","18","no","white","no","no","768","legacy","10","11","C:/Users/Simon M. Rook/Documents/School/1Tarleton/Classes/Adv Quant/Lab 3/New folder/subject-2.csv","legacy","3 9 7 6 4","Lentiform Loewenfeld","3.3.10","3","y","0","left","left","right","left","NA","1096","4075","7730","1096","NA","2","legacy","5","1024","2","48000","-16","experiment","2","even","7","155503","5232","152205","153299","1152","88480","153301","106233","1155","80750","157504","158600","154302","157504","NA","Sternberg task","21","24154","23","yes","1024"
"91.66666666666667","91.66666666666667","1057.375","1057.375","black","experiment","legacy","legacy","legacy","0","uniform","1","undefined","1","right","23","0","23","23","0","0","23","23","0","0","23","23","23","23","0","Fri Sep 24 19:48:22 2021","The main experiment item","yes","Sternbergtask.osexp","C:/Users/Simon M. Rook/Documents/School/1Tarleton/Classes/Adv Quant/Lab 3","no","mono","no","18","no","white","no","no","768","legacy","11","11","C:/Users/Simon M. Rook/Documents/School/1Tarleton/Classes/Adv Quant/Lab 3/New folder/subject-2.csv","legacy","5 3 2 6 9 8","Lentiform Loewenfeld","3.3.10","0","n","0","right","left","right","right","NA","1223","4075","7730","1223","NA","2","legacy","6","1024","2","48000","-16","experiment","2","even","4","161896","5232","158604","159693","1152","88480","159694","106233","1155","80750","163897","165120","160695","163897","NA","Sternberg task","22","25377","24","yes","1024"
"92","92","1052.56","1052.56","black","experiment","legacy","legacy","legacy","0","uniform","1","undefined","1","left","24","0","24","24","0","0","24","24","0","0","24","24","24","24","0","Fri Sep 24 19:48:22 2021","The main experiment item","yes","Sternbergtask.osexp","C:/Users/Simon M. Rook/Documents/School/1Tarleton/Classes/Adv Quant/Lab 3","no","mono","no","18","no","white","no","no","768","legacy","12","11","C:/Users/Simon M. Rook/Documents/School/1Tarleton/Classes/Adv Quant/Lab 3/New folder/subject-2.csv","legacy","8 9 6 1","Lentiform Loewenfeld","3.3.10","2","y","0","left","left","right","left","NA","937","4075","7730","937","NA","2","legacy","4","1024","2","48000","-16","experiment","2","even","9","168439","5232","165130","166233","1152","88480","166237","106233","1155","80750","170440","171378","167238","170440","NA","Sternberg task","23","26314","25","yes","1024"
"92.3076923076923","92.3076923076923","1048.3076923076924","1048.3076923076924","black","experiment","legacy","legacy","legacy","0","uniform","1","undefined","1","left","25","0","25","25","0","0","25","25","0","0","25","25","25","25","0","Fri Sep 24 19:48:22 2021","The main experiment item","yes","Sternbergtask.osexp","C:/Users/Simon M. Rook/Documents/School/1Tarleton/Classes/Adv Quant/Lab 3","no","mono","no","18","no","white","no","no","768","legacy","13","11","C:/Users/Simon M. Rook/Documents/School/1Tarleton/Classes/Adv Quant/Lab 3/New folder/subject-2.csv","legacy","7","Lentiform Loewenfeld","3.3.10","1","y","0","left","left","right","left","NA","942","4075","7730","942","NA","2","legacy","1","1024","2","48000","-16","experiment","2","even","7","174675","5232","171384","172471","1152","88480","172473","106233","1155","80750","176676","177618","173474","176676","NA","Sternberg task","24","27256","26","yes","1024"
"92.5925925925926","92.5925925925926","1036.7777777777778","1036.7777777777778","black","experiment","legacy","legacy","legacy","0","uniform","1","undefined","1","left","26","0","26","26","0","0","26","26","0","0","26","26","26","26","0","Fri Sep 24 19:48:22 2021","The main experiment item","yes","Sternbergtask.osexp","C:/Users/Simon M. Rook/Documents/School/1Tarleton/Classes/Adv Quant/Lab 3","no","mono","no","18","no","white","no","no","768","legacy","14","11","C:/Users/Simon M. Rook/Documents/School/1Tarleton/Classes/Adv Quant/Lab 3/New folder/subject-2.csv","legacy","8 7 3","Lentiform Loewenfeld","3.3.10","1","y","0","left","left","right","left","NA","737","4075","7730","737","NA","2","legacy","3","1024","2","48000","-16","experiment","2","even","8","180913","5232","177622","178709","1152","88480","178711","106233","1155","80750","182914","183651","179712","182914","NA","Sternberg task","25","27993","27","yes","1024"
"92.85714285714286","92.85714285714286","1023.5714285714286","1023.5714285714286","black","experiment","legacy","legacy","legacy","0","uniform","1","undefined","1","left","27","0","27","27","0","0","27","27","0","0","27","27","27","27","0","Fri Sep 24 19:48:22 2021","The main experiment item","yes","Sternbergtask.osexp","C:/Users/Simon M. Rook/Documents/School/1Tarleton/Classes/Adv Quant/Lab 3","no","mono","no","18","no","white","no","no","768","legacy","15","11","C:/Users/Simon M. Rook/Documents/School/1Tarleton/Classes/Adv Quant/Lab 3/New folder/subject-2.csv","legacy","4 1 8 7 5","Lentiform Loewenfeld","3.3.10","3","y","0","left","left","right","left","NA","667","4075","7730","667","NA","2","legacy","5","1024","2","48000","-16","experiment","2","even","8","186951","5232","183659","184747","1152","88480","184749","106233","1155","80750","188952","189620","185750","188952","NA","Sternberg task","26","28660","28","yes","1024"
"93.10344827586206","93.10344827586206","1008.9310344827586","1008.9310344827586","black","experiment","legacy","legacy","legacy","0","uniform","1","undefined","1","right","28","0","28","28","0","0","28","28","0","0","28","28","28","28","0","Fri Sep 24 19:48:22 2021","The main experiment item","yes","Sternbergtask.osexp","C:/Users/Simon M. Rook/Documents/School/1Tarleton/Classes/Adv Quant/Lab 3","no","mono","no","18","no","white","no","no","768","legacy","16","11","C:/Users/Simon M. Rook/Documents/School/1Tarleton/Classes/Adv Quant/Lab 3/New folder/subject-2.csv","legacy","3 4 2","Lentiform Loewenfeld","3.3.10","0","n","0","right","left","right","right","NA","599","4075","7730","599","NA","2","legacy","3","1024","2","48000","-16","experiment","2","even","5","192923","5232","189626","190720","1152","88480","190721","106233","1155","80750","194924","195524","191722","194924","NA","Sternberg task","27","29259","29","yes","1024"
"93.33333333333333","93.33333333333333","1002.4333333333333","1002.4333333333333","black","experiment","legacy","legacy","legacy","0","uniform","1","undefined","1","left","29","0","29","29","0","0","29","29","0","0","29","29","29","29","0","Fri Sep 24 19:48:22 2021","The main experiment item","yes","Sternbergtask.osexp","C:/Users/Simon M. Rook/Documents/School/1Tarleton/Classes/Adv Quant/Lab 3","no","mono","no","18","no","white","no","no","768","legacy","17","11","C:/Users/Simon M. Rook/Documents/School/1Tarleton/Classes/Adv Quant/Lab 3/New folder/subject-2.csv","legacy","4 1 5","Lentiform Loewenfeld","3.3.10","2","y","0","left","left","right","left","NA","814","4075","7730","814","NA","2","legacy","3","1024","2","48000","-16","experiment","2","even","1","198822","5232","195530","196619","1152","88480","196620","106233","1155","80750","200823","201637","197621","200823","NA","Sternberg task","28","30073","30","yes","1024"
"93.54838709677419","93.54838709677419","1004.1612903225806","1004.1612903225806","black","experiment","legacy","legacy","legacy","0","uniform","1","undefined","1","right","30","0","30","30","0","0","30","30","0","0","30","30","30","30","0","Fri Sep 24 19:48:22 2021","The main experiment item","yes","Sternbergtask.osexp","C:/Users/Simon M. Rook/Documents/School/1Tarleton/Classes/Adv Quant/Lab 3","no","mono","no","18","no","white","no","no","768","legacy","18","11","C:/Users/Simon M. Rook/Documents/School/1Tarleton/Classes/Adv Quant/Lab 3/New folder/subject-2.csv","legacy","7 1 8 4 9 3","Lentiform Loewenfeld","3.3.10","0","n","0","right","left","right","right","NA","1056","4075","7730","1056","NA","2","legacy","6","1024","2","48000","-16","experiment","2","even","6","204940","5232","201649","202737","1152","88480","202738","106233","1155","80750","206941","207998","203739","206941","NA","Sternberg task","29","31129","31","yes","1024"
"93.75","93.75","1003.71875","1003.71875","black","experiment","legacy","legacy","legacy","0","uniform","1","undefined","1","left","31","0","31","31","0","0","31","31","0","0","31","31","31","31","0","Fri Sep 24 19:48:22 2021","The main experiment item","yes","Sternbergtask.osexp","C:/Users/Simon M. Rook/Documents/School/1Tarleton/Classes/Adv Quant/Lab 3","no","mono","no","18","no","white","no","no","768","legacy","19","11","C:/Users/Simon M. Rook/Documents/School/1Tarleton/Classes/Adv Quant/Lab 3/New folder/subject-2.csv","legacy","4 6 5 8","Lentiform Loewenfeld","3.3.10","1","y","0","left","left","right","left","NA","990","4075","7730","990","NA","2","legacy","4","1024","2","48000","-16","experiment","2","even","4","211295","5232","208004","209091","1152","88480","209093","106233","1155","80750","213296","214287","210094","213296","NA","Sternberg task","30","32119","32","yes","1024"
"93.93939393939394","93.93939393939394","1002.3939393939394","1002.3939393939394","black","experiment","legacy","legacy","legacy","0","uniform","1","undefined","1","left","32","0","32","32","0","0","32","32","0","0","32","32","32","32","0","Fri Sep 24 19:48:22 2021","The main experiment item","yes","Sternbergtask.osexp","C:/Users/Simon M. Rook/Documents/School/1Tarleton/Classes/Adv Quant/Lab 3","no","mono","no","18","no","white","no","no","768","legacy","20","11","C:/Users/Simon M. Rook/Documents/School/1Tarleton/Classes/Adv Quant/Lab 3/New folder/subject-2.csv","legacy","3 5 7 1","Lentiform Loewenfeld","3.3.10","3","y","0","left","left","right","left","NA","960","4075","7730","960","NA","2","legacy","4","1024","2","48000","-16","experiment","2","even","7","217582","5232","214291","215379","1152","88480","215380","106233","1155","80750","219583","220543","216381","219583","NA","Sternberg task","31","33079","33","yes","1024"
"94.11764705882354","94.11764705882354","994.5294117647059","994.5294117647059","black","experiment","legacy","legacy","legacy","0","uniform","1","undefined","1","left","33","0","33","33","0","0","33","33","0","0","33","33","33","33","0","Fri Sep 24 19:48:22 2021","The main experiment item","yes","Sternbergtask.osexp","C:/Users/Simon M. Rook/Documents/School/1Tarleton/Classes/Adv Quant/Lab 3","no","mono","no","18","no","white","no","no","768","legacy","21","11","C:/Users/Simon M. Rook/Documents/School/1Tarleton/Classes/Adv Quant/Lab 3/New folder/subject-2.csv","legacy","9 8 4","Lentiform Loewenfeld","3.3.10","1","y","0","left","left","right","left","NA","735","4075","7730","735","NA","2","legacy","3","1024","2","48000","-16","experiment","2","even","9","223840","5232","220549","221636","1152","88480","221638","106233","1155","80750","225841","226576","222639","225841","NA","Sternberg task","32","33814","34","yes","1024"
"94.28571428571429","94.28571428571429","985.5714285714286","985.5714285714286","black","experiment","legacy","legacy","legacy","0","uniform","1","undefined","1","right","34","0","34","34","0","0","34","34","0","0","34","34","34","34","0","Fri Sep 24 19:48:22 2021","The main experiment item","yes","Sternbergtask.osexp","C:/Users/Simon M. Rook/Documents/School/1Tarleton/Classes/Adv Quant/Lab 3","no","mono","no","18","no","white","no","no","768","legacy","22","11","C:/Users/Simon M. Rook/Documents/School/1Tarleton/Classes/Adv Quant/Lab 3/New folder/subject-2.csv","legacy","5","Lentiform Loewenfeld","3.3.10","0","n","0","right","left","right","right","NA","681","4075","7730","681","NA","2","legacy","1","1024","2","48000","-16","experiment","2","even","8","229878","5232","226587","227675","1152","88480","227676","106233","1155","80750","231879","232560","228677","231879","NA","Sternberg task","33","34495","35","yes","1024"
"94.44444444444444","94.44444444444444","985.4722222222222","985.4722222222222","black","experiment","legacy","legacy","legacy","0","uniform","1","undefined","1","left","35","0","35","35","0","0","35","35","0","0","35","35","35","35","0","Fri Sep 24 19:48:22 2021","The main experiment item","yes","Sternbergtask.osexp","C:/Users/Simon M. Rook/Documents/School/1Tarleton/Classes/Adv Quant/Lab 3","no","mono","no","18","no","white","no","no","768","legacy","23","11","C:/Users/Simon M. Rook/Documents/School/1Tarleton/Classes/Adv Quant/Lab 3/New folder/subject-2.csv","legacy","5 7 3 6 2","Lentiform Loewenfeld","3.3.10","5","y","0","left","left","right","left","NA","982","4075","7730","982","NA","2","legacy","5","1024","2","48000","-16","experiment","2","even","2","235858","5232","232567","233655","1152","88480","233656","106233","1155","80750","237859","238842","234657","237859","NA","Sternberg task","34","35477","36","yes","1024"
"94.5945945945946","94.5945945945946","985.8108108108108","985.8108108108108","black","experiment","legacy","legacy","legacy","0","uniform","1","undefined","1","right","36","0","36","36","0","0","36","36","0","0","36","36","36","36","0","Fri Sep 24 19:48:22 2021","The main experiment item","yes","Sternbergtask.osexp","C:/Users/Simon M. Rook/Documents/School/1Tarleton/Classes/Adv Quant/Lab 3","no","mono","no","18","no","white","no","no","768","legacy","24","11","C:/Users/Simon M. Rook/Documents/School/1Tarleton/Classes/Adv Quant/Lab 3/New folder/subject-2.csv","legacy","6 8","Lentiform Loewenfeld","3.3.10","0","n","0","right","left","right","right","NA","998","4075","7730","998","NA","2","legacy","2","1024","2","48000","-16","experiment","2","even","9","242138","5232","238847","239935","1152","88480","239936","106233","1155","80750","244139","245138","240937","244139","NA","Sternberg task","35","36475","37","yes","1024"
"94.73684210526316","94.73684210526316","977.8421052631579","977.8421052631579","black","experiment","legacy","legacy","legacy","0","uniform","1","undefined","1","right","37","0","37","37","0","0","37","37","0","0","37","37","37","37","0","Fri Sep 24 19:48:22 2021","The main experiment item","yes","Sternbergtask.osexp","C:/Users/Simon M. Rook/Documents/School/1Tarleton/Classes/Adv Quant/Lab 3","no","mono","no","18","no","white","no","no","768","legacy","25","11","C:/Users/Simon M. Rook/Documents/School/1Tarleton/Classes/Adv Quant/Lab 3/New folder/subject-2.csv","legacy","3 9 1","Lentiform Loewenfeld","3.3.10","0","n","0","right","left","right","right","NA","683","4075","7730","683","NA","2","legacy","3","1024","2","48000","-16","experiment","2","even","7","248438","5232","245144","246235","1152","88480","246236","106233","1155","80750","250439","251123","247237","250439","NA","Sternberg task","36","37158","38","yes","1024"
"94.87179487179488","94.87179487179488","973.4615384615385","973.4615384615385","black","experiment","legacy","legacy","legacy","0","uniform","1","undefined","1","left","38","0","38","38","0","0","38","38","0","0","38","38","38","38","0","Fri Sep 24 19:48:22 2021","The main experiment item","yes","Sternbergtask.osexp","C:/Users/Simon M. Rook/Documents/School/1Tarleton/Classes/Adv Quant/Lab 3","no","mono","no","18","no","white","no","no","768","legacy","26","11","C:/Users/Simon M. Rook/Documents/School/1Tarleton/Classes/Adv Quant/Lab 3/New folder/subject-2.csv","legacy","7 8 6 3 1","Lentiform Loewenfeld","3.3.10","5","y","0","left","left","right","left","NA","807","4075","7730","807","NA","2","legacy","5","1024","2","48000","-16","experiment","2","even","1","254419","5232","251126","252216","1152","88480","252217","106233","1155","80750","256420","257227","253218","256420","NA","Sternberg task","37","37965","39","yes","1024"
"95","95","976.6","976.6","black","experiment","legacy","legacy","legacy","0","uniform","1","undefined","1","right","39","0","39","39","0","0","39","39","0","0","39","39","39","39","0","Fri Sep 24 19:48:22 2021","The main experiment item","yes","Sternbergtask.osexp","C:/Users/Simon M. Rook/Documents/School/1Tarleton/Classes/Adv Quant/Lab 3","no","mono","no","18","no","white","no","no","768","legacy","27","11","C:/Users/Simon M. Rook/Documents/School/1Tarleton/Classes/Adv Quant/Lab 3/New folder/subject-2.csv","legacy","1 4 3 6 5","Lentiform Loewenfeld","3.3.10","0","n","0","right","left","right","right","NA","1099","4075","7730","1099","NA","2","legacy","5","1024","2","48000","-16","experiment","2","even","8","260527","5232","257236","258323","1152","88480","258325","106233","1155","80750","262529","263629","259326","262529","NA","Sternberg task","38","39064","40","yes","1024"
"95.1219512195122","95.1219512195122","968.6829268292682","968.6829268292682","black","experiment","legacy","legacy","legacy","0","uniform","1","undefined","1","right","40","0","40","40","0","0","40","40","0","0","40","40","40","40","0","Fri Sep 24 19:48:22 2021","The main experiment item","yes","Sternbergtask.osexp","C:/Users/Simon M. Rook/Documents/School/1Tarleton/Classes/Adv Quant/Lab 3","no","mono","no","18","no","white","no","no","768","legacy","28","11","C:/Users/Simon M. Rook/Documents/School/1Tarleton/Classes/Adv Quant/Lab 3/New folder/subject-2.csv","legacy","5 2","Lentiform Loewenfeld","3.3.10","0","n","0","right","left","right","right","NA","652","4075","7730","652","NA","2","legacy","2","1024","2","48000","-16","experiment","2","even","7","266928","5232","263637","264724","1152","88480","264726","106233","1155","80750","268929","269581","265727","268929","NA","Sternberg task","39","39716","41","yes","1024"
"95.23809523809524","95.23809523809524","960.8095238095239","960.8095238095239","black","experiment","legacy","legacy","legacy","0","uniform","1","undefined","1","left","41","0","41","41","0","0","41","41","0","0","41","41","41","41","0","Fri Sep 24 19:48:22 2021","The main experiment item","yes","Sternbergtask.osexp","C:/Users/Simon M. Rook/Documents/School/1Tarleton/Classes/Adv Quant/Lab 3","no","mono","no","18","no","white","no","no","768","legacy","29","11","C:/Users/Simon M. Rook/Documents/School/1Tarleton/Classes/Adv Quant/Lab 3/New folder/subject-2.csv","legacy","9 5 3 8 4","Lentiform Loewenfeld","3.3.10","1","y","0","left","left","right","left","NA","638","4075","7730","638","NA","2","legacy","5","1024","2","48000","-16","experiment","2","even","9","272878","5232","269587","270674","1152","88480","270676","106233","1155","80750","274879","275518","271677","274879","NA","Sternberg task","40","40354","42","yes","1024"
"95.34883720930233","95.34883720930233","958.4883720930233","958.4883720930233","black","experiment","legacy","legacy","legacy","0","uniform","1","undefined","1","left","42","0","42","42","0","0","42","42","0","0","42","42","42","42","0","Fri Sep 24 19:48:22 2021","The main experiment item","yes","Sternbergtask.osexp","C:/Users/Simon M. Rook/Documents/School/1Tarleton/Classes/Adv Quant/Lab 3","no","mono","no","18","no","white","no","no","768","legacy","30","11","C:/Users/Simon M. Rook/Documents/School/1Tarleton/Classes/Adv Quant/Lab 3/New folder/subject-2.csv","legacy","9 3 1 2 5","Lentiform Loewenfeld","3.3.10","4","y","0","left","left","right","left","NA","861","4075","7730","861","NA","2","legacy","5","1024","2","48000","-16","experiment","2","even","2","278816","5232","275524","276612","1152","88480","276614","106233","1155","80750","280817","281678","277615","280817","NA","Sternberg task","41","41215","43","yes","1024"
"95.45454545454545","95.45454545454545","955.9545454545455","955.9545454545455","black","experiment","legacy","legacy","legacy","0","uniform","1","undefined","1","right","43","0","43","43","0","0","43","43","0","0","43","43","43","43","0","Fri Sep 24 19:48:22 2021","The main experiment item","yes","Sternbergtask.osexp","C:/Users/Simon M. Rook/Documents/School/1Tarleton/Classes/Adv Quant/Lab 3","no","mono","no","18","no","white","no","no","768","legacy","31","11","C:/Users/Simon M. Rook/Documents/School/1Tarleton/Classes/Adv Quant/Lab 3/New folder/subject-2.csv","legacy","6 9 4 5 2","Lentiform Loewenfeld","3.3.10","0","n","0","right","left","right","right","NA","847","4075","7730","847","NA","2","legacy","5","1024","2","48000","-16","experiment","2","even","1","284974","5232","281683","282771","1152","88480","282772","106233","1155","80750","286975","287823","283773","286975","NA","Sternberg task","42","42062","44","yes","1024"
"95.55555555555556","95.55555555555556","955.1555555555556","955.1555555555556","black","experiment","legacy","legacy","legacy","0","uniform","1","undefined","1","right","44","0","44","44","0","0","44","44","0","0","44","44","44","44","0","Fri Sep 24 19:48:22 2021","The main experiment item","yes","Sternbergtask.osexp","C:/Users/Simon M. Rook/Documents/School/1Tarleton/Classes/Adv Quant/Lab 3","no","mono","no","18","no","white","no","no","768","legacy","32","11","C:/Users/Simon M. Rook/Documents/School/1Tarleton/Classes/Adv Quant/Lab 3/New folder/subject-2.csv","legacy","8 5 4 2 9 6","Lentiform Loewenfeld","3.3.10","0","n","0","right","left","right","right","NA","920","4075","7730","920","NA","2","legacy","6","1024","2","48000","-16","experiment","2","even","3","291119","5232","287827","288915","1152","88480","288917","106233","1155","80750","293120","294040","289918","293120","NA","Sternberg task","43","42982","45","yes","1024"
"95.65217391304348","95.65217391304348","955.9347826086956","955.9347826086956","black","experiment","legacy","legacy","legacy","0","uniform","1","undefined","1","left","45","0","45","45","0","0","45","45","0","0","45","45","45","45","0","Fri Sep 24 19:48:22 2021","The main experiment item","yes","Sternbergtask.osexp","C:/Users/Simon M. Rook/Documents/School/1Tarleton/Classes/Adv Quant/Lab 3","no","mono","no","18","no","white","no","no","768","legacy","33","11","C:/Users/Simon M. Rook/Documents/School/1Tarleton/Classes/Adv Quant/Lab 3/New folder/subject-2.csv","legacy","7 8 4 6 9 5","Lentiform Loewenfeld","3.3.10","4","y","0","left","left","right","left","NA","991","4075","7730","991","NA","2","legacy","6","1024","2","48000","-16","experiment","2","even","6","297336","5232","294045","295132","1152","88480","295134","106233","1155","80750","299337","300328","296135","299337","NA","Sternberg task","44","43973","46","yes","1024"
"95.74468085106383","95.74468085106383","953.8297872340426","953.8297872340426","black","experiment","legacy","legacy","legacy","0","uniform","1","undefined","1","right","46","0","46","46","0","0","46","46","0","0","46","46","46","46","0","Fri Sep 24 19:48:22 2021","The main experiment item","yes","Sternbergtask.osexp","C:/Users/Simon M. Rook/Documents/School/1Tarleton/Classes/Adv Quant/Lab 3","no","mono","no","18","no","white","no","no","768","legacy","34","11","C:/Users/Simon M. Rook/Documents/School/1Tarleton/Classes/Adv Quant/Lab 3/New folder/subject-2.csv","legacy","1 4 9 2 5","Lentiform Loewenfeld","3.3.10","0","n","0","right","left","right","right","NA","857","4075","7730","857","NA","2","legacy","5","1024","2","48000","-16","experiment","2","even","7","303623","5232","300333","301420","1152","88480","301421","106233","1155","80750","305624","306482","302422","305624","NA","Sternberg task","45","44830","47","yes","1024"
"95.83333333333333","95.83333333333333","950.5833333333334","950.5833333333334","black","experiment","legacy","legacy","legacy","0","uniform","1","undefined","1","left","47","0","47","47","0","0","47","47","0","0","47","47","47","47","0","Fri Sep 24 19:48:22 2021","The main experiment item","yes","Sternbergtask.osexp","C:/Users/Simon M. Rook/Documents/School/1Tarleton/Classes/Adv Quant/Lab 3","no","mono","no","18","no","white","no","no","768","legacy","35","11","C:/Users/Simon M. Rook/Documents/School/1Tarleton/Classes/Adv Quant/Lab 3/New folder/subject-2.csv","legacy","9 6 2 4 1","Lentiform Loewenfeld","3.3.10","4","y","0","left","left","right","left","NA","798","4075","7730","798","NA","2","legacy","5","1024","2","48000","-16","experiment","2","even","4","309778","5232","306486","307574","1152","88480","307576","106233","1155","80750","311779","312577","308577","311779","NA","Sternberg task","46","45628","48","yes","1024"
"95.91836734693878","95.91836734693878","944.0612244897959","944.0612244897959","black","experiment","legacy","legacy","legacy","0","uniform","1","undefined","1","right","48","0","48","48","0","0","48","48","0","0","48","48","48","48","0","Fri Sep 24 19:48:22 2021","The main experiment item","yes","Sternbergtask.osexp","C:/Users/Simon M. Rook/Documents/School/1Tarleton/Classes/Adv Quant/Lab 3","no","mono","no","18","no","white","no","no","768","legacy","36","11","C:/Users/Simon M. Rook/Documents/School/1Tarleton/Classes/Adv Quant/Lab 3/New folder/subject-2.csv","legacy","5 7 3","Lentiform Loewenfeld","3.3.10","0","n","0","right","left","right","right","NA","631","4075","7730","631","NA","2","legacy","3","1024","2","48000","-16","experiment","2","even","9","315874","5232","312582","313671","1152","88480","313672","106233","1155","80750","317875","318507","314673","317875","NA","Sternberg task","47","46259","49","yes","1024"
"96","96","943.66","943.66","black","experiment","legacy","legacy","legacy","0","uniform","1","undefined","1","left","49","0","49","49","0","0","49","49","0","0","49","49","49","49","0","Fri Sep 24 19:48:22 2021","The main experiment item","yes","Sternbergtask.osexp","C:/Users/Simon M. Rook/Documents/School/1Tarleton/Classes/Adv Quant/Lab 3","no","mono","no","18","no","white","no","no","768","legacy","37","11","C:/Users/Simon M. Rook/Documents/School/1Tarleton/Classes/Adv Quant/Lab 3/New folder/subject-2.csv","legacy","6 8 9 3 4 9","Lentiform Loewenfeld","3.3.10","5","y","0","left","left","right","left","NA","924","4075","7730","924","NA","2","legacy","6","1024","2","48000","-16","experiment","2","even","4","321806","5232","318512","319601","1152","88480","319603","106233","1155","80750","323807","324732","320605","323807","NA","Sternberg task","48","47183","50","yes","1024"
"96.07843137254902","96.07843137254902","945.7450980392157","945.7450980392157","black","experiment","legacy","legacy","legacy","0","uniform","1","undefined","1","left","50","0","50","50","0","0","50","50","0","0","50","50","50","50","0","Fri Sep 24 19:48:22 2021","The main experiment item","yes","Sternbergtask.osexp","C:/Users/Simon M. Rook/Documents/School/1Tarleton/Classes/Adv Quant/Lab 3","no","mono","no","18","no","white","no","no","768","legacy","38","11","C:/Users/Simon M. Rook/Documents/School/1Tarleton/Classes/Adv Quant/Lab 3/New folder/subject-2.csv","legacy","8 5 1 3 9","Lentiform Loewenfeld","3.3.10","4","y","0","left","left","right","left","NA","1050","4075","7730","1050","NA","2","legacy","5","1024","2","48000","-16","experiment","2","even","3","328032","5232","324736","325829","1152","88480","325830","106233","1155","80750","330033","331084","326831","330033","NA","Sternberg task","49","48233","51","yes","1024"
"96.15384615384616","96.15384615384616","943.6730769230769","943.6730769230769","black","experiment","legacy","legacy","legacy","0","uniform","1","undefined","1","right","51","0","51","51","0","0","51","51","0","0","51","51","51","51","0","Fri Sep 24 19:48:22 2021","The main experiment item","yes","Sternbergtask.osexp","C:/Users/Simon M. Rook/Documents/School/1Tarleton/Classes/Adv Quant/Lab 3","no","mono","no","18","no","white","no","no","768","legacy","39","11","C:/Users/Simon M. Rook/Documents/School/1Tarleton/Classes/Adv Quant/Lab 3/New folder/subject-2.csv","legacy","7 3 2 8","Lentiform Loewenfeld","3.3.10","0","n","0","right","left","right","right","NA","838","4075","7730","838","NA","2","legacy","4","1024","2","48000","-16","experiment","2","even","4","334381","5232","331090","332178","1152","88480","332179","106233","1155","80750","336382","337221","333180","336382","NA","Sternberg task","50","49071","52","yes","1024"
"96.22641509433963","96.22641509433963","934.7735849056604","934.7735849056604","black","experiment","legacy","legacy","legacy","0","uniform","1","undefined","1","right","52","0","52","52","0","0","52","52","0","0","52","52","52","52","0","Fri Sep 24 19:48:22 2021","The main experiment item","yes","Sternbergtask.osexp","C:/Users/Simon M. Rook/Documents/School/1Tarleton/Classes/Adv Quant/Lab 3","no","mono","no","18","no","white","no","no","768","legacy","40","11","C:/Users/Simon M. Rook/Documents/School/1Tarleton/Classes/Adv Quant/Lab 3/New folder/subject-2.csv","legacy","4 1","Lentiform Loewenfeld","3.3.10","0","n","0","right","left","right","right","NA","472","4075","7730","472","NA","2","legacy","2","1024","2","48000","-16","experiment","2","even","6","340516","5232","337225","338313","1152","88480","338314","106233","1155","80750","342517","342989","339315","342517","NA","Sternberg task","51","49543","53","yes","1024"
"94.44444444444444","94.44444444444444","954.5","954.5","black","experiment","legacy","legacy","legacy","0","uniform","0","undefined","0","left","53","0","53","53","0","0","53","53","0","0","53","53","53","53","0","Fri Sep 24 19:48:22 2021","The main experiment item","yes","Sternbergtask.osexp","C:/Users/Simon M. Rook/Documents/School/1Tarleton/Classes/Adv Quant/Lab 3","no","mono","no","18","no","white","no","no","768","legacy","41","11","C:/Users/Simon M. Rook/Documents/School/1Tarleton/Classes/Adv Quant/Lab 3/New folder/subject-2.csv","legacy","9 4 2","Lentiform Loewenfeld","3.3.10","1","y","0","None","left","right","None","NA","2000","4075","7730","2000","NA","2","legacy","3","1024","2","48000","-16","experiment","2","even","9","346286","5232","342994","344082","1152","88480","344084","106233","1155","80750","348287","350287","345085","348287","NA","Sternberg task","51","51543","54","yes","1024"
"94.54545454545455","94.54545454545455","955.2727272727273","955.2727272727273","black","experiment","legacy","legacy","legacy","0","uniform","1","undefined","1","right","54","0","54","54","0","0","54","54","0","0","54","54","54","54","0","Fri Sep 24 19:48:22 2021","The main experiment item","yes","Sternbergtask.osexp","C:/Users/Simon M. Rook/Documents/School/1Tarleton/Classes/Adv Quant/Lab 3","no","mono","no","18","no","white","no","no","768","legacy","42","11","C:/Users/Simon M. Rook/Documents/School/1Tarleton/Classes/Adv Quant/Lab 3/New folder/subject-2.csv","legacy","4 8 1 2","Lentiform Loewenfeld","3.3.10","0","n","0","right","left","right","right","NA","997","4075","7730","997","NA","2","legacy","4","1024","2","48000","-16","experiment","2","even","7","353617","5232","342994","351414","1152","88480","351415","350298","1155","80750","355618","356615","352416","355618","NA","Sternberg task","52","52540","55","yes","1024"
"94.64285714285714","94.64285714285714","950.75","950.75","black","experiment","legacy","legacy","legacy","0","uniform","1","undefined","1","left","55","0","55","55","0","0","55","55","0","0","55","55","55","55","0","Fri Sep 24 19:48:22 2021","The main experiment item","yes","Sternbergtask.osexp","C:/Users/Simon M. Rook/Documents/School/1Tarleton/Classes/Adv Quant/Lab 3","no","mono","no","18","no","white","no","no","768","legacy","43","11","C:/Users/Simon M. Rook/Documents/School/1Tarleton/Classes/Adv Quant/Lab 3/New folder/subject-2.csv","legacy","2 3","Lentiform Loewenfeld","3.3.10","1","y","0","left","left","right","left","NA","702","4075","7730","702","NA","2","legacy","2","1024","2","48000","-16","experiment","2","even","2","359912","5232","356621","357708","1152","88480","357710","350298","1155","80750","361913","362616","358711","361913","NA","Sternberg task","53","53242","56","yes","1024"
"94.73684210526316","94.73684210526316","947.3859649122807","947.3859649122807","black","experiment","legacy","legacy","legacy","0","uniform","1","undefined","1","right","56","0","56","56","0","0","56","56","0","0","56","56","56","56","0","Fri Sep 24 19:48:22 2021","The main experiment item","yes","Sternbergtask.osexp","C:/Users/Simon M. Rook/Documents/School/1Tarleton/Classes/Adv Quant/Lab 3","no","mono","no","18","no","white","no","no","768","legacy","44","11","C:/Users/Simon M. Rook/Documents/School/1Tarleton/Classes/Adv Quant/Lab 3/New folder/subject-2.csv","legacy","9 8 2 7 4","Lentiform Loewenfeld","3.3.10","0","n","0","right","left","right","right","NA","759","4075","7730","759","NA","2","legacy","5","1024","2","48000","-16","experiment","2","even","5","365919","5232","362627","363716","1152","88480","363717","350298","1155","80750","367920","368680","364718","367920","NA","Sternberg task","54","54001","57","yes","1024"
"94.82758620689656","94.82758620689656","942.2241379310345","942.2241379310345","black","experiment","legacy","legacy","legacy","0","uniform","1","undefined","1","left","57","0","57","57","0","0","57","57","0","0","57","57","57","57","0","Fri Sep 24 19:48:22 2021","The main experiment item","yes","Sternbergtask.osexp","C:/Users/Simon M. Rook/Documents/School/1Tarleton/Classes/Adv Quant/Lab 3","no","mono","no","18","no","white","no","no","768","legacy","45","11","C:/Users/Simon M. Rook/Documents/School/1Tarleton/Classes/Adv Quant/Lab 3/New folder/subject-2.csv","legacy","2 8 5 1","Lentiform Loewenfeld","3.3.10","4","y","0","left","left","right","left","NA","648","4075","7730","648","NA","2","legacy","4","1024","2","48000","-16","experiment","2","even","1","371984","5232","368692","369780","1152","88480","369782","350298","1155","80750","373985","374633","370783","373985","NA","Sternberg task","55","54649","58","yes","1024"
"94.91525423728814","94.91525423728814","940.9830508474577","940.9830508474577","black","experiment","legacy","legacy","legacy","0","uniform","1","undefined","1","right","58","0","58","58","0","0","58","58","0","0","58","58","58","58","0","Fri Sep 24 19:48:22 2021","The main experiment item","yes","Sternbergtask.osexp","C:/Users/Simon M. Rook/Documents/School/1Tarleton/Classes/Adv Quant/Lab 3","no","mono","no","18","no","white","no","no","768","legacy","46","11","C:/Users/Simon M. Rook/Documents/School/1Tarleton/Classes/Adv Quant/Lab 3/New folder/subject-2.csv","legacy","7 6 4 8 1 2","Lentiform Loewenfeld","3.3.10","0","n","0","right","left","right","right","NA","869","4075","7730","869","NA","2","legacy","6","1024","2","48000","-16","experiment","2","even","9","377931","5232","374639","375728","1152","88480","375729","350298","1155","80750","379932","380802","376730","379932","NA","Sternberg task","56","55518","59","yes","1024"
"95","95","936.8833333333333","936.8833333333333","black","experiment","legacy","legacy","legacy","0","uniform","1","undefined","1","left","59","0","59","59","0","0","59","59","0","0","59","59","59","59","0","Fri Sep 24 19:48:22 2021","The main experiment item","yes","Sternbergtask.osexp","C:/Users/Simon M. Rook/Documents/School/1Tarleton/Classes/Adv Quant/Lab 3","no","mono","no","18","no","white","no","no","768","legacy","47","11","C:/Users/Simon M. Rook/Documents/School/1Tarleton/Classes/Adv Quant/Lab 3/New folder/subject-2.csv","legacy","6 7 9 3 1 2","Lentiform Loewenfeld","3.3.10","1","y","0","left","left","right","left","NA","695","4075","7730","695","NA","2","legacy","6","1024","2","48000","-16","experiment","2","even","6","384098","5232","380806","381895","1152","88480","381896","350298","1155","80750","386099","386795","382897","386099","NA","Sternberg task","57","56213","60","yes","1024"
"95.08196721311475","95.08196721311475","934.344262295082","934.344262295082","black","experiment","legacy","legacy","legacy","0","uniform","1","undefined","1","left","60","0","60","60","0","0","60","60","0","0","60","60","60","60","0","Fri Sep 24 19:48:22 2021","The main experiment item","yes","Sternbergtask.osexp","C:/Users/Simon M. Rook/Documents/School/1Tarleton/Classes/Adv Quant/Lab 3","no","mono","no","18","no","white","no","no","768","legacy","48","11","C:/Users/Simon M. Rook/Documents/School/1Tarleton/Classes/Adv Quant/Lab 3/New folder/subject-2.csv","legacy","3 5 9 6 2 4","Lentiform Loewenfeld","3.3.10","1","y","0","left","left","right","left","NA","782","4075","7730","782","NA","2","legacy","6","1024","2","48000","-16","experiment","2","even","3","390099","5232","386799","387896","1152","88480","387897","350298","1155","80750","392100","392883","388898","392100","NA","Sternberg task","58","56995","61","yes","1024"
"95.16129032258064","95.16129032258064","931.6129032258065","931.6129032258065","black","experiment","legacy","legacy","legacy","0","uniform","1","undefined","1","right","61","0","61","61","0","0","61","61","0","0","61","61","61","61","0","Fri Sep 24 19:48:22 2021","The main experiment item","yes","Sternbergtask.osexp","C:/Users/Simon M. Rook/Documents/School/1Tarleton/Classes/Adv Quant/Lab 3","no","mono","no","18","no","white","no","no","768","legacy","49","11","C:/Users/Simon M. Rook/Documents/School/1Tarleton/Classes/Adv Quant/Lab 3/New folder/subject-2.csv","legacy","7 9 1 6","Lentiform Loewenfeld","3.3.10","0","n","0","right","left","right","right","NA","765","4075","7730","765","NA","2","legacy","4","1024","2","48000","-16","experiment","2","even","4","396185","5232","392894","393982","1152","88480","393983","350298","1155","80750","398186","398952","394984","398186","NA","Sternberg task","59","57760","62","yes","1024"
"95.23809523809524","95.23809523809524","931.7142857142857","931.7142857142857","black","experiment","legacy","legacy","legacy","0","uniform","1","undefined","1","right","62","0","62","62","0","0","62","62","0","0","62","62","62","62","0","Fri Sep 24 19:48:22 2021","The main experiment item","yes","Sternbergtask.osexp","C:/Users/Simon M. Rook/Documents/School/1Tarleton/Classes/Adv Quant/Lab 3","no","mono","no","18","no","white","no","no","768","legacy","50","11","C:/Users/Simon M. Rook/Documents/School/1Tarleton/Classes/Adv Quant/Lab 3/New folder/subject-2.csv","legacy","8 2 1 4 5 9","Lentiform Loewenfeld","3.3.10","0","n","0","right","left","right","right","NA","938","4075","7730","938","NA","2","legacy","6","1024","2","48000","-16","experiment","2","even","7","402249","5232","398958","400046","1152","88480","400047","350298","1155","80750","404250","405188","401048","404250","NA","Sternberg task","60","58698","63","yes","1024"
"95.3125","95.3125","926.40625","926.40625","black","experiment","legacy","legacy","legacy","0","uniform","1","undefined","1","left","63","0","63","63","0","0","63","63","0","0","63","63","63","63","0","Fri Sep 24 19:48:22 2021","The main experiment item","yes","Sternbergtask.osexp","C:/Users/Simon M. Rook/Documents/School/1Tarleton/Classes/Adv Quant/Lab 3","no","mono","no","18","no","white","no","no","768","legacy","51","11","C:/Users/Simon M. Rook/Documents/School/1Tarleton/Classes/Adv Quant/Lab 3/New folder/subject-2.csv","legacy","2 4 6 9","Lentiform Loewenfeld","3.3.10","3","y","0","left","left","right","left","NA","592","4075","7730","592","NA","2","legacy","4","1024","2","48000","-16","experiment","2","even","6","408484","5232","405193","406280","1152","88480","406282","350298","1155","80750","410485","411077","407283","410485","NA","Sternberg task","61","59290","64","yes","1024"
"95.38461538461539","95.38461538461539","924.6769230769231","924.6769230769231","black","experiment","legacy","legacy","legacy","0","uniform","1","undefined","1","right","64","0","64","64","0","0","64","64","0","0","64","64","64","64","0","Fri Sep 24 19:48:22 2021","The main experiment item","yes","Sternbergtask.osexp","C:/Users/Simon M. Rook/Documents/School/1Tarleton/Classes/Adv Quant/Lab 3","no","mono","no","18","no","white","no","no","768","legacy","52","11","C:/Users/Simon M. Rook/Documents/School/1Tarleton/Classes/Adv Quant/Lab 3/New folder/subject-2.csv","legacy","7 4 2 8 1 9","Lentiform Loewenfeld","3.3.10","0","n","0","right","left","right","right","NA","814","4075","7730","814","NA","2","legacy","6","1024","2","48000","-16","experiment","2","even","5","414375","5232","411084","412172","1152","88480","412173","350298","1155","80750","416376","417191","413174","416376","NA","Sternberg task","62","60104","65","yes","1024"
"95.45454545454545","95.45454545454545","921.4848484848485","921.4848484848485","black","experiment","legacy","legacy","legacy","0","uniform","1","undefined","1","left","65","0","65","65","0","0","65","65","0","0","65","65","65","65","0","Fri Sep 24 19:48:22 2021","The main experiment item","yes","Sternbergtask.osexp","C:/Users/Simon M. Rook/Documents/School/1Tarleton/Classes/Adv Quant/Lab 3","no","mono","no","18","no","white","no","no","768","legacy","53","11","C:/Users/Simon M. Rook/Documents/School/1Tarleton/Classes/Adv Quant/Lab 3/New folder/subject-2.csv","legacy","8 9 5 6 7","Lentiform Loewenfeld","3.3.10","1","y","0","left","left","right","left","NA","714","4075","7730","714","NA","2","legacy","5","1024","2","48000","-16","experiment","2","even","8","420491","5232","417199","418287","1152","88480","418288","350298","1155","80750","422492","423207","419290","422492","NA","Sternberg task","63","60818","66","yes","1024"
"95.5223880597015","95.5223880597015","919.179104477612","919.179104477612","black","experiment","legacy","legacy","legacy","0","uniform","1","undefined","1","right","66","0","66","66","0","0","66","66","0","0","66","66","66","66","0","Fri Sep 24 19:48:22 2021","The main experiment item","yes","Sternbergtask.osexp","C:/Users/Simon M. Rook/Documents/School/1Tarleton/Classes/Adv Quant/Lab 3","no","mono","no","18","no","white","no","no","768","legacy","54","11","C:/Users/Simon M. Rook/Documents/School/1Tarleton/Classes/Adv Quant/Lab 3/New folder/subject-2.csv","legacy","9 7 4 5 8","Lentiform Loewenfeld","3.3.10","0","n","0","right","left","right","right","NA","767","4075","7730","767","NA","2","legacy","5","1024","2","48000","-16","experiment","2","even","6","426510","5232","423218","424306","1152","88480","424308","350298","1155","80750","428511","429279","425309","428511","NA","Sternberg task","64","61585","67","yes","1024"
"95.58823529411765","95.58823529411765","918.9852941176471","918.9852941176471","black","experiment","legacy","legacy","legacy","0","uniform","1","undefined","1","right","67","0","67","67","0","0","67","67","0","0","67","67","67","67","0","Fri Sep 24 19:48:22 2021","The main experiment item","yes","Sternbergtask.osexp","C:/Users/Simon M. Rook/Documents/School/1Tarleton/Classes/Adv Quant/Lab 3","no","mono","no","18","no","white","no","no","768","legacy","55","11","C:/Users/Simon M. Rook/Documents/School/1Tarleton/Classes/Adv Quant/Lab 3/New folder/subject-2.csv","legacy","1 5 3 2 8","Lentiform Loewenfeld","3.3.10","0","n","0","right","left","right","right","NA","906","4075","7730","906","NA","2","legacy","5","1024","2","48000","-16","experiment","2","even","4","432581","5232","429290","430378","1152","88480","430379","350298","1155","80750","434582","435488","431380","434582","NA","Sternberg task","65","62491","68","yes","1024"
"95.65217391304348","95.65217391304348","919.6811594202899","919.6811594202899","black","experiment","legacy","legacy","legacy","0","uniform","1","undefined","1","right","68","0","68","68","0","0","68","68","0","0","68","68","68","68","0","Fri Sep 24 19:48:22 2021","The main experiment item","yes","Sternbergtask.osexp","C:/Users/Simon M. Rook/Documents/School/1Tarleton/Classes/Adv Quant/Lab 3","no","mono","no","18","no","white","no","no","768","legacy","56","11","C:/Users/Simon M. Rook/Documents/School/1Tarleton/Classes/Adv Quant/Lab 3/New folder/subject-2.csv","legacy","6 8 4","Lentiform Loewenfeld","3.3.10","0","n","0","right","left","right","right","NA","967","4075","7730","967","NA","2","legacy","3","1024","2","48000","-16","experiment","2","even","1","438784","5232","435493","436580","1152","88480","436582","350298","1155","80750","440785","441753","437583","440785","NA","Sternberg task","66","63458","69","yes","1024"
"95.71428571428571","95.71428571428571","918.4142857142857","918.4142857142857","black","experiment","legacy","legacy","legacy","0","uniform","1","undefined","1","right","69","0","69","69","0","0","69","69","0","0","69","69","69","69","0","Fri Sep 24 19:48:22 2021","The main experiment item","yes","Sternbergtask.osexp","C:/Users/Simon M. Rook/Documents/School/1Tarleton/Classes/Adv Quant/Lab 3","no","mono","no","18","no","white","no","no","768","legacy","57","11","C:/Users/Simon M. Rook/Documents/School/1Tarleton/Classes/Adv Quant/Lab 3/New folder/subject-2.csv","legacy","1 6 4 3 9 7","Lentiform Loewenfeld","3.3.10","0","n","0","right","left","right","right","NA","831","4075","7730","831","NA","2","legacy","6","1024","2","48000","-16","experiment","2","even","8","445049","5232","441758","442845","1152","88480","442847","350298","1155","80750","447050","447882","443848","447050","NA","Sternberg task","67","64289","70","yes","1024"
"95.77464788732394","95.77464788732394","920.5492957746479","920.5492957746479","black","experiment","legacy","legacy","legacy","0","uniform","1","undefined","1","left","70","0","70","70","0","0","70","70","0","0","70","70","70","70","0","Fri Sep 24 19:48:22 2021","The main experiment item","yes","Sternbergtask.osexp","C:/Users/Simon M. Rook/Documents/School/1Tarleton/Classes/Adv Quant/Lab 3","no","mono","no","18","no","white","no","no","768","legacy","58","11","C:/Users/Simon M. Rook/Documents/School/1Tarleton/Classes/Adv Quant/Lab 3/New folder/subject-2.csv","legacy","9 1 6 7 8","Lentiform Loewenfeld","3.3.10","1","y","0","left","left","right","left","NA","1070","4075","7730","1070","NA","2","legacy","5","1024","2","48000","-16","experiment","2","even","9","451178","5232","447887","448975","1152","88480","448976","350298","1155","80750","453179","454250","449977","453179","NA","Sternberg task","68","65359","71","yes","1024"
"95.83333333333333","95.83333333333333","917.7361111111111","917.7361111111111","black","experiment","legacy","legacy","legacy","0","uniform","1","undefined","1","right","71","0","71","71","0","0","71","71","0","0","71","71","71","71","0","Fri Sep 24 19:48:22 2021","The main experiment item","yes","Sternbergtask.osexp","C:/Users/Simon M. Rook/Documents/School/1Tarleton/Classes/Adv Quant/Lab 3","no","mono","no","18","no","white","no","no","768","legacy","59","11","C:/Users/Simon M. Rook/Documents/School/1Tarleton/Classes/Adv Quant/Lab 3/New folder/subject-2.csv","legacy","8 9","Lentiform Loewenfeld","3.3.10","0","n","0","right","left","right","right","NA","718","4075","7730","718","NA","2","legacy","2","1024","2","48000","-16","experiment","2","even","5","457547","5232","454256","455344","1152","88480","455345","350298","1155","80750","459548","460268","456346","459548","NA","Sternberg task","69","66077","72","yes","1024"
"95.89041095890411","95.89041095890411","916.1917808219179","916.1917808219179","black","experiment","legacy","legacy","legacy","0","uniform","1","undefined","1","right","72","0","72","72","0","0","72","72","0","0","72","72","72","72","0","Fri Sep 24 19:48:22 2021","The main experiment item","yes","Sternbergtask.osexp","C:/Users/Simon M. Rook/Documents/School/1Tarleton/Classes/Adv Quant/Lab 3","no","mono","no","18","no","white","no","no","768","legacy","60","11","C:/Users/Simon M. Rook/Documents/School/1Tarleton/Classes/Adv Quant/Lab 3/New folder/subject-2.csv","legacy","2 6 4 3 9","Lentiform Loewenfeld","3.3.10","0","n","0","right","left","right","right","NA","805","4075","7730","805","NA","2","legacy","5","1024","2","48000","-16","experiment","2","even","1","463573","5232","460281","461370","1152","88480","461371","350298","1155","80750","465574","466380","462372","465574","NA","Sternberg task","70","66882","73","yes","1024"
"95.94594594594595","95.94594594594595","920.2432432432432","920.2432432432432","black","experiment","legacy","legacy","legacy","0","uniform","1","undefined","1","right","73","0","73","73","0","0","73","73","0","0","73","73","73","73","0","Fri Sep 24 19:48:22 2021","The main experiment item","yes","Sternbergtask.osexp","C:/Users/Simon M. Rook/Documents/School/1Tarleton/Classes/Adv Quant/Lab 3","no","mono","no","18","no","white","no","no","768","legacy","61","11","C:/Users/Simon M. Rook/Documents/School/1Tarleton/Classes/Adv Quant/Lab 3/New folder/subject-2.csv","legacy","6 7 5 9","Lentiform Loewenfeld","3.3.10","0","n","0","right","left","right","right","NA","1216","4075","7730","1216","NA","2","legacy","4","1024","2","48000","-16","experiment","2","even","2","469683","5232","466391","467480","1152","88480","467481","350298","1155","80750","471684","472901","468482","471684","NA","Sternberg task","71","68098","74","yes","1024"
"96","96","916.8533333333334","916.8533333333334","black","experiment","legacy","legacy","legacy","0","uniform","1","undefined","1","left","74","0","74","74","0","0","74","74","0","0","74","74","74","74","0","Fri Sep 24 19:48:22 2021","The main experiment item","yes","Sternbergtask.osexp","C:/Users/Simon M. Rook/Documents/School/1Tarleton/Classes/Adv Quant/Lab 3","no","mono","no","18","no","white","no","no","768","legacy","62","11","C:/Users/Simon M. Rook/Documents/School/1Tarleton/Classes/Adv Quant/Lab 3/New folder/subject-2.csv","legacy","6 2","Lentiform Loewenfeld","3.3.10","1","y","0","left","left","right","left","NA","666","4075","7730","666","NA","2","legacy","2","1024","2","48000","-16","experiment","2","even","6","476202","5232","472912","473999","1152","88480","474000","350298","1155","80750","478203","478870","475001","478203","NA","Sternberg task","72","68764","75","yes","1024"
"96.05263157894737","96.05263157894737","915.9473684210526","915.9473684210526","black","experiment","legacy","legacy","legacy","0","uniform","1","undefined","1","left","75","0","75","75","0","0","75","75","0","0","75","75","75","75","0","Fri Sep 24 19:48:22 2021","The main experiment item","yes","Sternbergtask.osexp","C:/Users/Simon M. Rook/Documents/School/1Tarleton/Classes/Adv Quant/Lab 3","no","mono","no","18","no","white","no","no","768","legacy","63","11","C:/Users/Simon M. Rook/Documents/School/1Tarleton/Classes/Adv Quant/Lab 3/New folder/subject-2.csv","legacy","5 7 8 2 3 8","Lentiform Loewenfeld","3.3.10","5","y","0","left","left","right","left","NA","848","4075","7730","848","NA","2","legacy","6","1024","2","48000","-16","experiment","2","even","3","482164","5232","478873","479961","1152","88480","479962","350298","1155","80750","484165","485014","480963","484165","NA","Sternberg task","73","69612","76","yes","1024"
"96.1038961038961","96.1038961038961","914.1168831168832","914.1168831168832","black","experiment","legacy","legacy","legacy","0","uniform","1","undefined","1","right","76","0","76","76","0","0","76","76","0","0","76","76","76","76","0","Fri Sep 24 19:48:22 2021","The main experiment item","yes","Sternbergtask.osexp","C:/Users/Simon M. Rook/Documents/School/1Tarleton/Classes/Adv Quant/Lab 3","no","mono","no","18","no","white","no","no","768","legacy","64","11","C:/Users/Simon M. Rook/Documents/School/1Tarleton/Classes/Adv Quant/Lab 3/New folder/subject-2.csv","legacy","1 7 5 2 9","Lentiform Loewenfeld","3.3.10","0","n","0","right","left","right","right","NA","775","4075","7730","775","NA","2","legacy","5","1024","2","48000","-16","experiment","2","even","3","488309","5232","485018","486106","1152","88480","486107","350298","1155","80750","490310","491086","487108","490310","NA","Sternberg task","74","70387","77","yes","1024"
"96.15384615384616","96.15384615384616","915.0641025641025","915.0641025641025","black","experiment","legacy","legacy","legacy","0","uniform","1","undefined","1","right","77","0","77","77","0","0","77","77","0","0","77","77","77","77","0","Fri Sep 24 19:48:22 2021","The main experiment item","yes","Sternbergtask.osexp","C:/Users/Simon M. Rook/Documents/School/1Tarleton/Classes/Adv Quant/Lab 3","no","mono","no","18","no","white","no","no","768","legacy","65","11","C:/Users/Simon M. Rook/Documents/School/1Tarleton/Classes/Adv Quant/Lab 3/New folder/subject-2.csv","legacy","4 2 6 9","Lentiform Loewenfeld","3.3.10","0","n","0","right","left","right","right","NA","988","4075","7730","988","NA","2","legacy","4","1024","2","48000","-16","experiment","2","even","7","494386","5232","491095","492182","1152","88480","492184","350298","1155","80750","496387","497375","493185","496387","NA","Sternberg task","75","71375","78","yes","1024"
"96.20253164556962","96.20253164556962","917.0253164556962","917.0253164556962","black","experiment","legacy","legacy","legacy","0","uniform","1","undefined","1","left","78","0","78","78","0","0","78","78","0","0","78","78","78","78","0","Fri Sep 24 19:48:22 2021","The main experiment item","yes","Sternbergtask.osexp","C:/Users/Simon M. Rook/Documents/School/1Tarleton/Classes/Adv Quant/Lab 3","no","mono","no","18","no","white","no","no","768","legacy","66","11","C:/Users/Simon M. Rook/Documents/School/1Tarleton/Classes/Adv Quant/Lab 3/New folder/subject-2.csv","legacy","2 5 4 8 7","Lentiform Loewenfeld","3.3.10","3","y","0","left","left","right","left","NA","1070","4075","7730","1070","NA","2","legacy","5","1024","2","48000","-16","experiment","2","even","4","500672","5232","497380","498469","1152","88480","498470","350298","1155","80750","502673","503744","499471","502673","NA","Sternberg task","76","72445","79","yes","1024"
"96.25","96.25","917.4375","917.4375","black","experiment","legacy","legacy","legacy","0","uniform","1","undefined","1","left","79","0","79","79","0","0","79","79","0","0","79","79","79","79","0","Fri Sep 24 19:48:22 2021","The main experiment item","yes","Sternbergtask.osexp","C:/Users/Simon M. Rook/Documents/School/1Tarleton/Classes/Adv Quant/Lab 3","no","mono","no","18","no","white","no","no","768","legacy","67","11","C:/Users/Simon M. Rook/Documents/School/1Tarleton/Classes/Adv Quant/Lab 3/New folder/subject-2.csv","legacy","7 2 3","Lentiform Loewenfeld","3.3.10","3","y","0","left","left","right","left","NA","950","4075","7730","950","NA","2","legacy","3","1024","2","48000","-16","experiment","2","even","3","507041","5232","503750","504838","1152","88480","504839","350298","1155","80750","509042","509993","505840","509042","NA","Sternberg task","77","73395","80","yes","1024"
"96.29629629629629","96.29629629629629","920.5925925925926","920.5925925925926","black","experiment","legacy","legacy","legacy","0","uniform","1","undefined","1","right","80","0","80","80","0","0","80","80","0","0","80","80","80","80","0","Fri Sep 24 19:48:22 2021","The main experiment item","yes","Sternbergtask.osexp","C:/Users/Simon M. Rook/Documents/School/1Tarleton/Classes/Adv Quant/Lab 3","no","mono","no","18","no","white","no","no","768","legacy","68","11","C:/Users/Simon M. Rook/Documents/School/1Tarleton/Classes/Adv Quant/Lab 3/New folder/subject-2.csv","legacy","7 1","Lentiform Loewenfeld","3.3.10","0","n","0","right","left","right","right","NA","1173","4075","7730","1173","NA","2","legacy","2","1024","2","48000","-16","experiment","2","even","8","513288","5232","509997","511085","1152","88480","511086","350298","1155","80750","515289","516462","512087","515289","NA","Sternberg task","78","74568","81","yes","1024"
"96.34146341463415","96.34146341463415","918.5365853658536","918.5365853658536","black","experiment","legacy","legacy","legacy","0","uniform","1","undefined","1","right","81","0","81","81","0","0","81","81","0","0","81","81","81","81","0","Fri Sep 24 19:48:22 2021","The main experiment item","yes","Sternbergtask.osexp","C:/Users/Simon M. Rook/Documents/School/1Tarleton/Classes/Adv Quant/Lab 3","no","mono","no","18","no","white","no","no","768","legacy","69","11","C:/Users/Simon M. Rook/Documents/School/1Tarleton/Classes/Adv Quant/Lab 3/New folder/subject-2.csv","legacy","6 2 9 3 8 4","Lentiform Loewenfeld","3.3.10","0","n","0","right","left","right","right","NA","752","4075","7730","752","NA","2","legacy","6","1024","2","48000","-16","experiment","2","even","1","519761","5232","516469","517557","1152","88480","517559","350298","1155","80750","521762","522515","518560","521762","NA","Sternberg task","79","75320","82","yes","1024"
"96.3855421686747","96.3855421686747","913.8795180722891","913.8795180722891","black","experiment","legacy","legacy","legacy","0","uniform","1","undefined","1","left","82","0","82","82","0","0","82","82","0","0","82","82","82","82","0","Fri Sep 24 19:48:22 2021","The main experiment item","yes","Sternbergtask.osexp","C:/Users/Simon M. Rook/Documents/School/1Tarleton/Classes/Adv Quant/Lab 3","no","mono","no","18","no","white","no","no","768","legacy","70","11","C:/Users/Simon M. Rook/Documents/School/1Tarleton/Classes/Adv Quant/Lab 3/New folder/subject-2.csv","legacy","6 5","Lentiform Loewenfeld","3.3.10","2","y","0","left","left","right","left","NA","532","4075","7730","532","NA","2","legacy","2","1024","2","48000","-16","experiment","2","even","5","525813","5232","522522","523609","1152","88480","523610","350298","1155","80750","527814","528347","524612","527814","NA","Sternberg task","80","75852","83","yes","1024"
"96.42857142857143","96.42857142857143","910.8928571428571","910.8928571428571","black","experiment","legacy","legacy","legacy","0","uniform","1","undefined","1","left","83","0","83","83","0","0","83","83","0","0","83","83","83","83","0","Fri Sep 24 19:48:22 2021","The main experiment item","yes","Sternbergtask.osexp","C:/Users/Simon M. Rook/Documents/School/1Tarleton/Classes/Adv Quant/Lab 3","no","mono","no","18","no","white","no","no","768","legacy","71","11","C:/Users/Simon M. Rook/Documents/School/1Tarleton/Classes/Adv Quant/Lab 3/New folder/subject-2.csv","legacy","7 1 8 5 6 2","Lentiform Loewenfeld","3.3.10","2","y","0","left","left","right","left","NA","663","4075","7730","663","NA","2","legacy","6","1024","2","48000","-16","experiment","2","even","1","531642","5232","528351","529438","1152","88480","529440","350298","1155","80750","533643","534307","530441","533643","NA","Sternberg task","81","76515","84","yes","1024"
"96.47058823529412","96.47058823529412","911.6470588235294","911.6470588235294","black","experiment","legacy","legacy","legacy","0","uniform","1","undefined","1","left","84","0","84","84","0","0","84","84","0","0","84","84","84","84","0","Fri Sep 24 19:48:22 2021","The main experiment item","yes","Sternbergtask.osexp","C:/Users/Simon M. Rook/Documents/School/1Tarleton/Classes/Adv Quant/Lab 3","no","mono","no","18","no","white","no","no","768","legacy","72","11","C:/Users/Simon M. Rook/Documents/School/1Tarleton/Classes/Adv Quant/Lab 3/New folder/subject-2.csv","legacy","3 9 6 2","Lentiform Loewenfeld","3.3.10","4","y","0","left","left","right","left","NA","975","4075","7730","975","NA","2","legacy","4","1024","2","48000","-16","experiment","2","even","2","537603","5232","534313","535400","1152","88480","535401","350298","1155","80750","539604","540580","536402","539604","NA","Sternberg task","82","77490","85","yes","1024"
"96.51162790697674","96.51162790697674","906.5232558139535","906.5232558139535","black","experiment","legacy","legacy","legacy","0","uniform","1","undefined","1","left","85","0","85","85","0","0","85","85","0","0","85","85","85","85","0","Fri Sep 24 19:48:22 2021","The main experiment item","yes","Sternbergtask.osexp","C:/Users/Simon M. Rook/Documents/School/1Tarleton/Classes/Adv Quant/Lab 3","no","mono","no","18","no","white","no","no","768","legacy","73","11","C:/Users/Simon M. Rook/Documents/School/1Tarleton/Classes/Adv Quant/Lab 3/New folder/subject-2.csv","legacy","8 1 6","Lentiform Loewenfeld","3.3.10","3","y","0","left","left","right","left","NA","471","4075","7730","471","NA","2","legacy","3","1024","2","48000","-16","experiment","2","even","6","543876","5232","540585","541672","1152","88480","541674","350298","1155","80750","545877","546349","542675","545877","NA","Sternberg task","83","77961","86","yes","1024"
"96.55172413793103","96.55172413793103","902.471264367816","902.471264367816","black","experiment","legacy","legacy","legacy","0","uniform","1","undefined","1","right","86","0","86","86","0","0","86","86","0","0","86","86","86","86","0","Fri Sep 24 19:48:22 2021","The main experiment item","yes","Sternbergtask.osexp","C:/Users/Simon M. Rook/Documents/School/1Tarleton/Classes/Adv Quant/Lab 3","no","mono","no","18","no","white","no","no","768","legacy","74","11","C:/Users/Simon M. Rook/Documents/School/1Tarleton/Classes/Adv Quant/Lab 3/New folder/subject-2.csv","legacy","1","Lentiform Loewenfeld","3.3.10","0","n","0","right","left","right","right","NA","554","4075","7730","554","NA","2","legacy","1","1024","2","48000","-16","experiment","2","even","7","549650","5232","546353","547446","1152","88480","547448","350298","1155","80750","551651","552206","548449","551651","NA","Sternberg task","84","78515","87","yes","1024"
"96.5909090909091","96.5909090909091","901.3181818181819","901.3181818181819","black","experiment","legacy","legacy","legacy","0","uniform","1","undefined","1","left","87","0","87","87","0","0","87","87","0","0","87","87","87","87","0","Fri Sep 24 19:48:22 2021","The main experiment item","yes","Sternbergtask.osexp","C:/Users/Simon M. Rook/Documents/School/1Tarleton/Classes/Adv Quant/Lab 3","no","mono","no","18","no","white","no","no","768","legacy","75","11","C:/Users/Simon M. Rook/Documents/School/1Tarleton/Classes/Adv Quant/Lab 3/New folder/subject-2.csv","legacy","2 4 8 5 1 3","Lentiform Loewenfeld","3.3.10","1","y","0","left","left","right","left","NA","801","4075","7730","801","NA","2","legacy","6","1024","2","48000","-16","experiment","2","even","2","555507","5232","552210","553304","1152","88480","553305","350298","1155","80750","557508","558310","554306","557508","NA","Sternberg task","85","79316","88","yes","1024"
"96.62921348314607","96.62921348314607","897.6741573033707","897.6741573033707","black","experiment","legacy","legacy","legacy","0","uniform","1","undefined","1","left","88","0","88","88","0","0","88","88","0","0","88","88","88","88","0","Fri Sep 24 19:48:22 2021","The main experiment item","yes","Sternbergtask.osexp","C:/Users/Simon M. Rook/Documents/School/1Tarleton/Classes/Adv Quant/Lab 3","no","mono","no","18","no","white","no","no","768","legacy","76","11","C:/Users/Simon M. Rook/Documents/School/1Tarleton/Classes/Adv Quant/Lab 3/New folder/subject-2.csv","legacy","6 1 2","Lentiform Loewenfeld","3.3.10","3","y","0","left","left","right","left","NA","577","4075","7730","577","NA","2","legacy","3","1024","2","48000","-16","experiment","2","even","2","561612","5232","558321","559408","1152","88480","559410","350298","1155","80750","563613","564191","560411","563613","NA","Sternberg task","86","79893","89","yes","1024"
"96.66666666666667","96.66666666666667","894.8888888888889","894.8888888888889","black","experiment","legacy","legacy","legacy","0","uniform","1","undefined","1","right","89","0","89","89","0","0","89","89","0","0","89","89","89","89","0","Fri Sep 24 19:48:22 2021","The main experiment item","yes","Sternbergtask.osexp","C:/Users/Simon M. Rook/Documents/School/1Tarleton/Classes/Adv Quant/Lab 3","no","mono","no","18","no","white","no","no","768","legacy","77","11","C:/Users/Simon M. Rook/Documents/School/1Tarleton/Classes/Adv Quant/Lab 3/New folder/subject-2.csv","legacy","1 4 9 3","Lentiform Loewenfeld","3.3.10","0","n","0","right","left","right","right","NA","647","4075","7730","647","NA","2","legacy","4","1024","2","48000","-16","experiment","2","even","5","567487","5232","564195","565283","1152","88480","565285","350298","1155","80750","569488","570136","566286","569488","NA","Sternberg task","87","80540","90","yes","1024"
"96.7032967032967","96.7032967032967","891.0989010989011","891.0989010989011","black","experiment","legacy","legacy","legacy","0","uniform","1","undefined","1","right","90","0","90","90","0","0","90","90","0","0","90","90","90","90","0","Fri Sep 24 19:48:22 2021","The main experiment item","yes","Sternbergtask.osexp","C:/Users/Simon M. Rook/Documents/School/1Tarleton/Classes/Adv Quant/Lab 3","no","mono","no","18","no","white","no","no","768","legacy","78","11","C:/Users/Simon M. Rook/Documents/School/1Tarleton/Classes/Adv Quant/Lab 3/New folder/subject-2.csv","legacy","7 9","Lentiform Loewenfeld","3.3.10","0","n","0","right","left","right","right","NA","550","4075","7730","550","NA","2","legacy","2","1024","2","48000","-16","experiment","2","even","1","573433","5232","570142","571230","1152","88480","571231","350298","1155","80750","575434","575985","572232","575434","NA","Sternberg task","88","81090","91","yes","1024"
"96.73913043478261","96.73913043478261","887.2065217391304","887.2065217391304","black","experiment","legacy","legacy","legacy","0","uniform","1","undefined","1","right","91","0","91","91","0","0","91","91","0","0","91","91","91","91","0","Fri Sep 24 19:48:22 2021","The main experiment item","yes","Sternbergtask.osexp","C:/Users/Simon M. Rook/Documents/School/1Tarleton/Classes/Adv Quant/Lab 3","no","mono","no","18","no","white","no","no","768","legacy","79","11","C:/Users/Simon M. Rook/Documents/School/1Tarleton/Classes/Adv Quant/Lab 3/New folder/subject-2.csv","legacy","2 5 1 4","Lentiform Loewenfeld","3.3.10","0","n","0","right","left","right","right","NA","533","4075","7730","533","NA","2","legacy","4","1024","2","48000","-16","experiment","2","even","6","579282","5232","575990","577078","1152","88480","577080","350298","1155","80750","581283","581817","578081","581283","NA","Sternberg task","89","81623","92","yes","1024"
"95.6989247311828","95.6989247311828","887.8064516129032","887.8064516129032","black","experiment","legacy","legacy","legacy","0","uniform","0","undefined","0","left","92","0","92","92","0","0","92","92","0","0","92","92","92","92","0","Fri Sep 24 19:48:22 2021","The main experiment item","yes","Sternbergtask.osexp","C:/Users/Simon M. Rook/Documents/School/1Tarleton/Classes/Adv Quant/Lab 3","no","mono","no","18","no","white","no","no","768","legacy","80","11","C:/Users/Simon M. Rook/Documents/School/1Tarleton/Classes/Adv Quant/Lab 3/New folder/subject-2.csv","legacy","2 6 1 7 4","Lentiform Loewenfeld","3.3.10","2","y","0","right","left","right","right","NA","943","4075","7730","943","NA","2","legacy","5","1024","2","48000","-16","experiment","2","even","6","585112","5232","581821","582908","1152","88480","582910","350298","1155","80750","587113","588057","583911","587113","NA","Sternberg task","89","82566","93","yes","1024"
"94.68085106382979","94.68085106382979","885.5957446808511","885.5957446808511","black","experiment","legacy","legacy","legacy","0","uniform","0","undefined","0","right","93","0","93","93","0","0","93","93","0","0","93","93","93","93","0","Fri Sep 24 19:48:22 2021","The main experiment item","yes","Sternbergtask.osexp","C:/Users/Simon M. Rook/Documents/School/1Tarleton/Classes/Adv Quant/Lab 3","no","mono","no","18","no","white","no","no","768","legacy","81","11","C:/Users/Simon M. Rook/Documents/School/1Tarleton/Classes/Adv Quant/Lab 3/New folder/subject-2.csv","legacy","1 8 7","Lentiform Loewenfeld","3.3.10","0","n","0","left","left","right","left","NA","680","4075","7730","680","NA","2","legacy","3","1024","2","48000","-16","experiment","2","even","4","591353","5232","581821","589150","1152","88480","589151","588062","1155","80750","593354","594035","590152","593354","NA","Sternberg task","89","83246","94","yes","1024"
"94.73684210526316","94.73684210526316","884.2736842105263","884.2736842105263","black","experiment","legacy","legacy","legacy","0","uniform","1","undefined","1","right","94","0","94","94","0","0","94","94","0","0","94","94","94","94","0","Fri Sep 24 19:48:22 2021","The main experiment item","yes","Sternbergtask.osexp","C:/Users/Simon M. Rook/Documents/School/1Tarleton/Classes/Adv Quant/Lab 3","no","mono","no","18","no","white","no","no","768","legacy","82","11","C:/Users/Simon M. Rook/Documents/School/1Tarleton/Classes/Adv Quant/Lab 3/New folder/subject-2.csv","legacy","5 3 8 7 2 4","Lentiform Loewenfeld","3.3.10","0","n","0","right","left","right","right","NA","760","4075","7730","760","NA","2","legacy","6","1024","2","48000","-16","experiment","2","even","9","597329","5232","581821","595127","1152","88480","595128","594039","1155","80750","599330","600091","596129","599330","NA","Sternberg task","90","84006","95","yes","1024"
"94.79166666666667","94.79166666666667","884.8125","884.8125","black","experiment","legacy","legacy","legacy","0","uniform","1","undefined","1","right","95","0","95","95","0","0","95","95","0","0","95","95","95","95","0","Fri Sep 24 19:48:22 2021","The main experiment item","yes","Sternbergtask.osexp","C:/Users/Simon M. Rook/Documents/School/1Tarleton/Classes/Adv Quant/Lab 3","no","mono","no","18","no","white","no","no","768","legacy","83","11","C:/Users/Simon M. Rook/Documents/School/1Tarleton/Classes/Adv Quant/Lab 3/New folder/subject-2.csv","legacy","9","Lentiform Loewenfeld","3.3.10","0","n","0","right","left","right","right","NA","936","4075","7730","936","NA","2","legacy","1","1024","2","48000","-16","experiment","2","even","6","603394","5232","600102","601190","1152","88480","601192","594039","1155","80750","605395","606332","602193","605395","NA","Sternberg task","91","84942","96","yes","1024"
"94.84536082474227","94.84536082474227","882.360824742268","882.360824742268","black","experiment","legacy","legacy","legacy","0","uniform","1","undefined","1","left","96","0","96","96","0","0","96","96","0","0","96","96","96","96","0","Fri Sep 24 19:48:22 2021","The main experiment item","yes","Sternbergtask.osexp","C:/Users/Simon M. Rook/Documents/School/1Tarleton/Classes/Adv Quant/Lab 3","no","mono","no","18","no","white","no","no","768","legacy","84","11","C:/Users/Simon M. Rook/Documents/School/1Tarleton/Classes/Adv Quant/Lab 3/New folder/subject-2.csv","legacy","3 4","Lentiform Loewenfeld","3.3.10","1","y","0","left","left","right","left","NA","647","4075","7730","647","NA","2","legacy","2","1024","2","48000","-16","experiment","2","even","3","609628","5232","606337","607425","1152","88480","607426","594039","1155","80750","611629","612277","608427","611629","NA","Sternberg task","92","85589","97","yes","1024"
"94.89795918367346","94.89795918367346","885.0102040816327","885.0102040816327","black","experiment","legacy","legacy","legacy","0","uniform","1","undefined","1","left","97","0","97","97","0","0","97","97","0","0","97","97","97","97","0","Fri Sep 24 19:48:22 2021","The main experiment item","yes","Sternbergtask.osexp","C:/Users/Simon M. Rook/Documents/School/1Tarleton/Classes/Adv Quant/Lab 3","no","mono","no","18","no","white","no","no","768","legacy","85","11","C:/Users/Simon M. Rook/Documents/School/1Tarleton/Classes/Adv Quant/Lab 3/New folder/subject-2.csv","legacy","7 4 2 6 3 5","Lentiform Loewenfeld","3.3.10","6","y","0","left","left","right","left","NA","1142","4075","7730","1142","NA","2","legacy","6","1024","2","48000","-16","experiment","2","even","5","615574","5232","612283","613371","1152","88480","613372","594039","1155","80750","617575","618718","614373","617575","NA","Sternberg task","93","86731","98","yes","1024"
"94.94949494949495","94.94949494949495","884.8585858585859","884.8585858585859","black","experiment","legacy","legacy","legacy","0","uniform","1","undefined","1","right","98","0","98","98","0","0","98","98","0","0","98","98","98","98","0","Fri Sep 24 19:48:22 2021","The main experiment item","yes","Sternbergtask.osexp","C:/Users/Simon M. Rook/Documents/School/1Tarleton/Classes/Adv Quant/Lab 3","no","mono","no","18","no","white","no","no","768","legacy","86","11","C:/Users/Simon M. Rook/Documents/School/1Tarleton/Classes/Adv Quant/Lab 3/New folder/subject-2.csv","legacy","2 8 7 9 5 3","Lentiform Loewenfeld","3.3.10","0","n","0","right","left","right","right","NA","870","4075","7730","870","NA","2","legacy","6","1024","2","48000","-16","experiment","2","even","6","622014","5232","618722","619810","1152","88480","619812","594039","1155","80750","624015","624886","620813","624015","NA","Sternberg task","94","87601","99","yes","1024"
"95","95","885.44","885.44","black","experiment","legacy","legacy","legacy","0","uniform","1","undefined","1","right","99","0","99","99","0","0","99","99","0","0","99","99","99","99","0","Fri Sep 24 19:48:22 2021","The main experiment item","yes","Sternbergtask.osexp","C:/Users/Simon M. Rook/Documents/School/1Tarleton/Classes/Adv Quant/Lab 3","no","mono","no","18","no","white","no","no","768","legacy","87","11","C:/Users/Simon M. Rook/Documents/School/1Tarleton/Classes/Adv Quant/Lab 3/New folder/subject-2.csv","legacy","9 5 3 2 8 6","Lentiform Loewenfeld","3.3.10","0","n","0","right","left","right","right","NA","943","4075","7730","943","NA","2","legacy","6","1024","2","48000","-16","experiment","2","even","7","628182","5232","624890","625978","1152","88480","625980","594039","1155","80750","630183","631127","626981","630183","NA","Sternberg task","95","88544","100","yes","1024"
"95.04950495049505","95.04950495049505","883.990099009901","883.990099009901","black","experiment","legacy","legacy","legacy","0","uniform","1","undefined","1","right","100","0","100","100","0","0","100","100","0","0","100","100","100","100","0","Fri Sep 24 19:48:22 2021","The main experiment item","yes","Sternbergtask.osexp","C:/Users/Simon M. Rook/Documents/School/1Tarleton/Classes/Adv Quant/Lab 3","no","mono","no","18","no","white","no","no","768","legacy","88","11","C:/Users/Simon M. Rook/Documents/School/1Tarleton/Classes/Adv Quant/Lab 3/New folder/subject-2.csv","legacy","4 2 7 6 1 3","Lentiform Loewenfeld","3.3.10","0","n","0","right","left","right","right","NA","739","4075","7730","739","NA","2","legacy","6","1024","2","48000","-16","experiment","2","even","8","634426","5232","631134","632222","1152","88480","632224","594039","1155","80750","636427","637167","633225","636427","NA","Sternberg task","96","89283","101","yes","1024"
"95.09803921568627","95.09803921568627","883.5","883.5","black","experiment","legacy","legacy","legacy","0","uniform","1","undefined","1","left","101","0","101","101","0","0","101","101","0","0","101","101","101","101","0","Fri Sep 24 19:48:22 2021","The main experiment item","yes","Sternbergtask.osexp","C:/Users/Simon M. Rook/Documents/School/1Tarleton/Classes/Adv Quant/Lab 3","no","mono","no","18","no","white","no","no","768","legacy","89","11","C:/Users/Simon M. Rook/Documents/School/1Tarleton/Classes/Adv Quant/Lab 3/New folder/subject-2.csv","legacy","1 4 9 3 2 5","Lentiform Loewenfeld","3.3.10","3","y","0","left","left","right","left","NA","834","4075","7730","834","NA","2","legacy","6","1024","2","48000","-16","experiment","2","even","9","640461","5232","637171","638258","1152","88480","638259","594039","1155","80750","642462","643296","639260","642462","NA","Sternberg task","97","90117","102","yes","1024"
"95.14563106796116","95.14563106796116","880.252427184466","880.252427184466","black","experiment","legacy","legacy","legacy","0","uniform","1","undefined","1","left","102","0","102","102","0","0","102","102","0","0","102","102","102","102","0","Fri Sep 24 19:48:22 2021","The main experiment item","yes","Sternbergtask.osexp","C:/Users/Simon M. Rook/Documents/School/1Tarleton/Classes/Adv Quant/Lab 3","no","mono","no","18","no","white","no","no","768","legacy","90","11","C:/Users/Simon M. Rook/Documents/School/1Tarleton/Classes/Adv Quant/Lab 3/New folder/subject-2.csv","legacy","8 3","Lentiform Loewenfeld","3.3.10","2","y","0","left","left","right","left","NA","549","4075","7730","549","NA","2","legacy","2","1024","2","48000","-16","experiment","2","even","3","646594","5232","643303","644390","1152","88480","644391","594039","1155","80750","648595","649145","645393","648595","NA","Sternberg task","98","90666","103","yes","1024"
"95.1923076923077","95.1923076923077","878.3557692307693","878.3557692307693","black","experiment","legacy","legacy","legacy","0","uniform","1","undefined","1","left","103","0","103","103","0","0","103","103","0","0","103","103","103","103","0","Fri Sep 24 19:48:22 2021","The main experiment item","yes","Sternbergtask.osexp","C:/Users/Simon M. Rook/Documents/School/1Tarleton/Classes/Adv Quant/Lab 3","no","mono","no","18","no","white","no","no","768","legacy","91","11","C:/Users/Simon M. Rook/Documents/School/1Tarleton/Classes/Adv Quant/Lab 3/New folder/subject-2.csv","legacy","7 1 3","Lentiform Loewenfeld","3.3.10","2","y","0","left","left","right","left","NA","683","4075","7730","683","NA","2","legacy","3","1024","2","48000","-16","experiment","2","even","1","652445","5232","649150","650241","1152","88480","650243","594039","1155","80750","654446","655130","651244","654446","NA","Sternberg task","99","91349","104","yes","1024"
"95.23809523809524","95.23809523809524","876.495238095238","876.495238095238","black","experiment","legacy","legacy","legacy","0","uniform","1","undefined","1","right","104","0","104","104","0","0","104","104","0","0","104","104","104","104","0","Fri Sep 24 19:48:22 2021","The main experiment item","yes","Sternbergtask.osexp","C:/Users/Simon M. Rook/Documents/School/1Tarleton/Classes/Adv Quant/Lab 3","no","mono","no","18","no","white","no","no","768","legacy","92","11","C:/Users/Simon M. Rook/Documents/School/1Tarleton/Classes/Adv Quant/Lab 3/New folder/subject-2.csv","legacy","8 4 3 5","Lentiform Loewenfeld","3.3.10","0","n","0","right","left","right","right","NA","683","4075","7730","683","NA","2","legacy","4","1024","2","48000","-16","experiment","2","even","6","658429","5232","655136","656226","1152","88480","656227","594039","1155","80750","660430","661114","657228","660430","NA","Sternberg task","100","92032","105","yes","1024"
"95.28301886792453","95.28301886792453","880.877358490566","880.877358490566","black","experiment","legacy","legacy","legacy","0","uniform","1","undefined","1","left","105","0","105","105","0","0","105","105","0","0","105","105","105","105","0","Fri Sep 24 19:48:22 2021","The main experiment item","yes","Sternbergtask.osexp","C:/Users/Simon M. Rook/Documents/School/1Tarleton/Classes/Adv Quant/Lab 3","no","mono","no","18","no","white","no","no","768","legacy","93","11","C:/Users/Simon M. Rook/Documents/School/1Tarleton/Classes/Adv Quant/Lab 3/New folder/subject-2.csv","legacy","4 9 7 8 5 3","Lentiform Loewenfeld","3.3.10","4","y","0","left","left","right","left","NA","1341","4075","7730","1341","NA","2","legacy","6","1024","2","48000","-16","experiment","2","even","8","664412","5232","661121","662209","1152","88480","662210","594039","1155","80750","666413","667755","663211","666413","NA","Sternberg task","101","93373","106","yes","1024"
