"acc","accuracy","average_response_time","avg_rt","background","block","canvas_backend","clock_backend","color_backend","compensation","coordinates","correct","correct_Instruction1","correct_keyboard_response","correct_response","count_CorrectFeedback","count_ExpSequence","count_ExperimentLoop","count_Fixation","count_ISI","count_IncorrectFeedback","count_Instruction1","count_Instructions2","count_MemorySet","count_PracticeLoop","count_Probe","count_ThankYou","count_experiment","count_keyboard_response","count_logger","datetime","description","disable_garbage_collection","experiment_file","experiment_path","font_bold","font_family","font_italic","font_size","font_underline","foreground","form_clicks","fullscreen","height","keyboard_backend","live_row","live_row_PracticeLoop","logfile","mouse_backend","numberSet","opensesame_codename","opensesame_version","posInSet","present","repeat_cycle","response","response_Instruction1","response_Instructions2","response_ThankYou","response_keyboard_response","response_time","response_time_Instruction1","response_time_Instructions2","response_time_ThankYou","response_time_keyboard_response","round_decimals","sampler_backend","setSize","sound_buf_size","sound_channels","sound_freq","sound_sample_size","start","subject_nr","subject_parity","target","time_CorrectFeedback","time_ExpSequence","time_ExperimentLoop","time_Fixation","time_ISI","time_IncorrectFeedback","time_Instruction1","time_Instructions2","time_MemorySet","time_PracticeLoop","time_Probe","time_ThankYou","time_experiment","time_keyboard_response","time_logger","title","total_correct","total_response_time","total_responses","uniform_coordinates","width"
"100","100","491","491","black","practice","legacy","legacy","legacy","0","uniform","1","undefined","1","left","0","0","0","0","0","0","0","0","0","0","0","0","0","0","0","Mon Oct 17 20:09:17 2022","The main experiment item","yes","SternbergTask.osexp","C:\Users\Melissa\OneDrive\Desktop\ADVANCED QUANT\LAB 3.1","no","mono","no","18","no","white","no","no","768","legacy","0","0","C:/Users/Melissa/OneDrive/Desktop/ADVANCED QUANT/LAB 3.2/MM-subject-3.1.csv","legacy","1 5 2 9","Lentiform Loewenfeld","3.3.12","2","y","0","left","left","NA","NA","left","491","3227","NA","NA","491","2","legacy","4","1024","2","48000","-16","experiment","3","odd","5","NA","7584","NA","7588","9792","NA","2959","NA","8589","6187","11794","NA","2948","11794","12285","Sternberg Task","1","491","1","yes","1024"
"100","100","478.5","478.5","black","practice","legacy","legacy","legacy","0","uniform","1","undefined","1","left","1","1","0","1","1","1","0","0","1","0","1","0","0","1","1","Mon Oct 17 20:09:17 2022","The main experiment item","yes","SternbergTask.osexp","C:\Users\Melissa\OneDrive\Desktop\ADVANCED QUANT\LAB 3.1","no","mono","no","18","no","white","no","no","768","legacy","1","1","C:/Users/Melissa/OneDrive/Desktop/ADVANCED QUANT/LAB 3.2/MM-subject-3.1.csv","legacy","6","Lentiform Loewenfeld","3.3.12","1","y","0","left","left","NA","NA","left","466","3227","NA","NA","466","2","legacy","1","1024","2","48000","-16","experiment","3","odd","6","12345","13441","NA","13445","15650","NA","2959","NA","14446","6187","17651","NA","2948","17651","18118","Sternberg Task","2","957","2","yes","1024"
"100","100","505","505","black","practice","legacy","legacy","legacy","0","uniform","1","undefined","1","right","2","2","0","2","2","2","0","0","2","0","2","0","0","2","2","Mon Oct 17 20:09:17 2022","The main experiment item","yes","SternbergTask.osexp","C:\Users\Melissa\OneDrive\Desktop\ADVANCED QUANT\LAB 3.1","no","mono","no","18","no","white","no","no","768","legacy","2","2","C:/Users/Melissa/OneDrive/Desktop/ADVANCED QUANT/LAB 3.2/MM-subject-3.1.csv","legacy","5","Lentiform Loewenfeld","3.3.12","0","n","0","right","left","NA","NA","right","558","3227","NA","NA","558","2","legacy","1","1024","2","48000","-16","experiment","3","odd","3","18123","19223","NA","19225","21430","NA","2959","NA","20226","6187","23431","NA","2948","23431","23990","Sternberg Task","3","1515","3","yes","1024"
"100","100","517","517","black","practice","legacy","legacy","legacy","0","uniform","1","undefined","1","right","3","3","0","3","3","3","0","0","3","0","3","0","0","3","3","Mon Oct 17 20:09:17 2022","The main experiment item","yes","SternbergTask.osexp","C:\Users\Melissa\OneDrive\Desktop\ADVANCED QUANT\LAB 3.1","no","mono","no","18","no","white","no","no","768","legacy","3","3","C:/Users/Melissa/OneDrive/Desktop/ADVANCED QUANT/LAB 3.2/MM-subject-3.1.csv","legacy","2 1","Lentiform Loewenfeld","3.3.12","0","n","0","right","left","NA","NA","right","553","3227","NA","NA","553","2","legacy","2","1024","2","48000","-16","experiment","3","odd","5","23995","25094","NA","25095","27301","NA","2959","NA","26096","6187","29302","NA","2948","29302","29855","Sternberg Task","4","2068","4","yes","1024"
"100","100","585.6","585.6","black","practice","legacy","legacy","legacy","0","uniform","1","undefined","1","right","4","4","0","4","4","4","0","0","4","0","4","0","0","4","4","Mon Oct 17 20:09:17 2022","The main experiment item","yes","SternbergTask.osexp","C:\Users\Melissa\OneDrive\Desktop\ADVANCED QUANT\LAB 3.1","no","mono","no","18","no","white","no","no","768","legacy","4","4","C:/Users/Melissa/OneDrive/Desktop/ADVANCED QUANT/LAB 3.2/MM-subject-3.1.csv","legacy","9 6 7 4 5","Lentiform Loewenfeld","3.3.12","0","n","0","right","left","NA","NA","right","860","3227","NA","NA","860","2","legacy","5","1024","2","48000","-16","experiment","3","odd","3","29863","30958","NA","30959","33168","NA","2959","NA","31961","6187","35169","NA","2948","35169","36029","Sternberg Task","5","2928","5","yes","1024"
"100","100","603.6666666666666","603.6666666666666","black","practice","legacy","legacy","legacy","0","uniform","1","undefined","1","right","5","5","0","5","5","5","0","0","5","0","5","0","0","5","5","Mon Oct 17 20:09:17 2022","The main experiment item","yes","SternbergTask.osexp","C:\Users\Melissa\OneDrive\Desktop\ADVANCED QUANT\LAB 3.1","no","mono","no","18","no","white","no","no","768","legacy","5","5","C:/Users/Melissa/OneDrive/Desktop/ADVANCED QUANT/LAB 3.2/MM-subject-3.1.csv","legacy","5 7 8 4 1 2","Lentiform Loewenfeld","3.3.12","0","n","0","right","left","NA","NA","right","694","3227","NA","NA","694","2","legacy","6","1024","2","48000","-16","experiment","3","odd","6","36035","37131","NA","37132","39337","NA","2959","NA","38133","6187","41338","NA","2948","41338","42033","Sternberg Task","6","3622","6","yes","1024"
"100","100","605.2857142857143","605.2857142857143","black","practice","legacy","legacy","legacy","0","uniform","1","undefined","1","left","6","6","0","6","6","6","0","0","6","0","6","0","0","6","6","Mon Oct 17 20:09:17 2022","The main experiment item","yes","SternbergTask.osexp","C:\Users\Melissa\OneDrive\Desktop\ADVANCED QUANT\LAB 3.1","no","mono","no","18","no","white","no","no","768","legacy","6","6","C:/Users/Melissa/OneDrive/Desktop/ADVANCED QUANT/LAB 3.2/MM-subject-3.1.csv","legacy","4 8","Lentiform Loewenfeld","3.3.12","1","y","0","left","left","NA","NA","left","615","3227","NA","NA","615","2","legacy","2","1024","2","48000","-16","experiment","3","odd","4","42039","43133","NA","43134","45340","NA","2959","NA","44136","6187","47341","NA","2948","47341","47957","Sternberg Task","7","4237","7","yes","1024"
"100","100","599.75","599.75","black","practice","legacy","legacy","legacy","0","uniform","1","undefined","1","left","7","7","0","7","7","7","0","0","7","0","7","0","0","7","7","Mon Oct 17 20:09:17 2022","The main experiment item","yes","SternbergTask.osexp","C:\Users\Melissa\OneDrive\Desktop\ADVANCED QUANT\LAB 3.1","no","mono","no","18","no","white","no","no","768","legacy","7","7","C:/Users/Melissa/OneDrive/Desktop/ADVANCED QUANT/LAB 3.2/MM-subject-3.1.csv","legacy","1 7 9 8 5","Lentiform Loewenfeld","3.3.12","4","y","0","left","left","NA","NA","left","561","3227","NA","NA","561","2","legacy","5","1024","2","48000","-16","experiment","3","odd","8","47962","49055","NA","49056","51261","NA","2959","NA","50057","6187","53262","NA","2948","53262","53823","Sternberg Task","8","4798","8","yes","1024"
"100","100","593.5555555555555","593.5555555555555","black","practice","legacy","legacy","legacy","0","uniform","1","undefined","1","right","8","8","0","8","8","8","0","0","8","0","8","0","0","8","8","Mon Oct 17 20:09:17 2022","The main experiment item","yes","SternbergTask.osexp","C:\Users\Melissa\OneDrive\Desktop\ADVANCED QUANT\LAB 3.1","no","mono","no","18","no","white","no","no","768","legacy","8","8","C:/Users/Melissa/OneDrive/Desktop/ADVANCED QUANT/LAB 3.2/MM-subject-3.1.csv","legacy","4 1 5","Lentiform Loewenfeld","3.3.12","0","n","0","right","left","NA","NA","right","544","3227","NA","NA","544","2","legacy","3","1024","2","48000","-16","experiment","3","odd","2","53828","54923","NA","54924","57131","NA","2959","NA","55925","6187","59132","NA","2948","59132","59676","Sternberg Task","9","5342","9","yes","1024"
"100","100","589.6","589.6","black","practice","legacy","legacy","legacy","0","uniform","1","undefined","1","right","9","9","0","9","9","9","0","0","9","0","9","0","0","9","9","Mon Oct 17 20:09:17 2022","The main experiment item","yes","SternbergTask.osexp","C:\Users\Melissa\OneDrive\Desktop\ADVANCED QUANT\LAB 3.1","no","mono","no","18","no","white","no","no","768","legacy","9","9","C:/Users/Melissa/OneDrive/Desktop/ADVANCED QUANT/LAB 3.2/MM-subject-3.1.csv","legacy","3 1 9 4","Lentiform Loewenfeld","3.3.12","0","n","0","right","left","NA","NA","right","554","3227","NA","NA","554","2","legacy","4","1024","2","48000","-16","experiment","3","odd","6","59684","60780","NA","60781","62987","NA","2959","NA","61782","6187","64988","NA","2948","64988","65543","Sternberg Task","10","5896","10","yes","1024"
"100","100","570.1818181818181","570.1818181818181","black","practice","legacy","legacy","legacy","0","uniform","1","undefined","1","left","10","10","0","10","10","10","0","0","10","0","10","0","0","10","10","Mon Oct 17 20:09:17 2022","The main experiment item","yes","SternbergTask.osexp","C:\Users\Melissa\OneDrive\Desktop\ADVANCED QUANT\LAB 3.1","no","mono","no","18","no","white","no","no","768","legacy","10","10","C:/Users/Melissa/OneDrive/Desktop/ADVANCED QUANT/LAB 3.2/MM-subject-3.1.csv","legacy","2 9 4","Lentiform Loewenfeld","3.3.12","3","y","0","left","left","NA","NA","left","376","3227","NA","NA","376","2","legacy","3","1024","2","48000","-16","experiment","3","odd","4","65548","66644","NA","66646","68853","NA","2959","NA","67648","6187","70855","NA","2948","70855","71232","Sternberg Task","11","6272","11","yes","1024"
"100","100","564.5833333333334","564.5833333333334","black","practice","legacy","legacy","legacy","0","uniform","1","undefined","1","left","11","11","0","11","11","11","0","0","11","0","11","0","0","11","11","Mon Oct 17 20:09:17 2022","The main experiment item","yes","SternbergTask.osexp","C:\Users\Melissa\OneDrive\Desktop\ADVANCED QUANT\LAB 3.1","no","mono","no","18","no","white","no","no","768","legacy","11","11","C:/Users/Melissa/OneDrive/Desktop/ADVANCED QUANT/LAB 3.2/MM-subject-3.1.csv","legacy","4 3 1 7 9 8","Lentiform Loewenfeld","3.3.12","1","y","0","left","left","NA","NA","left","503","3227","NA","NA","503","2","legacy","6","1024","2","48000","-16","experiment","3","odd","4","71238","72332","NA","72334","74536","NA","2959","NA","73335","6187","76537","NA","2948","76537","77041","Sternberg Task","12","6775","12","yes","1024"
"100","100","592.9230769230769","592.9230769230769","black","experiment","legacy","legacy","legacy","0","uniform","1","undefined","1","left","12","12","0","12","12","12","0","0","12","0","12","0","0","12","12","Mon Oct 17 20:09:17 2022","The main experiment item","yes","SternbergTask.osexp","C:\Users\Melissa\OneDrive\Desktop\ADVANCED QUANT\LAB 3.1","no","mono","no","18","no","white","no","no","768","legacy","0","11","C:/Users/Melissa/OneDrive/Desktop/ADVANCED QUANT/LAB 3.2/MM-subject-3.1.csv","legacy","3 5 7 1","Lentiform Loewenfeld","3.3.12","3","y","0","left","left","left","NA","left","933","3227","6907","NA","933","2","legacy","4","1024","2","48000","-16","experiment","3","odd","7","77054","85113","85008","85115","87318","NA","2959","78101","86116","6187","89319","NA","2948","89320","90254","Sternberg Task","13","7708","13","yes","1024"
"100","100","593","593","black","experiment","legacy","legacy","legacy","0","uniform","1","undefined","1","left","13","13","0","13","13","13","0","0","13","0","13","0","0","13","13","Mon Oct 17 20:09:17 2022","The main experiment item","yes","SternbergTask.osexp","C:\Users\Melissa\OneDrive\Desktop\ADVANCED QUANT\LAB 3.1","no","mono","no","18","no","white","no","no","768","legacy","1","11","C:/Users/Melissa/OneDrive/Desktop/ADVANCED QUANT/LAB 3.2/MM-subject-3.1.csv","legacy","2 4 8 5 1 3","Lentiform Loewenfeld","3.3.12","1","y","0","left","left","left","NA","left","594","3227","6907","NA","594","2","legacy","6","1024","2","48000","-16","experiment","3","odd","2","90264","91399","85008","91402","93608","NA","2959","78101","92403","6187","95609","NA","2948","95609","96204","Sternberg Task","14","8302","14","yes","1024"
"100","100","581.8666666666667","581.8666666666667","black","experiment","legacy","legacy","legacy","0","uniform","1","undefined","1","left","14","14","0","14","14","14","0","0","14","0","14","0","0","14","14","Mon Oct 17 20:09:17 2022","The main experiment item","yes","SternbergTask.osexp","C:\Users\Melissa\OneDrive\Desktop\ADVANCED QUANT\LAB 3.1","no","mono","no","18","no","white","no","no","768","legacy","2","11","C:/Users/Melissa/OneDrive/Desktop/ADVANCED QUANT/LAB 3.2/MM-subject-3.1.csv","legacy","4 1 5","Lentiform Loewenfeld","3.3.12","2","y","0","left","left","left","NA","left","426","3227","6907","NA","426","2","legacy","3","1024","2","48000","-16","experiment","3","odd","1","96221","97321","85008","97324","99530","NA","2959","78101","98325","6187","101531","NA","2948","101531","101958","Sternberg Task","15","8728","15","yes","1024"
"100","100","645.125","645.125","black","experiment","legacy","legacy","legacy","0","uniform","1","undefined","1","right","15","15","0","15","15","15","0","0","15","0","15","0","0","15","15","Mon Oct 17 20:09:17 2022","The main experiment item","yes","SternbergTask.osexp","C:\Users\Melissa\OneDrive\Desktop\ADVANCED QUANT\LAB 3.1","no","mono","no","18","no","white","no","no","768","legacy","3","11","C:/Users/Melissa/OneDrive/Desktop/ADVANCED QUANT/LAB 3.2/MM-subject-3.1.csv","legacy","3 4 9 6 7 8","Lentiform Loewenfeld","3.3.12","0","n","0","right","left","left","NA","right","1594","3227","6907","NA","1594","2","legacy","6","1024","2","48000","-16","experiment","3","odd","2","101976","103072","85008","103074","105280","NA","2959","78101","104075","6187","107281","NA","2948","107281","108875","Sternberg Task","16","10322","16","yes","1024"
"100","100","653.8235294117648","653.8235294117648","black","experiment","legacy","legacy","legacy","0","uniform","1","undefined","1","right","16","16","0","16","16","16","0","0","16","0","16","0","0","16","16","Mon Oct 17 20:09:17 2022","The main experiment item","yes","SternbergTask.osexp","C:\Users\Melissa\OneDrive\Desktop\ADVANCED QUANT\LAB 3.1","no","mono","no","18","no","white","no","no","768","legacy","4","11","C:/Users/Melissa/OneDrive/Desktop/ADVANCED QUANT/LAB 3.2/MM-subject-3.1.csv","legacy","7 9 1 6","Lentiform Loewenfeld","3.3.12","0","n","0","right","left","left","NA","right","793","3227","6907","NA","793","2","legacy","4","1024","2","48000","-16","experiment","3","odd","4","108881","109997","85008","109999","112204","NA","2959","78101","111000","6187","114205","NA","2948","114205","114999","Sternberg Task","17","11115","17","yes","1024"
"100","100","652.9444444444445","652.9444444444445","black","experiment","legacy","legacy","legacy","0","uniform","1","undefined","1","right","17","17","0","17","17","17","0","0","17","0","17","0","0","17","17","Mon Oct 17 20:09:17 2022","The main experiment item","yes","SternbergTask.osexp","C:\Users\Melissa\OneDrive\Desktop\ADVANCED QUANT\LAB 3.1","no","mono","no","18","no","white","no","no","768","legacy","5","11","C:/Users/Melissa/OneDrive/Desktop/ADVANCED QUANT/LAB 3.2/MM-subject-3.1.csv","legacy","7 8 6 1","Lentiform Loewenfeld","3.3.12","0","n","0","right","left","left","NA","right","638","3227","6907","NA","638","2","legacy","4","1024","2","48000","-16","experiment","3","odd","3","115003","116119","85008","116121","118330","NA","2959","78101","117126","6187","120331","NA","2948","120331","120970","Sternberg Task","18","11753","18","yes","1024"
"100","100","637.8421052631579","637.8421052631579","black","experiment","legacy","legacy","legacy","0","uniform","1","undefined","1","left","18","18","0","18","18","18","0","0","18","0","18","0","0","18","18","Mon Oct 17 20:09:17 2022","The main experiment item","yes","SternbergTask.osexp","C:\Users\Melissa\OneDrive\Desktop\ADVANCED QUANT\LAB 3.1","no","mono","no","18","no","white","no","no","768","legacy","6","11","C:/Users/Melissa/OneDrive/Desktop/ADVANCED QUANT/LAB 3.2/MM-subject-3.1.csv","legacy","7","Lentiform Loewenfeld","3.3.12","1","y","0","left","left","left","NA","left","366","3227","6907","NA","366","2","legacy","1","1024","2","48000","-16","experiment","3","odd","7","120976","122068","85008","122070","124280","NA","2959","78101","123075","6187","126281","NA","2948","126281","126648","Sternberg Task","19","12119","19","yes","1024"
"100","100","635.2","635.2","black","experiment","legacy","legacy","legacy","0","uniform","1","undefined","1","right","19","19","0","19","19","19","0","0","19","0","19","0","0","19","19","Mon Oct 17 20:09:17 2022","The main experiment item","yes","SternbergTask.osexp","C:\Users\Melissa\OneDrive\Desktop\ADVANCED QUANT\LAB 3.1","no","mono","no","18","no","white","no","no","768","legacy","7","11","C:/Users/Melissa/OneDrive/Desktop/ADVANCED QUANT/LAB 3.2/MM-subject-3.1.csv","legacy","7 6 4 8 1 2","Lentiform Loewenfeld","3.3.12","0","n","0","right","left","left","NA","right","585","3227","6907","NA","585","2","legacy","6","1024","2","48000","-16","experiment","3","odd","9","126652","127748","85008","127750","129956","NA","2959","78101","128752","6187","131957","NA","2948","131957","132542","Sternberg Task","20","12704","20","yes","1024"
"100","100","634","634","black","experiment","legacy","legacy","legacy","0","uniform","1","undefined","1","right","20","20","0","20","20","20","0","0","20","0","20","0","0","20","20","Mon Oct 17 20:09:17 2022","The main experiment item","yes","SternbergTask.osexp","C:\Users\Melissa\OneDrive\Desktop\ADVANCED QUANT\LAB 3.1","no","mono","no","18","no","white","no","no","768","legacy","8","11","C:/Users/Melissa/OneDrive/Desktop/ADVANCED QUANT/LAB 3.2/MM-subject-3.1.csv","legacy","7 3 2 8","Lentiform Loewenfeld","3.3.12","0","n","0","right","left","left","NA","right","610","3227","6907","NA","610","2","legacy","4","1024","2","48000","-16","experiment","3","odd","4","132547","133643","85008","133644","135850","NA","2959","78101","134645","6187","137851","NA","2948","137851","138461","Sternberg Task","21","13314","21","yes","1024"
"100","100","637.5","637.5","black","experiment","legacy","legacy","legacy","0","uniform","1","undefined","1","right","21","21","0","21","21","21","0","0","21","0","21","0","0","21","21","Mon Oct 17 20:09:17 2022","The main experiment item","yes","SternbergTask.osexp","C:\Users\Melissa\OneDrive\Desktop\ADVANCED QUANT\LAB 3.1","no","mono","no","18","no","white","no","no","768","legacy","9","11","C:/Users/Melissa/OneDrive/Desktop/ADVANCED QUANT/LAB 3.2/MM-subject-3.1.csv","legacy","7 1 8 4 9 3","Lentiform Loewenfeld","3.3.12","0","n","0","right","left","left","NA","right","711","3227","6907","NA","711","2","legacy","6","1024","2","48000","-16","experiment","3","odd","6","138465","139561","85008","139562","141767","NA","2959","78101","140563","6187","143769","NA","2948","143769","144481","Sternberg Task","22","14025","22","yes","1024"
"100","100","638.7391304347826","638.7391304347826","black","experiment","legacy","legacy","legacy","0","uniform","1","undefined","1","left","22","22","0","22","22","22","0","0","22","0","22","0","0","22","22","Mon Oct 17 20:09:17 2022","The main experiment item","yes","SternbergTask.osexp","C:\Users\Melissa\OneDrive\Desktop\ADVANCED QUANT\LAB 3.1","no","mono","no","18","no","white","no","no","768","legacy","10","11","C:/Users/Melissa/OneDrive/Desktop/ADVANCED QUANT/LAB 3.2/MM-subject-3.1.csv","legacy","4 7 6 8 2 3","Lentiform Loewenfeld","3.3.12","6","y","0","left","left","left","NA","left","666","3227","6907","NA","666","2","legacy","6","1024","2","48000","-16","experiment","3","odd","3","144484","145579","85008","145581","147786","NA","2959","78101","146582","6187","149787","NA","2948","149787","150454","Sternberg Task","23","14691","23","yes","1024"
"95.83333333333333","95.83333333333333","634.5","634.5","black","experiment","legacy","legacy","legacy","0","uniform","0","undefined","0","left","23","23","0","23","23","23","0","0","23","0","23","0","0","23","23","Mon Oct 17 20:09:17 2022","The main experiment item","yes","SternbergTask.osexp","C:\Users\Melissa\OneDrive\Desktop\ADVANCED QUANT\LAB 3.1","no","mono","no","18","no","white","no","no","768","legacy","11","11","C:/Users/Melissa/OneDrive/Desktop/ADVANCED QUANT/LAB 3.2/MM-subject-3.1.csv","legacy","7 4 2 6 3 5","Lentiform Loewenfeld","3.3.12","6","y","0","right","left","left","NA","right","537","3227","6907","NA","537","2","legacy","6","1024","2","48000","-16","experiment","3","odd","5","150460","151557","85008","151558","153767","NA","2959","78101","152563","6187","155768","NA","2948","155768","156306","Sternberg Task","23","15228","24","yes","1024"
"96","96","635.64","635.64","black","experiment","legacy","legacy","legacy","0","uniform","1","undefined","1","right","24","24","0","24","24","24","0","0","24","0","24","0","0","24","24","Mon Oct 17 20:09:17 2022","The main experiment item","yes","SternbergTask.osexp","C:\Users\Melissa\OneDrive\Desktop\ADVANCED QUANT\LAB 3.1","no","mono","no","18","no","white","no","no","768","legacy","12","11","C:/Users/Melissa/OneDrive/Desktop/ADVANCED QUANT/LAB 3.2/MM-subject-3.1.csv","legacy","1 4 3 6 5","Lentiform Loewenfeld","3.3.12","0","n","0","right","left","left","NA","right","663","3227","6907","NA","663","2","legacy","5","1024","2","48000","-16","experiment","3","odd","8","150460","157422","85008","157424","159637","156311","2959","78101","158431","6187","161638","NA","2948","161638","162302","Sternberg Task","24","15891","25","yes","1024"
"96.15384615384616","96.15384615384616","631.9230769230769","631.9230769230769","black","experiment","legacy","legacy","legacy","0","uniform","1","undefined","1","left","25","25","0","25","25","25","0","0","25","0","25","0","0","25","25","Mon Oct 17 20:09:17 2022","The main experiment item","yes","SternbergTask.osexp","C:\Users\Melissa\OneDrive\Desktop\ADVANCED QUANT\LAB 3.1","no","mono","no","18","no","white","no","no","768","legacy","13","11","C:/Users/Melissa/OneDrive/Desktop/ADVANCED QUANT/LAB 3.2/MM-subject-3.1.csv","legacy","5 7 3 6 2","Lentiform Loewenfeld","3.3.12","5","y","0","left","left","left","NA","left","539","3227","6907","NA","539","2","legacy","5","1024","2","48000","-16","experiment","3","odd","2","162316","163409","85008","163411","165616","156311","2959","78101","164412","6187","167617","NA","2948","167617","168156","Sternberg Task","25","16430","26","yes","1024"
"96.29629629629629","96.29629629629629","633.8888888888889","633.8888888888889","black","experiment","legacy","legacy","legacy","0","uniform","1","undefined","1","left","26","26","0","26","26","26","0","0","26","0","26","0","0","26","26","Mon Oct 17 20:09:17 2022","The main experiment item","yes","SternbergTask.osexp","C:\Users\Melissa\OneDrive\Desktop\ADVANCED QUANT\LAB 3.1","no","mono","no","18","no","white","no","no","768","legacy","14","11","C:/Users/Melissa/OneDrive/Desktop/ADVANCED QUANT/LAB 3.2/MM-subject-3.1.csv","legacy","7 1 8 5 6 2","Lentiform Loewenfeld","3.3.12","2","y","0","left","left","left","NA","left","685","3227","6907","NA","685","2","legacy","6","1024","2","48000","-16","experiment","3","odd","1","168163","169257","85008","169258","171461","156311","2959","78101","170259","6187","173466","NA","2948","173466","174151","Sternberg Task","26","17115","27","yes","1024"
"96.42857142857143","96.42857142857143","630.9285714285714","630.9285714285714","black","experiment","legacy","legacy","legacy","0","uniform","1","undefined","1","left","27","27","0","27","27","27","0","0","27","0","27","0","0","27","27","Mon Oct 17 20:09:17 2022","The main experiment item","yes","SternbergTask.osexp","C:\Users\Melissa\OneDrive\Desktop\ADVANCED QUANT\LAB 3.1","no","mono","no","18","no","white","no","no","768","legacy","15","11","C:/Users/Melissa/OneDrive/Desktop/ADVANCED QUANT/LAB 3.2/MM-subject-3.1.csv","legacy","6 7 9 3 1 2","Lentiform Loewenfeld","3.3.12","1","y","0","left","left","left","NA","left","551","3227","6907","NA","551","2","legacy","6","1024","2","48000","-16","experiment","3","odd","6","174156","175260","85008","175261","177467","156311","2959","78101","176263","6187","179468","NA","2948","179468","180020","Sternberg Task","27","17666","28","yes","1024"
"96.55172413793103","96.55172413793103","636.3448275862069","636.3448275862069","black","experiment","legacy","legacy","legacy","0","uniform","1","undefined","1","left","28","28","0","28","28","28","0","0","28","0","28","0","0","28","28","Mon Oct 17 20:09:17 2022","The main experiment item","yes","SternbergTask.osexp","C:\Users\Melissa\OneDrive\Desktop\ADVANCED QUANT\LAB 3.1","no","mono","no","18","no","white","no","no","768","legacy","16","11","C:/Users/Melissa/OneDrive/Desktop/ADVANCED QUANT/LAB 3.2/MM-subject-3.1.csv","legacy","6 7 8 5","Lentiform Loewenfeld","3.3.12","3","y","0","left","left","left","NA","left","788","3227","6907","NA","788","2","legacy","4","1024","2","48000","-16","experiment","3","odd","8","180027","181124","85008","181126","183331","156311","2959","78101","182127","6187","185333","NA","2948","185333","186122","Sternberg Task","28","18454","29","yes","1024"
"96.66666666666667","96.66666666666667","648.2333333333333","648.2333333333333","black","experiment","legacy","legacy","legacy","0","uniform","1","undefined","1","left","29","29","0","29","29","29","0","0","29","0","29","0","0","29","29","Mon Oct 17 20:09:17 2022","The main experiment item","yes","SternbergTask.osexp","C:\Users\Melissa\OneDrive\Desktop\ADVANCED QUANT\LAB 3.1","no","mono","no","18","no","white","no","no","768","legacy","17","11","C:/Users/Melissa/OneDrive/Desktop/ADVANCED QUANT/LAB 3.2/MM-subject-3.1.csv","legacy","6 9 7 4 5 1","Lentiform Loewenfeld","3.3.12","2","y","0","left","left","left","NA","left","993","3227","6907","NA","993","2","legacy","6","1024","2","48000","-16","experiment","3","odd","9","186135","187260","85008","187263","189468","156311","2959","78101","188264","6187","191469","NA","2948","191469","192463","Sternberg Task","29","19447","30","yes","1024"
"96.7741935483871","96.7741935483871","646.6129032258065","646.6129032258065","black","experiment","legacy","legacy","legacy","0","uniform","1","undefined","1","left","30","30","0","30","30","30","0","0","30","0","30","0","0","30","30","Mon Oct 17 20:09:17 2022","The main experiment item","yes","SternbergTask.osexp","C:\Users\Melissa\OneDrive\Desktop\ADVANCED QUANT\LAB 3.1","no","mono","no","18","no","white","no","no","768","legacy","18","11","C:/Users/Melissa/OneDrive/Desktop/ADVANCED QUANT/LAB 3.2/MM-subject-3.1.csv","legacy","9 6 2 4 1","Lentiform Loewenfeld","3.3.12","4","y","0","left","left","left","NA","left","598","3227","6907","NA","598","2","legacy","5","1024","2","48000","-16","experiment","3","odd","4","192480","193601","85008","193606","195812","156311","2959","78101","194607","6187","197813","NA","2948","197813","198411","Sternberg Task","30","20045","31","yes","1024"
"96.875","96.875","651.78125","651.78125","black","experiment","legacy","legacy","legacy","0","uniform","1","undefined","1","right","31","31","0","31","31","31","0","0","31","0","31","0","0","31","31","Mon Oct 17 20:09:17 2022","The main experiment item","yes","SternbergTask.osexp","C:\Users\Melissa\OneDrive\Desktop\ADVANCED QUANT\LAB 3.1","no","mono","no","18","no","white","no","no","768","legacy","19","11","C:/Users/Melissa/OneDrive/Desktop/ADVANCED QUANT/LAB 3.2/MM-subject-3.1.csv","legacy","8 5 7 3 6","Lentiform Loewenfeld","3.3.12","0","n","0","right","left","left","NA","right","812","3227","6907","NA","812","2","legacy","5","1024","2","48000","-16","experiment","3","odd","9","198419","199517","85008","199519","201725","156311","2959","78101","200520","6187","203726","NA","2948","203726","204538","Sternberg Task","31","20857","32","yes","1024"
"96.96969696969697","96.96969696969697","672.5757575757576","672.5757575757576","black","experiment","legacy","legacy","legacy","0","uniform","1","undefined","1","right","32","32","0","32","32","32","0","0","32","0","32","0","0","32","32","Mon Oct 17 20:09:17 2022","The main experiment item","yes","SternbergTask.osexp","C:\Users\Melissa\OneDrive\Desktop\ADVANCED QUANT\LAB 3.1","no","mono","no","18","no","white","no","no","768","legacy","20","11","C:/Users/Melissa/OneDrive/Desktop/ADVANCED QUANT/LAB 3.2/MM-subject-3.1.csv","legacy","5","Lentiform Loewenfeld","3.3.12","0","n","0","right","left","left","NA","right","1338","3227","6907","NA","1338","2","legacy","1","1024","2","48000","-16","experiment","3","odd","8","204551","205647","85008","205651","207857","156311","2959","78101","206652","6187","209858","NA","2948","209858","211197","Sternberg Task","32","22195","33","yes","1024"
"97.05882352941177","97.05882352941177","668.8235294117648","668.8235294117648","black","experiment","legacy","legacy","legacy","0","uniform","1","undefined","1","left","33","33","0","33","33","33","0","0","33","0","33","0","0","33","33","Mon Oct 17 20:09:17 2022","The main experiment item","yes","SternbergTask.osexp","C:\Users\Melissa\OneDrive\Desktop\ADVANCED QUANT\LAB 3.1","no","mono","no","18","no","white","no","no","768","legacy","21","11","C:/Users/Melissa/OneDrive/Desktop/ADVANCED QUANT/LAB 3.2/MM-subject-3.1.csv","legacy","6 2","Lentiform Loewenfeld","3.3.12","1","y","0","left","left","left","NA","left","545","3227","6907","NA","545","2","legacy","2","1024","2","48000","-16","experiment","3","odd","6","211202","212319","85008","212321","214524","156311","2959","78101","213323","6187","216525","NA","2948","216525","217071","Sternberg Task","33","22740","34","yes","1024"
"97.14285714285714","97.14285714285714","673.5428571428571","673.5428571428571","black","experiment","legacy","legacy","legacy","0","uniform","1","undefined","1","right","34","34","0","34","34","34","0","0","34","0","34","0","0","34","34","Mon Oct 17 20:09:17 2022","The main experiment item","yes","SternbergTask.osexp","C:\Users\Melissa\OneDrive\Desktop\ADVANCED QUANT\LAB 3.1","no","mono","no","18","no","white","no","no","768","legacy","22","11","C:/Users/Melissa/OneDrive/Desktop/ADVANCED QUANT/LAB 3.2/MM-subject-3.1.csv","legacy","6 9 4 5 2","Lentiform Loewenfeld","3.3.12","0","n","0","right","left","left","NA","right","834","3227","6907","NA","834","2","legacy","5","1024","2","48000","-16","experiment","3","odd","1","217081","218178","85008","218180","220386","156311","2959","78101","219182","6187","222391","NA","2948","222391","223225","Sternberg Task","34","23574","35","yes","1024"
"97.22222222222223","97.22222222222223","670.3055555555555","670.3055555555555","black","experiment","legacy","legacy","legacy","0","uniform","1","undefined","1","left","35","35","0","35","35","35","0","0","35","0","35","0","0","35","35","Mon Oct 17 20:09:17 2022","The main experiment item","yes","SternbergTask.osexp","C:\Users\Melissa\OneDrive\Desktop\ADVANCED QUANT\LAB 3.1","no","mono","no","18","no","white","no","no","768","legacy","23","11","C:/Users/Melissa/OneDrive/Desktop/ADVANCED QUANT/LAB 3.2/MM-subject-3.1.csv","legacy","5 2 6","Lentiform Loewenfeld","3.3.12","2","y","0","left","left","left","NA","left","557","3227","6907","NA","557","2","legacy","3","1024","2","48000","-16","experiment","3","odd","2","223239","224341","85008","224343","226548","156311","2959","78101","225344","6187","228549","NA","2948","228549","229107","Sternberg Task","35","24131","36","yes","1024"
"97.29729729729729","97.29729729729729","670.4324324324324","670.4324324324324","black","experiment","legacy","legacy","legacy","0","uniform","1","undefined","1","right","36","36","0","36","36","36","0","0","36","0","36","0","0","36","36","Mon Oct 17 20:09:17 2022","The main experiment item","yes","SternbergTask.osexp","C:\Users\Melissa\OneDrive\Desktop\ADVANCED QUANT\LAB 3.1","no","mono","no","18","no","white","no","no","768","legacy","24","11","C:/Users/Melissa/OneDrive/Desktop/ADVANCED QUANT/LAB 3.2/MM-subject-3.1.csv","legacy","4 8 1 2","Lentiform Loewenfeld","3.3.12","0","n","0","right","left","left","NA","right","675","3227","6907","NA","675","2","legacy","4","1024","2","48000","-16","experiment","3","odd","7","229112","230206","85008","230208","232414","156311","2959","78101","231209","6187","234415","NA","2948","234415","235091","Sternberg Task","36","24806","37","yes","1024"
"97.36842105263158","97.36842105263158","677.1842105263158","677.1842105263158","black","experiment","legacy","legacy","legacy","0","uniform","1","undefined","1","right","37","37","0","37","37","37","0","0","37","0","37","0","0","37","37","Mon Oct 17 20:09:17 2022","The main experiment item","yes","SternbergTask.osexp","C:\Users\Melissa\OneDrive\Desktop\ADVANCED QUANT\LAB 3.1","no","mono","no","18","no","white","no","no","768","legacy","25","11","C:/Users/Melissa/OneDrive/Desktop/ADVANCED QUANT/LAB 3.2/MM-subject-3.1.csv","legacy","2 8 7 9 5 3","Lentiform Loewenfeld","3.3.12","0","n","0","right","left","left","NA","right","927","3227","6907","NA","927","2","legacy","6","1024","2","48000","-16","experiment","3","odd","6","235098","236191","85008","236192","238397","156311","2959","78101","237193","6187","240398","NA","2948","240398","241325","Sternberg Task","37","25733","38","yes","1024"
"97.43589743589743","97.43589743589743","672.974358974359","672.974358974359","black","experiment","legacy","legacy","legacy","0","uniform","1","undefined","1","right","38","38","0","38","38","38","0","0","38","0","38","0","0","38","38","Mon Oct 17 20:09:17 2022","The main experiment item","yes","SternbergTask.osexp","C:\Users\Melissa\OneDrive\Desktop\ADVANCED QUANT\LAB 3.1","no","mono","no","18","no","white","no","no","768","legacy","26","11","C:/Users/Melissa/OneDrive/Desktop/ADVANCED QUANT/LAB 3.2/MM-subject-3.1.csv","legacy","8 4 3 9","Lentiform Loewenfeld","3.3.12","0","n","0","right","left","left","NA","right","513","3227","6907","NA","513","2","legacy","4","1024","2","48000","-16","experiment","3","odd","5","241332","242424","85008","242426","244632","156311","2959","78101","243427","6187","246633","NA","2948","246633","247146","Sternberg Task","38","26246","39","yes","1024"
"97.5","97.5","673.675","673.675","black","experiment","legacy","legacy","legacy","0","uniform","1","undefined","1","right","39","39","0","39","39","39","0","0","39","0","39","0","0","39","39","Mon Oct 17 20:09:17 2022","The main experiment item","yes","SternbergTask.osexp","C:\Users\Melissa\OneDrive\Desktop\ADVANCED QUANT\LAB 3.1","no","mono","no","18","no","white","no","no","768","legacy","27","11","C:/Users/Melissa/OneDrive/Desktop/ADVANCED QUANT/LAB 3.2/MM-subject-3.1.csv","legacy","2 6 4 3 9","Lentiform Loewenfeld","3.3.12","0","n","0","right","left","left","NA","right","701","3227","6907","NA","701","2","legacy","5","1024","2","48000","-16","experiment","3","odd","1","247152","248249","85008","248250","250456","156311","2959","78101","249252","6187","252457","NA","2948","252457","253158","Sternberg Task","39","26947","40","yes","1024"
"97.5609756097561","97.5609756097561","673.4146341463414","673.4146341463414","black","experiment","legacy","legacy","legacy","0","uniform","1","undefined","1","left","40","40","0","40","40","40","0","0","40","0","40","0","0","40","40","Mon Oct 17 20:09:17 2022","The main experiment item","yes","SternbergTask.osexp","C:\Users\Melissa\OneDrive\Desktop\ADVANCED QUANT\LAB 3.1","no","mono","no","18","no","white","no","no","768","legacy","28","11","C:/Users/Melissa/OneDrive/Desktop/ADVANCED QUANT/LAB 3.2/MM-subject-3.1.csv","legacy","7 8 4 6 9 5","Lentiform Loewenfeld","3.3.12","4","y","0","left","left","left","NA","left","663","3227","6907","NA","663","2","legacy","6","1024","2","48000","-16","experiment","3","odd","6","253165","254277","85008","254279","256485","156311","2959","78101","255281","6187","258486","NA","2948","258486","259150","Sternberg Task","40","27610","41","yes","1024"
"97.61904761904762","97.61904761904762","670.047619047619","670.047619047619","black","experiment","legacy","legacy","legacy","0","uniform","1","undefined","1","left","41","41","0","41","41","41","0","0","41","0","41","0","0","41","41","Mon Oct 17 20:09:17 2022","The main experiment item","yes","SternbergTask.osexp","C:\Users\Melissa\OneDrive\Desktop\ADVANCED QUANT\LAB 3.1","no","mono","no","18","no","white","no","no","768","legacy","29","11","C:/Users/Melissa/OneDrive/Desktop/ADVANCED QUANT/LAB 3.2/MM-subject-3.1.csv","legacy","9 1 6 7 8","Lentiform Loewenfeld","3.3.12","1","y","0","left","left","left","NA","left","532","3227","6907","NA","532","2","legacy","5","1024","2","48000","-16","experiment","3","odd","9","259156","260251","85008","260253","262459","156311","2959","78101","261254","6187","264460","NA","2948","264460","264994","Sternberg Task","41","28142","42","yes","1024"
"97.67441860465117","97.67441860465117","679.2325581395348","679.2325581395348","black","experiment","legacy","legacy","legacy","0","uniform","1","undefined","1","right","42","42","0","42","42","42","0","0","42","0","42","0","0","42","42","Mon Oct 17 20:09:17 2022","The main experiment item","yes","SternbergTask.osexp","C:\Users\Melissa\OneDrive\Desktop\ADVANCED QUANT\LAB 3.1","no","mono","no","18","no","white","no","no","768","legacy","30","11","C:/Users/Melissa/OneDrive/Desktop/ADVANCED QUANT/LAB 3.2/MM-subject-3.1.csv","legacy","2 5 1 4","Lentiform Loewenfeld","3.3.12","0","n","0","right","left","left","NA","right","1065","3227","6907","NA","1065","2","legacy","4","1024","2","48000","-16","experiment","3","odd","6","264999","266093","85008","266095","268304","156311","2959","78101","267101","6187","270305","NA","2948","270305","271371","Sternberg Task","42","29207","43","yes","1024"
"97.72727272727273","97.72727272727273","680.1136363636364","680.1136363636364","black","experiment","legacy","legacy","legacy","0","uniform","1","undefined","1","right","43","43","0","43","43","43","0","0","43","0","43","0","0","43","43","Mon Oct 17 20:09:17 2022","The main experiment item","yes","SternbergTask.osexp","C:\Users\Melissa\OneDrive\Desktop\ADVANCED QUANT\LAB 3.1","no","mono","no","18","no","white","no","no","768","legacy","31","11","C:/Users/Melissa/OneDrive/Desktop/ADVANCED QUANT/LAB 3.2/MM-subject-3.1.csv","legacy","5 3 2 6 9 8","Lentiform Loewenfeld","3.3.12","0","n","0","right","left","left","NA","right","718","3227","6907","NA","718","2","legacy","6","1024","2","48000","-16","experiment","3","odd","4","271375","272471","85008","272473","274679","156311","2959","78101","273475","6187","276680","NA","2948","276680","277399","Sternberg Task","43","29925","44","yes","1024"
"97.77777777777777","97.77777777777777","680.7333333333333","680.7333333333333","black","experiment","legacy","legacy","legacy","0","uniform","1","undefined","1","left","44","44","0","44","44","44","0","0","44","0","44","0","0","44","44","Mon Oct 17 20:09:17 2022","The main experiment item","yes","SternbergTask.osexp","C:\Users\Melissa\OneDrive\Desktop\ADVANCED QUANT\LAB 3.1","no","mono","no","18","no","white","no","no","768","legacy","32","11","C:/Users/Melissa/OneDrive/Desktop/ADVANCED QUANT/LAB 3.2/MM-subject-3.1.csv","legacy","4 6 2 5 1","Lentiform Loewenfeld","3.3.12","5","y","0","left","left","left","NA","left","708","3227","6907","NA","708","2","legacy","5","1024","2","48000","-16","experiment","3","odd","1","277410","278524","85008","278530","280736","156311","2959","78101","279531","6187","282737","NA","2948","282737","283446","Sternberg Task","44","30633","45","yes","1024"
"97.82608695652173","97.82608695652173","675.5869565217391","675.5869565217391","black","experiment","legacy","legacy","legacy","0","uniform","1","undefined","1","left","45","45","0","45","45","45","0","0","45","0","45","0","0","45","45","Mon Oct 17 20:09:17 2022","The main experiment item","yes","SternbergTask.osexp","C:\Users\Melissa\OneDrive\Desktop\ADVANCED QUANT\LAB 3.1","no","mono","no","18","no","white","no","no","768","legacy","33","11","C:/Users/Melissa/OneDrive/Desktop/ADVANCED QUANT/LAB 3.2/MM-subject-3.1.csv","legacy","8","Lentiform Loewenfeld","3.3.12","1","y","0","left","left","left","NA","left","444","3227","6907","NA","444","2","legacy","1","1024","2","48000","-16","experiment","3","odd","8","283452","284548","85008","284549","286758","156311","2959","78101","285554","6187","288760","NA","2948","288760","289206","Sternberg Task","45","31077","46","yes","1024"
"97.87234042553192","97.87234042553192","672.4042553191489","672.4042553191489","black","experiment","legacy","legacy","legacy","0","uniform","1","undefined","1","right","46","46","0","46","46","46","0","0","46","0","46","0","0","46","46","Mon Oct 17 20:09:17 2022","The main experiment item","yes","SternbergTask.osexp","C:\Users\Melissa\OneDrive\Desktop\ADVANCED QUANT\LAB 3.1","no","mono","no","18","no","white","no","no","768","legacy","34","11","C:/Users/Melissa/OneDrive/Desktop/ADVANCED QUANT/LAB 3.2/MM-subject-3.1.csv","legacy","7 1","Lentiform Loewenfeld","3.3.12","0","n","0","right","left","left","NA","right","526","3227","6907","NA","526","2","legacy","2","1024","2","48000","-16","experiment","3","odd","8","289223","290316","85008","290318","292523","156311","2959","78101","291319","6187","294524","NA","2948","294524","295051","Sternberg Task","46","31603","47","yes","1024"
"97.91666666666667","97.91666666666667","672.75","672.75","black","experiment","legacy","legacy","legacy","0","uniform","1","undefined","1","right","47","47","0","47","47","47","0","0","47","0","47","0","0","47","47","Mon Oct 17 20:09:17 2022","The main experiment item","yes","SternbergTask.osexp","C:\Users\Melissa\OneDrive\Desktop\ADVANCED QUANT\LAB 3.1","no","mono","no","18","no","white","no","no","768","legacy","35","11","C:/Users/Melissa/OneDrive/Desktop/ADVANCED QUANT/LAB 3.2/MM-subject-3.1.csv","legacy","1 4 9 2 5","Lentiform Loewenfeld","3.3.12","0","n","0","right","left","left","NA","right","689","3227","6907","NA","689","2","legacy","5","1024","2","48000","-16","experiment","3","odd","7","295062","296157","85008","296159","298365","156311","2959","78101","297160","6187","300366","NA","2948","300366","301056","Sternberg Task","47","32292","48","yes","1024"
"97.95918367346938","97.95918367346938","671.0204081632653","671.0204081632653","black","experiment","legacy","legacy","legacy","0","uniform","1","undefined","1","right","48","48","0","48","48","48","0","0","48","0","48","0","0","48","48","Mon Oct 17 20:09:17 2022","The main experiment item","yes","SternbergTask.osexp","C:\Users\Melissa\OneDrive\Desktop\ADVANCED QUANT\LAB 3.1","no","mono","no","18","no","white","no","no","768","legacy","36","11","C:/Users/Melissa/OneDrive/Desktop/ADVANCED QUANT/LAB 3.2/MM-subject-3.1.csv","legacy","6 7 5 9","Lentiform Loewenfeld","3.3.12","0","n","0","right","left","left","NA","right","588","3227","6907","NA","588","2","legacy","4","1024","2","48000","-16","experiment","3","odd","2","301060","302161","85008","302163","304368","156311","2959","78101","303164","6187","306374","NA","2948","306374","306963","Sternberg Task","48","32880","49","yes","1024"
"98","98","671.86","671.86","black","experiment","legacy","legacy","legacy","0","uniform","1","undefined","1","left","49","49","0","49","49","49","0","0","49","0","49","0","0","49","49","Mon Oct 17 20:09:17 2022","The main experiment item","yes","SternbergTask.osexp","C:\Users\Melissa\OneDrive\Desktop\ADVANCED QUANT\LAB 3.1","no","mono","no","18","no","white","no","no","768","legacy","37","11","C:/Users/Melissa/OneDrive/Desktop/ADVANCED QUANT/LAB 3.2/MM-subject-3.1.csv","legacy","8 5 4 7 3 1","Lentiform Loewenfeld","3.3.12","2","y","0","left","left","left","NA","left","713","3227","6907","NA","713","2","legacy","6","1024","2","48000","-16","experiment","3","odd","5","306968","308070","85008","308072","310277","156311","2959","78101","309073","6187","312278","NA","2948","312278","312991","Sternberg Task","49","33593","50","yes","1024"
"98.03921568627452","98.03921568627452","683.3333333333334","683.3333333333334","black","experiment","legacy","legacy","legacy","0","uniform","1","undefined","1","left","50","50","0","50","50","50","0","0","50","0","50","0","0","50","50","Mon Oct 17 20:09:17 2022","The main experiment item","yes","SternbergTask.osexp","C:\Users\Melissa\OneDrive\Desktop\ADVANCED QUANT\LAB 3.1","no","mono","no","18","no","white","no","no","768","legacy","38","11","C:/Users/Melissa/OneDrive/Desktop/ADVANCED QUANT/LAB 3.2/MM-subject-3.1.csv","legacy","9 3 8 2 1 4","Lentiform Loewenfeld","3.3.12","3","y","0","left","left","left","NA","left","1257","3227","6907","NA","1257","2","legacy","6","1024","2","48000","-16","experiment","3","odd","8","313014","314108","85008","314110","316316","156311","2959","78101","315112","6187","318322","NA","2948","318323","319585","Sternberg Task","50","34850","51","yes","1024"
"98.07692307692308","98.07692307692308","685.4807692307693","685.4807692307693","black","experiment","legacy","legacy","legacy","0","uniform","1","undefined","1","left","51","51","0","51","51","51","0","0","51","0","51","0","0","51","51","Mon Oct 17 20:09:17 2022","The main experiment item","yes","SternbergTask.osexp","C:\Users\Melissa\OneDrive\Desktop\ADVANCED QUANT\LAB 3.1","no","mono","no","18","no","white","no","no","768","legacy","39","11","C:/Users/Melissa/OneDrive/Desktop/ADVANCED QUANT/LAB 3.2/MM-subject-3.1.csv","legacy","3 2 1 4 7","Lentiform Loewenfeld","3.3.12","2","y","0","left","left","left","NA","left","795","3227","6907","NA","795","2","legacy","5","1024","2","48000","-16","experiment","3","odd","2","319592","320725","85008","320726","322933","156311","2959","78101","321729","6187","324934","NA","2948","324934","325729","Sternberg Task","51","35645","52","yes","1024"
"98.11320754716981","98.11320754716981","694.6792452830189","694.6792452830189","black","experiment","legacy","legacy","legacy","0","uniform","1","undefined","1","left","52","52","0","52","52","52","0","0","52","0","52","0","0","52","52","Mon Oct 17 20:09:17 2022","The main experiment item","yes","SternbergTask.osexp","C:\Users\Melissa\OneDrive\Desktop\ADVANCED QUANT\LAB 3.1","no","mono","no","18","no","white","no","no","768","legacy","40","11","C:/Users/Melissa/OneDrive/Desktop/ADVANCED QUANT/LAB 3.2/MM-subject-3.1.csv","legacy","9 3 1 2 5","Lentiform Loewenfeld","3.3.12","4","y","0","left","left","left","NA","left","1173","3227","6907","NA","1173","2","legacy","5","1024","2","48000","-16","experiment","3","odd","2","325737","326838","85008","326841","329046","156311","2959","78101","327842","6187","331047","NA","2948","331047","332221","Sternberg Task","52","36818","53","yes","1024"
"98.14814814814815","98.14814814814815","691.4074074074074","691.4074074074074","black","experiment","legacy","legacy","legacy","0","uniform","1","undefined","1","right","53","53","0","53","53","53","0","0","53","0","53","0","0","53","53","Mon Oct 17 20:09:17 2022","The main experiment item","yes","SternbergTask.osexp","C:\Users\Melissa\OneDrive\Desktop\ADVANCED QUANT\LAB 3.1","no","mono","no","18","no","white","no","no","768","legacy","41","11","C:/Users/Melissa/OneDrive/Desktop/ADVANCED QUANT/LAB 3.2/MM-subject-3.1.csv","legacy","9 5 3 2 8 6","Lentiform Loewenfeld","3.3.12","0","n","0","right","left","left","NA","right","518","3227","6907","NA","518","2","legacy","6","1024","2","48000","-16","experiment","3","odd","7","332238","333375","85008","333376","335582","156311","2959","78101","334378","6187","337587","NA","2948","337587","338106","Sternberg Task","53","37336","54","yes","1024"
"98.18181818181819","98.18181818181819","696.9818181818182","696.9818181818182","black","experiment","legacy","legacy","legacy","0","uniform","1","undefined","1","right","54","54","0","54","54","54","0","0","54","0","54","0","0","54","54","Mon Oct 17 20:09:17 2022","The main experiment item","yes","SternbergTask.osexp","C:\Users\Melissa\OneDrive\Desktop\ADVANCED QUANT\LAB 3.1","no","mono","no","18","no","white","no","no","768","legacy","42","11","C:/Users/Melissa/OneDrive/Desktop/ADVANCED QUANT/LAB 3.2/MM-subject-3.1.csv","legacy","5 7 3","Lentiform Loewenfeld","3.3.12","0","n","0","right","left","left","NA","right","998","3227","6907","NA","998","2","legacy","3","1024","2","48000","-16","experiment","3","odd","9","338113","339241","85008","339243","341445","156311","2959","78101","340244","6187","343446","NA","2948","343446","344446","Sternberg Task","54","38334","55","yes","1024"
"98.21428571428571","98.21428571428571","695.4285714285714","695.4285714285714","black","experiment","legacy","legacy","legacy","0","uniform","1","undefined","1","right","55","55","0","55","55","55","0","0","55","0","55","0","0","55","55","Mon Oct 17 20:09:17 2022","The main experiment item","yes","SternbergTask.osexp","C:\Users\Melissa\OneDrive\Desktop\ADVANCED QUANT\LAB 3.1","no","mono","no","18","no","white","no","no","768","legacy","43","11","C:/Users/Melissa/OneDrive/Desktop/ADVANCED QUANT/LAB 3.2/MM-subject-3.1.csv","legacy","2 3 8 5 6 7","Lentiform Loewenfeld","3.3.12","0","n","0","right","left","left","NA","right","610","3227","6907","NA","610","2","legacy","6","1024","2","48000","-16","experiment","3","odd","1","344451","345551","85008","345552","347754","156311","2959","78101","346553","6187","349755","NA","2948","349755","350366","Sternberg Task","55","38944","56","yes","1024"
"98.24561403508773","98.24561403508773","701.0175438596491","701.0175438596491","black","experiment","legacy","legacy","legacy","0","uniform","1","undefined","1","right","56","56","0","56","56","56","0","0","56","0","56","0","0","56","56","Mon Oct 17 20:09:17 2022","The main experiment item","yes","SternbergTask.osexp","C:\Users\Melissa\OneDrive\Desktop\ADVANCED QUANT\LAB 3.1","no","mono","no","18","no","white","no","no","768","legacy","44","11","C:/Users/Melissa/OneDrive/Desktop/ADVANCED QUANT/LAB 3.2/MM-subject-3.1.csv","legacy","5 9 2 3","Lentiform Loewenfeld","3.3.12","0","n","0","right","left","left","NA","right","1014","3227","6907","NA","1014","2","legacy","4","1024","2","48000","-16","experiment","3","odd","8","350371","351468","85008","351470","353675","156311","2959","78101","352471","6187","355676","NA","2948","355676","356691","Sternberg Task","56","39958","57","yes","1024"
"98.27586206896552","98.27586206896552","698.1551724137931","698.1551724137931","black","experiment","legacy","legacy","legacy","0","uniform","1","undefined","1","right","57","57","0","57","57","57","0","0","57","0","57","0","0","57","57","Mon Oct 17 20:09:17 2022","The main experiment item","yes","SternbergTask.osexp","C:\Users\Melissa\OneDrive\Desktop\ADVANCED QUANT\LAB 3.1","no","mono","no","18","no","white","no","no","768","legacy","45","11","C:/Users/Melissa/OneDrive/Desktop/ADVANCED QUANT/LAB 3.2/MM-subject-3.1.csv","legacy","8 6 3 4 7","Lentiform Loewenfeld","3.3.12","0","n","0","right","left","left","NA","right","535","3227","6907","NA","535","2","legacy","5","1024","2","48000","-16","experiment","3","odd","1","356697","357817","85008","357819","360026","156311","2959","78101","358824","6187","362028","NA","2948","362029","362565","Sternberg Task","57","40493","58","yes","1024"
"96.61016949152543","96.61016949152543","693.9322033898305","693.9322033898305","black","experiment","legacy","legacy","legacy","0","uniform","0","undefined","0","left","58","58","0","58","58","58","0","0","58","0","58","0","0","58","58","Mon Oct 17 20:09:17 2022","The main experiment item","yes","SternbergTask.osexp","C:\Users\Melissa\OneDrive\Desktop\ADVANCED QUANT\LAB 3.1","no","mono","no","18","no","white","no","no","768","legacy","46","11","C:/Users/Melissa/OneDrive/Desktop/ADVANCED QUANT/LAB 3.2/MM-subject-3.1.csv","legacy","7 6","Lentiform Loewenfeld","3.3.12","2","y","0","right","left","left","NA","right","449","3227","6907","NA","449","2","legacy","2","1024","2","48000","-16","experiment","3","odd","6","362576","363676","85008","363677","365882","156311","2959","78101","364678","6187","367887","NA","2948","367887","368337","Sternberg Task","57","40942","59","yes","1024"
"95","95","700.5166666666667","700.5166666666667","black","experiment","legacy","legacy","legacy","0","uniform","0","undefined","0","right","59","59","0","59","59","59","0","0","59","0","59","0","0","59","59","Mon Oct 17 20:09:17 2022","The main experiment item","yes","SternbergTask.osexp","C:\Users\Melissa\OneDrive\Desktop\ADVANCED QUANT\LAB 3.1","no","mono","no","18","no","white","no","no","768","legacy","47","11","C:/Users/Melissa/OneDrive/Desktop/ADVANCED QUANT/LAB 3.2/MM-subject-3.1.csv","legacy","1 6 4 3 9 7","Lentiform Loewenfeld","3.3.12","0","n","0","left","left","left","NA","left","1089","3227","6907","NA","1089","2","legacy","6","1024","2","48000","-16","experiment","3","odd","8","362576","369450","85008","369451","371657","368353","2959","78101","370453","6187","373658","NA","2948","373658","374748","Sternberg Task","57","42031","60","yes","1024"
"95.08196721311475","95.08196721311475","718.360655737705","718.360655737705","black","experiment","legacy","legacy","legacy","0","uniform","1","undefined","1","right","60","60","0","60","60","60","0","0","60","0","60","0","0","60","60","Mon Oct 17 20:09:17 2022","The main experiment item","yes","SternbergTask.osexp","C:\Users\Melissa\OneDrive\Desktop\ADVANCED QUANT\LAB 3.1","no","mono","no","18","no","white","no","no","768","legacy","48","11","C:/Users/Melissa/OneDrive/Desktop/ADVANCED QUANT/LAB 3.2/MM-subject-3.1.csv","legacy","1 3 2 6 9","Lentiform Loewenfeld","3.3.12","0","n","0","right","left","left","NA","right","1789","3227","6907","NA","1789","2","legacy","5","1024","2","48000","-16","experiment","3","odd","5","362576","375891","85008","375894","378103","374754","2959","78101","376899","6187","380104","NA","2948","380104","381894","Sternberg Task","58","43820","61","yes","1024"
"93.54838709677419","93.54838709677419","739.0322580645161","739.0322580645161","black","experiment","legacy","legacy","legacy","0","uniform","0","undefined","0","left","61","61","0","61","61","61","0","0","61","0","61","0","0","61","61","Mon Oct 17 20:09:17 2022","The main experiment item","yes","SternbergTask.osexp","C:\Users\Melissa\OneDrive\Desktop\ADVANCED QUANT\LAB 3.1","no","mono","no","18","no","white","no","no","768","legacy","49","11","C:/Users/Melissa/OneDrive/Desktop/ADVANCED QUANT/LAB 3.2/MM-subject-3.1.csv","legacy","8 3","Lentiform Loewenfeld","3.3.12","2","y","0","None","left","left","NA","None","2000","3227","6907","NA","2000","2","legacy","2","1024","2","48000","-16","experiment","3","odd","3","381900","383017","85008","383020","385228","374754","2959","78101","384024","6187","387229","NA","2948","387229","389229","Sternberg Task","58","45820","62","yes","1024"
"93.65079365079364","93.65079365079364","743.6190476190476","743.6190476190476","black","experiment","legacy","legacy","legacy","0","uniform","1","undefined","1","left","62","62","0","62","62","62","0","0","62","0","62","0","0","62","62","Mon Oct 17 20:09:17 2022","The main experiment item","yes","SternbergTask.osexp","C:\Users\Melissa\OneDrive\Desktop\ADVANCED QUANT\LAB 3.1","no","mono","no","18","no","white","no","no","768","legacy","50","11","C:/Users/Melissa/OneDrive/Desktop/ADVANCED QUANT/LAB 3.2/MM-subject-3.1.csv","legacy","5 2 9 6 1 7","Lentiform Loewenfeld","3.3.12","3","y","0","left","left","left","NA","left","1028","3227","6907","NA","1028","2","legacy","6","1024","2","48000","-16","experiment","3","odd","9","381900","390349","85008","390350","392559","389233","2959","78101","391354","6187","394560","NA","2948","394560","395589","Sternberg Task","59","46848","63","yes","1024"
"93.75","93.75","741.984375","741.984375","black","experiment","legacy","legacy","legacy","0","uniform","1","undefined","1","left","63","63","0","63","63","63","0","0","63","0","63","0","0","63","63","Mon Oct 17 20:09:17 2022","The main experiment item","yes","SternbergTask.osexp","C:\Users\Melissa\OneDrive\Desktop\ADVANCED QUANT\LAB 3.1","no","mono","no","18","no","white","no","no","768","legacy","51","11","C:/Users/Melissa/OneDrive/Desktop/ADVANCED QUANT/LAB 3.2/MM-subject-3.1.csv","legacy","6 1 2","Lentiform Loewenfeld","3.3.12","3","y","0","left","left","left","NA","left","639","3227","6907","NA","639","2","legacy","3","1024","2","48000","-16","experiment","3","odd","2","395594","396715","85008","396717","398922","389233","2959","78101","397718","6187","400923","NA","2948","400923","401563","Sternberg Task","60","47487","64","yes","1024"
"93.84615384615384","93.84615384615384","741.8615384615384","741.8615384615384","black","experiment","legacy","legacy","legacy","0","uniform","1","undefined","1","left","64","64","0","64","64","64","0","0","64","0","64","0","0","64","64","Mon Oct 17 20:09:17 2022","The main experiment item","yes","SternbergTask.osexp","C:\Users\Melissa\OneDrive\Desktop\ADVANCED QUANT\LAB 3.1","no","mono","no","18","no","white","no","no","768","legacy","52","11","C:/Users/Melissa/OneDrive/Desktop/ADVANCED QUANT/LAB 3.2/MM-subject-3.1.csv","legacy","6 9 3 1","Lentiform Loewenfeld","3.3.12","4","y","0","left","left","left","NA","left","734","3227","6907","NA","734","2","legacy","4","1024","2","48000","-16","experiment","3","odd","1","401578","402690","85008","402692","404897","389233","2959","78101","403693","6187","406898","NA","2948","406898","407633","Sternberg Task","61","48221","65","yes","1024"
"93.93939393939394","93.93939393939394","740.3939393939394","740.3939393939394","black","experiment","legacy","legacy","legacy","0","uniform","1","undefined","1","left","65","65","0","65","65","65","0","0","65","0","65","0","0","65","65","Mon Oct 17 20:09:17 2022","The main experiment item","yes","SternbergTask.osexp","C:\Users\Melissa\OneDrive\Desktop\ADVANCED QUANT\LAB 3.1","no","mono","no","18","no","white","no","no","768","legacy","53","11","C:/Users/Melissa/OneDrive/Desktop/ADVANCED QUANT/LAB 3.2/MM-subject-3.1.csv","legacy","2 4 6 9","Lentiform Loewenfeld","3.3.12","3","y","0","left","left","left","NA","left","645","3227","6907","NA","645","2","legacy","4","1024","2","48000","-16","experiment","3","odd","6","407639","408733","85008","408735","410942","389233","2959","78101","409737","6187","412943","NA","2948","412943","413589","Sternberg Task","62","48866","66","yes","1024"
"94.02985074626865","94.02985074626865","741.6865671641791","741.6865671641791","black","experiment","legacy","legacy","legacy","0","uniform","1","undefined","1","right","66","66","0","66","66","66","0","0","66","0","66","0","0","66","66","Mon Oct 17 20:09:17 2022","The main experiment item","yes","SternbergTask.osexp","C:\Users\Melissa\OneDrive\Desktop\ADVANCED QUANT\LAB 3.1","no","mono","no","18","no","white","no","no","768","legacy","54","11","C:/Users/Melissa/OneDrive/Desktop/ADVANCED QUANT/LAB 3.2/MM-subject-3.1.csv","legacy","4 2 7 6 1 3","Lentiform Loewenfeld","3.3.12","0","n","0","right","left","left","NA","right","827","3227","6907","NA","827","2","legacy","6","1024","2","48000","-16","experiment","3","odd","8","413595","414693","85008","414694","416900","389233","2959","78101","415696","6187","418901","NA","2948","418901","419729","Sternberg Task","63","49693","67","yes","1024"
"94.11764705882354","94.11764705882354","739.8970588235294","739.8970588235294","black","experiment","legacy","legacy","legacy","0","uniform","1","undefined","1","right","67","67","0","67","67","67","0","0","67","0","67","0","0","67","67","Mon Oct 17 20:09:17 2022","The main experiment item","yes","SternbergTask.osexp","C:\Users\Melissa\OneDrive\Desktop\ADVANCED QUANT\LAB 3.1","no","mono","no","18","no","white","no","no","768","legacy","55","11","C:/Users/Melissa/OneDrive/Desktop/ADVANCED QUANT/LAB 3.2/MM-subject-3.1.csv","legacy","9","Lentiform Loewenfeld","3.3.12","0","n","0","right","left","left","NA","right","620","3227","6907","NA","620","2","legacy","1","1024","2","48000","-16","experiment","3","odd","6","419736","420838","85008","420840","423045","389233","2959","78101","421841","6187","425046","NA","2948","425046","425667","Sternberg Task","64","50313","68","yes","1024"
"94.20289855072464","94.20289855072464","746.1304347826087","746.1304347826087","black","experiment","legacy","legacy","legacy","0","uniform","1","undefined","1","right","68","68","0","68","68","68","0","0","68","0","68","0","0","68","68","Mon Oct 17 20:09:17 2022","The main experiment item","yes","SternbergTask.osexp","C:\Users\Melissa\OneDrive\Desktop\ADVANCED QUANT\LAB 3.1","no","mono","no","18","no","white","no","no","768","legacy","56","11","C:/Users/Melissa/OneDrive/Desktop/ADVANCED QUANT/LAB 3.2/MM-subject-3.1.csv","legacy","7 1 5 6 3","Lentiform Loewenfeld","3.3.12","0","n","0","right","left","left","NA","right","1170","3227","6907","NA","1170","2","legacy","5","1024","2","48000","-16","experiment","3","odd","8","425675","426770","85008","426772","428977","389233","2959","78101","427773","6187","430978","NA","2948","430978","432149","Sternberg Task","65","51483","69","yes","1024"
"94.28571428571429","94.28571428571429","743.2428571428571","743.2428571428571","black","experiment","legacy","legacy","legacy","0","uniform","1","undefined","1","left","69","69","0","69","69","69","0","0","69","0","69","0","0","69","69","Mon Oct 17 20:09:17 2022","The main experiment item","yes","SternbergTask.osexp","C:\Users\Melissa\OneDrive\Desktop\ADVANCED QUANT\LAB 3.1","no","mono","no","18","no","white","no","no","768","legacy","57","11","C:/Users/Melissa/OneDrive/Desktop/ADVANCED QUANT/LAB 3.2/MM-subject-3.1.csv","legacy","3 4","Lentiform Loewenfeld","3.3.12","1","y","0","left","left","left","NA","left","544","3227","6907","NA","544","2","legacy","2","1024","2","48000","-16","experiment","3","odd","3","432166","433280","85008","433284","435490","389233","2959","78101","434286","6187","437492","NA","2948","437492","438037","Sternberg Task","66","52027","70","yes","1024"
"94.36619718309859","94.36619718309859","740.2957746478874","740.2957746478874","black","experiment","legacy","legacy","legacy","0","uniform","1","undefined","1","left","70","70","0","70","70","70","0","0","70","0","70","0","0","70","70","Mon Oct 17 20:09:17 2022","The main experiment item","yes","SternbergTask.osexp","C:\Users\Melissa\OneDrive\Desktop\ADVANCED QUANT\LAB 3.1","no","mono","no","18","no","white","no","no","768","legacy","58","11","C:/Users/Melissa/OneDrive/Desktop/ADVANCED QUANT/LAB 3.2/MM-subject-3.1.csv","legacy","7 2 3","Lentiform Loewenfeld","3.3.12","3","y","0","left","left","left","NA","left","534","3227","6907","NA","534","2","legacy","3","1024","2","48000","-16","experiment","3","odd","3","438042","439138","85008","439140","441345","389233","2959","78101","440141","6187","443346","NA","2948","443346","443880","Sternberg Task","67","52561","71","yes","1024"
"94.44444444444444","94.44444444444444","741.2916666666666","741.2916666666666","black","experiment","legacy","legacy","legacy","0","uniform","1","undefined","1","right","71","71","0","71","71","71","0","0","71","0","71","0","0","71","71","Mon Oct 17 20:09:17 2022","The main experiment item","yes","SternbergTask.osexp","C:\Users\Melissa\OneDrive\Desktop\ADVANCED QUANT\LAB 3.1","no","mono","no","18","no","white","no","no","768","legacy","59","11","C:/Users/Melissa/OneDrive/Desktop/ADVANCED QUANT/LAB 3.2/MM-subject-3.1.csv","legacy","3 9 1","Lentiform Loewenfeld","3.3.12","0","n","0","right","left","left","NA","right","812","3227","6907","NA","812","2","legacy","3","1024","2","48000","-16","experiment","3","odd","7","443896","444992","85008","444994","447200","389233","2959","78101","445995","6187","449201","NA","2948","449201","450013","Sternberg Task","68","53373","72","yes","1024"
"94.52054794520548","94.52054794520548","742.1643835616438","742.1643835616438","black","experiment","legacy","legacy","legacy","0","uniform","1","undefined","1","left","72","72","0","72","72","72","0","0","72","0","72","0","0","72","72","Mon Oct 17 20:09:17 2022","The main experiment item","yes","SternbergTask.osexp","C:\Users\Melissa\OneDrive\Desktop\ADVANCED QUANT\LAB 3.1","no","mono","no","18","no","white","no","no","768","legacy","60","11","C:/Users/Melissa/OneDrive/Desktop/ADVANCED QUANT/LAB 3.2/MM-subject-3.1.csv","legacy","8 1 6","Lentiform Loewenfeld","3.3.12","3","y","0","left","left","left","NA","left","805","3227","6907","NA","805","2","legacy","3","1024","2","48000","-16","experiment","3","odd","6","450025","451126","85008","451128","453335","389233","2959","78101","452130","6187","455336","NA","2948","455336","456142","Sternberg Task","69","54178","73","yes","1024"
"94.5945945945946","94.5945945945946","738.9864864864865","738.9864864864865","black","experiment","legacy","legacy","legacy","0","uniform","1","undefined","1","right","73","73","0","73","73","73","0","0","73","0","73","0","0","73","73","Mon Oct 17 20:09:17 2022","The main experiment item","yes","SternbergTask.osexp","C:\Users\Melissa\OneDrive\Desktop\ADVANCED QUANT\LAB 3.1","no","mono","no","18","no","white","no","no","768","legacy","61","11","C:/Users/Melissa/OneDrive/Desktop/ADVANCED QUANT/LAB 3.2/MM-subject-3.1.csv","legacy","4 2 6 9","Lentiform Loewenfeld","3.3.12","0","n","0","right","left","left","NA","right","507","3227","6907","NA","507","2","legacy","4","1024","2","48000","-16","experiment","3","odd","7","456148","457258","85008","457264","459470","389233","2959","78101","458265","6187","461471","NA","2948","461471","461979","Sternberg Task","70","54685","74","yes","1024"
"94.66666666666667","94.66666666666667","738.5066666666667","738.5066666666667","black","experiment","legacy","legacy","legacy","0","uniform","1","undefined","1","right","74","74","0","74","74","74","0","0","74","0","74","0","0","74","74","Mon Oct 17 20:09:17 2022","The main experiment item","yes","SternbergTask.osexp","C:\Users\Melissa\OneDrive\Desktop\ADVANCED QUANT\LAB 3.1","no","mono","no","18","no","white","no","no","768","legacy","62","11","C:/Users/Melissa/OneDrive/Desktop/ADVANCED QUANT/LAB 3.2/MM-subject-3.1.csv","legacy","6 2 9 3 8 4","Lentiform Loewenfeld","3.3.12","0","n","0","right","left","left","NA","right","703","3227","6907","NA","703","2","legacy","6","1024","2","48000","-16","experiment","3","odd","1","461994","463134","85008","463138","465344","389233","2959","78101","464140","6187","467345","NA","2948","467345","468049","Sternberg Task","71","55388","75","yes","1024"
"94.73684210526316","94.73684210526316","736.3815789473684","736.3815789473684","black","experiment","legacy","legacy","legacy","0","uniform","1","undefined","1","right","75","75","0","75","75","75","0","0","75","0","75","0","0","75","75","Mon Oct 17 20:09:17 2022","The main experiment item","yes","SternbergTask.osexp","C:\Users\Melissa\OneDrive\Desktop\ADVANCED QUANT\LAB 3.1","no","mono","no","18","no","white","no","no","768","legacy","63","11","C:/Users/Melissa/OneDrive/Desktop/ADVANCED QUANT/LAB 3.2/MM-subject-3.1.csv","legacy","1 7 5 2","Lentiform Loewenfeld","3.3.12","0","n","0","right","left","left","NA","right","577","3227","6907","NA","577","2","legacy","4","1024","2","48000","-16","experiment","3","odd","3","468062","469160","85008","469163","471368","389233","2959","78101","470165","6187","473369","NA","2948","473369","473947","Sternberg Task","72","55965","76","yes","1024"
"94.8051948051948","94.8051948051948","736.2987012987013","736.2987012987013","black","experiment","legacy","legacy","legacy","0","uniform","1","undefined","1","left","76","76","0","76","76","76","0","0","76","0","76","0","0","76","76","Mon Oct 17 20:09:17 2022","The main experiment item","yes","SternbergTask.osexp","C:\Users\Melissa\OneDrive\Desktop\ADVANCED QUANT\LAB 3.1","no","mono","no","18","no","white","no","no","768","legacy","64","11","C:/Users/Melissa/OneDrive/Desktop/ADVANCED QUANT/LAB 3.2/MM-subject-3.1.csv","legacy","3 9 7 6 4","Lentiform Loewenfeld","3.3.12","3","y","0","left","left","left","NA","left","730","3227","6907","NA","730","2","legacy","5","1024","2","48000","-16","experiment","3","odd","7","473954","475053","85008","475054","477260","389233","2959","78101","476056","6187","479261","NA","2948","479261","479992","Sternberg Task","73","56695","77","yes","1024"
"94.87179487179488","94.87179487179488","733.7307692307693","733.7307692307693","black","experiment","legacy","legacy","legacy","0","uniform","1","undefined","1","right","77","77","0","77","77","77","0","0","77","0","77","0","0","77","77","Mon Oct 17 20:09:17 2022","The main experiment item","yes","SternbergTask.osexp","C:\Users\Melissa\OneDrive\Desktop\ADVANCED QUANT\LAB 3.1","no","mono","no","18","no","white","no","no","768","legacy","65","11","C:/Users/Melissa/OneDrive/Desktop/ADVANCED QUANT/LAB 3.2/MM-subject-3.1.csv","legacy","2 7 5","Lentiform Loewenfeld","3.3.12","0","n","0","right","left","left","NA","right","536","3227","6907","NA","536","2","legacy","3","1024","2","48000","-16","experiment","3","odd","8","479999","481092","85008","481093","483299","389233","2959","78101","482095","6187","485300","NA","2948","485300","485837","Sternberg Task","74","57231","78","yes","1024"
"94.9367088607595","94.9367088607595","730.0759493670886","730.0759493670886","black","experiment","legacy","legacy","legacy","0","uniform","1","undefined","1","right","78","78","0","78","78","78","0","0","78","0","78","0","0","78","78","Mon Oct 17 20:09:17 2022","The main experiment item","yes","SternbergTask.osexp","C:\Users\Melissa\OneDrive\Desktop\ADVANCED QUANT\LAB 3.1","no","mono","no","18","no","white","no","no","768","legacy","66","11","C:/Users/Melissa/OneDrive/Desktop/ADVANCED QUANT/LAB 3.2/MM-subject-3.1.csv","legacy","1","Lentiform Loewenfeld","3.3.12","0","n","0","right","left","left","NA","right","445","3227","6907","NA","445","2","legacy","1","1024","2","48000","-16","experiment","3","odd","7","485844","486951","85008","486953","489162","389233","2959","78101","487958","6187","491167","NA","2948","491168","491614","Sternberg Task","75","57676","79","yes","1024"
"95","95","729.1","729.1","black","experiment","legacy","legacy","legacy","0","uniform","1","undefined","1","right","79","79","0","79","79","79","0","0","79","0","79","0","0","79","79","Mon Oct 17 20:09:17 2022","The main experiment item","yes","SternbergTask.osexp","C:\Users\Melissa\OneDrive\Desktop\ADVANCED QUANT\LAB 3.1","no","mono","no","18","no","white","no","no","768","legacy","67","11","C:/Users/Melissa/OneDrive/Desktop/ADVANCED QUANT/LAB 3.2/MM-subject-3.1.csv","legacy","8 4 3 5","Lentiform Loewenfeld","3.3.12","0","n","0","right","left","left","NA","right","652","3227","6907","NA","652","2","legacy","4","1024","2","48000","-16","experiment","3","odd","6","491631","492725","85008","492726","494933","389233","2959","78101","493729","6187","496934","NA","2948","496934","497587","Sternberg Task","76","58328","80","yes","1024"
"95.06172839506173","95.06172839506173","726.9753086419753","726.9753086419753","black","experiment","legacy","legacy","legacy","0","uniform","1","undefined","1","right","80","80","0","80","80","80","0","0","80","0","80","0","0","80","80","Mon Oct 17 20:09:17 2022","The main experiment item","yes","SternbergTask.osexp","C:\Users\Melissa\OneDrive\Desktop\ADVANCED QUANT\LAB 3.1","no","mono","no","18","no","white","no","no","768","legacy","68","11","C:/Users/Melissa/OneDrive/Desktop/ADVANCED QUANT/LAB 3.2/MM-subject-3.1.csv","legacy","5 2","Lentiform Loewenfeld","3.3.12","0","n","0","right","left","left","NA","right","557","3227","6907","NA","557","2","legacy","2","1024","2","48000","-16","experiment","3","odd","7","497591","498699","85008","498701","500908","389233","2959","78101","499703","6187","502910","NA","2948","502910","503468","Sternberg Task","77","58885","81","yes","1024"
"95.1219512195122","95.1219512195122","725.219512195122","725.219512195122","black","experiment","legacy","legacy","legacy","0","uniform","1","undefined","1","right","81","81","0","81","81","81","0","0","81","0","81","0","0","81","81","Mon Oct 17 20:09:17 2022","The main experiment item","yes","SternbergTask.osexp","C:\Users\Melissa\OneDrive\Desktop\ADVANCED QUANT\LAB 3.1","no","mono","no","18","no","white","no","no","768","legacy","69","11","C:/Users/Melissa/OneDrive/Desktop/ADVANCED QUANT/LAB 3.2/MM-subject-3.1.csv","legacy","2 8 9 4 1","Lentiform Loewenfeld","3.3.12","0","n","0","right","left","left","NA","right","583","3227","6907","NA","583","2","legacy","5","1024","2","48000","-16","experiment","3","odd","5","503473","504565","85008","504567","506772","389233","2959","78101","505568","6187","508773","NA","2948","508773","509357","Sternberg Task","78","59468","82","yes","1024"
"95.18072289156626","95.18072289156626","729.3012048192771","729.3012048192771","black","experiment","legacy","legacy","legacy","0","uniform","1","undefined","1","right","82","82","0","82","82","82","0","0","82","0","82","0","0","82","82","Mon Oct 17 20:09:17 2022","The main experiment item","yes","SternbergTask.osexp","C:\Users\Melissa\OneDrive\Desktop\ADVANCED QUANT\LAB 3.1","no","mono","no","18","no","white","no","no","768","legacy","70","11","C:/Users/Melissa/OneDrive/Desktop/ADVANCED QUANT/LAB 3.2/MM-subject-3.1.csv","legacy","7 4 2 8 1 9","Lentiform Loewenfeld","3.3.12","0","n","0","right","left","left","NA","right","1064","3227","6907","NA","1064","2","legacy","6","1024","2","48000","-16","experiment","3","odd","5","509365","510462","85008","510464","512671","389233","2959","78101","511466","6187","514672","NA","2948","514672","515737","Sternberg Task","79","60532","83","yes","1024"
"95.23809523809524","95.23809523809524","736.1547619047619","736.1547619047619","black","experiment","legacy","legacy","legacy","0","uniform","1","undefined","1","left","83","83","0","83","83","83","0","0","83","0","83","0","0","83","83","Mon Oct 17 20:09:17 2022","The main experiment item","yes","SternbergTask.osexp","C:\Users\Melissa\OneDrive\Desktop\ADVANCED QUANT\LAB 3.1","no","mono","no","18","no","white","no","no","768","legacy","71","11","C:/Users/Melissa/OneDrive/Desktop/ADVANCED QUANT/LAB 3.2/MM-subject-3.1.csv","legacy","2 5 4 8 7","Lentiform Loewenfeld","3.3.12","3","y","0","left","left","left","NA","left","1305","3227","6907","NA","1305","2","legacy","5","1024","2","48000","-16","experiment","3","odd","4","515746","516869","85008","516871","519077","389233","2959","78101","517872","6187","521078","NA","2948","521078","522384","Sternberg Task","80","61837","84","yes","1024"
"95.29411764705883","95.29411764705883","733.3058823529411","733.3058823529411","black","experiment","legacy","legacy","legacy","0","uniform","1","undefined","1","left","84","84","0","84","84","84","0","0","84","0","84","0","0","84","84","Mon Oct 17 20:09:17 2022","The main experiment item","yes","SternbergTask.osexp","C:\Users\Melissa\OneDrive\Desktop\ADVANCED QUANT\LAB 3.1","no","mono","no","18","no","white","no","no","768","legacy","72","11","C:/Users/Melissa/OneDrive/Desktop/ADVANCED QUANT/LAB 3.2/MM-subject-3.1.csv","legacy","1 4 9 3 2 5","Lentiform Loewenfeld","3.3.12","3","y","0","left","left","left","NA","left","494","3227","6907","NA","494","2","legacy","6","1024","2","48000","-16","experiment","3","odd","9","522406","523540","85008","523542","525746","389233","2959","78101","524543","6187","527749","NA","2948","527749","528244","Sternberg Task","81","62331","85","yes","1024"
"95.34883720930233","95.34883720930233","732.3023255813954","732.3023255813954","black","experiment","legacy","legacy","legacy","0","uniform","1","undefined","1","right","85","85","0","85","85","85","0","0","85","0","85","0","0","85","85","Mon Oct 17 20:09:17 2022","The main experiment item","yes","SternbergTask.osexp","C:\Users\Melissa\OneDrive\Desktop\ADVANCED QUANT\LAB 3.1","no","mono","no","18","no","white","no","no","768","legacy","73","11","C:/Users/Melissa/OneDrive/Desktop/ADVANCED QUANT/LAB 3.2/MM-subject-3.1.csv","legacy","1 8 7","Lentiform Loewenfeld","3.3.12","0","n","0","right","left","left","NA","right","647","3227","6907","NA","647","2","legacy","3","1024","2","48000","-16","experiment","3","odd","4","528269","529361","85008","529364","531570","389233","2959","78101","530365","6187","533575","NA","2948","533575","534223","Sternberg Task","82","62978","86","yes","1024"
"94.25287356321839","94.25287356321839","746.8735632183908","746.8735632183908","black","experiment","legacy","legacy","legacy","0","uniform","0","undefined","0","right","86","86","0","86","86","86","0","0","86","0","86","0","0","86","86","Mon Oct 17 20:09:17 2022","The main experiment item","yes","SternbergTask.osexp","C:\Users\Melissa\OneDrive\Desktop\ADVANCED QUANT\LAB 3.1","no","mono","no","18","no","white","no","no","768","legacy","74","11","C:/Users/Melissa/OneDrive/Desktop/ADVANCED QUANT/LAB 3.2/MM-subject-3.1.csv","legacy","3 4 2","Lentiform Loewenfeld","3.3.12","0","n","0","None","left","left","NA","None","2000","3227","6907","NA","2000","2","legacy","3","1024","2","48000","-16","experiment","3","odd","5","534231","535328","85008","535330","537536","389233","2959","78101","536331","6187","539537","NA","2948","539537","541537","Sternberg Task","82","64978","87","yes","1024"
"94.31818181818181","94.31818181818181","744.3295454545455","744.3295454545455","black","experiment","legacy","legacy","legacy","0","uniform","1","undefined","1","right","87","87","0","87","87","87","0","0","87","0","87","0","0","87","87","Mon Oct 17 20:09:17 2022","The main experiment item","yes","SternbergTask.osexp","C:\Users\Melissa\OneDrive\Desktop\ADVANCED QUANT\LAB 3.1","no","mono","no","18","no","white","no","no","768","legacy","75","11","C:/Users/Melissa/OneDrive/Desktop/ADVANCED QUANT/LAB 3.2/MM-subject-3.1.csv","legacy","6 9 5","Lentiform Loewenfeld","3.3.12","0","n","0","right","left","left","NA","right","523","3227","6907","NA","523","2","legacy","3","1024","2","48000","-16","experiment","3","odd","8","534231","542668","85008","542670","544875","541543","2959","78101","543671","6187","546876","NA","2948","546876","547399","Sternberg Task","83","65501","88","yes","1024"
"94.38202247191012","94.38202247191012","744.1910112359551","744.1910112359551","black","experiment","legacy","legacy","legacy","0","uniform","1","undefined","1","left","88","88","0","88","88","88","0","0","88","0","88","0","0","88","88","Mon Oct 17 20:09:17 2022","The main experiment item","yes","SternbergTask.osexp","C:\Users\Melissa\OneDrive\Desktop\ADVANCED QUANT\LAB 3.1","no","mono","no","18","no","white","no","no","768","legacy","76","11","C:/Users/Melissa/OneDrive/Desktop/ADVANCED QUANT/LAB 3.2/MM-subject-3.1.csv","legacy","2 3 7 4","Lentiform Loewenfeld","3.3.12","1","y","0","left","left","left","NA","left","732","3227","6907","NA","732","2","legacy","4","1024","2","48000","-16","experiment","3","odd","2","547406","548503","85008","548504","550710","541543","2959","78101","549505","6187","552711","NA","2948","552711","553444","Sternberg Task","84","66233","89","yes","1024"
"94.44444444444444","94.44444444444444","753.5","753.5","black","experiment","legacy","legacy","legacy","0","uniform","1","undefined","1","left","89","89","0","89","89","89","0","0","89","0","89","0","0","89","89","Mon Oct 17 20:09:17 2022","The main experiment item","yes","SternbergTask.osexp","C:\Users\Melissa\OneDrive\Desktop\ADVANCED QUANT\LAB 3.1","no","mono","no","18","no","white","no","no","768","legacy","77","11","C:/Users/Melissa/OneDrive/Desktop/ADVANCED QUANT/LAB 3.2/MM-subject-3.1.csv","legacy","8 5 1 3 9","Lentiform Loewenfeld","3.3.12","4","y","0","left","left","left","NA","left","1582","3227","6907","NA","1582","2","legacy","5","1024","2","48000","-16","experiment","3","odd","3","553461","554566","85008","554570","556775","541543","2959","78101","555571","6187","558776","NA","2948","558776","560359","Sternberg Task","85","67815","90","yes","1024"
"94.50549450549451","94.50549450549451","751.3296703296703","751.3296703296703","black","experiment","legacy","legacy","legacy","0","uniform","1","undefined","1","right","90","90","0","90","90","90","0","0","90","0","90","0","0","90","90","Mon Oct 17 20:09:17 2022","The main experiment item","yes","SternbergTask.osexp","C:\Users\Melissa\OneDrive\Desktop\ADVANCED QUANT\LAB 3.1","no","mono","no","18","no","white","no","no","768","legacy","78","11","C:/Users/Melissa/OneDrive/Desktop/ADVANCED QUANT/LAB 3.2/MM-subject-3.1.csv","legacy","1 6 4","Lentiform Loewenfeld","3.3.12","0","n","0","right","left","left","NA","right","556","3227","6907","NA","556","2","legacy","3","1024","2","48000","-16","experiment","3","odd","7","560366","561502","85008","561504","563709","541543","2959","78101","562505","6187","565710","NA","2948","565710","566267","Sternberg Task","86","68371","91","yes","1024"
"94.56521739130434","94.56521739130434","749.7717391304348","749.7717391304348","black","experiment","legacy","legacy","legacy","0","uniform","1","undefined","1","right","91","91","0","91","91","91","0","0","91","0","91","0","0","91","91","Mon Oct 17 20:09:17 2022","The main experiment item","yes","SternbergTask.osexp","C:\Users\Melissa\OneDrive\Desktop\ADVANCED QUANT\LAB 3.1","no","mono","no","18","no","white","no","no","768","legacy","79","11","C:/Users/Melissa/OneDrive/Desktop/ADVANCED QUANT/LAB 3.2/MM-subject-3.1.csv","legacy","8 9","Lentiform Loewenfeld","3.3.12","0","n","0","right","left","left","NA","right","608","3227","6907","NA","608","2","legacy","2","1024","2","48000","-16","experiment","3","odd","5","566272","567369","85008","567370","569575","541543","2959","78101","568371","6187","571576","NA","2948","571576","572185","Sternberg Task","87","68979","92","yes","1024"
"94.6236559139785","94.6236559139785","749.4516129032259","749.4516129032259","black","experiment","legacy","legacy","legacy","0","uniform","1","undefined","1","right","92","92","0","92","92","92","0","0","92","0","92","0","0","92","92","Mon Oct 17 20:09:17 2022","The main experiment item","yes","SternbergTask.osexp","C:\Users\Melissa\OneDrive\Desktop\ADVANCED QUANT\LAB 3.1","no","mono","no","18","no","white","no","no","768","legacy","80","11","C:/Users/Melissa/OneDrive/Desktop/ADVANCED QUANT/LAB 3.2/MM-subject-3.1.csv","legacy","1 5 3 2 8","Lentiform Loewenfeld","3.3.12","0","n","0","right","left","left","NA","right","720","3227","6907","NA","720","2","legacy","5","1024","2","48000","-16","experiment","3","odd","4","572190","573285","85008","573286","575491","541543","2959","78101","574287","6187","577492","NA","2948","577492","578213","Sternberg Task","88","69699","93","yes","1024"
"94.68085106382979","94.68085106382979","752.1276595744681","752.1276595744681","black","experiment","legacy","legacy","legacy","0","uniform","1","undefined","1","right","93","93","0","93","93","93","0","0","93","0","93","0","0","93","93","Mon Oct 17 20:09:17 2022","The main experiment item","yes","SternbergTask.osexp","C:\Users\Melissa\OneDrive\Desktop\ADVANCED QUANT\LAB 3.1","no","mono","no","18","no","white","no","no","768","legacy","81","11","C:/Users/Melissa/OneDrive/Desktop/ADVANCED QUANT/LAB 3.2/MM-subject-3.1.csv","legacy","1 4 9 3","Lentiform Loewenfeld","3.3.12","0","n","0","right","left","left","NA","right","1001","3227","6907","NA","1001","2","legacy","4","1024","2","48000","-16","experiment","3","odd","5","578220","579313","85008","579315","581524","541543","2959","78101","580319","6187","583525","NA","2948","583525","584527","Sternberg Task","89","70700","94","yes","1024"
"94.73684210526316","94.73684210526316","749.5894736842105","749.5894736842105","black","experiment","legacy","legacy","legacy","0","uniform","1","undefined","1","left","94","94","0","94","94","94","0","0","94","0","94","0","0","94","94","Mon Oct 17 20:09:17 2022","The main experiment item","yes","SternbergTask.osexp","C:\Users\Melissa\OneDrive\Desktop\ADVANCED QUANT\LAB 3.1","no","mono","no","18","no","white","no","no","768","legacy","82","11","C:/Users/Melissa/OneDrive/Desktop/ADVANCED QUANT/LAB 3.2/MM-subject-3.1.csv","legacy","3 5 9 6 2 4","Lentiform Loewenfeld","3.3.12","1","y","0","left","left","left","NA","left","511","3227","6907","NA","511","2","legacy","6","1024","2","48000","-16","experiment","3","odd","3","584532","585646","85008","585647","587853","541543","2959","78101","586649","6187","589854","NA","2948","589854","590365","Sternberg Task","90","71211","95","yes","1024"
"94.79166666666667","94.79166666666667","749.9479166666666","749.9479166666666","black","experiment","legacy","legacy","legacy","0","uniform","1","undefined","1","left","95","95","0","95","95","95","0","0","95","0","95","0","0","95","95","Mon Oct 17 20:09:17 2022","The main experiment item","yes","SternbergTask.osexp","C:\Users\Melissa\OneDrive\Desktop\ADVANCED QUANT\LAB 3.1","no","mono","no","18","no","white","no","no","768","legacy","83","11","C:/Users/Melissa/OneDrive/Desktop/ADVANCED QUANT/LAB 3.2/MM-subject-3.1.csv","legacy","9 5 8 1","Lentiform Loewenfeld","3.3.12","2","y","0","left","left","left","NA","left","784","3227","6907","NA","784","2","legacy","4","1024","2","48000","-16","experiment","3","odd","5","590373","591480","85008","591482","593687","541543","2959","78101","592483","6187","595687","NA","2948","595687","596472","Sternberg Task","91","71995","96","yes","1024"
"94.84536082474227","94.84536082474227","750.2164948453608","750.2164948453608","black","experiment","legacy","legacy","legacy","0","uniform","1","undefined","1","left","96","96","0","96","96","96","0","0","96","0","96","0","0","96","96","Mon Oct 17 20:09:17 2022","The main experiment item","yes","SternbergTask.osexp","C:\Users\Melissa\OneDrive\Desktop\ADVANCED QUANT\LAB 3.1","no","mono","no","18","no","white","no","no","768","legacy","84","11","C:/Users/Melissa/OneDrive/Desktop/ADVANCED QUANT/LAB 3.2/MM-subject-3.1.csv","legacy","9 4 2","Lentiform Loewenfeld","3.3.12","1","y","0","left","left","left","NA","left","776","3227","6907","NA","776","2","legacy","3","1024","2","48000","-16","experiment","3","odd","9","596478","597573","85008","597576","599784","541543","2959","78101","598580","6187","601789","NA","2948","601789","602566","Sternberg Task","92","72771","97","yes","1024"
"94.89795918367346","94.89795918367346","756.765306122449","756.765306122449","black","experiment","legacy","legacy","legacy","0","uniform","1","undefined","1","left","97","97","0","97","97","97","0","0","97","0","97","0","0","97","97","Mon Oct 17 20:09:17 2022","The main experiment item","yes","SternbergTask.osexp","C:\Users\Melissa\OneDrive\Desktop\ADVANCED QUANT\LAB 3.1","no","mono","no","18","no","white","no","no","768","legacy","85","11","C:/Users/Melissa/OneDrive/Desktop/ADVANCED QUANT/LAB 3.2/MM-subject-3.1.csv","legacy","3 5 4 7","Lentiform Loewenfeld","3.3.12","1","y","0","left","left","left","NA","left","1392","3227","6907","NA","1392","2","legacy","4","1024","2","48000","-16","experiment","3","odd","3","602579","603698","85008","603704","605910","541543","2959","78101","604705","6187","607911","NA","2948","607912","609305","Sternberg Task","93","74163","98","yes","1024"
"94.94949494949495","94.94949494949495","755.1515151515151","755.1515151515151","black","experiment","legacy","legacy","legacy","0","uniform","1","undefined","1","left","98","98","0","98","98","98","0","0","98","0","98","0","0","98","98","Mon Oct 17 20:09:17 2022","The main experiment item","yes","SternbergTask.osexp","C:\Users\Melissa\OneDrive\Desktop\ADVANCED QUANT\LAB 3.1","no","mono","no","18","no","white","no","no","768","legacy","86","11","C:/Users/Melissa/OneDrive/Desktop/ADVANCED QUANT/LAB 3.2/MM-subject-3.1.csv","legacy","8 5 3 7 4 6","Lentiform Loewenfeld","3.3.12","6","y","0","left","left","left","NA","left","597","3227","6907","NA","597","2","legacy","6","1024","2","48000","-16","experiment","3","odd","6","609322","610457","85008","610459","612664","541543","2959","78101","611464","6187","614666","NA","2948","614666","615263","Sternberg Task","94","74760","99","yes","1024"
"95","95","753.44","753.44","black","experiment","legacy","legacy","legacy","0","uniform","1","undefined","1","right","99","99","0","99","99","99","0","0","99","0","99","0","0","99","99","Mon Oct 17 20:09:17 2022","The main experiment item","yes","SternbergTask.osexp","C:\Users\Melissa\OneDrive\Desktop\ADVANCED QUANT\LAB 3.1","no","mono","no","18","no","white","no","no","768","legacy","87","11","C:/Users/Melissa/OneDrive/Desktop/ADVANCED QUANT/LAB 3.2/MM-subject-3.1.csv","legacy","8 2 1 4 5 9","Lentiform Loewenfeld","3.3.12","0","n","0","right","left","left","NA","right","584","3227","6907","NA","584","2","legacy","6","1024","2","48000","-16","experiment","3","odd","7","615270","616367","85008","616368","618574","541543","2959","78101","617370","6187","620575","NA","2948","620575","621160","Sternberg Task","95","75344","100","yes","1024"
"94.05940594059406","94.05940594059406","752.4455445544554","752.4455445544554","black","experiment","legacy","legacy","legacy","0","uniform","0","undefined","0","left","100","100","0","100","100","100","0","0","100","0","100","0","0","100","100","Mon Oct 17 20:09:17 2022","The main experiment item","yes","SternbergTask.osexp","C:\Users\Melissa\OneDrive\Desktop\ADVANCED QUANT\LAB 3.1","no","mono","no","18","no","white","no","no","768","legacy","88","11","C:/Users/Melissa/OneDrive/Desktop/ADVANCED QUANT/LAB 3.2/MM-subject-3.1.csv","legacy","9 5 3 8 4","Lentiform Loewenfeld","3.3.12","1","y","0","right","left","left","NA","right","653","3227","6907","NA","653","2","legacy","5","1024","2","48000","-16","experiment","3","odd","9","621167","622264","85008","622265","624471","541543","2959","78101","623267","6187","626472","NA","2948","626472","627125","Sternberg Task","95","75997","101","yes","1024"
"94.11764705882354","94.11764705882354","752.3725490196078","752.3725490196078","black","experiment","legacy","legacy","legacy","0","uniform","1","undefined","1","left","101","101","0","101","101","101","0","0","101","0","101","0","0","101","101","Mon Oct 17 20:09:17 2022","The main experiment item","yes","SternbergTask.osexp","C:\Users\Melissa\OneDrive\Desktop\ADVANCED QUANT\LAB 3.1","no","mono","no","18","no","white","no","no","768","legacy","89","11","C:/Users/Melissa/OneDrive/Desktop/ADVANCED QUANT/LAB 3.2/MM-subject-3.1.csv","legacy","8 9 6 1","Lentiform Loewenfeld","3.3.12","2","y","0","left","left","left","NA","left","745","3227","6907","NA","745","2","legacy","4","1024","2","48000","-16","experiment","3","odd","9","621167","628227","85008","628229","630434","627131","2959","78101","629230","6187","632435","NA","2948","632435","633181","Sternberg Task","96","76742","102","yes","1024"
"94.1747572815534","94.1747572815534","749.9417475728155","749.9417475728155","black","experiment","legacy","legacy","legacy","0","uniform","1","undefined","1","left","102","102","0","102","102","102","0","0","102","0","102","0","0","102","102","Mon Oct 17 20:09:17 2022","The main experiment item","yes","SternbergTask.osexp","C:\Users\Melissa\OneDrive\Desktop\ADVANCED QUANT\LAB 3.1","no","mono","no","18","no","white","no","no","768","legacy","90","11","C:/Users/Melissa/OneDrive/Desktop/ADVANCED QUANT/LAB 3.2/MM-subject-3.1.csv","legacy","9 1 7 2","Lentiform Loewenfeld","3.3.12","2","y","0","left","left","left","NA","left","502","3227","6907","NA","502","2","legacy","4","1024","2","48000","-16","experiment","3","odd","1","633187","634284","85008","634285","636491","627131","2959","78101","635287","6187","638492","NA","2948","638492","638995","Sternberg Task","97","77244","103","yes","1024"
"94.23076923076923","94.23076923076923","749.3461538461538","749.3461538461538","black","experiment","legacy","legacy","legacy","0","uniform","1","undefined","1","right","103","103","0","103","103","103","0","0","103","0","103","0","0","103","103","Mon Oct 17 20:09:17 2022","The main experiment item","yes","SternbergTask.osexp","C:\Users\Melissa\OneDrive\Desktop\ADVANCED QUANT\LAB 3.1","no","mono","no","18","no","white","no","no","768","legacy","91","11","C:/Users/Melissa/OneDrive/Desktop/ADVANCED QUANT/LAB 3.2/MM-subject-3.1.csv","legacy","1 7 5 2 9","Lentiform Loewenfeld","3.3.12","0","n","0","right","left","left","NA","right","688","3227","6907","NA","688","2","legacy","5","1024","2","48000","-16","experiment","3","odd","3","639007","640106","85008","640108","642313","627131","2959","78101","641112","6187","644314","NA","2948","644314","645002","Sternberg Task","98","77932","104","yes","1024"
"94.28571428571429","94.28571428571429","747.9428571428572","747.9428571428572","black","experiment","legacy","legacy","legacy","0","uniform","1","undefined","1","right","104","104","0","104","104","104","0","0","104","0","104","0","0","104","104","Mon Oct 17 20:09:17 2022","The main experiment item","yes","SternbergTask.osexp","C:\Users\Melissa\OneDrive\Desktop\ADVANCED QUANT\LAB 3.1","no","mono","no","18","no","white","no","no","768","legacy","92","11","C:/Users/Melissa/OneDrive/Desktop/ADVANCED QUANT/LAB 3.2/MM-subject-3.1.csv","legacy","7 9","Lentiform Loewenfeld","3.3.12","0","n","0","right","left","left","NA","right","602","3227","6907","NA","602","2","legacy","2","1024","2","48000","-16","experiment","3","odd","1","645010","646104","85008","646105","648310","627131","2959","78101","647106","6187","650311","NA","2948","650311","650914","Sternberg Task","99","78534","105","yes","1024"
"93.39622641509433","93.39622641509433","759.7547169811321","759.7547169811321","black","experiment","legacy","legacy","legacy","0","uniform","0","undefined","0","right","105","105","0","105","105","105","0","0","105","0","105","0","0","105","105","Mon Oct 17 20:09:17 2022","The main experiment item","yes","SternbergTask.osexp","C:\Users\Melissa\OneDrive\Desktop\ADVANCED QUANT\LAB 3.1","no","mono","no","18","no","white","no","no","768","legacy","93","11","C:/Users/Melissa/OneDrive/Desktop/ADVANCED QUANT/LAB 3.2/MM-subject-3.1.csv","legacy","6 9 7 3 8 2","Lentiform Loewenfeld","3.3.12","0","n","0","None","left","left","NA","None","2000","3227","6907","NA","2000","2","legacy","6","1024","2","48000","-16","experiment","3","odd","5","650918","652015","85008","652016","654221","627131","2959","78101","653017","6187","656222","NA","2948","656222","658222","Sternberg Task","99","80534","106","yes","1024"
"93.45794392523365","93.45794392523365","759.5514018691589","759.5514018691589","black","experiment","legacy","legacy","legacy","0","uniform","1","undefined","1","right","106","106","0","106","106","106","0","0","106","0","106","0","0","106","106","Mon Oct 17 20:09:17 2022","The main experiment item","yes","SternbergTask.osexp","C:\Users\Melissa\OneDrive\Desktop\ADVANCED QUANT\LAB 3.1","no","mono","no","18","no","white","no","no","768","legacy","94","11","C:/Users/Melissa/OneDrive/Desktop/ADVANCED QUANT/LAB 3.2/MM-subject-3.1.csv","legacy","3 9 8 1 6 4","Lentiform Loewenfeld","3.3.12","0","n","0","right","left","left","NA","right","738","3227","6907","NA","738","2","legacy","6","1024","2","48000","-16","experiment","3","odd","7","650918","659370","85008","659373","661581","658234","2959","78101","660377","6187","663582","NA","2948","663582","664321","Sternberg Task","100","81272","107","yes","1024"
"93.51851851851852","93.51851851851852","759.0555555555555","759.0555555555555","black","experiment","legacy","legacy","legacy","0","uniform","1","undefined","1","left","107","107","0","107","107","107","0","0","107","0","107","0","0","107","107","Mon Oct 17 20:09:17 2022","The main experiment item","yes","SternbergTask.osexp","C:\Users\Melissa\OneDrive\Desktop\ADVANCED QUANT\LAB 3.1","no","mono","no","18","no","white","no","no","768","legacy","95","11","C:/Users/Melissa/OneDrive/Desktop/ADVANCED QUANT/LAB 3.2/MM-subject-3.1.csv","legacy","7 8 6 3 1","Lentiform Loewenfeld","3.3.12","5","y","0","left","left","left","NA","left","706","3227","6907","NA","706","2","legacy","5","1024","2","48000","-16","experiment","3","odd","1","664328","665431","85008","665433","667641","658234","2959","78101","666437","6187","669642","NA","2948","669642","670349","Sternberg Task","101","81978","108","yes","1024"
"93.57798165137615","93.57798165137615","759.8440366972477","759.8440366972477","black","experiment","legacy","legacy","legacy","0","uniform","1","undefined","1","left","108","108","0","108","108","108","0","0","108","0","108","0","0","108","108","Mon Oct 17 20:09:17 2022","The main experiment item","yes","SternbergTask.osexp","C:\Users\Melissa\OneDrive\Desktop\ADVANCED QUANT\LAB 3.1","no","mono","no","18","no","white","no","no","768","legacy","96","11","C:/Users/Melissa/OneDrive/Desktop/ADVANCED QUANT/LAB 3.2/MM-subject-3.1.csv","legacy","5 7 8 2 3 8","Lentiform Loewenfeld","3.3.12","5","y","0","left","left","left","NA","left","845","3227","6907","NA","845","2","legacy","6","1024","2","48000","-16","experiment","3","odd","3","670356","671486","85008","671487","673696","658234","2959","78101","672492","6187","675697","NA","2948","675697","676543","Sternberg Task","102","82823","109","yes","1024"
"93.63636363636364","93.63636363636364","758.2636363636364","758.2636363636364","black","experiment","legacy","legacy","legacy","0","uniform","1","undefined","1","left","109","109","0","109","109","109","0","0","109","0","109","0","0","109","109","Mon Oct 17 20:09:17 2022","The main experiment item","yes","SternbergTask.osexp","C:\Users\Melissa\OneDrive\Desktop\ADVANCED QUANT\LAB 3.1","no","mono","no","18","no","white","no","no","768","legacy","97","11","C:/Users/Melissa/OneDrive/Desktop/ADVANCED QUANT/LAB 3.2/MM-subject-3.1.csv","legacy","7 1 3","Lentiform Loewenfeld","3.3.12","2","y","0","left","left","left","NA","left","586","3227","6907","NA","586","2","legacy","3","1024","2","48000","-16","experiment","3","odd","1","676553","677665","85008","677667","679872","658234","2959","78101","678668","6187","681873","NA","2948","681873","682460","Sternberg Task","103","83409","110","yes","1024"
"93.69369369369369","93.69369369369369","760.918918918919","760.918918918919","black","experiment","legacy","legacy","legacy","0","uniform","1","undefined","1","right","110","110","0","110","110","110","0","0","110","0","110","0","0","110","110","Mon Oct 17 20:09:17 2022","The main experiment item","yes","SternbergTask.osexp","C:\Users\Melissa\OneDrive\Desktop\ADVANCED QUANT\LAB 3.1","no","mono","no","18","no","white","no","no","768","legacy","98","11","C:/Users/Melissa/OneDrive/Desktop/ADVANCED QUANT/LAB 3.2/MM-subject-3.1.csv","legacy","1 7 8 3 9","Lentiform Loewenfeld","3.3.12","0","n","0","right","left","left","NA","right","1053","3227","6907","NA","1053","2","legacy","5","1024","2","48000","-16","experiment","3","odd","2","682473","683568","85008","683569","685779","658234","2959","78101","684575","6187","687780","NA","2948","687780","688834","Sternberg Task","104","84462","111","yes","1024"
