"acc","accuracy","average_response_time","avg_rt","background","block","canvas_backend","clock_backend","color_backend","correct","correct_instruction1","correct_new_keyboard_response","correct_response","count_ISI","count_correctFeedback","count_expSequence","count_experiment","count_experimentLoop","count_fixation","count_incorrectFeedback","count_instruction1","count_instructions2","count_memorySet","count_new_keyboard_response","count_new_logger","count_practiceLoop","count_probe","count_thankYou","datetime","description","disable_garbage_collection","experiment_file","experiment_path","font_bold","font_family","font_italic","font_size","font_underline","foreground","form_clicks","fullscreen","height","keyboard_backend","live_row","live_row_practiceLoop","logfile","mouse_backend","numberSet","opensesame_codename","opensesame_version","posInSet","present","repeat_cycle","response","response_instruction1","response_instructions2","response_new_keyboard_response","response_thankYou","response_time","response_time_instruction1","response_time_instructions2","response_time_new_keyboard_response","response_time_thankYou","round_decimals","sampler_backend","setSize","sound_buf_size","sound_channels","sound_freq","sound_sample_size","start","subject_nr","subject_parity","target","time_ISI","time_correctFeedback","time_expSequence","time_experiment","time_experimentLoop","time_fixation","time_incorrectFeedback","time_instruction1","time_instructions2","time_memorySet","time_new_keyboard_response","time_new_logger","time_practiceLoop","time_probe","time_thankYou","title","total_correct","total_response_time","total_responses","width"
"100","100","989","989","black","practice","legacy","legacy","legacy","1","undefined","1","right","0","0","0","0","0","0","0","0","0","0","0","0","0","0","0","Wed Oct 11 10:50:41 2023","The main experiment item","True","SternbergTask.osexp","/Users/test/Desktop","False","mono","False","18","no","white","no","yes","768","legacy","0","0","/Users/test/Desktop/AT-subject-1.csv","legacy","5 7 8 4 1 2","Melodramatic Milgram","4.0.5","0","n","0","right","left","NA","right","NA","989.0","53851","NA","989","NA","2","legacy","6","1024","2","48000","-16","experiment","1","odd","6","59787","NA","57572","2991","NA","57579","NA","3050","NA","58583","61790","62780","57018","61790","NA","Sternberg Task","1","989.0","1","1024"
"100","100","958","958","black","practice","legacy","legacy","legacy","1","undefined","1","right","1","1","1","0","0","1","1","0","0","1","1","1","0","1","0","Wed Oct 11 10:50:41 2023","The main experiment item","True","SternbergTask.osexp","/Users/test/Desktop","False","mono","False","18","no","white","no","yes","768","legacy","1","1","/Users/test/Desktop/AT-subject-1.csv","legacy","3 1 9 4","Melodramatic Milgram","4.0.5","0","n","0","right","left","NA","right","NA","928.0","53851","NA","928","NA","2","legacy","4","1024","2","48000","-16","experiment","1","odd","6","66081","62817","63872","2991","NA","63875","NA","3050","NA","64878","68085","69014","57018","68085","NA","Sternberg Task","2","1917.0","2","1024"
"100","100","904","904","black","practice","legacy","legacy","legacy","1","undefined","1","right","2","2","2","0","0","2","2","0","0","2","2","2","0","2","0","Wed Oct 11 10:50:41 2023","The main experiment item","True","SternbergTask.osexp","/Users/test/Desktop","False","mono","False","18","no","white","no","yes","768","legacy","2","2","/Users/test/Desktop/AT-subject-1.csv","legacy","9 6 7 4 5","Melodramatic Milgram","4.0.5","0","n","0","right","left","NA","right","NA","795.0","53851","NA","795","NA","2","legacy","5","1024","2","48000","-16","experiment","1","odd","3","72274","69017","70065","2991","NA","70068","NA","3050","NA","71071","74277","75073","57018","74276","NA","Sternberg Task","3","2712.0","3","1024"
"100","100","855","855","black","practice","legacy","legacy","legacy","1","undefined","1","left","3","3","3","0","0","3","3","0","0","3","3","3","0","3","0","Wed Oct 11 10:50:41 2023","The main experiment item","True","SternbergTask.osexp","/Users/test/Desktop","False","mono","False","18","no","white","no","yes","768","legacy","3","3","/Users/test/Desktop/AT-subject-1.csv","legacy","4 8","Melodramatic Milgram","4.0.5","1","y","0","left","left","NA","left","NA","709.0","53851","NA","709","NA","2","legacy","2","1024","2","48000","-16","experiment","1","odd","4","78334","75077","76125","2991","NA","76128","NA","3050","NA","77132","80337","81048","57018","80336","NA","Sternberg Task","4","3421.0","4","1024"
"100","100","858","858","black","practice","legacy","legacy","legacy","1","undefined","1","left","4","4","4","0","0","4","4","0","0","4","4","4","0","4","0","Wed Oct 11 10:50:41 2023","The main experiment item","True","SternbergTask.osexp","/Users/test/Desktop","False","mono","False","18","no","white","no","yes","768","legacy","4","4","/Users/test/Desktop/AT-subject-1.csv","legacy","1 5 2 9","Melodramatic Milgram","4.0.5","2","y","0","left","left","NA","left","NA","871.0","53851","NA","871","NA","2","legacy","4","1024","2","48000","-16","experiment","1","odd","5","84309","81052","82101","2991","NA","82103","NA","3050","NA","83107","86312","87184","57018","86311","NA","Sternberg Task","5","4292.0","5","1024"
"100","100","844","844","black","practice","legacy","legacy","legacy","1","undefined","1","right","5","5","5","0","0","5","5","0","0","5","5","5","0","5","0","Wed Oct 11 10:50:41 2023","The main experiment item","True","SternbergTask.osexp","/Users/test/Desktop","False","mono","False","18","no","white","no","yes","768","legacy","5","5","/Users/test/Desktop/AT-subject-1.csv","legacy","2 1","Melodramatic Milgram","4.0.5","0","n","0","right","left","NA","right","NA","776.0","53851","NA","776","NA","2","legacy","2","1024","2","48000","-16","experiment","1","odd","5","90444","87187","88236","2991","NA","88238","NA","3050","NA","89241","92446","93223","57018","92446","NA","Sternberg Task","6","5068.0","6","1024"
"100","100","802","802","black","practice","legacy","legacy","legacy","1","undefined","1","right","6","6","6","0","0","6","6","0","0","6","6","6","0","6","0","Wed Oct 11 10:50:41 2023","The main experiment item","True","SternbergTask.osexp","/Users/test/Desktop","False","mono","False","18","no","white","no","yes","768","legacy","6","6","/Users/test/Desktop/AT-subject-1.csv","legacy","5","Melodramatic Milgram","4.0.5","0","n","0","right","left","NA","right","NA","548.0","53851","NA","548","NA","2","legacy","1","1024","2","48000","-16","experiment","1","odd","3","96500","93227","94289","2991","NA","94293","NA","3050","NA","95295","98503","99052","57018","98502","NA","Sternberg Task","7","5616.0","7","1024"
"100","100","794","794","black","practice","legacy","legacy","legacy","1","undefined","1","right","7","7","7","0","0","7","7","0","0","7","7","7","0","7","0","Wed Oct 11 10:50:41 2023","The main experiment item","True","SternbergTask.osexp","/Users/test/Desktop","False","mono","False","18","no","white","no","yes","768","legacy","7","7","/Users/test/Desktop/AT-subject-1.csv","legacy","4 1 5","Melodramatic Milgram","4.0.5","0","n","0","right","left","NA","right","NA","743.0","53851","NA","743","NA","2","legacy","3","1024","2","48000","-16","experiment","1","odd","2","102303","99056","100096","2991","NA","100098","NA","3050","NA","101101","104306","105050","57018","104305","NA","Sternberg Task","8","6359.0","8","1024"
"100","100","828","828","black","practice","legacy","legacy","legacy","1","undefined","1","left","8","8","8","0","0","8","8","0","0","8","8","8","0","8","0","Wed Oct 11 10:50:41 2023","The main experiment item","True","SternbergTask.osexp","/Users/test/Desktop","False","mono","False","18","no","white","no","yes","768","legacy","8","8","/Users/test/Desktop/AT-subject-1.csv","legacy","1 7 9 8 5","Melodramatic Milgram","4.0.5","4","y","0","left","left","NA","left","NA","1097.0","53851","NA","1097","NA","2","legacy","5","1024","2","48000","-16","experiment","1","odd","8","108305","105054","106097","2991","NA","106100","NA","3050","NA","107103","110308","111406","57018","110308","NA","Sternberg Task","9","7456.0","9","1024"
"100","100","801","801","black","practice","legacy","legacy","legacy","1","undefined","1","left","9","9","9","0","0","9","9","0","0","9","9","9","0","9","0","Wed Oct 11 10:50:41 2023","The main experiment item","True","SternbergTask.osexp","/Users/test/Desktop","False","mono","False","18","no","white","no","yes","768","legacy","9","9","/Users/test/Desktop/AT-subject-1.csv","legacy","6","Melodramatic Milgram","4.0.5","1","y","0","left","left","NA","left","NA","557.0","53851","NA","557","NA","2","legacy","1","1024","2","48000","-16","experiment","1","odd","6","114667","111410","112458","2991","NA","112461","NA","3050","NA","113464","116670","117229","57018","116669","NA","Sternberg Task","10","8013.0","10","1024"
"100","100","802","802","black","practice","legacy","legacy","legacy","1","undefined","1","left","10","10","10","0","0","10","10","0","0","10","10","10","0","10","0","Wed Oct 11 10:50:41 2023","The main experiment item","True","SternbergTask.osexp","/Users/test/Desktop","False","mono","False","18","no","white","no","yes","768","legacy","10","10","/Users/test/Desktop/AT-subject-1.csv","legacy","2 9 4","Melodramatic Milgram","4.0.5","3","y","0","left","left","NA","left","NA","813.0","53851","NA","813","NA","2","legacy","3","1024","2","48000","-16","experiment","1","odd","4","120492","117232","118283","2991","NA","118286","NA","3050","NA","119288","122494","123308","57018","122494","NA","Sternberg Task","11","8826.0","11","1024"
"100","100","785","785","black","practice","legacy","legacy","legacy","1","undefined","1","left","11","11","11","0","0","11","11","0","0","11","11","11","0","11","0","Wed Oct 11 10:50:41 2023","The main experiment item","True","SternbergTask.osexp","/Users/test/Desktop","False","mono","False","18","no","white","no","yes","768","legacy","11","11","/Users/test/Desktop/AT-subject-1.csv","legacy","4 3 1 7 9 8","Melodramatic Milgram","4.0.5","1","y","0","left","left","NA","left","NA","599.0","53851","NA","599","NA","2","legacy","6","1024","2","48000","-16","experiment","1","odd","4","126585","123313","124375","2991","NA","124380","NA","3050","NA","125382","128588","129188","57018","128588","NA","Sternberg Task","12","9425.0","12","1024"
"100","100","783","783","black","experiment","legacy","legacy","legacy","1","undefined","1","right","12","12","12","0","0","12","12","0","0","12","12","12","0","12","0","Wed Oct 11 10:50:41 2023","The main experiment item","True","SternbergTask.osexp","/Users/test/Desktop","False","mono","False","18","no","white","no","yes","768","legacy","0","11","/Users/test/Desktop/AT-subject-1.csv","legacy","7 4 2 8 1 9","Melodramatic Milgram","4.0.5","0","n","0","right","left","right","right","NA","765.0","53851","8400","765","NA","2","legacy","6","1024","2","48000","-16","experiment","1","odd","5","140877","129192","138666","2991","138599","138670","NA","3050","130197","139674","142880","143646","57018","142880","NA","Sternberg Task","13","10190.0","13","1024"
"92","92","789","789","black","experiment","legacy","legacy","legacy","0","undefined","0","right","13","13","13","0","0","13","13","0","0","13","13","13","0","13","0","Wed Oct 11 10:50:41 2023","The main experiment item","True","SternbergTask.osexp","/Users/test/Desktop","False","mono","False","18","no","white","no","yes","768","legacy","1","11","/Users/test/Desktop/AT-subject-1.csv","legacy","5 3 2 6 9 8","Melodramatic Milgram","4.0.5","0","n","0","left","left","right","left","NA","866.0","53851","8400","866","NA","2","legacy","6","1024","2","48000","-16","experiment","1","odd","4","146915","143650","144705","2991","138599","144709","NA","3050","130197","145712","148918","149785","57018","148917","NA","Sternberg Task","13","11056.0","14","1024"
"93","93","785","785","black","experiment","legacy","legacy","legacy","1","undefined","1","right","14","14","14","0","0","14","14","0","0","14","14","14","0","14","0","Wed Oct 11 10:50:41 2023","The main experiment item","True","SternbergTask.osexp","/Users/test/Desktop","False","mono","False","18","no","white","no","yes","768","legacy","2","11","/Users/test/Desktop/AT-subject-1.csv","legacy","6 9 7 3 8 2","Melodramatic Milgram","4.0.5","0","n","0","right","left","right","right","NA","733.0","53851","8400","733","NA","2","legacy","6","1024","2","48000","-16","experiment","1","odd","5","153046","143650","150837","2991","138599","150840","149789","3050","130197","151843","155050","155784","57018","155050","NA","Sternberg Task","14","11789.0","15","1024"
"93","93","769","769","black","experiment","legacy","legacy","legacy","1","undefined","1","left","15","15","15","0","0","15","15","0","0","15","15","15","0","15","0","Wed Oct 11 10:50:41 2023","The main experiment item","True","SternbergTask.osexp","/Users/test/Desktop","False","mono","False","18","no","white","no","yes","768","legacy","3","11","/Users/test/Desktop/AT-subject-1.csv","legacy","7 1 3","Melodramatic Milgram","4.0.5","2","y","0","left","left","right","left","NA","529.0","53851","8400","529","NA","2","legacy","3","1024","2","48000","-16","experiment","1","odd","1","159049","155789","156840","2991","138599","156843","149789","3050","130197","157845","161052","161582","57018","161051","NA","Sternberg Task","15","12318.0","16","1024"
"94","94","758","758","black","experiment","legacy","legacy","legacy","1","undefined","1","right","16","16","16","0","0","16","16","0","0","16","16","16","0","16","0","Wed Oct 11 10:50:41 2023","The main experiment item","True","SternbergTask.osexp","/Users/test/Desktop","False","mono","False","18","no","white","no","yes","768","legacy","4","11","/Users/test/Desktop/AT-subject-1.csv","legacy","3 4 2","Melodramatic Milgram","4.0.5","0","n","0","right","left","right","right","NA","577.0","53851","8400","577","NA","2","legacy","3","1024","2","48000","-16","experiment","1","odd","5","164833","161585","162625","2991","138599","162627","149789","3050","130197","163630","166836","167414","57018","166836","NA","Sternberg Task","16","12895.0","17","1024"
"94","94","758","758","black","experiment","legacy","legacy","legacy","1","undefined","1","left","17","17","17","0","0","17","17","0","0","17","17","17","0","17","0","Wed Oct 11 10:50:41 2023","The main experiment item","True","SternbergTask.osexp","/Users/test/Desktop","False","mono","False","18","no","white","no","yes","768","legacy","5","11","/Users/test/Desktop/AT-subject-1.csv","legacy","5 7 3 6 2","Melodramatic Milgram","4.0.5","5","y","0","left","left","right","left","NA","749.0","53851","8400","749","NA","2","legacy","5","1024","2","48000","-16","experiment","1","odd","2","170670","167418","168461","2991","138599","168464","149789","3050","130197","169467","172673","173423","57018","172673","NA","Sternberg Task","17","13644.0","18","1024"
"94","94","753","753","black","experiment","legacy","legacy","legacy","1","undefined","1","right","18","18","18","0","0","18","18","0","0","18","18","18","0","18","0","Wed Oct 11 10:50:41 2023","The main experiment item","True","SternbergTask.osexp","/Users/test/Desktop","False","mono","False","18","no","white","no","yes","768","legacy","6","11","/Users/test/Desktop/AT-subject-1.csv","legacy","4 2 6 9","Melodramatic Milgram","4.0.5","0","n","0","right","left","right","right","NA","664.0","53851","8400","664","NA","2","legacy","4","1024","2","48000","-16","experiment","1","odd","7","176683","173427","174474","2991","138599","174477","149789","3050","130197","175480","178686","179351","57018","178686","NA","Sternberg Task","18","14308.0","19","1024"
"95","95","761","761","black","experiment","legacy","legacy","legacy","1","undefined","1","left","19","19","19","0","0","19","19","0","0","19","19","19","0","19","0","Wed Oct 11 10:50:41 2023","The main experiment item","True","SternbergTask.osexp","/Users/test/Desktop","False","mono","False","18","no","white","no","yes","768","legacy","7","11","/Users/test/Desktop/AT-subject-1.csv","legacy","6 7 8 5","Melodramatic Milgram","4.0.5","3","y","0","left","left","right","left","NA","930.0","53851","8400","930","NA","2","legacy","4","1024","2","48000","-16","experiment","1","odd","8","182635","179356","180426","2991","138599","180429","149789","3050","130197","181431","184638","185569","57018","184638","NA","Sternberg Task","19","15238.0","20","1024"
"95","95","771","771","black","experiment","legacy","legacy","legacy","1","undefined","1","right","20","20","20","0","0","20","20","0","0","20","20","20","0","20","0","Wed Oct 11 10:50:41 2023","The main experiment item","True","SternbergTask.osexp","/Users/test/Desktop","False","mono","False","18","no","white","no","yes","768","legacy","8","11","/Users/test/Desktop/AT-subject-1.csv","legacy","9 7 4 5 8","Melodramatic Milgram","4.0.5","0","n","0","right","left","right","right","NA","973.0","53851","8400","973","NA","2","legacy","5","1024","2","48000","-16","experiment","1","odd","6","188839","185573","186630","2991","138599","186633","149789","3050","130197","187636","190843","191818","57018","190843","NA","Sternberg Task","20","16211.0","21","1024"
"95","95","764","764","black","experiment","legacy","legacy","legacy","1","undefined","1","left","21","21","21","0","0","21","21","0","0","21","21","21","0","21","0","Wed Oct 11 10:50:41 2023","The main experiment item","True","SternbergTask.osexp","/Users/test/Desktop","False","mono","False","18","no","white","no","yes","768","legacy","9","11","/Users/test/Desktop/AT-subject-1.csv","legacy","6 9 3 1","Melodramatic Milgram","4.0.5","4","y","0","left","left","right","left","NA","616.0","53851","8400","616","NA","2","legacy","4","1024","2","48000","-16","experiment","1","odd","1","195097","191822","192888","2991","138599","192891","149789","3050","130197","193894","197100","197717","57018","197099","NA","Sternberg Task","21","16827.0","22","1024"
"95","95","759","759","black","experiment","legacy","legacy","legacy","1","undefined","1","right","22","22","22","0","0","22","22","0","0","22","22","22","0","22","0","Wed Oct 11 10:50:41 2023","The main experiment item","True","SternbergTask.osexp","/Users/test/Desktop","False","mono","False","18","no","white","no","yes","768","legacy","10","11","/Users/test/Desktop/AT-subject-1.csv","legacy","7 9 1 6","Melodramatic Milgram","4.0.5","0","n","0","right","left","right","right","NA","637.0","53851","8400","637","NA","2","legacy","4","1024","2","48000","-16","experiment","1","odd","4","200970","197721","198761","2991","138599","198763","149789","3050","130197","199767","202973","203612","57018","202973","NA","Sternberg Task","22","17464.0","23","1024"
"95","95","750","750","black","experiment","legacy","legacy","legacy","1","undefined","1","left","23","23","23","0","0","23","23","0","0","23","23","23","0","23","0","Wed Oct 11 10:50:41 2023","The main experiment item","True","SternbergTask.osexp","/Users/test/Desktop","False","mono","False","18","no","white","no","yes","768","legacy","11","11","/Users/test/Desktop/AT-subject-1.csv","legacy","9 5 8 1","Melodramatic Milgram","4.0.5","2","y","0","left","left","right","left","NA","548.0","53851","8400","548","NA","2","legacy","4","1024","2","48000","-16","experiment","1","odd","5","206869","203615","204659","2991","138599","204661","149789","3050","130197","205665","208872","209421","57018","208871","NA","Sternberg Task","23","18012.0","24","1024"
"96","96","751","751","black","experiment","legacy","legacy","legacy","1","undefined","1","right","24","24","24","0","0","24","24","0","0","24","24","24","0","24","0","Wed Oct 11 10:50:41 2023","The main experiment item","True","SternbergTask.osexp","/Users/test/Desktop","False","mono","False","18","no","white","no","yes","768","legacy","12","11","/Users/test/Desktop/AT-subject-1.csv","legacy","2 6 4 3 9","Melodramatic Milgram","4.0.5","0","n","0","right","left","right","right","NA","772.0","53851","8400","772","NA","2","legacy","5","1024","2","48000","-16","experiment","1","odd","1","212682","209426","210473","2991","138599","210476","149789","3050","130197","211479","214685","215458","57018","214685","NA","Sternberg Task","24","18784.0","25","1024"
"96","96","747","747","black","experiment","legacy","legacy","legacy","1","undefined","1","left","25","25","25","0","0","25","25","0","0","25","25","25","0","25","0","Wed Oct 11 10:50:41 2023","The main experiment item","True","SternbergTask.osexp","/Users/test/Desktop","False","mono","False","18","no","white","no","yes","768","legacy","13","11","/Users/test/Desktop/AT-subject-1.csv","legacy","8 9 5 7 1 6","Melodramatic Milgram","4.0.5","4","y","0","left","left","right","left","NA","653.0","53851","8400","653","NA","2","legacy","6","1024","2","48000","-16","experiment","1","odd","7","218715","215462","216508","2991","138599","216510","149789","3050","130197","217512","220718","221372","57018","220717","NA","Sternberg Task","25","19437.0","26","1024"
"96","96","746","746","black","experiment","legacy","legacy","legacy","1","undefined","1","left","26","26","26","0","0","26","26","0","0","26","26","26","0","26","0","Wed Oct 11 10:50:41 2023","The main experiment item","True","SternbergTask.osexp","/Users/test/Desktop","False","mono","False","18","no","white","no","yes","768","legacy","14","11","/Users/test/Desktop/AT-subject-1.csv","legacy","6 8 9 3 4 9","Melodramatic Milgram","4.0.5","5","y","0","left","left","right","left","NA","706.0","53851","8400","706","NA","2","legacy","6","1024","2","48000","-16","experiment","1","odd","4","224644","221377","222435","2991","138599","222439","149789","3050","130197","223441","226647","227355","57018","226646","NA","Sternberg Task","26","20143.0","27","1024"
"96","96","743","743","black","experiment","legacy","legacy","legacy","1","undefined","1","right","27","27","27","0","0","27","27","0","0","27","27","27","0","27","0","Wed Oct 11 10:50:41 2023","The main experiment item","True","SternbergTask.osexp","/Users/test/Desktop","False","mono","False","18","no","white","no","yes","768","legacy","15","11","/Users/test/Desktop/AT-subject-1.csv","legacy","1 7 5 2 9","Melodramatic Milgram","4.0.5","0","n","0","right","left","right","right","NA","661.0","53851","8400","661","NA","2","legacy","5","1024","2","48000","-16","experiment","1","odd","3","230663","227359","228454","2991","138599","228457","149789","3050","130197","229460","232666","233329","57018","232666","NA","Sternberg Task","27","20804.0","28","1024"
"96","96","739","739","black","experiment","legacy","legacy","legacy","1","undefined","1","left","28","28","28","0","0","28","28","0","0","28","28","28","0","28","0","Wed Oct 11 10:50:41 2023","The main experiment item","True","SternbergTask.osexp","/Users/test/Desktop","False","mono","False","18","no","white","no","yes","768","legacy","16","11","/Users/test/Desktop/AT-subject-1.csv","legacy","8 9 5 6 7","Melodramatic Milgram","4.0.5","1","y","0","left","left","right","left","NA","645.0","53851","8400","645","NA","2","legacy","5","1024","2","48000","-16","experiment","1","odd","8","236592","233333","234383","2991","138599","234386","149789","3050","130197","235388","238595","239242","57018","238594","NA","Sternberg Task","28","21449.0","29","1024"
"96","96","732","732","black","experiment","legacy","legacy","legacy","1","undefined","1","right","29","29","29","0","0","29","29","0","0","29","29","29","0","29","0","Wed Oct 11 10:50:41 2023","The main experiment item","True","SternbergTask.osexp","/Users/test/Desktop","False","mono","False","18","no","white","no","yes","768","legacy","17","11","/Users/test/Desktop/AT-subject-1.csv","legacy","5 2","Melodramatic Milgram","4.0.5","0","n","0","right","left","right","right","NA","532.0","53851","8400","532","NA","2","legacy","2","1024","2","48000","-16","experiment","1","odd","7","242508","239246","240299","2991","138599","240302","149789","3050","130197","241304","244511","245045","57018","244511","NA","Sternberg Task","29","21981.0","30","1024"
"96","96","727","727","black","experiment","legacy","legacy","legacy","1","undefined","1","right","30","30","30","0","0","30","30","0","0","30","30","30","0","30","0","Wed Oct 11 10:50:41 2023","The main experiment item","True","SternbergTask.osexp","/Users/test/Desktop","False","mono","False","18","no","white","no","yes","768","legacy","18","11","/Users/test/Desktop/AT-subject-1.csv","legacy","4 1","Melodramatic Milgram","4.0.5","0","n","0","right","left","right","right","NA","571.0","53851","8400","571","NA","2","legacy","2","1024","2","48000","-16","experiment","1","odd","6","248306","245049","246097","2991","138599","246100","149789","3050","130197","247103","250308","250881","57018","250308","NA","Sternberg Task","30","22552.0","31","1024"
"96","96","727","727","black","experiment","legacy","legacy","legacy","1","undefined","1","left","31","31","31","0","0","31","31","0","0","31","31","31","0","31","0","Wed Oct 11 10:50:41 2023","The main experiment item","True","SternbergTask.osexp","/Users/test/Desktop","False","mono","False","18","no","white","no","yes","768","legacy","19","11","/Users/test/Desktop/AT-subject-1.csv","legacy","8 5 3 7 4 6","Melodramatic Milgram","4.0.5","6","y","0","left","left","right","left","NA","715.0","53851","8400","715","NA","2","legacy","6","1024","2","48000","-16","experiment","1","odd","6","254143","250885","251933","2991","138599","251936","149789","3050","130197","252939","256146","256862","57018","256146","NA","Sternberg Task","31","23267.0","32","1024"
"96","96","721","721","black","experiment","legacy","legacy","legacy","1","undefined","1","left","32","32","32","0","0","32","32","0","0","32","32","32","0","32","0","Wed Oct 11 10:50:41 2023","The main experiment item","True","SternbergTask.osexp","/Users/test/Desktop","False","mono","False","18","no","white","no","yes","768","legacy","20","11","/Users/test/Desktop/AT-subject-1.csv","legacy","6 5","Melodramatic Milgram","4.0.5","2","y","0","left","left","right","left","NA","529.0","53851","8400","529","NA","2","legacy","2","1024","2","48000","-16","experiment","1","odd","5","260123","256865","257913","2991","138599","257915","149789","3050","130197","258919","262126","262656","57018","262125","NA","Sternberg Task","32","23796.0","33","1024"
"97","97","716","716","black","experiment","legacy","legacy","legacy","1","undefined","1","right","33","33","33","0","0","33","33","0","0","33","33","33","0","33","0","Wed Oct 11 10:50:41 2023","The main experiment item","True","SternbergTask.osexp","/Users/test/Desktop","False","mono","False","18","no","white","no","yes","768","legacy","21","11","/Users/test/Desktop/AT-subject-1.csv","legacy","8 4 3 5","Melodramatic Milgram","4.0.5","0","n","0","right","left","right","right","NA","565.0","53851","8400","565","NA","2","legacy","4","1024","2","48000","-16","experiment","1","odd","6","265927","262660","263717","2991","138599","263720","149789","3050","130197","264724","267930","268496","57018","267930","NA","Sternberg Task","33","24361.0","34","1024"
"97","97","720","720","black","experiment","legacy","legacy","legacy","1","undefined","1","left","34","34","34","0","0","34","34","0","0","34","34","34","0","34","0","Wed Oct 11 10:50:41 2023","The main experiment item","True","SternbergTask.osexp","/Users/test/Desktop","False","mono","False","18","no","white","no","yes","768","legacy","22","11","/Users/test/Desktop/AT-subject-1.csv","legacy","7 2 3","Melodramatic Milgram","4.0.5","3","y","0","left","left","right","left","NA","844.0","53851","8400","844","NA","2","legacy","3","1024","2","48000","-16","experiment","1","odd","3","271748","268500","269539","2991","138599","269542","149789","3050","130197","270545","273751","274596","57018","273750","NA","Sternberg Task","34","25205.0","35","1024"
"97","97","719","719","black","experiment","legacy","legacy","legacy","1","undefined","1","right","35","35","35","0","0","35","35","0","0","35","35","35","0","35","0","Wed Oct 11 10:50:41 2023","The main experiment item","True","SternbergTask.osexp","/Users/test/Desktop","False","mono","False","18","no","white","no","yes","768","legacy","23","11","/Users/test/Desktop/AT-subject-1.csv","legacy","2 7 5","Melodramatic Milgram","4.0.5","0","n","0","right","left","right","right","NA","714.0","53851","8400","714","NA","2","legacy","3","1024","2","48000","-16","experiment","1","odd","8","277851","274599","275642","2991","138599","275645","149789","3050","130197","276648","279854","280570","57018","279853","NA","Sternberg Task","35","25919.0","36","1024"
"97","97","728","728","black","experiment","legacy","legacy","legacy","1","undefined","1","left","36","36","36","0","0","36","36","0","0","36","36","36","0","36","0","Wed Oct 11 10:50:41 2023","The main experiment item","True","SternbergTask.osexp","/Users/test/Desktop","False","mono","False","18","no","white","no","yes","768","legacy","24","11","/Users/test/Desktop/AT-subject-1.csv","legacy","3 2 1 4 7","Melodramatic Milgram","4.0.5","2","y","0","left","left","right","left","NA","1048.0","53851","8400","1048","NA","2","legacy","5","1024","2","48000","-16","experiment","1","odd","2","283831","280574","281622","2991","138599","281624","149789","3050","130197","282628","285834","286883","57018","285833","NA","Sternberg Task","36","26967.0","37","1024"
"97","97","729","729","black","experiment","legacy","legacy","legacy","1","undefined","1","left","37","37","37","0","0","37","37","0","0","37","37","37","0","37","0","Wed Oct 11 10:50:41 2023","The main experiment item","True","SternbergTask.osexp","/Users/test/Desktop","False","mono","False","18","no","white","no","yes","768","legacy","25","11","/Users/test/Desktop/AT-subject-1.csv","legacy","3 9 6 2","Melodramatic Milgram","4.0.5","4","y","0","left","left","right","left","NA","738.0","53851","8400","738","NA","2","legacy","4","1024","2","48000","-16","experiment","1","odd","2","290144","286886","287935","2991","138599","287938","149789","3050","130197","288941","292147","292887","57018","292147","NA","Sternberg Task","37","27705.0","38","1024"
"97","97","731","731","black","experiment","legacy","legacy","legacy","1","undefined","1","left","38","38","38","0","0","38","38","0","0","38","38","38","0","38","0","Wed Oct 11 10:50:41 2023","The main experiment item","True","SternbergTask.osexp","/Users/test/Desktop","False","mono","False","18","no","white","no","yes","768","legacy","26","11","/Users/test/Desktop/AT-subject-1.csv","legacy","4 3 2 5 8","Melodramatic Milgram","4.0.5","2","y","0","left","left","right","left","NA","810.0","53851","8400","810","NA","2","legacy","5","1024","2","48000","-16","experiment","1","odd","3","296147","292890","293938","2991","138599","293941","149789","3050","130197","294944","298150","298961","57018","298150","NA","Sternberg Task","38","28515.0","39","1024"
"97","97","725","725","black","experiment","legacy","legacy","legacy","1","undefined","1","left","39","39","39","0","0","39","39","0","0","39","39","39","0","39","0","Wed Oct 11 10:50:41 2023","The main experiment item","True","SternbergTask.osexp","/Users/test/Desktop","False","mono","False","18","no","white","no","yes","768","legacy","27","11","/Users/test/Desktop/AT-subject-1.csv","legacy","7 6","Melodramatic Milgram","4.0.5","2","y","0","left","left","right","left","NA","493.0","53851","8400","493","NA","2","legacy","2","1024","2","48000","-16","experiment","1","odd","6","302232","298964","300022","2991","138599","300025","149789","3050","130197","301029","304235","304729","57018","304235","NA","Sternberg Task","39","29008.0","40","1024"
"97","97","724","724","black","experiment","legacy","legacy","legacy","1","undefined","1","right","40","40","40","0","0","40","40","0","0","40","40","40","0","40","0","Wed Oct 11 10:50:41 2023","The main experiment item","True","SternbergTask.osexp","/Users/test/Desktop","False","mono","False","18","no","white","no","yes","768","legacy","28","11","/Users/test/Desktop/AT-subject-1.csv","legacy","8 6 3 4 7","Melodramatic Milgram","4.0.5","0","n","0","right","left","right","right","NA","698.0","53851","8400","698","NA","2","legacy","5","1024","2","48000","-16","experiment","1","odd","1","307982","304732","305773","2991","138599","305776","149789","3050","130197","306779","309985","310685","57018","309984","NA","Sternberg Task","40","29706.0","41","1024"
"97","97","721","721","black","experiment","legacy","legacy","legacy","1","undefined","1","left","41","41","41","0","0","41","41","0","0","41","41","41","0","41","0","Wed Oct 11 10:50:41 2023","The main experiment item","True","SternbergTask.osexp","/Users/test/Desktop","False","mono","False","18","no","white","no","yes","768","legacy","29","11","/Users/test/Desktop/AT-subject-1.csv","legacy","7 8 6 3 1","Melodramatic Milgram","4.0.5","5","y","0","left","left","right","left","NA","600.0","53851","8400","600","NA","2","legacy","5","1024","2","48000","-16","experiment","1","odd","1","313941","310689","311733","2991","138599","311736","149789","3050","130197","312739","315945","316546","57018","315944","NA","Sternberg Task","41","30306.0","42","1024"
"97","97","726","726","black","experiment","legacy","legacy","legacy","1","undefined","1","right","42","42","42","0","0","42","42","0","0","42","42","42","0","42","0","Wed Oct 11 10:50:41 2023","The main experiment item","True","SternbergTask.osexp","/Users/test/Desktop","False","mono","False","18","no","white","no","yes","768","legacy","30","11","/Users/test/Desktop/AT-subject-1.csv","legacy","6 2 9 3 8 4","Melodramatic Milgram","4.0.5","0","n","0","right","left","right","right","NA","930.0","53851","8400","930","NA","2","legacy","6","1024","2","48000","-16","experiment","1","odd","1","319808","316550","317599","2991","138599","317601","149789","3050","130197","318605","321811","322742","57018","321810","NA","Sternberg Task","42","31236.0","43","1024"
"97","97","724","724","black","experiment","legacy","legacy","legacy","1","undefined","1","right","43","43","43","0","0","43","43","0","0","43","43","43","0","43","0","Wed Oct 11 10:50:41 2023","The main experiment item","True","SternbergTask.osexp","/Users/test/Desktop","False","mono","False","18","no","white","no","yes","768","legacy","31","11","/Users/test/Desktop/AT-subject-1.csv","legacy","7 3 2 8","Melodramatic Milgram","4.0.5","0","n","0","right","left","right","right","NA","634.0","53851","8400","634","NA","2","legacy","4","1024","2","48000","-16","experiment","1","odd","4","326001","322745","323792","2991","138599","323795","149789","3050","130197","324798","328004","328640","57018","328004","NA","Sternberg Task","43","31870.0","44","1024"
"97","97","727","727","black","experiment","legacy","legacy","legacy","1","undefined","1","left","44","44","44","0","0","44","44","0","0","44","44","44","0","44","0","Wed Oct 11 10:50:41 2023","The main experiment item","True","SternbergTask.osexp","/Users/test/Desktop","False","mono","False","18","no","white","no","yes","768","legacy","32","11","/Users/test/Desktop/AT-subject-1.csv","legacy","9 1 6 7 8","Melodramatic Milgram","4.0.5","1","y","0","left","left","right","left","NA","872.0","53851","8400","872","NA","2","legacy","5","1024","2","48000","-16","experiment","1","odd","9","331900","328643","329691","2991","138599","329693","149789","3050","130197","330696","333903","334777","57018","333902","NA","Sternberg Task","44","32742.0","45","1024"
"97","97","735","735","black","experiment","legacy","legacy","legacy","1","undefined","1","right","45","45","45","0","0","45","45","0","0","45","45","45","0","45","0","Wed Oct 11 10:50:41 2023","The main experiment item","True","SternbergTask.osexp","/Users/test/Desktop","False","mono","False","18","no","white","no","yes","768","legacy","33","11","/Users/test/Desktop/AT-subject-1.csv","legacy","5 7 3","Melodramatic Milgram","4.0.5","0","n","0","right","left","right","right","NA","1076.0","53851","8400","1076","NA","2","legacy","3","1024","2","48000","-16","experiment","1","odd","9","338048","334780","335838","2991","138599","335841","149789","3050","130197","336845","340051","341128","57018","340050","NA","Sternberg Task","45","33818.0","46","1024"
"97","97","738","738","black","experiment","legacy","legacy","legacy","1","undefined","1","left","46","46","46","0","0","46","46","0","0","46","46","46","0","46","0","Wed Oct 11 10:50:41 2023","The main experiment item","True","SternbergTask.osexp","/Users/test/Desktop","False","mono","False","18","no","white","no","yes","768","legacy","34","11","/Users/test/Desktop/AT-subject-1.csv","legacy","8 3","Melodramatic Milgram","4.0.5","2","y","0","left","left","right","left","NA","878.0","53851","8400","878","NA","2","legacy","2","1024","2","48000","-16","experiment","1","odd","3","344380","341132","342172","2991","138599","342175","149789","3050","130197","343178","346382","347261","57018","346382","NA","Sternberg Task","46","34696.0","47","1024"
"97","97","740","740","black","experiment","legacy","legacy","legacy","1","undefined","1","right","47","47","47","0","0","47","47","0","0","47","47","47","0","47","0","Wed Oct 11 10:50:41 2023","The main experiment item","True","SternbergTask.osexp","/Users/test/Desktop","False","mono","False","18","no","white","no","yes","768","legacy","35","11","/Users/test/Desktop/AT-subject-1.csv","legacy","1 4 3 6 5","Melodramatic Milgram","4.0.5","0","n","0","right","left","right","right","NA","831.0","53851","8400","831","NA","2","legacy","5","1024","2","48000","-16","experiment","1","odd","8","350530","347265","348322","2991","138599","348324","149789","3050","130197","349327","352533","353365","57018","352532","NA","Sternberg Task","47","35527.0","48","1024"
"97","97","734","734","black","experiment","legacy","legacy","legacy","1","undefined","1","left","48","48","48","0","0","48","48","0","0","48","48","48","0","48","0","Wed Oct 11 10:50:41 2023","The main experiment item","True","SternbergTask.osexp","/Users/test/Desktop","False","mono","False","18","no","white","no","yes","768","legacy","36","11","/Users/test/Desktop/AT-subject-1.csv","legacy","2 4 6 9","Melodramatic Milgram","4.0.5","3","y","0","left","left","right","left","NA","472.0","53851","8400","472","NA","2","legacy","4","1024","2","48000","-16","experiment","1","odd","6","356631","353369","354422","2991","138599","354425","149789","3050","130197","355428","358634","359107","57018","358633","NA","Sternberg Task","48","35999.0","49","1024"
"98","98","732","732","black","experiment","legacy","legacy","legacy","1","undefined","1","left","49","49","49","0","0","49","49","0","0","49","49","49","0","49","0","Wed Oct 11 10:50:41 2023","The main experiment item","True","SternbergTask.osexp","/Users/test/Desktop","False","mono","False","18","no","white","no","yes","768","legacy","37","11","/Users/test/Desktop/AT-subject-1.csv","legacy","2 3","Melodramatic Milgram","4.0.5","1","y","0","left","left","right","left","NA","608.0","53851","8400","608","NA","2","legacy","2","1024","2","48000","-16","experiment","1","odd","2","362377","359112","360169","2991","138599","360172","149789","3050","130197","361175","364380","364989","57018","364380","NA","Sternberg Task","49","36607.0","50","1024"
"98","98","729","729","black","experiment","legacy","legacy","legacy","1","undefined","1","left","50","50","50","0","0","50","50","0","0","50","50","50","0","50","0","Wed Oct 11 10:50:41 2023","The main experiment item","True","SternbergTask.osexp","/Users/test/Desktop","False","mono","False","18","no","white","no","yes","768","legacy","38","11","/Users/test/Desktop/AT-subject-1.csv","legacy","3 5 7 1","Melodramatic Milgram","4.0.5","3","y","0","left","left","right","left","NA","587.0","53851","8400","587","NA","2","legacy","4","1024","2","48000","-16","experiment","1","odd","7","368258","364993","366048","2991","138599","366050","149789","3050","130197","367054","370261","370850","57018","370261","NA","Sternberg Task","50","37194.0","51","1024"
"98","98","728","728","black","experiment","legacy","legacy","legacy","1","undefined","1","right","51","51","51","0","0","51","51","0","0","51","51","51","0","51","0","Wed Oct 11 10:50:41 2023","The main experiment item","True","SternbergTask.osexp","/Users/test/Desktop","False","mono","False","18","no","white","no","yes","768","legacy","39","11","/Users/test/Desktop/AT-subject-1.csv","legacy","2 8 6 3 1","Melodramatic Milgram","4.0.5","0","n","0","right","left","right","right","NA","685.0","53851","8400","685","NA","2","legacy","5","1024","2","48000","-16","experiment","1","odd","7","374147","370853","371935","2991","138599","371940","149789","3050","130197","372943","376151","376837","57018","376151","NA","Sternberg Task","51","37879.0","52","1024"
"98","98","728","728","black","experiment","legacy","legacy","legacy","1","undefined","1","right","52","52","52","0","0","52","52","0","0","52","52","52","0","52","0","Wed Oct 11 10:50:41 2023","The main experiment item","True","SternbergTask.osexp","/Users/test/Desktop","False","mono","False","18","no","white","no","yes","768","legacy","40","11","/Users/test/Desktop/AT-subject-1.csv","legacy","2 8 9 4 1","Melodramatic Milgram","4.0.5","0","n","0","right","left","right","right","NA","729.0","53851","8400","729","NA","2","legacy","5","1024","2","48000","-16","experiment","1","odd","5","380090","376841","377881","2991","138599","377883","149789","3050","130197","378887","382093","382823","57018","382092","NA","Sternberg Task","52","38608.0","53","1024"
"98","98","727","727","black","experiment","legacy","legacy","legacy","1","undefined","1","right","53","53","53","0","0","53","53","0","0","53","53","53","0","53","0","Wed Oct 11 10:50:41 2023","The main experiment item","True","SternbergTask.osexp","/Users/test/Desktop","False","mono","False","18","no","white","no","yes","768","legacy","41","11","/Users/test/Desktop/AT-subject-1.csv","legacy","9 8 2 7 4","Melodramatic Milgram","4.0.5","0","n","0","right","left","right","right","NA","689.0","53851","8400","689","NA","2","legacy","5","1024","2","48000","-16","experiment","1","odd","5","386078","382826","383869","2991","138599","383872","149789","3050","130197","384875","388081","388772","57018","388081","NA","Sternberg Task","53","39297.0","54","1024"
"98","98","724","724","black","experiment","legacy","legacy","legacy","1","undefined","1","left","54","54","54","0","0","54","54","0","0","54","54","54","0","54","0","Wed Oct 11 10:50:41 2023","The main experiment item","True","SternbergTask.osexp","/Users/test/Desktop","False","mono","False","18","no","white","no","yes","768","legacy","42","11","/Users/test/Desktop/AT-subject-1.csv","legacy","3 5 9 6 2 4","Melodramatic Milgram","4.0.5","1","y","0","left","left","right","left","NA","559.0","53851","8400","559","NA","2","legacy","6","1024","2","48000","-16","experiment","1","odd","3","392037","388775","389828","2991","138599","389831","149789","3050","130197","390834","394040","394600","57018","394040","NA","Sternberg Task","54","39856.0","55","1024"
"98","98","726","726","black","experiment","legacy","legacy","legacy","1","undefined","1","right","55","55","55","0","0","55","55","0","0","55","55","55","0","55","0","Wed Oct 11 10:50:41 2023","The main experiment item","True","SternbergTask.osexp","/Users/test/Desktop","False","mono","False","18","no","white","no","yes","768","legacy","43","11","/Users/test/Desktop/AT-subject-1.csv","legacy","6 9 5","Melodramatic Milgram","4.0.5","0","n","0","right","left","right","right","NA","839.0","53851","8400","839","NA","2","legacy","3","1024","2","48000","-16","experiment","1","odd","8","397870","394604","395660","2991","138599","395664","149789","3050","130197","396667","399873","400714","57018","399873","NA","Sternberg Task","55","40695.0","56","1024"
"98","98","725","725","black","experiment","legacy","legacy","legacy","1","undefined","1","right","56","56","56","0","0","56","56","0","0","56","56","56","0","56","0","Wed Oct 11 10:50:41 2023","The main experiment item","True","SternbergTask.osexp","/Users/test/Desktop","False","mono","False","18","no","white","no","yes","768","legacy","44","11","/Users/test/Desktop/AT-subject-1.csv","legacy","1 7 8 3 9","Melodramatic Milgram","4.0.5","0","n","0","right","left","right","right","NA","684.0","53851","8400","684","NA","2","legacy","5","1024","2","48000","-16","experiment","1","odd","2","403975","400718","401767","2991","138599","401769","149789","3050","130197","402771","405978","406663","57018","405977","NA","Sternberg Task","56","41379.0","57","1024"
"98","98","724","724","black","experiment","legacy","legacy","legacy","1","undefined","1","left","57","57","57","0","0","57","57","0","0","57","57","57","0","57","0","Wed Oct 11 10:50:41 2023","The main experiment item","True","SternbergTask.osexp","/Users/test/Desktop","False","mono","False","18","no","white","no","yes","768","legacy","45","11","/Users/test/Desktop/AT-subject-1.csv","legacy","2 5 4 8 7","Melodramatic Milgram","4.0.5","3","y","0","left","left","right","left","NA","635.0","53851","8400","635","NA","2","legacy","5","1024","2","48000","-16","experiment","1","odd","4","409934","406666","407724","2991","138599","407727","149789","3050","130197","408731","411937","412574","57018","411937","NA","Sternberg Task","57","42014.0","58","1024"
"98","98","725","725","black","experiment","legacy","legacy","legacy","1","undefined","1","left","58","58","58","0","0","58","58","0","0","58","58","58","0","58","0","Wed Oct 11 10:50:41 2023","The main experiment item","True","SternbergTask.osexp","/Users/test/Desktop","False","mono","False","18","no","white","no","yes","768","legacy","46","11","/Users/test/Desktop/AT-subject-1.csv","legacy","9 5 3 8 4","Melodramatic Milgram","4.0.5","1","y","0","left","left","right","left","NA","772.0","53851","8400","772","NA","2","legacy","5","1024","2","48000","-16","experiment","1","odd","9","415827","412577","413617","2991","138599","413620","149789","3050","130197","414623","417830","418604","57018","417829","NA","Sternberg Task","58","42786.0","59","1024"
"98","98","726","726","black","experiment","legacy","legacy","legacy","1","undefined","1","right","59","59","59","0","0","59","59","0","0","59","59","59","0","59","0","Wed Oct 11 10:50:41 2023","The main experiment item","True","SternbergTask.osexp","/Users/test/Desktop","False","mono","False","18","no","white","no","yes","768","legacy","47","11","/Users/test/Desktop/AT-subject-1.csv","legacy","5 3 8 7 2 4","Melodramatic Milgram","4.0.5","0","n","0","right","left","right","right","NA","810.0","53851","8400","810","NA","2","legacy","6","1024","2","48000","-16","experiment","1","odd","9","421878","418611","419668","2991","138599","419672","149789","3050","130197","420675","423881","424693","57018","423881","NA","Sternberg Task","59","43596.0","60","1024"
"98","98","723","723","black","experiment","legacy","legacy","legacy","1","undefined","1","left","60","60","60","0","0","60","60","0","0","60","60","60","0","60","0","Wed Oct 11 10:50:41 2023","The main experiment item","True","SternbergTask.osexp","/Users/test/Desktop","False","mono","False","18","no","white","no","yes","768","legacy","48","11","/Users/test/Desktop/AT-subject-1.csv","legacy","5 2 6","Melodramatic Milgram","4.0.5","2","y","0","left","left","right","left","NA","541.0","53851","8400","541","NA","2","legacy","3","1024","2","48000","-16","experiment","1","odd","2","427952","424697","425743","2991","138599","425745","149789","3050","130197","426749","429956","430499","57018","429956","NA","Sternberg Task","60","44137.0","61","1024"
"98","98","722","722","black","experiment","legacy","legacy","legacy","1","undefined","1","right","61","61","61","0","0","61","61","0","0","61","61","61","0","61","0","Wed Oct 11 10:50:41 2023","The main experiment item","True","SternbergTask.osexp","/Users/test/Desktop","False","mono","False","18","no","white","no","yes","768","legacy","49","11","/Users/test/Desktop/AT-subject-1.csv","legacy","4 8 1 2","Melodramatic Milgram","4.0.5","0","n","0","right","left","right","right","NA","676.0","53851","8400","676","NA","2","legacy","4","1024","2","48000","-16","experiment","1","odd","7","433758","430503","431549","2991","138599","431552","149789","3050","130197","432555","435761","436439","57018","435760","NA","Sternberg Task","61","44813.0","62","1024"
"98","98","720","720","black","experiment","legacy","legacy","legacy","1","undefined","1","right","62","62","62","0","0","62","62","0","0","62","62","62","0","62","0","Wed Oct 11 10:50:41 2023","The main experiment item","True","SternbergTask.osexp","/Users/test/Desktop","False","mono","False","18","no","white","no","yes","768","legacy","50","11","/Users/test/Desktop/AT-subject-1.csv","legacy","8 5 4 2 9 6","Melodramatic Milgram","4.0.5","0","n","0","right","left","right","right","NA","590.0","53851","8400","590","NA","2","legacy","6","1024","2","48000","-16","experiment","1","odd","3","439696","436442","437487","2991","138599","437490","149789","3050","130197","438493","441700","442291","57018","441699","NA","Sternberg Task","62","45403.0","63","1024"
"98","98","722","722","black","experiment","legacy","legacy","legacy","1","undefined","1","left","63","63","63","0","0","63","63","0","0","63","63","63","0","63","0","Wed Oct 11 10:50:41 2023","The main experiment item","True","SternbergTask.osexp","/Users/test/Desktop","False","mono","False","18","no","white","no","yes","768","legacy","51","11","/Users/test/Desktop/AT-subject-1.csv","legacy","8 1 6","Melodramatic Milgram","4.0.5","3","y","0","left","left","right","left","NA","847.0","53851","8400","847","NA","2","legacy","3","1024","2","48000","-16","experiment","1","odd","6","445575","442295","443365","2991","138599","443368","149789","3050","130197","444370","447578","448427","57018","447578","NA","Sternberg Task","63","46250.0","64","1024"
"98","98","718","718","black","experiment","legacy","legacy","legacy","1","undefined","1","left","64","64","64","0","0","64","64","0","0","64","64","64","0","64","0","Wed Oct 11 10:50:41 2023","The main experiment item","True","SternbergTask.osexp","/Users/test/Desktop","False","mono","False","18","no","white","no","yes","768","legacy","52","11","/Users/test/Desktop/AT-subject-1.csv","legacy","4","Melodramatic Milgram","4.0.5","1","y","0","left","left","right","left","NA","476.0","53851","8400","476","NA","2","legacy","1","1024","2","48000","-16","experiment","1","odd","4","451677","448431","449469","2991","138599","449472","149789","3050","130197","450474","453679","454157","57018","453679","NA","Sternberg Task","64","46726.0","65","1024"
"98","98","717","717","black","experiment","legacy","legacy","legacy","1","undefined","1","left","65","65","65","0","0","65","65","0","0","65","65","65","0","65","0","Wed Oct 11 10:50:41 2023","The main experiment item","True","SternbergTask.osexp","/Users/test/Desktop","False","mono","False","18","no","white","no","yes","768","legacy","53","11","/Users/test/Desktop/AT-subject-1.csv","legacy","4 1 5","Melodramatic Milgram","4.0.5","2","y","0","left","left","right","left","NA","601.0","53851","8400","601","NA","2","legacy","3","1024","2","48000","-16","experiment","1","odd","1","457411","454160","455203","2991","138599","455206","149789","3050","130197","456209","459413","460016","57018","459413","NA","Sternberg Task","65","47327.0","66","1024"
"98","98","715","715","black","experiment","legacy","legacy","legacy","1","undefined","1","left","66","66","66","0","0","66","66","0","0","66","66","66","0","66","0","Wed Oct 11 10:50:41 2023","The main experiment item","True","SternbergTask.osexp","/Users/test/Desktop","False","mono","False","18","no","white","no","yes","768","legacy","54","11","/Users/test/Desktop/AT-subject-1.csv","legacy","7 1 8 5 6 2","Melodramatic Milgram","4.0.5","2","y","0","left","left","right","left","NA","595.0","53851","8400","595","NA","2","legacy","6","1024","2","48000","-16","experiment","1","odd","1","463278","460021","461069","2991","138599","461072","149789","3050","130197","462075","465283","465880","57018","465282","NA","Sternberg Task","66","47922.0","67","1024"
"98","98","714","714","black","experiment","legacy","legacy","legacy","1","undefined","1","right","67","67","67","0","0","67","67","0","0","67","67","67","0","67","0","Wed Oct 11 10:50:41 2023","The main experiment item","True","SternbergTask.osexp","/Users/test/Desktop","False","mono","False","18","no","white","no","yes","768","legacy","55","11","/Users/test/Desktop/AT-subject-1.csv","legacy","3 9 8 1 6 4","Melodramatic Milgram","4.0.5","0","n","0","right","left","right","right","NA","641.0","53851","8400","641","NA","2","legacy","6","1024","2","48000","-16","experiment","1","odd","7","469142","465884","466933","2991","138599","466935","149789","3050","130197","467939","471145","471788","57018","471144","NA","Sternberg Task","67","48563.0","68","1024"
"98","98","711","711","black","experiment","legacy","legacy","legacy","1","undefined","1","right","68","68","68","0","0","68","68","0","0","68","68","68","0","68","0","Wed Oct 11 10:50:41 2023","The main experiment item","True","SternbergTask.osexp","/Users/test/Desktop","False","mono","False","18","no","white","no","yes","768","legacy","56","11","/Users/test/Desktop/AT-subject-1.csv","legacy","9 5 3 2 8 6","Melodramatic Milgram","4.0.5","0","n","0","right","left","right","right","NA","553.0","53851","8400","553","NA","2","legacy","6","1024","2","48000","-16","experiment","1","odd","7","475049","471791","472840","2991","138599","472843","149789","3050","130197","473846","477052","477607","57018","477051","NA","Sternberg Task","68","49116.0","69","1024"
"98","98","712","712","black","experiment","legacy","legacy","legacy","1","undefined","1","right","69","69","69","0","0","69","69","0","0","69","69","69","0","69","0","Wed Oct 11 10:50:41 2023","The main experiment item","True","SternbergTask.osexp","/Users/test/Desktop","False","mono","False","18","no","white","no","yes","768","legacy","57","11","/Users/test/Desktop/AT-subject-1.csv","legacy","8 4 3 9","Melodramatic Milgram","4.0.5","0","n","0","right","left","right","right","NA","739.0","53851","8400","739","NA","2","legacy","4","1024","2","48000","-16","experiment","1","odd","5","480877","477610","478668","2991","138599","478671","149789","3050","130197","479674","482881","483621","57018","482880","NA","Sternberg Task","69","49855.0","70","1024"
"98","98","712","712","black","experiment","legacy","legacy","legacy","1","undefined","1","left","70","70","70","0","0","70","70","0","0","70","70","70","0","70","0","Wed Oct 11 10:50:41 2023","The main experiment item","True","SternbergTask.osexp","/Users/test/Desktop","False","mono","False","18","no","white","no","yes","768","legacy","58","11","/Users/test/Desktop/AT-subject-1.csv","legacy","1 4 9 3 2 5","Melodramatic Milgram","4.0.5","3","y","0","left","left","right","left","NA","729.0","53851","8400","729","NA","2","legacy","6","1024","2","48000","-16","experiment","1","odd","9","486873","483624","484664","2991","138599","484667","149789","3050","130197","485670","488876","489607","57018","488875","NA","Sternberg Task","70","50584.0","71","1024"
"98","98","711","711","black","experiment","legacy","legacy","legacy","1","undefined","1","left","71","71","71","0","0","71","71","0","0","71","71","71","0","71","0","Wed Oct 11 10:50:41 2023","The main experiment item","True","SternbergTask.osexp","/Users/test/Desktop","False","mono","False","18","no","white","no","yes","768","legacy","59","11","/Users/test/Desktop/AT-subject-1.csv","legacy","3 9 7 6 4","Melodramatic Milgram","4.0.5","3","y","0","left","left","right","left","NA","670.0","53851","8400","670","NA","2","legacy","5","1024","2","48000","-16","experiment","1","odd","7","492862","489610","490654","2991","138599","490656","149789","3050","130197","491659","494865","495537","57018","494864","NA","Sternberg Task","71","51254.0","72","1024"
"98","98","709","709","black","experiment","legacy","legacy","legacy","1","undefined","1","left","72","72","72","0","0","72","72","0","0","72","72","72","0","72","0","Wed Oct 11 10:50:41 2023","The main experiment item","True","SternbergTask.osexp","/Users/test/Desktop","False","mono","False","18","no","white","no","yes","768","legacy","60","11","/Users/test/Desktop/AT-subject-1.csv","legacy","2 6 1 7 4","Melodramatic Milgram","4.0.5","2","y","0","left","left","right","left","NA","503.0","53851","8400","503","NA","2","legacy","5","1024","2","48000","-16","experiment","1","odd","6","498799","495541","496590","2991","138599","496593","149789","3050","130197","497596","500802","501306","57018","500801","NA","Sternberg Task","72","51757.0","73","1024"
"98","98","707","707","black","experiment","legacy","legacy","legacy","1","undefined","1","right","73","73","73","0","0","73","73","0","0","73","73","73","0","73","0","Wed Oct 11 10:50:41 2023","The main experiment item","True","SternbergTask.osexp","/Users/test/Desktop","False","mono","False","18","no","white","no","yes","768","legacy","61","11","/Users/test/Desktop/AT-subject-1.csv","legacy","7 8 6 1","Melodramatic Milgram","4.0.5","0","n","0","right","left","right","right","NA","630.0","53851","8400","630","NA","2","legacy","4","1024","2","48000","-16","experiment","1","odd","3","504577","501310","502368","2991","138599","502371","149789","3050","130197","503374","506580","507212","57018","506579","NA","Sternberg Task","73","52387.0","74","1024"
"98","98","710","710","black","experiment","legacy","legacy","legacy","1","undefined","1","left","74","74","74","0","0","74","74","0","0","74","74","74","0","74","0","Wed Oct 11 10:50:41 2023","The main experiment item","True","SternbergTask.osexp","/Users/test/Desktop","False","mono","False","18","no","white","no","yes","768","legacy","62","11","/Users/test/Desktop/AT-subject-1.csv","legacy","9 6 2 4 1","Melodramatic Milgram","4.0.5","4","y","0","left","left","right","left","NA","893.0","53851","8400","893","NA","2","legacy","5","1024","2","48000","-16","experiment","1","odd","4","510480","507216","508269","2991","138599","508273","149789","3050","130197","509276","512483","513378","57018","512482","NA","Sternberg Task","74","53280.0","75","1024"
"98","98","709","709","black","experiment","legacy","legacy","legacy","1","undefined","1","right","75","75","75","0","0","75","75","0","0","75","75","75","0","75","0","Wed Oct 11 10:50:41 2023","The main experiment item","True","SternbergTask.osexp","/Users/test/Desktop","False","mono","False","18","no","white","no","yes","768","legacy","63","11","/Users/test/Desktop/AT-subject-1.csv","legacy","1 6 4","Melodramatic Milgram","4.0.5","0","n","0","right","left","right","right","NA","673.0","53851","8400","673","NA","2","legacy","3","1024","2","48000","-16","experiment","1","odd","7","516652","513382","514444","2991","138599","514447","149789","3050","130197","515449","518655","519330","57018","518655","NA","Sternberg Task","75","53953.0","76","1024"
"98","98","712","712","black","experiment","legacy","legacy","legacy","1","undefined","1","left","76","76","76","0","0","76","76","0","0","76","76","76","0","76","0","Wed Oct 11 10:50:41 2023","The main experiment item","True","SternbergTask.osexp","/Users/test/Desktop","False","mono","False","18","no","white","no","yes","768","legacy","64","11","/Users/test/Desktop/AT-subject-1.csv","legacy","6 9 7 4 5 1","Melodramatic Milgram","4.0.5","2","y","0","left","left","right","left","NA","934.0","53851","8400","934","NA","2","legacy","6","1024","2","48000","-16","experiment","1","odd","9","522591","519334","520381","2991","138599","520385","149789","3050","130197","521388","524594","525530","57018","524593","NA","Sternberg Task","76","54887.0","77","1024"
"98","98","711","711","black","experiment","legacy","legacy","legacy","1","undefined","1","left","77","77","77","0","0","77","77","0","0","77","77","77","0","77","0","Wed Oct 11 10:50:41 2023","The main experiment item","True","SternbergTask.osexp","/Users/test/Desktop","False","mono","False","18","no","white","no","yes","768","legacy","65","11","/Users/test/Desktop/AT-subject-1.csv","legacy","4 9 7 8 5 3","Melodramatic Milgram","4.0.5","4","y","0","left","left","right","left","NA","620.0","53851","8400","620","NA","2","legacy","6","1024","2","48000","-16","experiment","1","odd","8","528787","525534","526578","2991","138599","526581","149789","3050","130197","527584","530790","531411","57018","530790","NA","Sternberg Task","77","55507.0","78","1024"
"98","98","710","710","black","experiment","legacy","legacy","legacy","1","undefined","1","left","78","78","78","0","0","78","78","0","0","78","78","78","0","78","0","Wed Oct 11 10:50:41 2023","The main experiment item","True","SternbergTask.osexp","/Users/test/Desktop","False","mono","False","18","no","white","no","yes","768","legacy","66","11","/Users/test/Desktop/AT-subject-1.csv","legacy","6 7 9 3 1 2","Melodramatic Milgram","4.0.5","1","y","0","left","left","right","left","NA","600.0","53851","8400","600","NA","2","legacy","6","1024","2","48000","-16","experiment","1","odd","6","534673","531415","532464","2991","138599","532467","149789","3050","130197","533470","536677","537279","57018","536676","NA","Sternberg Task","78","56107.0","79","1024"
"98","98","713","713","black","experiment","legacy","legacy","legacy","1","undefined","1","right","79","79","79","0","0","79","79","0","0","79","79","79","0","79","0","Wed Oct 11 10:50:41 2023","The main experiment item","True","SternbergTask.osexp","/Users/test/Desktop","False","mono","False","18","no","white","no","yes","768","legacy","67","11","/Users/test/Desktop/AT-subject-1.csv","legacy","4 2 7 6 1 3","Melodramatic Milgram","4.0.5","0","n","0","right","left","right","right","NA","1001.0","53851","8400","1001","NA","2","legacy","6","1024","2","48000","-16","experiment","1","odd","8","540557","537283","538349","2991","138599","538352","149789","3050","130197","539354","542560","543563","57018","542559","NA","Sternberg Task","79","57108.0","80","1024"
"98","98","712","712","black","experiment","legacy","legacy","legacy","1","undefined","1","right","80","80","80","0","0","80","80","0","0","80","80","80","0","80","0","Wed Oct 11 10:50:41 2023","The main experiment item","True","SternbergTask.osexp","/Users/test/Desktop","False","mono","False","18","no","white","no","yes","768","legacy","68","11","/Users/test/Desktop/AT-subject-1.csv","legacy","3 4 9 6 7 8","Melodramatic Milgram","4.0.5","0","n","0","right","left","right","right","NA","614.0","53851","8400","614","NA","2","legacy","6","1024","2","48000","-16","experiment","1","odd","2","546824","543566","544614","2991","138599","544616","149789","3050","130197","545620","548827","549443","57018","548827","NA","Sternberg Task","80","57722.0","81","1024"
"98","98","712","712","black","experiment","legacy","legacy","legacy","1","undefined","1","right","81","81","81","0","0","81","81","0","0","81","81","81","0","81","0","Wed Oct 11 10:50:41 2023","The main experiment item","True","SternbergTask.osexp","/Users/test/Desktop","False","mono","False","18","no","white","no","yes","768","legacy","69","11","/Users/test/Desktop/AT-subject-1.csv","legacy","2 5 1 4","Melodramatic Milgram","4.0.5","0","n","0","right","left","right","right","NA","679.0","53851","8400","679","NA","2","legacy","4","1024","2","48000","-16","experiment","1","odd","6","552710","549446","550501","2991","138599","550504","149789","3050","130197","551507","554713","555394","57018","554712","NA","Sternberg Task","81","58401.0","82","1024"
"98","98","710","710","black","experiment","legacy","legacy","legacy","1","undefined","1","right","82","82","82","0","0","82","82","0","0","82","82","82","0","82","0","Wed Oct 11 10:50:41 2023","The main experiment item","True","SternbergTask.osexp","/Users/test/Desktop","False","mono","False","18","no","white","no","yes","768","legacy","70","11","/Users/test/Desktop/AT-subject-1.csv","legacy","1 8 7","Melodramatic Milgram","4.0.5","0","n","0","right","left","right","right","NA","593.0","53851","8400","593","NA","2","legacy","3","1024","2","48000","-16","experiment","1","odd","4","558645","555398","556437","2991","138599","556440","149789","3050","130197","557442","560648","561242","57018","560647","NA","Sternberg Task","82","58994.0","83","1024"
"98","98","710","710","black","experiment","legacy","legacy","legacy","1","undefined","1","right","83","83","83","0","0","83","83","0","0","83","83","83","0","83","0","Wed Oct 11 10:50:41 2023","The main experiment item","True","SternbergTask.osexp","/Users/test/Desktop","False","mono","False","18","no","white","no","yes","768","legacy","71","11","/Users/test/Desktop/AT-subject-1.csv","legacy","8 2 1 4 5 9","Melodramatic Milgram","4.0.5","0","n","0","right","left","right","right","NA","725.0","53851","8400","725","NA","2","legacy","6","1024","2","48000","-16","experiment","1","odd","7","564508","561246","562300","2991","138599","562303","149789","3050","130197","563305","566510","567236","57018","566510","NA","Sternberg Task","83","59719.0","84","1024"
"98","98","709","709","black","experiment","legacy","legacy","legacy","1","undefined","1","left","84","84","84","0","0","84","84","0","0","84","84","84","0","84","0","Wed Oct 11 10:50:41 2023","The main experiment item","True","SternbergTask.osexp","/Users/test/Desktop","False","mono","False","18","no","white","no","yes","768","legacy","72","11","/Users/test/Desktop/AT-subject-1.csv","legacy","5 2 9 6 1 7","Melodramatic Milgram","4.0.5","3","y","0","left","left","right","left","NA","556.0","53851","8400","556","NA","2","legacy","6","1024","2","48000","-16","experiment","1","odd","9","570504","567240","568295","2991","138599","568298","149789","3050","130197","569301","572507","573064","57018","572507","NA","Sternberg Task","84","60275.0","85","1024"
"98","98","710","710","black","experiment","legacy","legacy","legacy","1","undefined","1","right","85","85","85","0","0","85","85","0","0","85","85","85","0","85","0","Wed Oct 11 10:50:41 2023","The main experiment item","True","SternbergTask.osexp","/Users/test/Desktop","False","mono","False","18","no","white","no","yes","768","legacy","73","11","/Users/test/Desktop/AT-subject-1.csv","legacy","7 6 4 8 1 2","Melodramatic Milgram","4.0.5","0","n","0","right","left","right","right","NA","788.0","53851","8400","788","NA","2","legacy","6","1024","2","48000","-16","experiment","1","odd","9","576326","573068","574117","2991","138599","574119","149789","3050","130197","575123","578328","579117","57018","578328","NA","Sternberg Task","85","61063.0","86","1024"
"98","98","708","708","black","experiment","legacy","legacy","legacy","1","undefined","1","right","86","86","86","0","0","86","86","0","0","86","86","86","0","86","0","Wed Oct 11 10:50:41 2023","The main experiment item","True","SternbergTask.osexp","/Users/test/Desktop","False","mono","False","18","no","white","no","yes","768","legacy","74","11","/Users/test/Desktop/AT-subject-1.csv","legacy","6 3 1 7 9 8","Melodramatic Milgram","4.0.5","0","n","0","right","left","right","right","NA","617.0","53851","8400","617","NA","2","legacy","6","1024","2","48000","-16","experiment","1","odd","4","582381","579121","580171","2991","138599","580175","149789","3050","130197","581178","584384","585003","57018","584383","NA","Sternberg Task","86","61680.0","87","1024"
"98","98","707","707","black","experiment","legacy","legacy","legacy","1","undefined","1","right","87","87","87","0","0","87","87","0","0","87","87","87","0","87","0","Wed Oct 11 10:50:41 2023","The main experiment item","True","SternbergTask.osexp","/Users/test/Desktop","False","mono","False","18","no","white","no","yes","768","legacy","75","11","/Users/test/Desktop/AT-subject-1.csv","legacy","3 9 1","Melodramatic Milgram","4.0.5","0","n","0","right","left","right","right","NA","540.0","53851","8400","540","NA","2","legacy","3","1024","2","48000","-16","experiment","1","odd","7","588283","585007","586074","2991","138599","586077","149789","3050","130197","587080","590286","590828","57018","590285","NA","Sternberg Task","87","62220.0","88","1024"
"98","98","705","705","black","experiment","legacy","legacy","legacy","1","undefined","1","right","88","88","88","0","0","88","88","0","0","88","88","88","0","88","0","Wed Oct 11 10:50:41 2023","The main experiment item","True","SternbergTask.osexp","/Users/test/Desktop","False","mono","False","18","no","white","no","yes","768","legacy","76","11","/Users/test/Desktop/AT-subject-1.csv","legacy","1 3 2 6 9","Melodramatic Milgram","4.0.5","0","n","0","right","left","right","right","NA","611.0","53851","8400","611","NA","2","legacy","5","1024","2","48000","-16","experiment","1","odd","5","594080","590831","591871","2991","138599","591873","149789","3050","130197","592877","596083","596696","57018","596083","NA","Sternberg Task","88","62831.0","89","1024"
"98","98","705","705","black","experiment","legacy","legacy","legacy","1","undefined","1","left","89","89","89","0","0","89","89","0","0","89","89","89","0","89","0","Wed Oct 11 10:50:41 2023","The main experiment item","True","SternbergTask.osexp","/Users/test/Desktop","False","mono","False","18","no","white","no","yes","768","legacy","77","11","/Users/test/Desktop/AT-subject-1.csv","legacy","9 1 7 2","Melodramatic Milgram","4.0.5","2","y","0","left","left","right","left","NA","660.0","53851","8400","660","NA","2","legacy","4","1024","2","48000","-16","experiment","1","odd","1","599952","596699","597743","2991","138599","597746","149789","3050","130197","598749","601955","602617","57018","601954","NA","Sternberg Task","89","63491.0","90","1024"
"98","98","707","707","black","experiment","legacy","legacy","legacy","1","undefined","1","left","90","90","90","0","0","90","90","0","0","90","90","90","0","90","0","Wed Oct 11 10:50:41 2023","The main experiment item","True","SternbergTask.osexp","/Users/test/Desktop","False","mono","False","18","no","white","no","yes","768","legacy","78","11","/Users/test/Desktop/AT-subject-1.csv","legacy","6 2","Melodramatic Milgram","4.0.5","1","y","0","left","left","right","left","NA","871.0","53851","8400","871","NA","2","legacy","2","1024","2","48000","-16","experiment","1","odd","6","605878","602620","603668","2991","138599","603670","149789","3050","130197","604674","607881","608753","57018","607880","NA","Sternberg Task","90","64362.0","91","1024"
"98","98","704","704","black","experiment","legacy","legacy","legacy","1","undefined","1","right","91","91","91","0","0","91","91","0","0","91","91","91","0","91","0","Wed Oct 11 10:50:41 2023","The main experiment item","True","SternbergTask.osexp","/Users/test/Desktop","False","mono","False","18","no","white","no","yes","768","legacy","79","11","/Users/test/Desktop/AT-subject-1.csv","legacy","9","Melodramatic Milgram","4.0.5","0","n","0","right","left","right","right","NA","487.0","53851","8400","487","NA","2","legacy","1","1024","2","48000","-16","experiment","1","odd","6","612014","608757","609805","2991","138599","609807","149789","3050","130197","610811","614017","614506","57018","614016","NA","Sternberg Task","91","64849.0","92","1024"
"98","98","707","707","black","experiment","legacy","legacy","legacy","1","undefined","1","left","92","92","92","0","0","92","92","0","0","92","92","92","0","92","0","Wed Oct 11 10:50:41 2023","The main experiment item","True","SternbergTask.osexp","/Users/test/Desktop","False","mono","False","18","no","white","no","yes","768","legacy","80","11","/Users/test/Desktop/AT-subject-1.csv","legacy","8 5 1 3 9","Melodramatic Milgram","4.0.5","4","y","0","left","left","right","left","NA","926.0","53851","8400","926","NA","2","legacy","5","1024","2","48000","-16","experiment","1","odd","3","617773","614509","615562","2991","138599","615565","149789","3050","130197","616568","619776","620704","57018","619776","NA","Sternberg Task","92","65775.0","93","1024"
"98","98","704","704","black","experiment","legacy","legacy","legacy","1","undefined","1","right","93","93","93","0","0","93","93","0","0","93","93","93","0","93","0","Wed Oct 11 10:50:41 2023","The main experiment item","True","SternbergTask.osexp","/Users/test/Desktop","False","mono","False","18","no","white","no","yes","768","legacy","81","11","/Users/test/Desktop/AT-subject-1.csv","legacy","5","Melodramatic Milgram","4.0.5","0","n","0","right","left","right","right","NA","465.0","53851","8400","465","NA","2","legacy","1","1024","2","48000","-16","experiment","1","odd","8","623982","620708","621773","2991","138599","621776","149789","3050","130197","622779","625985","626452","57018","625984","NA","Sternberg Task","93","66240.0","94","1024"
"98","98","704","704","black","experiment","legacy","legacy","legacy","1","undefined","1","right","94","94","94","0","0","94","94","0","0","94","94","94","0","94","0","Wed Oct 11 10:50:41 2023","The main experiment item","True","SternbergTask.osexp","/Users/test/Desktop","False","mono","False","18","no","white","no","yes","768","legacy","82","11","/Users/test/Desktop/AT-subject-1.csv","legacy","7 1 8 4 9 3","Melodramatic Milgram","4.0.5","0","n","0","right","left","right","right","NA","694.0","53851","8400","694","NA","2","legacy","6","1024","2","48000","-16","experiment","1","odd","6","629701","626456","627493","2991","138599","627495","149789","3050","130197","628498","631704","632400","57018","631703","NA","Sternberg Task","94","66934.0","95","1024"
"98","98","703","703","black","experiment","legacy","legacy","legacy","1","undefined","1","left","95","95","95","0","0","95","95","0","0","95","95","95","0","95","0","Wed Oct 11 10:50:41 2023","The main experiment item","True","SternbergTask.osexp","/Users/test/Desktop","False","mono","False","18","no","white","no","yes","768","legacy","83","11","/Users/test/Desktop/AT-subject-1.csv","legacy","9 8 4","Melodramatic Milgram","4.0.5","1","y","0","left","left","right","left","NA","635.0","53851","8400","635","NA","2","legacy","3","1024","2","48000","-16","experiment","1","odd","9","635656","632404","633448","2991","138599","633451","149789","3050","130197","634453","637659","638296","57018","637659","NA","Sternberg Task","95","67569.0","96","1024"
"98","98","702","702","black","experiment","legacy","legacy","legacy","1","undefined","1","right","96","96","96","0","0","96","96","0","0","96","96","96","0","96","0","Wed Oct 11 10:50:41 2023","The main experiment item","True","SternbergTask.osexp","/Users/test/Desktop","False","mono","False","18","no","white","no","yes","768","legacy","84","11","/Users/test/Desktop/AT-subject-1.csv","legacy","2 3 8 5 6 7","Melodramatic Milgram","4.0.5","0","n","0","right","left","right","right","NA","587.0","53851","8400","587","NA","2","legacy","6","1024","2","48000","-16","experiment","1","odd","1","641577","638300","639368","2991","138599","639372","149789","3050","130197","640374","643580","644169","57018","643580","NA","Sternberg Task","96","68156.0","97","1024"
"98","98","702","702","black","experiment","legacy","legacy","legacy","1","undefined","1","left","97","97","97","0","0","97","97","0","0","97","97","97","0","97","0","Wed Oct 11 10:50:41 2023","The main experiment item","True","SternbergTask.osexp","/Users/test/Desktop","False","mono","False","18","no","white","no","yes","768","legacy","85","11","/Users/test/Desktop/AT-subject-1.csv","legacy","3 4","Melodramatic Milgram","4.0.5","1","y","0","left","left","right","left","NA","650.0","53851","8400","650","NA","2","legacy","2","1024","2","48000","-16","experiment","1","odd","3","647433","644172","645224","2991","138599","645227","149789","3050","130197","646231","649435","650088","57018","649435","NA","Sternberg Task","97","68806.0","98","1024"
"98","98","704","704","black","experiment","legacy","legacy","legacy","1","undefined","1","left","98","98","98","0","0","98","98","0","0","98","98","98","0","98","0","Wed Oct 11 10:50:41 2023","The main experiment item","True","SternbergTask.osexp","/Users/test/Desktop","False","mono","False","18","no","white","no","yes","768","legacy","86","11","/Users/test/Desktop/AT-subject-1.csv","legacy","2 4 8 5 1 3","Melodramatic Milgram","4.0.5","1","y","0","left","left","right","left","NA","904.0","53851","8400","904","NA","2","legacy","6","1024","2","48000","-16","experiment","1","odd","2","653359","650092","651151","2991","138599","651153","149789","3050","130197","652157","655362","656268","57018","655361","NA","Sternberg Task","98","69710.0","99","1024"
"99","99","704","704","black","experiment","legacy","legacy","legacy","1","undefined","1","left","99","99","99","0","0","99","99","0","0","99","99","99","0","99","0","Wed Oct 11 10:50:41 2023","The main experiment item","True","SternbergTask.osexp","/Users/test/Desktop","False","mono","False","18","no","white","no","yes","768","legacy","87","11","/Users/test/Desktop/AT-subject-1.csv","legacy","9 4 2","Melodramatic Milgram","4.0.5","1","y","0","left","left","right","left","NA","692.0","53851","8400","692","NA","2","legacy","3","1024","2","48000","-16","experiment","1","odd","9","659615","656271","657408","2991","138599","657411","149789","3050","130197","658413","661619","662313","57018","661618","NA","Sternberg Task","99","70402.0","100","1024"
"99","99","701","701","black","experiment","legacy","legacy","legacy","1","undefined","1","left","100","100","100","0","0","100","100","0","0","100","100","100","0","100","0","Wed Oct 11 10:50:41 2023","The main experiment item","True","SternbergTask.osexp","/Users/test/Desktop","False","mono","False","18","no","white","no","yes","768","legacy","88","11","/Users/test/Desktop/AT-subject-1.csv","legacy","3 4 9 6 2 9","Melodramatic Milgram","4.0.5","5","y","0","left","left","right","left","NA","468.0","53851","8400","468","NA","2","legacy","6","1024","2","48000","-16","experiment","1","odd","2","665580","662317","663372","2991","138599","663375","149789","3050","130197","664377","667583","668053","57018","667582","NA","Sternberg Task","100","70870.0","101","1024"
"99","99","702","702","black","experiment","legacy","legacy","legacy","1","undefined","1","right","101","101","101","0","0","101","101","0","0","101","101","101","0","101","0","Wed Oct 11 10:50:41 2023","The main experiment item","True","SternbergTask.osexp","/Users/test/Desktop","False","mono","False","18","no","white","no","yes","768","legacy","89","11","/Users/test/Desktop/AT-subject-1.csv","legacy","6 8","Melodramatic Milgram","4.0.5","0","n","0","right","left","right","right","NA","826.0","53851","8400","826","NA","2","legacy","2","1024","2","48000","-16","experiment","1","odd","9","671307","668056","669099","2991","138599","669102","149789","3050","130197","670105","673310","674138","57018","673310","NA","Sternberg Task","101","71696.0","102","1024"
"99","99","703","703","black","experiment","legacy","legacy","legacy","1","undefined","1","right","102","102","102","0","0","102","102","0","0","102","102","102","0","102","0","Wed Oct 11 10:50:41 2023","The main experiment item","True","SternbergTask.osexp","/Users/test/Desktop","False","mono","False","18","no","white","no","yes","768","legacy","90","11","/Users/test/Desktop/AT-subject-1.csv","legacy","1 6 4 3 9 7","Melodramatic Milgram","4.0.5","0","n","0","right","left","right","right","NA","748.0","53851","8400","748","NA","2","legacy","6","1024","2","48000","-16","experiment","1","odd","8","677398","674141","675190","2991","138599","675192","149789","3050","130197","676196","679400","680150","57018","679400","NA","Sternberg Task","102","72444.0","103","1024"
"99","99","703","703","black","experiment","legacy","legacy","legacy","1","undefined","1","left","103","103","103","0","0","103","103","0","0","103","103","103","0","103","0","Wed Oct 11 10:50:41 2023","The main experiment item","True","SternbergTask.osexp","/Users/test/Desktop","False","mono","False","18","no","white","no","yes","768","legacy","91","11","/Users/test/Desktop/AT-subject-1.csv","legacy","2 8 5 1","Melodramatic Milgram","4.0.5","4","y","0","left","left","right","left","NA","719.0","53851","8400","719","NA","2","legacy","4","1024","2","48000","-16","experiment","1","odd","1","683411","680153","681202","2991","138599","681205","149789","3050","130197","682208","685413","686134","57018","685413","NA","Sternberg Task","103","73163.0","104","1024"
"99","99","703","703","black","experiment","legacy","legacy","legacy","1","undefined","1","right","104","104","104","0","0","104","104","0","0","104","104","104","0","104","0","Wed Oct 11 10:50:41 2023","The main experiment item","True","SternbergTask.osexp","/Users/test/Desktop","False","mono","False","18","no","white","no","yes","768","legacy","92","11","/Users/test/Desktop/AT-subject-1.csv","legacy","1","Melodramatic Milgram","4.0.5","0","n","0","right","left","right","right","NA","658.0","53851","8400","658","NA","2","legacy","1","1024","2","48000","-16","experiment","1","odd","7","689395","686139","687187","2991","138599","687189","149789","3050","130197","688193","691398","692057","57018","691397","NA","Sternberg Task","104","73821.0","105","1024"
"99","99","703","703","black","experiment","legacy","legacy","legacy","1","undefined","1","right","105","105","105","0","0","105","105","0","0","105","105","105","0","105","0","Wed Oct 11 10:50:41 2023","The main experiment item","True","SternbergTask.osexp","/Users/test/Desktop","False","mono","False","18","no","white","no","yes","768","legacy","93","11","/Users/test/Desktop/AT-subject-1.csv","legacy","8 5 7 3 6","Melodramatic Milgram","4.0.5","0","n","0","right","left","right","right","NA","730.0","53851","8400","730","NA","2","legacy","5","1024","2","48000","-16","experiment","1","odd","9","695329","692060","693120","2991","138599","693123","149789","3050","130197","694127","697331","698062","57018","697331","NA","Sternberg Task","105","74551.0","106","1024"
"99","99","704","704","black","experiment","legacy","legacy","legacy","1","undefined","1","left","106","106","106","0","0","106","106","0","0","106","106","106","0","106","0","Wed Oct 11 10:50:41 2023","The main experiment item","True","SternbergTask.osexp","/Users/test/Desktop","False","mono","False","18","no","white","no","yes","768","legacy","94","11","/Users/test/Desktop/AT-subject-1.csv","legacy","4 7 6 8 2 3","Melodramatic Milgram","4.0.5","6","y","0","left","left","right","left","NA","792.0","53851","8400","792","NA","2","legacy","6","1024","2","48000","-16","experiment","1","odd","3","701318","698070","699110","2991","138599","699113","149789","3050","130197","700116","703320","704115","57018","703320","NA","Sternberg Task","106","75343.0","107","1024"
"99","99","702","702","black","experiment","legacy","legacy","legacy","1","undefined","1","left","107","107","107","0","0","107","107","0","0","107","107","107","0","107","0","Wed Oct 11 10:50:41 2023","The main experiment item","True","SternbergTask.osexp","/Users/test/Desktop","False","mono","False","18","no","white","no","yes","768","legacy","95","11","/Users/test/Desktop/AT-subject-1.csv","legacy","5 7 8 2 3 8","Melodramatic Milgram","4.0.5","5","y","0","left","left","right","left","NA","510.0","53851","8400","510","NA","2","legacy","6","1024","2","48000","-16","experiment","1","odd","3","707371","704118","705163","2991","138599","705166","149789","3050","130197","706169","709375","709888","57018","709375","NA","Sternberg Task","107","75853.0","108","1024"
"99","99","702","702","black","experiment","legacy","legacy","legacy","1","undefined","1","right","108","108","108","0","0","108","108","0","0","108","108","108","0","108","0","Wed Oct 11 10:50:41 2023","The main experiment item","True","SternbergTask.osexp","/Users/test/Desktop","False","mono","False","18","no","white","no","yes","768","legacy","96","11","/Users/test/Desktop/AT-subject-1.csv","legacy","1 7 5 2","Melodramatic Milgram","4.0.5","0","n","0","right","left","right","right","NA","676.0","53851","8400","676","NA","2","legacy","4","1024","2","48000","-16","experiment","1","odd","3","713148","709891","710939","2991","138599","710942","149789","3050","130197","711945","715151","715829","57018","715150","NA","Sternberg Task","108","76529.0","109","1024"
"99","99","701","701","black","experiment","legacy","legacy","legacy","1","undefined","1","left","109","109","109","0","0","109","109","0","0","109","109","109","0","109","0","Wed Oct 11 10:50:41 2023","The main experiment item","True","SternbergTask.osexp","/Users/test/Desktop","False","mono","False","18","no","white","no","yes","768","legacy","97","11","/Users/test/Desktop/AT-subject-1.csv","legacy","4 6 2 5 1","Melodramatic Milgram","4.0.5","5","y","0","left","left","right","left","NA","634.0","53851","8400","634","NA","2","legacy","5","1024","2","48000","-16","experiment","1","odd","1","719090","715832","716881","2991","138599","716884","149789","3050","130197","717887","721093","721729","57018","721093","NA","Sternberg Task","109","77163.0","110","1024"
"99","99","702","702","black","experiment","legacy","legacy","legacy","1","undefined","1","left","110","110","110","0","0","110","110","0","0","110","110","110","0","110","0","Wed Oct 11 10:50:41 2023","The main experiment item","True","SternbergTask.osexp","/Users/test/Desktop","False","mono","False","18","no","white","no","yes","768","legacy","98","11","/Users/test/Desktop/AT-subject-1.csv","legacy","6 1 2","Melodramatic Milgram","4.0.5","3","y","0","left","left","right","left","NA","770.0","53851","8400","770","NA","2","legacy","3","1024","2","48000","-16","experiment","1","odd","2","724989","721732","722780","2991","138599","722783","149789","3050","130197","723786","726991","727763","57018","726991","NA","Sternberg Task","110","77933.0","111","1024"
"98","98","700","700","black","experiment","legacy","legacy","legacy","0","undefined","0","left","111","111","111","0","0","111","111","0","0","111","111","111","0","111","0","Wed Oct 11 10:50:41 2023","The main experiment item","True","SternbergTask.osexp","/Users/test/Desktop","False","mono","False","18","no","white","no","yes","768","legacy","99","11","/Users/test/Desktop/AT-subject-1.csv","legacy","7","Melodramatic Milgram","4.0.5","1","y","0","right","left","right","right","NA","523.0","53851","8400","523","NA","2","legacy","1","1024","2","48000","-16","experiment","1","odd","7","731032","727766","728822","2991","138599","728825","149789","3050","130197","729828","733035","733559","57018","733035","NA","Sternberg Task","110","78456.0","112","1024"
"98","98","701","701","black","experiment","legacy","legacy","legacy","1","undefined","1","right","112","112","112","0","0","112","112","0","0","112","112","112","0","112","0","Wed Oct 11 10:50:41 2023","The main experiment item","True","SternbergTask.osexp","/Users/test/Desktop","False","mono","False","18","no","white","no","yes","768","legacy","100","11","/Users/test/Desktop/AT-subject-1.csv","legacy","1 4 9 3","Melodramatic Milgram","4.0.5","0","n","0","right","left","right","right","NA","763.0","53851","8400","763","NA","2","legacy","4","1024","2","48000","-16","experiment","1","odd","5","736812","727766","734603","2991","138599","734606","733563","3050","130197","735609","738815","739579","57018","738814","NA","Sternberg Task","111","79219.0","113","1024"
"98","98","700","700","black","experiment","legacy","legacy","legacy","1","undefined","1","left","113","113","113","0","0","113","113","0","0","113","113","113","0","113","0","Wed Oct 11 10:50:41 2023","The main experiment item","True","SternbergTask.osexp","/Users/test/Desktop","False","mono","False","18","no","white","no","yes","768","legacy","101","11","/Users/test/Desktop/AT-subject-1.csv","legacy","9 3 1 2 5","Melodramatic Milgram","4.0.5","4","y","0","left","left","right","left","NA","601.0","53851","8400","601","NA","2","legacy","5","1024","2","48000","-16","experiment","1","odd","2","742836","739583","740627","2991","138599","740630","733563","3050","130197","741633","744839","745442","57018","744838","NA","Sternberg Task","112","79820.0","114","1024"
"98","98","699","699","black","experiment","legacy","legacy","legacy","1","undefined","1","right","114","114","114","0","0","114","114","0","0","114","114","114","0","114","0","Wed Oct 11 10:50:41 2023","The main experiment item","True","SternbergTask.osexp","/Users/test/Desktop","False","mono","False","18","no","white","no","yes","768","legacy","102","11","/Users/test/Desktop/AT-subject-1.csv","legacy","7 1 5 6 3","Melodramatic Milgram","4.0.5","0","n","0","right","left","right","right","NA","643.0","53851","8400","643","NA","2","legacy","5","1024","2","48000","-16","experiment","1","odd","8","748701","745446","746492","2991","138599","746495","733563","3050","130197","747498","750705","751350","57018","750704","NA","Sternberg Task","113","80463.0","115","1024"
"98","98","698","698","black","experiment","legacy","legacy","legacy","1","undefined","1","left","115","115","115","0","0","115","115","0","0","115","115","115","0","115","0","Wed Oct 11 10:50:41 2023","The main experiment item","True","SternbergTask.osexp","/Users/test/Desktop","False","mono","False","18","no","white","no","yes","768","legacy","103","11","/Users/test/Desktop/AT-subject-1.csv","legacy","3 5 4 7","Melodramatic Milgram","4.0.5","1","y","0","left","left","right","left","NA","618.0","53851","8400","618","NA","2","legacy","4","1024","2","48000","-16","experiment","1","odd","3","754620","751354","752412","2991","138599","752415","733563","3050","130197","753417","756624","757244","57018","756623","NA","Sternberg Task","114","81081.0","116","1024"
"98","98","699","699","black","experiment","legacy","legacy","legacy","1","undefined","1","left","116","116","116","0","0","116","116","0","0","116","116","116","0","116","0","Wed Oct 11 10:50:41 2023","The main experiment item","True","SternbergTask.osexp","/Users/test/Desktop","False","mono","False","18","no","white","no","yes","768","legacy","104","11","/Users/test/Desktop/AT-subject-1.csv","legacy","8 5 4 7 3 1","Melodramatic Milgram","4.0.5","2","y","0","left","left","right","left","NA","777.0","53851","8400","777","NA","2","legacy","6","1024","2","48000","-16","experiment","1","odd","5","760510","757248","758301","2991","138599","758303","733563","3050","130197","759306","762513","763292","57018","762513","NA","Sternberg Task","115","81858.0","117","1024"
"98","98","697","697","black","experiment","legacy","legacy","legacy","1","undefined","1","left","117","117","117","0","0","117","117","0","0","117","117","117","0","117","0","Wed Oct 11 10:50:41 2023","The main experiment item","True","SternbergTask.osexp","/Users/test/Desktop","False","mono","False","18","no","white","no","yes","768","legacy","105","11","/Users/test/Desktop/AT-subject-1.csv","legacy","8","Melodramatic Milgram","4.0.5","1","y","0","left","left","right","left","NA","478.0","53851","8400","478","NA","2","legacy","1","1024","2","48000","-16","experiment","1","odd","8","766583","763296","764374","2991","138599","764377","733563","3050","130197","765379","768586","769066","57018","768586","NA","Sternberg Task","116","82336.0","118","1024"
"98","98","696","696","black","experiment","legacy","legacy","legacy","1","undefined","1","right","118","118","118","0","0","118","118","0","0","118","118","118","0","118","0","Wed Oct 11 10:50:41 2023","The main experiment item","True","SternbergTask.osexp","/Users/test/Desktop","False","mono","False","18","no","white","no","yes","768","legacy","106","11","/Users/test/Desktop/AT-subject-1.csv","legacy","2 8 9","Melodramatic Milgram","4.0.5","0","n","0","right","left","right","right","NA","598.0","53851","8400","598","NA","2","legacy","3","1024","2","48000","-16","experiment","1","odd","6","772316","769069","770108","2991","138599","770111","733563","3050","130197","771114","774318","774918","57018","774318","NA","Sternberg Task","117","82934.0","119","1024"
"98","98","696","696","black","experiment","legacy","legacy","legacy","1","undefined","1","left","119","119","119","0","0","119","119","0","0","119","119","119","0","119","0","Wed Oct 11 10:50:41 2023","The main experiment item","True","SternbergTask.osexp","/Users/test/Desktop","False","mono","False","18","no","white","no","yes","768","legacy","107","11","/Users/test/Desktop/AT-subject-1.csv","legacy","2 3 7 4","Melodramatic Milgram","4.0.5","1","y","0","left","left","right","left","NA","686.0","53851","8400","686","NA","2","legacy","4","1024","2","48000","-16","experiment","1","odd","2","778172","774922","775964","2991","138599","775967","733563","3050","130197","776969","780175","780863","57018","780174","NA","Sternberg Task","118","83620.0","120","1024"
"98","98","697","697","black","experiment","legacy","legacy","legacy","1","undefined","1","right","120","120","120","0","0","120","120","0","0","120","120","120","0","120","0","Wed Oct 11 10:50:41 2023","The main experiment item","True","SternbergTask.osexp","/Users/test/Desktop","False","mono","False","18","no","white","no","yes","768","legacy","108","11","/Users/test/Desktop/AT-subject-1.csv","legacy","8 9","Melodramatic Milgram","4.0.5","0","n","0","right","left","right","right","NA","722.0","53851","8400","722","NA","2","legacy","2","1024","2","48000","-16","experiment","1","odd","5","784124","780866","781914","2991","138599","781917","733563","3050","130197","782920","786127","786851","57018","786127","NA","Sternberg Task","119","84342.0","121","1024"
"98","98","697","697","black","experiment","legacy","legacy","legacy","1","undefined","1","right","121","121","121","0","0","121","121","0","0","121","121","121","0","121","0","Wed Oct 11 10:50:41 2023","The main experiment item","True","SternbergTask.osexp","/Users/test/Desktop","False","mono","False","18","no","white","no","yes","768","legacy","109","11","/Users/test/Desktop/AT-subject-1.csv","legacy","6 8 4","Melodramatic Milgram","4.0.5","0","n","0","right","left","right","right","NA","784.0","53851","8400","784","NA","2","legacy","3","1024","2","48000","-16","experiment","1","odd","1","790111","786854","787901","2991","138599","787904","733563","3050","130197","788908","792114","792900","57018","792113","NA","Sternberg Task","120","85126.0","122","1024"
"98","98","700","700","black","experiment","legacy","legacy","legacy","1","undefined","1","right","122","122","122","0","0","122","122","0","0","122","122","122","0","122","0","Wed Oct 11 10:50:41 2023","The main experiment item","True","SternbergTask.osexp","/Users/test/Desktop","False","mono","False","18","no","white","no","yes","768","legacy","110","11","/Users/test/Desktop/AT-subject-1.csv","legacy","5 9 2 3","Melodramatic Milgram","4.0.5","0","n","0","right","left","right","right","NA","1058.0","53851","8400","1058","NA","2","legacy","4","1024","2","48000","-16","experiment","1","odd","8","796161","792903","793952","2991","138599","793955","733563","3050","130197","794958","798164","799224","57018","798164","NA","Sternberg Task","121","86184.0","123","1024"
"98","98","700","700","black","experiment","legacy","legacy","legacy","1","undefined","1","right","123","123","123","0","0","123","123","0","0","123","123","123","0","123","0","Wed Oct 11 10:50:41 2023","The main experiment item","True","SternbergTask.osexp","/Users/test/Desktop","False","mono","False","18","no","white","no","yes","768","legacy","111","11","/Users/test/Desktop/AT-subject-1.csv","legacy","7 1","Melodramatic Milgram","4.0.5","0","n","0","right","left","right","right","NA","629.0","53851","8400","629","NA","2","legacy","2","1024","2","48000","-16","experiment","1","odd","8","802498","799228","800290","2991","138599","800293","733563","3050","130197","801295","804502","805134","57018","804502","NA","Sternberg Task","122","86813.0","124","1024"
"98","98","699","699","black","experiment","legacy","legacy","legacy","1","undefined","1","right","124","124","124","0","0","124","124","0","0","124","124","124","0","124","0","Wed Oct 11 10:50:41 2023","The main experiment item","True","SternbergTask.osexp","/Users/test/Desktop","False","mono","False","18","no","white","no","yes","768","legacy","112","11","/Users/test/Desktop/AT-subject-1.csv","legacy","1 5 3 2 8","Melodramatic Milgram","4.0.5","0","n","0","right","left","right","right","NA","665.0","53851","8400","665","NA","2","legacy","5","1024","2","48000","-16","experiment","1","odd","4","808386","805137","806178","2991","138599","806180","733563","3050","130197","807184","810389","811056","57018","810388","NA","Sternberg Task","123","87478.0","125","1024"
"98","98","699","699","black","experiment","legacy","legacy","legacy","1","undefined","1","right","125","125","125","0","0","125","125","0","0","125","125","125","0","125","0","Wed Oct 11 10:50:41 2023","The main experiment item","True","SternbergTask.osexp","/Users/test/Desktop","False","mono","False","18","no","white","no","yes","768","legacy","113","11","/Users/test/Desktop/AT-subject-1.csv","legacy","6 9 4 5 3 2","Melodramatic Milgram","4.0.5","0","n","0","right","left","right","right","NA","650.0","53851","8400","650","NA","2","legacy","6","1024","2","48000","-16","experiment","1","odd","8","814312","811059","812104","2991","138599","812106","733563","3050","130197","813110","816315","816967","57018","816314","NA","Sternberg Task","124","88128.0","126","1024"
"98","98","699","699","black","experiment","legacy","legacy","legacy","1","undefined","1","left","126","126","126","0","0","126","126","0","0","126","126","126","0","126","0","Wed Oct 11 10:50:41 2023","The main experiment item","True","SternbergTask.osexp","/Users/test/Desktop","False","mono","False","18","no","white","no","yes","768","legacy","114","11","/Users/test/Desktop/AT-subject-1.csv","legacy","7 4 2 6 3 5","Melodramatic Milgram","4.0.5","6","y","0","left","left","right","left","NA","726.0","53851","8400","726","NA","2","legacy","6","1024","2","48000","-16","experiment","1","odd","5","820230","816970","818019","2991","138599","818024","733563","3050","130197","819027","822233","822961","57018","822232","NA","Sternberg Task","125","88854.0","127","1024"
"98","98","699","699","black","experiment","legacy","legacy","legacy","1","undefined","1","right","127","127","127","0","0","127","127","0","0","127","127","127","0","127","0","Wed Oct 11 10:50:41 2023","The main experiment item","True","SternbergTask.osexp","/Users/test/Desktop","False","mono","False","18","no","white","no","yes","768","legacy","115","11","/Users/test/Desktop/AT-subject-1.csv","legacy","2 8 7 9 5 3","Melodramatic Milgram","4.0.5","0","n","0","right","left","right","right","NA","721.0","53851","8400","721","NA","2","legacy","6","1024","2","48000","-16","experiment","1","odd","6","826221","822964","824012","2991","138599","824015","733563","3050","130197","825018","828224","828947","57018","828224","NA","Sternberg Task","126","89575.0","128","1024"
"98","98","700","700","black","experiment","legacy","legacy","legacy","1","undefined","1","left","128","128","128","0","0","128","128","0","0","128","128","128","0","128","0","Wed Oct 11 10:50:41 2023","The main experiment item","True","SternbergTask.osexp","/Users/test/Desktop","False","mono","False","18","no","white","no","yes","768","legacy","116","11","/Users/test/Desktop/AT-subject-1.csv","legacy","4 6 5 8","Melodramatic Milgram","4.0.5","1","y","0","left","left","right","left","NA","823.0","53851","8400","823","NA","2","legacy","4","1024","2","48000","-16","experiment","1","odd","4","832207","828950","829998","2991","138599","830001","733563","3050","130197","831004","834210","835036","57018","834210","NA","Sternberg Task","127","90398.0","129","1024"
