"acc","accuracy","average_response_time","avg_rt","background","block","canvas_backend","clock_backend","color_backend","correct","correct_instruction1","correct_keyboard_response","correct_response","count_ISI","count_correctFeedback","count_expSequence","count_experiment","count_experimentLoop","count_fixation","count_incorrectFeedback","count_instruction1","count_instructions2","count_keyboard_response","count_logger","count_memorySet","count_practiceLoop","count_probe","count_thankYou","datetime","description","disable_garbage_collection","experiment_file","experiment_path","font_bold","font_family","font_italic","font_size","font_underline","foreground","form_clicks","fullscreen","height","keyboard_backend","live_row","live_row_practiceLoop","logfile","mouse_backend","numberSet","opensesame_codename","opensesame_version","posInSet","present","repeat_cycle","response","response_instruction1","response_instructions2","response_keyboard_response","response_thankYou","response_time","response_time_instruction1","response_time_instructions2","response_time_keyboard_response","response_time_thankYou","round_decimals","sampler_backend","setSize","sound_buf_size","sound_channels","sound_freq","sound_sample_size","start","subject_nr","subject_parity","target","time_ISI","time_correctFeedback","time_expSequence","time_experiment","time_experimentLoop","time_fixation","time_incorrectFeedback","time_instruction1","time_instructions2","time_keyboard_response","time_logger","time_memorySet","time_practiceLoop","time_probe","time_thankYou","title","total_correct","total_response_time","total_responses","width"
"100","100","1548","1548","#3d3846","practice","legacy","legacy","legacy","1","undefined","1","left","0","0","0","0","0","0","0","0","0","0","0","0","0","0","0","Sun Oct 15 17:13:35 2023","The main experiment item","False","SternbergTask.osexp","C:\Users\juzal\OneDrive\Documents\Masters of Equine Science\Advanced Quantitative Methods and Experiment Design","False","mono","False","18","no","white","no","yes","768","legacy","0","0","C:/Users/juzal/OneDrive/Documents/Masters of Equine Science/Advanced Quantitative Methods and Experiment Design/Ch-subject-3.csv","legacy","2 9 4","Melodramatic Milgram","4.0.5","3","y","0","left","right","NA","left","NA","1548.0","42862","NA","1548","NA","2","legacy","3","1024","2","48000","-16","experiment","3","odd","4","47682","NA","45480","2087","NA","45481","NA","2097","NA","49682","51231","46481","44961","49682","NA","Sternberg Task","1","1548.0","1","1024"
"50","50","1304","1304","#3d3846","practice","legacy","legacy","legacy","0","undefined","0","right","1","1","1","0","0","1","1","0","0","1","1","1","0","1","0","Sun Oct 15 17:13:35 2023","The main experiment item","False","SternbergTask.osexp","C:\Users\juzal\OneDrive\Documents\Masters of Equine Science\Advanced Quantitative Methods and Experiment Design","False","mono","False","18","no","white","no","yes","768","legacy","1","1","C:/Users/juzal/OneDrive/Documents/Masters of Equine Science/Advanced Quantitative Methods and Experiment Design/Ch-subject-3.csv","legacy","5","Melodramatic Milgram","4.0.5","0","n","0","left","right","NA","left","NA","1061.0","42862","NA","1061","NA","2","legacy","1","1024","2","48000","-16","experiment","3","odd","3","54527","51295","52325","2087","NA","52325","NA","2097","NA","56528","57590","53326","44961","56527","NA","Sternberg Task","1","2609.0","2","1024"
"66","66","1370","1370","#3d3846","practice","legacy","legacy","legacy","1","undefined","1","left","2","2","2","0","0","2","2","0","0","2","2","2","0","2","0","Sun Oct 15 17:13:35 2023","The main experiment item","False","SternbergTask.osexp","C:\Users\juzal\OneDrive\Documents\Masters of Equine Science\Advanced Quantitative Methods and Experiment Design","False","mono","False","18","no","white","no","yes","768","legacy","2","2","C:/Users/juzal/OneDrive/Documents/Masters of Equine Science/Advanced Quantitative Methods and Experiment Design/Ch-subject-3.csv","legacy","1 5 2 9","Melodramatic Milgram","4.0.5","2","y","0","left","right","NA","left","NA","1502.0","42862","NA","1502","NA","2","legacy","4","1024","2","48000","-16","experiment","3","odd","5","60850","51295","58648","2087","NA","58648","57622","2097","NA","62850","64353","59648","44961","62850","NA","Sternberg Task","2","4111.0","3","1024"
"75","75","1261","1261","#3d3846","practice","legacy","legacy","legacy","1","undefined","1","right","3","3","3","0","0","3","3","0","0","3","3","3","0","3","0","Sun Oct 15 17:13:35 2023","The main experiment item","False","SternbergTask.osexp","C:\Users\juzal\OneDrive\Documents\Masters of Equine Science\Advanced Quantitative Methods and Experiment Design","False","mono","False","18","no","white","no","yes","768","legacy","3","3","C:/Users/juzal/OneDrive/Documents/Masters of Equine Science/Advanced Quantitative Methods and Experiment Design/Ch-subject-3.csv","legacy","5 7 8 4 1 2","Melodramatic Milgram","4.0.5","0","n","0","right","right","NA","right","NA","935.0","42862","NA","935","NA","2","legacy","6","1024","2","48000","-16","experiment","3","odd","6","67611","64379","65409","2087","NA","65410","57622","2097","NA","69611","70546","66410","44961","69611","NA","Sternberg Task","3","5046.0","4","1024"
"80","80","1247","1247","#3d3846","practice","legacy","legacy","legacy","1","undefined","1","left","4","4","4","0","0","4","4","0","0","4","4","4","0","4","0","Sun Oct 15 17:13:35 2023","The main experiment item","False","SternbergTask.osexp","C:\Users\juzal\OneDrive\Documents\Masters of Equine Science\Advanced Quantitative Methods and Experiment Design","False","mono","False","18","no","white","no","yes","768","legacy","4","4","C:/Users/juzal/OneDrive/Documents/Masters of Equine Science/Advanced Quantitative Methods and Experiment Design/Ch-subject-3.csv","legacy","4 3 1 7 9 8","Melodramatic Milgram","4.0.5","1","y","0","left","right","NA","left","NA","1191.0","42862","NA","1191","NA","2","legacy","6","1024","2","48000","-16","experiment","3","odd","4","73807","70578","71605","2087","NA","71606","57622","2097","NA","75807","76999","72607","44961","75807","NA","Sternberg Task","4","6237.0","5","1024"
"83","83","1167","1167","#3d3846","practice","legacy","legacy","legacy","1","undefined","1","right","5","5","5","0","0","5","5","0","0","5","5","5","0","5","0","Sun Oct 15 17:13:35 2023","The main experiment item","False","SternbergTask.osexp","C:\Users\juzal\OneDrive\Documents\Masters of Equine Science\Advanced Quantitative Methods and Experiment Design","False","mono","False","18","no","white","no","yes","768","legacy","5","5","C:/Users/juzal/OneDrive/Documents/Masters of Equine Science/Advanced Quantitative Methods and Experiment Design/Ch-subject-3.csv","legacy","9 6 7 4 5","Melodramatic Milgram","4.0.5","0","n","0","right","right","NA","right","NA","765.0","42862","NA","765","NA","2","legacy","5","1024","2","48000","-16","experiment","3","odd","3","80234","77005","78033","2087","NA","78033","57622","2097","NA","82234","83000","79034","44961","82234","NA","Sternberg Task","5","7002.0","6","1024"
"85","85","1019","1019","#3d3846","practice","legacy","legacy","legacy","1","undefined","1","left","6","6","6","0","0","6","6","0","0","6","6","6","0","6","0","Sun Oct 15 17:13:35 2023","The main experiment item","False","SternbergTask.osexp","C:\Users\juzal\OneDrive\Documents\Masters of Equine Science\Advanced Quantitative Methods and Experiment Design","False","mono","False","18","no","white","no","yes","768","legacy","6","6","C:/Users/juzal/OneDrive/Documents/Masters of Equine Science/Advanced Quantitative Methods and Experiment Design/Ch-subject-3.csv","legacy","6","Melodramatic Milgram","4.0.5","1","y","0","left","right","NA","left","NA","132.0","42862","NA","132","NA","2","legacy","1","1024","2","48000","-16","experiment","3","odd","6","86255","83025","84052","2087","NA","84053","57622","2097","NA","88256","88388","85054","44961","88255","NA","Sternberg Task","6","7134.0","7","1024"
"75","75","906","906","#3d3846","practice","legacy","legacy","legacy","0","undefined","0","right","7","7","7","0","0","7","7","0","0","7","7","7","0","7","0","Sun Oct 15 17:13:35 2023","The main experiment item","False","SternbergTask.osexp","C:\Users\juzal\OneDrive\Documents\Masters of Equine Science\Advanced Quantitative Methods and Experiment Design","False","mono","False","18","no","white","no","yes","768","legacy","7","7","C:/Users/juzal/OneDrive/Documents/Masters of Equine Science/Advanced Quantitative Methods and Experiment Design/Ch-subject-3.csv","legacy","2 1","Melodramatic Milgram","4.0.5","0","n","0","left","right","NA","left","NA","118.0","42862","NA","118","NA","2","legacy","2","1024","2","48000","-16","experiment","3","odd","5","91648","88413","89447","2087","NA","89448","57622","2097","NA","93649","93767","90448","44961","93648","NA","Sternberg Task","6","7252.0","8","1024"
"66","66","902","902","#3d3846","practice","legacy","legacy","legacy","0","undefined","0","right","8","8","8","0","0","8","8","0","0","8","8","8","0","8","0","Sun Oct 15 17:13:35 2023","The main experiment item","False","SternbergTask.osexp","C:\Users\juzal\OneDrive\Documents\Masters of Equine Science\Advanced Quantitative Methods and Experiment Design","False","mono","False","18","no","white","no","yes","768","legacy","8","8","C:/Users/juzal/OneDrive/Documents/Masters of Equine Science/Advanced Quantitative Methods and Experiment Design/Ch-subject-3.csv","legacy","3 1 9 4","Melodramatic Milgram","4.0.5","0","n","0","left","right","NA","left","NA","869.0","42862","NA","869","NA","2","legacy","4","1024","2","48000","-16","experiment","3","odd","6","97027","88413","94825","2087","NA","94825","93798","2097","NA","99027","99897","95826","44961","99027","NA","Sternberg Task","6","8121.0","9","1024"
"60","60","885","885","#3d3846","practice","legacy","legacy","legacy","0","undefined","0","left","9","9","9","0","0","9","9","0","0","9","9","9","0","9","0","Sun Oct 15 17:13:35 2023","The main experiment item","False","SternbergTask.osexp","C:\Users\juzal\OneDrive\Documents\Masters of Equine Science\Advanced Quantitative Methods and Experiment Design","False","mono","False","18","no","white","no","yes","768","legacy","9","9","C:/Users/juzal/OneDrive/Documents/Masters of Equine Science/Advanced Quantitative Methods and Experiment Design/Ch-subject-3.csv","legacy","4 8","Melodramatic Milgram","4.0.5","1","y","0","right","right","NA","right","NA","737.0","42862","NA","737","NA","2","legacy","2","1024","2","48000","-16","experiment","3","odd","4","103164","88413","100962","2087","NA","100962","99934","2097","NA","105164","105901","101963","44961","105164","NA","Sternberg Task","6","8858.0","10","1024"
"63","63","895","895","#3d3846","practice","legacy","legacy","legacy","1","undefined","1","left","10","10","10","0","0","10","10","0","0","10","10","10","0","10","0","Sun Oct 15 17:13:35 2023","The main experiment item","False","SternbergTask.osexp","C:\Users\juzal\OneDrive\Documents\Masters of Equine Science\Advanced Quantitative Methods and Experiment Design","False","mono","False","18","no","white","no","yes","768","legacy","10","10","C:/Users/juzal/OneDrive/Documents/Masters of Equine Science/Advanced Quantitative Methods and Experiment Design/Ch-subject-3.csv","legacy","1 7 9 8 5","Melodramatic Milgram","4.0.5","4","y","0","left","right","NA","left","NA","992.0","42862","NA","992","NA","2","legacy","5","1024","2","48000","-16","experiment","3","odd","8","109169","88413","106968","2087","NA","106968","105941","2097","NA","111169","112162","107968","44961","111169","NA","Sternberg Task","7","9850.0","11","1024"
"66","66","862","862","#3d3846","practice","legacy","legacy","legacy","1","undefined","1","right","11","11","11","0","0","11","11","0","0","11","11","11","0","11","0","Sun Oct 15 17:13:35 2023","The main experiment item","False","SternbergTask.osexp","C:\Users\juzal\OneDrive\Documents\Masters of Equine Science\Advanced Quantitative Methods and Experiment Design","False","mono","False","18","no","white","no","yes","768","legacy","11","11","C:/Users/juzal/OneDrive/Documents/Masters of Equine Science/Advanced Quantitative Methods and Experiment Design/Ch-subject-3.csv","legacy","4 1 5","Melodramatic Milgram","4.0.5","0","n","0","right","right","NA","right","NA","504.0","42862","NA","504","NA","2","legacy","3","1024","2","48000","-16","experiment","3","odd","2","115421","112187","113219","2087","NA","113220","105941","2097","NA","117421","117925","114221","44961","117421","NA","Sternberg Task","8","10354.0","12","1024"
"69","69","866","866","#3d3846","experiment","legacy","legacy","legacy","1","undefined","1","left","12","12","12","0","0","12","12","0","0","12","12","12","0","12","0","Sun Oct 15 17:13:35 2023","The main experiment item","False","SternbergTask.osexp","C:\Users\juzal\OneDrive\Documents\Masters of Equine Science\Advanced Quantitative Methods and Experiment Design","False","mono","False","18","no","white","no","yes","768","legacy","0","11","C:/Users/juzal/OneDrive/Documents/Masters of Equine Science/Advanced Quantitative Methods and Experiment Design/Ch-subject-3.csv","legacy","2 8 5 1","Melodramatic Milgram","4.0.5","4","y","0","left","right","left","left","NA","911.0","42862","9866","911","NA","2","legacy","4","1024","2","48000","-16","experiment","3","odd","1","131112","117953","128911","2087","128821","128912","105941","2097","118954","133113","134024","129912","44961","133112","NA","Sternberg Task","9","11265.0","13","1024"
"71","71","860","860","#3d3846","experiment","legacy","legacy","legacy","1","undefined","1","right","13","13","13","0","0","13","13","0","0","13","13","13","0","13","0","Sun Oct 15 17:13:35 2023","The main experiment item","False","SternbergTask.osexp","C:\Users\juzal\OneDrive\Documents\Masters of Equine Science\Advanced Quantitative Methods and Experiment Design","False","mono","False","18","no","white","no","yes","768","legacy","1","11","C:/Users/juzal/OneDrive/Documents/Masters of Equine Science/Advanced Quantitative Methods and Experiment Design/Ch-subject-3.csv","legacy","6 9 7 3 8 2","Melodramatic Milgram","4.0.5","0","n","0","right","right","left","right","NA","785.0","42862","9866","785","NA","2","legacy","6","1024","2","48000","-16","experiment","3","odd","5","137286","134052","135084","2087","128821","135085","105941","2097","118954","139287","140073","136085","44961","139287","NA","Sternberg Task","10","12050.0","14","1024"
"73","73","867","867","#3d3846","experiment","legacy","legacy","legacy","1","undefined","1","left","14","14","14","0","0","14","14","0","0","14","14","14","0","14","0","Sun Oct 15 17:13:35 2023","The main experiment item","False","SternbergTask.osexp","C:\Users\juzal\OneDrive\Documents\Masters of Equine Science\Advanced Quantitative Methods and Experiment Design","False","mono","False","18","no","white","no","yes","768","legacy","2","11","C:/Users/juzal/OneDrive/Documents/Masters of Equine Science/Advanced Quantitative Methods and Experiment Design/Ch-subject-3.csv","legacy","5 7 3 6 2","Melodramatic Milgram","4.0.5","5","y","0","left","right","left","left","NA","956.0","42862","9866","956","NA","2","legacy","5","1024","2","48000","-16","experiment","3","odd","2","143330","140098","141128","2087","128821","141128","105941","2097","118954","145331","146288","142130","44961","145331","NA","Sternberg Task","11","13006.0","15","1024"
"75","75","854","854","#3d3846","experiment","legacy","legacy","legacy","1","undefined","1","right","15","15","15","0","0","15","15","0","0","15","15","15","0","15","0","Sun Oct 15 17:13:35 2023","The main experiment item","False","SternbergTask.osexp","C:\Users\juzal\OneDrive\Documents\Masters of Equine Science\Advanced Quantitative Methods and Experiment Design","False","mono","False","18","no","white","no","yes","768","legacy","3","11","C:/Users/juzal/OneDrive/Documents/Masters of Equine Science/Advanced Quantitative Methods and Experiment Design/Ch-subject-3.csv","legacy","5","Melodramatic Milgram","4.0.5","0","n","0","right","right","left","right","NA","664.0","42862","9866","664","NA","2","legacy","1","1024","2","48000","-16","experiment","3","odd","8","149553","146324","147351","2087","128821","147352","105941","2097","118954","151553","152217","148353","44961","151553","NA","Sternberg Task","12","13670.0","16","1024"
"76","76","849","849","#3d3846","experiment","legacy","legacy","legacy","1","undefined","1","left","16","16","16","0","0","16","16","0","0","16","16","16","0","16","0","Sun Oct 15 17:13:35 2023","The main experiment item","False","SternbergTask.osexp","C:\Users\juzal\OneDrive\Documents\Masters of Equine Science\Advanced Quantitative Methods and Experiment Design","False","mono","False","18","no","white","no","yes","768","legacy","4","11","C:/Users/juzal/OneDrive/Documents/Masters of Equine Science/Advanced Quantitative Methods and Experiment Design/Ch-subject-3.csv","legacy","3 5 9 6 2 4","Melodramatic Milgram","4.0.5","1","y","0","left","right","left","left","NA","772.0","42862","9866","772","NA","2","legacy","6","1024","2","48000","-16","experiment","3","odd","3","155493","152260","153293","2087","128821","153293","105941","2097","118954","157493","158266","154293","44961","157493","NA","Sternberg Task","13","14442.0","17","1024"
"77","77","831","831","#3d3846","experiment","legacy","legacy","legacy","1","undefined","1","right","17","17","17","0","0","17","17","0","0","17","17","17","0","17","0","Sun Oct 15 17:13:35 2023","The main experiment item","False","SternbergTask.osexp","C:\Users\juzal\OneDrive\Documents\Masters of Equine Science\Advanced Quantitative Methods and Experiment Design","False","mono","False","18","no","white","no","yes","768","legacy","5","11","C:/Users/juzal/OneDrive/Documents/Masters of Equine Science/Advanced Quantitative Methods and Experiment Design/Ch-subject-3.csv","legacy","4 2 7 6 1 3","Melodramatic Milgram","4.0.5","0","n","0","right","right","left","right","NA","521.0","42862","9866","521","NA","2","legacy","6","1024","2","48000","-16","experiment","3","odd","8","161525","158297","159323","2087","128821","159324","105941","2097","118954","163526","164047","160324","44961","163525","NA","Sternberg Task","14","14963.0","18","1024"
"78","78","829","829","#3d3846","experiment","legacy","legacy","legacy","1","undefined","1","left","18","18","18","0","0","18","18","0","0","18","18","18","0","18","0","Sun Oct 15 17:13:35 2023","The main experiment item","False","SternbergTask.osexp","C:\Users\juzal\OneDrive\Documents\Masters of Equine Science\Advanced Quantitative Methods and Experiment Design","False","mono","False","18","no","white","no","yes","768","legacy","6","11","C:/Users/juzal/OneDrive/Documents/Masters of Equine Science/Advanced Quantitative Methods and Experiment Design/Ch-subject-3.csv","legacy","9 5 3 8 4","Melodramatic Milgram","4.0.5","1","y","0","left","right","left","left","NA","795.0","42862","9866","795","NA","2","legacy","5","1024","2","48000","-16","experiment","3","odd","9","167319","164087","165117","2087","128821","165118","105941","2097","118954","169320","170116","166119","44961","169319","NA","Sternberg Task","15","15758.0","19","1024"
"80","80","817","817","#3d3846","experiment","legacy","legacy","legacy","1","undefined","1","right","19","19","19","0","0","19","19","0","0","19","19","19","0","19","0","Sun Oct 15 17:13:35 2023","The main experiment item","False","SternbergTask.osexp","C:\Users\juzal\OneDrive\Documents\Masters of Equine Science\Advanced Quantitative Methods and Experiment Design","False","mono","False","18","no","white","no","yes","768","legacy","7","11","C:/Users/juzal/OneDrive/Documents/Masters of Equine Science/Advanced Quantitative Methods and Experiment Design/Ch-subject-3.csv","legacy","7 3 2 8","Melodramatic Milgram","4.0.5","0","n","0","right","right","left","right","NA","591.0","42862","9866","591","NA","2","legacy","4","1024","2","48000","-16","experiment","3","odd","4","173387","170155","171184","2087","128821","171185","105941","2097","118954","175387","175978","172186","44961","175387","NA","Sternberg Task","16","16349.0","20","1024"
"80","80","837","837","#3d3846","experiment","legacy","legacy","legacy","1","undefined","1","right","20","20","20","0","0","20","20","0","0","20","20","20","0","20","0","Sun Oct 15 17:13:35 2023","The main experiment item","False","SternbergTask.osexp","C:\Users\juzal\OneDrive\Documents\Masters of Equine Science\Advanced Quantitative Methods and Experiment Design","False","mono","False","18","no","white","no","yes","768","legacy","8","11","C:/Users/juzal/OneDrive/Documents/Masters of Equine Science/Advanced Quantitative Methods and Experiment Design/Ch-subject-3.csv","legacy","1 4 9 2 5","Melodramatic Milgram","4.0.5","0","n","0","right","right","left","right","NA","1236.0","42862","9866","1236","NA","2","legacy","5","1024","2","48000","-16","experiment","3","odd","7","179234","176003","177033","2087","128821","177034","105941","2097","118954","181234","182470","178034","44961","181234","NA","Sternberg Task","17","17585.0","21","1024"
"81","81","821","821","#3d3846","experiment","legacy","legacy","legacy","1","undefined","1","right","21","21","21","0","0","21","21","0","0","21","21","21","0","21","0","Sun Oct 15 17:13:35 2023","The main experiment item","False","SternbergTask.osexp","C:\Users\juzal\OneDrive\Documents\Masters of Equine Science\Advanced Quantitative Methods and Experiment Design","False","mono","False","18","no","white","no","yes","768","legacy","9","11","C:/Users/juzal/OneDrive/Documents/Masters of Equine Science/Advanced Quantitative Methods and Experiment Design/Ch-subject-3.csv","legacy","1 7 5 2","Melodramatic Milgram","4.0.5","0","n","0","right","right","left","right","NA","481.0","42862","9866","481","NA","2","legacy","4","1024","2","48000","-16","experiment","3","odd","3","185728","182495","183525","2087","128821","183526","105941","2097","118954","187728","188209","184528","44961","187728","NA","Sternberg Task","18","18066.0","22","1024"
"82","82","816","816","#3d3846","experiment","legacy","legacy","legacy","1","undefined","1","right","22","22","22","0","0","22","22","0","0","22","22","22","0","22","0","Sun Oct 15 17:13:35 2023","The main experiment item","False","SternbergTask.osexp","C:\Users\juzal\OneDrive\Documents\Masters of Equine Science\Advanced Quantitative Methods and Experiment Design","False","mono","False","18","no","white","no","yes","768","legacy","10","11","C:/Users/juzal/OneDrive/Documents/Masters of Equine Science/Advanced Quantitative Methods and Experiment Design/Ch-subject-3.csv","legacy","7 9","Melodramatic Milgram","4.0.5","0","n","0","right","right","left","right","NA","704.0","42862","9866","704","NA","2","legacy","2","1024","2","48000","-16","experiment","3","odd","1","191470","188238","189269","2087","128821","189270","105941","2097","118954","193470","194174","190270","44961","193470","NA","Sternberg Task","19","18770.0","23","1024"
"83","83","822","822","#3d3846","experiment","legacy","legacy","legacy","1","undefined","1","left","23","23","23","0","0","23","23","0","0","23","23","23","0","23","0","Sun Oct 15 17:13:35 2023","The main experiment item","False","SternbergTask.osexp","C:\Users\juzal\OneDrive\Documents\Masters of Equine Science\Advanced Quantitative Methods and Experiment Design","False","mono","False","18","no","white","no","yes","768","legacy","11","11","C:/Users/juzal/OneDrive/Documents/Masters of Equine Science/Advanced Quantitative Methods and Experiment Design/Ch-subject-3.csv","legacy","7 8 6 3 1","Melodramatic Milgram","4.0.5","5","y","0","left","right","left","left","NA","967.0","42862","9866","967","NA","2","legacy","5","1024","2","48000","-16","experiment","3","odd","1","197412","194179","195211","2087","128821","195212","105941","2097","118954","199412","200380","196212","44961","199412","NA","Sternberg Task","20","19737.0","24","1024"
"84","84","817","817","#3d3846","experiment","legacy","legacy","legacy","1","undefined","1","right","24","24","24","0","0","24","24","0","0","24","24","24","0","24","0","Sun Oct 15 17:13:35 2023","The main experiment item","False","SternbergTask.osexp","C:\Users\juzal\OneDrive\Documents\Masters of Equine Science\Advanced Quantitative Methods and Experiment Design","False","mono","False","18","no","white","no","yes","768","legacy","12","11","C:/Users/juzal/OneDrive/Documents/Masters of Equine Science/Advanced Quantitative Methods and Experiment Design/Ch-subject-3.csv","legacy","7 1 8 4 9 3","Melodramatic Milgram","4.0.5","0","n","0","right","right","left","right","NA","702.0","42862","9866","702","NA","2","legacy","6","1024","2","48000","-16","experiment","3","odd","6","203614","200386","201413","2087","128821","201413","105941","2097","118954","205614","206317","202413","44961","205614","NA","Sternberg Task","21","20439.0","25","1024"
"84","84","801","801","#3d3846","experiment","legacy","legacy","legacy","1","undefined","1","left","25","25","25","0","0","25","25","0","0","25","25","25","0","25","0","Sun Oct 15 17:13:35 2023","The main experiment item","False","SternbergTask.osexp","C:\Users\juzal\OneDrive\Documents\Masters of Equine Science\Advanced Quantitative Methods and Experiment Design","False","mono","False","18","no","white","no","yes","768","legacy","13","11","C:/Users/juzal/OneDrive/Documents/Masters of Equine Science/Advanced Quantitative Methods and Experiment Design/Ch-subject-3.csv","legacy","7","Melodramatic Milgram","4.0.5","1","y","0","left","right","left","left","NA","392.0","42862","9866","392","NA","2","legacy","1","1024","2","48000","-16","experiment","3","odd","7","209572","206345","207370","2087","128821","207371","105941","2097","118954","211572","211965","208371","44961","211572","NA","Sternberg Task","22","20831.0","26","1024"
"85","85","791","791","#3d3846","experiment","legacy","legacy","legacy","1","undefined","1","left","26","26","26","0","0","26","26","0","0","26","26","26","0","26","0","Sun Oct 15 17:13:35 2023","The main experiment item","False","SternbergTask.osexp","C:\Users\juzal\OneDrive\Documents\Masters of Equine Science\Advanced Quantitative Methods and Experiment Design","False","mono","False","18","no","white","no","yes","768","legacy","14","11","C:/Users/juzal/OneDrive/Documents/Masters of Equine Science/Advanced Quantitative Methods and Experiment Design/Ch-subject-3.csv","legacy","8 7 3","Melodramatic Milgram","4.0.5","1","y","0","left","right","left","left","NA","534.0","42862","9866","534","NA","2","legacy","3","1024","2","48000","-16","experiment","3","odd","8","215199","211971","212997","2087","128821","212998","105941","2097","118954","217199","217733","213998","44961","217199","NA","Sternberg Task","23","21365.0","27","1024"
"85","85","776","776","#3d3846","experiment","legacy","legacy","legacy","1","undefined","1","right","27","27","27","0","0","27","27","0","0","27","27","27","0","27","0","Sun Oct 15 17:13:35 2023","The main experiment item","False","SternbergTask.osexp","C:\Users\juzal\OneDrive\Documents\Masters of Equine Science\Advanced Quantitative Methods and Experiment Design","False","mono","False","18","no","white","no","yes","768","legacy","15","11","C:/Users/juzal/OneDrive/Documents/Masters of Equine Science/Advanced Quantitative Methods and Experiment Design/Ch-subject-3.csv","legacy","3 9 1","Melodramatic Milgram","4.0.5","0","n","0","right","right","left","right","NA","372.0","42862","9866","372","NA","2","legacy","3","1024","2","48000","-16","experiment","3","odd","7","220986","217758","218783","2087","128821","218784","105941","2097","118954","222986","223358","219785","44961","222986","NA","Sternberg Task","24","21737.0","28","1024"
"82","82","768","768","#3d3846","experiment","legacy","legacy","legacy","0","undefined","0","right","28","28","28","0","0","28","28","0","0","28","28","28","0","28","0","Sun Oct 15 17:13:35 2023","The main experiment item","False","SternbergTask.osexp","C:\Users\juzal\OneDrive\Documents\Masters of Equine Science\Advanced Quantitative Methods and Experiment Design","False","mono","False","18","no","white","no","yes","768","legacy","16","11","C:/Users/juzal/OneDrive/Documents/Masters of Equine Science/Advanced Quantitative Methods and Experiment Design/Ch-subject-3.csv","legacy","6 9 5","Melodramatic Milgram","4.0.5","0","n","0","left","right","left","left","NA","554.0","42862","9866","554","NA","2","legacy","3","1024","2","48000","-16","experiment","3","odd","8","226620","223392","224419","2087","128821","224419","105941","2097","118954","228620","229175","225419","44961","228620","NA","Sternberg Task","24","22291.0","29","1024"
"83","83","773","773","#3d3846","experiment","legacy","legacy","legacy","1","undefined","1","right","29","29","29","0","0","29","29","0","0","29","29","29","0","29","0","Sun Oct 15 17:13:35 2023","The main experiment item","False","SternbergTask.osexp","C:\Users\juzal\OneDrive\Documents\Masters of Equine Science\Advanced Quantitative Methods and Experiment Design","False","mono","False","18","no","white","no","yes","768","legacy","17","11","C:/Users/juzal/OneDrive/Documents/Masters of Equine Science/Advanced Quantitative Methods and Experiment Design/Ch-subject-3.csv","legacy","3 4 2","Melodramatic Milgram","4.0.5","0","n","0","right","right","left","right","NA","901.0","42862","9866","901","NA","2","legacy","3","1024","2","48000","-16","experiment","3","odd","5","232442","223392","230240","2087","128821","230241","229214","2097","118954","234442","235344","231241","44961","234442","NA","Sternberg Task","25","23192.0","30","1024"
"80","80","792","792","#3d3846","experiment","legacy","legacy","legacy","0","undefined","0","left","30","30","30","0","0","30","30","0","0","30","30","30","0","30","0","Sun Oct 15 17:13:35 2023","The main experiment item","False","SternbergTask.osexp","C:\Users\juzal\OneDrive\Documents\Masters of Equine Science\Advanced Quantitative Methods and Experiment Design","False","mono","False","18","no","white","no","yes","768","legacy","18","11","C:/Users/juzal/OneDrive/Documents/Masters of Equine Science/Advanced Quantitative Methods and Experiment Design/Ch-subject-3.csv","legacy","6 9 7 4 5 1","Melodramatic Milgram","4.0.5","2","y","0","right","right","left","right","NA","1361.0","42862","9866","1361","NA","2","legacy","6","1024","2","48000","-16","experiment","3","odd","9","238603","235374","236401","2087","128821","236402","229214","2097","118954","240603","241964","237402","44961","240603","NA","Sternberg Task","25","24553.0","31","1024"
"81","81","792","792","#3d3846","experiment","legacy","legacy","legacy","1","undefined","1","right","31","31","31","0","0","31","31","0","0","31","31","31","0","31","0","Sun Oct 15 17:13:35 2023","The main experiment item","False","SternbergTask.osexp","C:\Users\juzal\OneDrive\Documents\Masters of Equine Science\Advanced Quantitative Methods and Experiment Design","False","mono","False","18","no","white","no","yes","768","legacy","19","11","C:/Users/juzal/OneDrive/Documents/Masters of Equine Science/Advanced Quantitative Methods and Experiment Design/Ch-subject-3.csv","legacy","8 5 7 3 6","Melodramatic Milgram","4.0.5","0","n","0","right","right","left","right","NA","798.0","42862","9866","798","NA","2","legacy","5","1024","2","48000","-16","experiment","3","odd","9","245236","235374","243033","2087","128821","243034","241999","2097","118954","247236","248035","244035","44961","247236","NA","Sternberg Task","26","25351.0","32","1024"
"81","81","784","784","#3d3846","experiment","legacy","legacy","legacy","1","undefined","1","right","32","32","32","0","0","32","32","0","0","32","32","32","0","32","0","Sun Oct 15 17:13:35 2023","The main experiment item","False","SternbergTask.osexp","C:\Users\juzal\OneDrive\Documents\Masters of Equine Science\Advanced Quantitative Methods and Experiment Design","False","mono","False","18","no","white","no","yes","768","legacy","20","11","C:/Users/juzal/OneDrive/Documents/Masters of Equine Science/Advanced Quantitative Methods and Experiment Design/Ch-subject-3.csv","legacy","7 1","Melodramatic Milgram","4.0.5","0","n","0","right","right","left","right","NA","538.0","42862","9866","538","NA","2","legacy","2","1024","2","48000","-16","experiment","3","odd","8","251297","248070","249095","2087","128821","249096","241999","2097","118954","253297","253836","250096","44961","253297","NA","Sternberg Task","27","25889.0","33","1024"
"82","82","789","789","#3d3846","experiment","legacy","legacy","legacy","1","undefined","1","right","33","33","33","0","0","33","33","0","0","33","33","33","0","33","0","Sun Oct 15 17:13:35 2023","The main experiment item","False","SternbergTask.osexp","C:\Users\juzal\OneDrive\Documents\Masters of Equine Science\Advanced Quantitative Methods and Experiment Design","False","mono","False","18","no","white","no","yes","768","legacy","21","11","C:/Users/juzal/OneDrive/Documents/Masters of Equine Science/Advanced Quantitative Methods and Experiment Design/Ch-subject-3.csv","legacy","2 8 9 4 1","Melodramatic Milgram","4.0.5","0","n","0","right","right","left","right","NA","949.0","42862","9866","949","NA","2","legacy","5","1024","2","48000","-16","experiment","3","odd","5","257072","253841","254870","2087","128821","254870","241999","2097","118954","259072","260021","255871","44961","259072","NA","Sternberg Task","28","26838.0","34","1024"
"80","80","786","786","#3d3846","experiment","legacy","legacy","legacy","0","undefined","0","left","34","34","34","0","0","34","34","0","0","34","34","34","0","34","0","Sun Oct 15 17:13:35 2023","The main experiment item","False","SternbergTask.osexp","C:\Users\juzal\OneDrive\Documents\Masters of Equine Science\Advanced Quantitative Methods and Experiment Design","False","mono","False","18","no","white","no","yes","768","legacy","22","11","C:/Users/juzal/OneDrive/Documents/Masters of Equine Science/Advanced Quantitative Methods and Experiment Design/Ch-subject-3.csv","legacy","7 2 3","Melodramatic Milgram","4.0.5","3","y","0","right","right","left","right","NA","702.0","42862","9866","702","NA","2","legacy","3","1024","2","48000","-16","experiment","3","odd","3","263278","260049","261075","2087","128821","261076","241999","2097","118954","265278","265980","262077","44961","265278","NA","Sternberg Task","28","27540.0","35","1024"
"80","80","789","789","#3d3846","experiment","legacy","legacy","legacy","1","undefined","1","left","35","35","35","0","0","35","35","0","0","35","35","35","0","35","0","Sun Oct 15 17:13:35 2023","The main experiment item","False","SternbergTask.osexp","C:\Users\juzal\OneDrive\Documents\Masters of Equine Science\Advanced Quantitative Methods and Experiment Design","False","mono","False","18","no","white","no","yes","768","legacy","23","11","C:/Users/juzal/OneDrive/Documents/Masters of Equine Science/Advanced Quantitative Methods and Experiment Design/Ch-subject-3.csv","legacy","3 9 6 2","Melodramatic Milgram","4.0.5","4","y","0","left","right","left","left","NA","867.0","42862","9866","867","NA","2","legacy","4","1024","2","48000","-16","experiment","3","odd","2","269240","260049","267038","2087","128821","267039","266013","2097","118954","271240","272108","268039","44961","271240","NA","Sternberg Task","29","28407.0","36","1024"
"78","78","776","776","#3d3846","experiment","legacy","legacy","legacy","0","undefined","0","left","36","36","36","0","0","36","36","0","0","36","36","36","0","36","0","Sun Oct 15 17:13:35 2023","The main experiment item","False","SternbergTask.osexp","C:\Users\juzal\OneDrive\Documents\Masters of Equine Science\Advanced Quantitative Methods and Experiment Design","False","mono","False","18","no","white","no","yes","768","legacy","24","11","C:/Users/juzal/OneDrive/Documents/Masters of Equine Science/Advanced Quantitative Methods and Experiment Design/Ch-subject-3.csv","legacy","6 1 2","Melodramatic Milgram","4.0.5","3","y","0","right","right","left","right","NA","340.0","42862","9866","340","NA","2","legacy","3","1024","2","48000","-16","experiment","3","odd","2","275364","272136","273162","2087","128821","273163","266013","2097","118954","277364","277704","274163","44961","277364","NA","Sternberg Task","29","28747.0","37","1024"
"78","78","783","783","#3d3846","experiment","legacy","legacy","legacy","1","undefined","1","left","37","37","37","0","0","37","37","0","0","37","37","37","0","37","0","Sun Oct 15 17:13:35 2023","The main experiment item","False","SternbergTask.osexp","C:\Users\juzal\OneDrive\Documents\Masters of Equine Science\Advanced Quantitative Methods and Experiment Design","False","mono","False","18","no","white","no","yes","768","legacy","25","11","C:/Users/juzal/OneDrive/Documents/Masters of Equine Science/Advanced Quantitative Methods and Experiment Design/Ch-subject-3.csv","legacy","8 9 5 6 7","Melodramatic Milgram","4.0.5","1","y","0","left","right","left","left","NA","1021.0","42862","9866","1021","NA","2","legacy","5","1024","2","48000","-16","experiment","3","odd","8","280959","272136","278756","2087","128821","278757","277729","2097","118954","282959","283980","279757","44961","282959","NA","Sternberg Task","30","29768.0","38","1024"
"79","79","783","783","#3d3846","experiment","legacy","legacy","legacy","1","undefined","1","right","38","38","38","0","0","38","38","0","0","38","38","38","0","38","0","Sun Oct 15 17:13:35 2023","The main experiment item","False","SternbergTask.osexp","C:\Users\juzal\OneDrive\Documents\Masters of Equine Science\Advanced Quantitative Methods and Experiment Design","False","mono","False","18","no","white","no","yes","768","legacy","26","11","C:/Users/juzal/OneDrive/Documents/Masters of Equine Science/Advanced Quantitative Methods and Experiment Design/Ch-subject-3.csv","legacy","1 6 4","Melodramatic Milgram","4.0.5","0","n","0","right","right","left","right","NA","777.0","42862","9866","777","NA","2","legacy","3","1024","2","48000","-16","experiment","3","odd","7","287239","284006","285038","2087","128821","285038","277729","2097","118954","289239","290020","286038","44961","289239","NA","Sternberg Task","31","30545.0","39","1024"
"80","80","780","780","#3d3846","experiment","legacy","legacy","legacy","1","undefined","1","left","39","39","39","0","0","39","39","0","0","39","39","39","0","39","0","Sun Oct 15 17:13:35 2023","The main experiment item","False","SternbergTask.osexp","C:\Users\juzal\OneDrive\Documents\Masters of Equine Science\Advanced Quantitative Methods and Experiment Design","False","mono","False","18","no","white","no","yes","768","legacy","27","11","C:/Users/juzal/OneDrive/Documents/Masters of Equine Science/Advanced Quantitative Methods and Experiment Design/Ch-subject-3.csv","legacy","7 4 2 6 3 5","Melodramatic Milgram","4.0.5","6","y","0","left","right","left","left","NA","690.0","42862","9866","690","NA","2","legacy","6","1024","2","48000","-16","experiment","3","odd","5","293285","290054","291082","2087","128821","291083","277729","2097","118954","295286","295976","292084","44961","295285","NA","Sternberg Task","32","31235.0","40","1024"
"80","80","778","778","#3d3846","experiment","legacy","legacy","legacy","1","undefined","1","right","40","40","40","0","0","40","40","0","0","40","40","40","0","40","0","Sun Oct 15 17:13:35 2023","The main experiment item","False","SternbergTask.osexp","C:\Users\juzal\OneDrive\Documents\Masters of Equine Science\Advanced Quantitative Methods and Experiment Design","False","mono","False","18","no","white","no","yes","768","legacy","28","11","C:/Users/juzal/OneDrive/Documents/Masters of Equine Science/Advanced Quantitative Methods and Experiment Design/Ch-subject-3.csv","legacy","9","Melodramatic Milgram","4.0.5","0","n","0","right","right","left","right","NA","692.0","42862","9866","692","NA","2","legacy","1","1024","2","48000","-16","experiment","3","odd","6","299232","296001","297027","2087","128821","297030","277729","2097","118954","301232","301924","298031","44961","301232","NA","Sternberg Task","33","31927.0","41","1024"
"80","80","778","778","#3d3846","experiment","legacy","legacy","legacy","1","undefined","1","right","41","41","41","0","0","41","41","0","0","41","41","41","0","41","0","Sun Oct 15 17:13:35 2023","The main experiment item","False","SternbergTask.osexp","C:\Users\juzal\OneDrive\Documents\Masters of Equine Science\Advanced Quantitative Methods and Experiment Design","False","mono","False","18","no","white","no","yes","768","legacy","29","11","C:/Users/juzal/OneDrive/Documents/Masters of Equine Science/Advanced Quantitative Methods and Experiment Design/Ch-subject-3.csv","legacy","7 4 2 8 1 9","Melodramatic Milgram","4.0.5","0","n","0","right","right","left","right","NA","774.0","42862","9866","774","NA","2","legacy","6","1024","2","48000","-16","experiment","3","odd","5","305194","301961","302992","2087","128821","302993","277729","2097","118954","307194","307969","303993","44961","307194","NA","Sternberg Task","34","32701.0","42","1024"
"81","81","774","774","#3d3846","experiment","legacy","legacy","legacy","1","undefined","1","right","42","42","42","0","0","42","42","0","0","42","42","42","0","42","0","Sun Oct 15 17:13:35 2023","The main experiment item","False","SternbergTask.osexp","C:\Users\juzal\OneDrive\Documents\Masters of Equine Science\Advanced Quantitative Methods and Experiment Design","False","mono","False","18","no","white","no","yes","768","legacy","30","11","C:/Users/juzal/OneDrive/Documents/Masters of Equine Science/Advanced Quantitative Methods and Experiment Design/Ch-subject-3.csv","legacy","9 5 3 2 8 6","Melodramatic Milgram","4.0.5","0","n","0","right","right","left","right","NA","602.0","42862","9866","602","NA","2","legacy","6","1024","2","48000","-16","experiment","3","odd","7","311223","307994","309021","2087","128821","309021","277729","2097","118954","313223","313826","310022","44961","313223","NA","Sternberg Task","35","33303.0","43","1024"
"81","81","772","772","#3d3846","experiment","legacy","legacy","legacy","1","undefined","1","right","43","43","43","0","0","43","43","0","0","43","43","43","0","43","0","Sun Oct 15 17:13:35 2023","The main experiment item","False","SternbergTask.osexp","C:\Users\juzal\OneDrive\Documents\Masters of Equine Science\Advanced Quantitative Methods and Experiment Design","False","mono","False","18","no","white","no","yes","768","legacy","31","11","C:/Users/juzal/OneDrive/Documents/Masters of Equine Science/Advanced Quantitative Methods and Experiment Design/Ch-subject-3.csv","legacy","1 6 4 3 9 7","Melodramatic Milgram","4.0.5","0","n","0","right","right","left","right","NA","685.0","42862","9866","685","NA","2","legacy","6","1024","2","48000","-16","experiment","3","odd","8","317086","313856","314883","2087","128821","314884","277729","2097","118954","319086","319772","315885","44961","319086","NA","Sternberg Task","36","33988.0","44","1024"
"82","82","773","773","#3d3846","experiment","legacy","legacy","legacy","1","undefined","1","right","44","44","44","0","0","44","44","0","0","44","44","44","0","44","0","Sun Oct 15 17:13:35 2023","The main experiment item","False","SternbergTask.osexp","C:\Users\juzal\OneDrive\Documents\Masters of Equine Science\Advanced Quantitative Methods and Experiment Design","False","mono","False","18","no","white","no","yes","768","legacy","32","11","C:/Users/juzal/OneDrive/Documents/Masters of Equine Science/Advanced Quantitative Methods and Experiment Design/Ch-subject-3.csv","legacy","3 4 9 6 7 8","Melodramatic Milgram","4.0.5","0","n","0","right","right","left","right","NA","816.0","42862","9866","816","NA","2","legacy","6","1024","2","48000","-16","experiment","3","odd","2","323038","319807","320836","2087","128821","320837","277729","2097","118954","325040","325856","321838","44961","325040","NA","Sternberg Task","37","34804.0","45","1024"
"82","82","777","777","#3d3846","experiment","legacy","legacy","legacy","1","undefined","1","right","45","45","45","0","0","45","45","0","0","45","45","45","0","45","0","Sun Oct 15 17:13:35 2023","The main experiment item","False","SternbergTask.osexp","C:\Users\juzal\OneDrive\Documents\Masters of Equine Science\Advanced Quantitative Methods and Experiment Design","False","mono","False","18","no","white","no","yes","768","legacy","33","11","C:/Users/juzal/OneDrive/Documents/Masters of Equine Science/Advanced Quantitative Methods and Experiment Design/Ch-subject-3.csv","legacy","7 8 6 1","Melodramatic Milgram","4.0.5","0","n","0","right","right","left","right","NA","939.0","42862","9866","939","NA","2","legacy","4","1024","2","48000","-16","experiment","3","odd","3","329093","325861","326891","2087","128821","326892","277729","2097","118954","331094","332034","327893","44961","331094","NA","Sternberg Task","38","35743.0","46","1024"
"82","82","772","772","#3d3846","experiment","legacy","legacy","legacy","1","undefined","1","right","46","46","46","0","0","46","46","0","0","46","46","46","0","46","0","Sun Oct 15 17:13:35 2023","The main experiment item","False","SternbergTask.osexp","C:\Users\juzal\OneDrive\Documents\Masters of Equine Science\Advanced Quantitative Methods and Experiment Design","False","mono","False","18","no","white","no","yes","768","legacy","34","11","C:/Users/juzal/OneDrive/Documents/Masters of Equine Science/Advanced Quantitative Methods and Experiment Design/Ch-subject-3.csv","legacy","5 9 2 3","Melodramatic Milgram","4.0.5","0","n","0","right","right","left","right","NA","579.0","42862","9866","579","NA","2","legacy","4","1024","2","48000","-16","experiment","3","odd","8","335301","332063","333098","2087","128821","333099","277729","2097","118954","337301","337881","334100","44961","337301","NA","Sternberg Task","39","36322.0","47","1024"
"83","83","772","772","#3d3846","experiment","legacy","legacy","legacy","1","undefined","1","left","47","47","47","0","0","47","47","0","0","47","47","47","0","47","0","Sun Oct 15 17:13:35 2023","The main experiment item","False","SternbergTask.osexp","C:\Users\juzal\OneDrive\Documents\Masters of Equine Science\Advanced Quantitative Methods and Experiment Design","False","mono","False","18","no","white","no","yes","768","legacy","35","11","C:/Users/juzal/OneDrive/Documents/Masters of Equine Science/Advanced Quantitative Methods and Experiment Design/Ch-subject-3.csv","legacy","4 9 7 8 5 3","Melodramatic Milgram","4.0.5","4","y","0","left","right","left","left","NA","770.0","42862","9866","770","NA","2","legacy","6","1024","2","48000","-16","experiment","3","odd","8","341136","337908","338934","2087","128821","338935","277729","2097","118954","343136","343907","339935","44961","343136","NA","Sternberg Task","40","37092.0","48","1024"
"81","81","765","765","#3d3846","experiment","legacy","legacy","legacy","0","undefined","0","left","48","48","48","0","0","48","48","0","0","48","48","48","0","48","0","Sun Oct 15 17:13:35 2023","The main experiment item","False","SternbergTask.osexp","C:\Users\juzal\OneDrive\Documents\Masters of Equine Science\Advanced Quantitative Methods and Experiment Design","False","mono","False","18","no","white","no","yes","768","legacy","36","11","C:/Users/juzal/OneDrive/Documents/Masters of Equine Science/Advanced Quantitative Methods and Experiment Design/Ch-subject-3.csv","legacy","1 4 9 3 2 5","Melodramatic Milgram","4.0.5","3","y","0","right","right","left","right","NA","399.0","42862","9866","399","NA","2","legacy","6","1024","2","48000","-16","experiment","3","odd","9","347163","343934","344961","2087","128821","344962","277729","2097","118954","349163","349563","345962","44961","349163","NA","Sternberg Task","40","37491.0","49","1024"
"82","82","764","764","#3d3846","experiment","legacy","legacy","legacy","1","undefined","1","left","49","49","49","0","0","49","49","0","0","49","49","49","0","49","0","Sun Oct 15 17:13:35 2023","The main experiment item","False","SternbergTask.osexp","C:\Users\juzal\OneDrive\Documents\Masters of Equine Science\Advanced Quantitative Methods and Experiment Design","False","mono","False","18","no","white","no","yes","768","legacy","37","11","C:/Users/juzal/OneDrive/Documents/Masters of Equine Science/Advanced Quantitative Methods and Experiment Design/Ch-subject-3.csv","legacy","6 7 8 5","Melodramatic Milgram","4.0.5","3","y","0","left","right","left","left","NA","728.0","42862","9866","728","NA","2","legacy","4","1024","2","48000","-16","experiment","3","odd","8","352799","343934","350596","2087","128821","350597","349567","2097","118954","354800","355529","351598","44961","354800","NA","Sternberg Task","41","38219.0","50","1024"
"82","82","770","770","#3d3846","experiment","legacy","legacy","legacy","1","undefined","1","right","50","50","50","0","0","50","50","0","0","50","50","50","0","50","0","Sun Oct 15 17:13:35 2023","The main experiment item","False","SternbergTask.osexp","C:\Users\juzal\OneDrive\Documents\Masters of Equine Science\Advanced Quantitative Methods and Experiment Design","False","mono","False","18","no","white","no","yes","768","legacy","38","11","C:/Users/juzal/OneDrive/Documents/Masters of Equine Science/Advanced Quantitative Methods and Experiment Design/Ch-subject-3.csv","legacy","5 3 8 7 2 4","Melodramatic Milgram","4.0.5","0","n","0","right","right","left","right","NA","1068.0","42862","9866","1068","NA","2","legacy","6","1024","2","48000","-16","experiment","3","odd","9","358794","355564","356591","2087","128821","356593","349567","2097","118954","360794","361863","357593","44961","360794","NA","Sternberg Task","42","39287.0","51","1024"
"80","80","770","770","#3d3846","experiment","legacy","legacy","legacy","0","undefined","0","right","51","51","51","0","0","51","51","0","0","51","51","51","0","51","0","Sun Oct 15 17:13:35 2023","The main experiment item","False","SternbergTask.osexp","C:\Users\juzal\OneDrive\Documents\Masters of Equine Science\Advanced Quantitative Methods and Experiment Design","False","mono","False","18","no","white","no","yes","768","legacy","39","11","C:/Users/juzal/OneDrive/Documents/Masters of Equine Science/Advanced Quantitative Methods and Experiment Design/Ch-subject-3.csv","legacy","1 7 5 2 9","Melodramatic Milgram","4.0.5","0","n","0","left","right","left","left","NA","786.0","42862","9866","786","NA","2","legacy","5","1024","2","48000","-16","experiment","3","odd","3","365097","361867","362894","2087","128821","362895","349567","2097","118954","367097","367884","363896","44961","367097","NA","Sternberg Task","42","40073.0","52","1024"
"81","81","768","768","#3d3846","experiment","legacy","legacy","legacy","1","undefined","1","right","52","52","52","0","0","52","52","0","0","52","52","52","0","52","0","Sun Oct 15 17:13:35 2023","The main experiment item","False","SternbergTask.osexp","C:\Users\juzal\OneDrive\Documents\Masters of Equine Science\Advanced Quantitative Methods and Experiment Design","False","mono","False","18","no","white","no","yes","768","legacy","40","11","C:/Users/juzal/OneDrive/Documents/Masters of Equine Science/Advanced Quantitative Methods and Experiment Design/Ch-subject-3.csv","legacy","8 4 3 5","Melodramatic Milgram","4.0.5","0","n","0","right","right","left","right","NA","647.0","42862","9866","647","NA","2","legacy","4","1024","2","48000","-16","experiment","3","odd","6","371143","361867","368940","2087","128821","368941","367913","2097","118954","373143","373791","369942","44961","373143","NA","Sternberg Task","43","40720.0","53","1024"
"81","81","768","768","#3d3846","experiment","legacy","legacy","legacy","1","undefined","1","right","53","53","53","0","0","53","53","0","0","53","53","53","0","53","0","Sun Oct 15 17:13:35 2023","The main experiment item","False","SternbergTask.osexp","C:\Users\juzal\OneDrive\Documents\Masters of Equine Science\Advanced Quantitative Methods and Experiment Design","False","mono","False","18","no","white","no","yes","768","legacy","41","11","C:/Users/juzal/OneDrive/Documents/Masters of Equine Science/Advanced Quantitative Methods and Experiment Design/Ch-subject-3.csv","legacy","5 2","Melodramatic Milgram","4.0.5","0","n","0","right","right","left","right","NA","792.0","42862","9866","792","NA","2","legacy","2","1024","2","48000","-16","experiment","3","odd","7","377053","373819","374851","2087","128821","374852","367913","2097","118954","379053","379846","375852","44961","379053","NA","Sternberg Task","44","41512.0","54","1024"
"80","80","791","791","#3d3846","experiment","legacy","legacy","legacy","0","undefined","0","left","54","54","54","0","0","54","54","0","0","54","54","54","0","54","0","Sun Oct 15 17:13:35 2023","The main experiment item","False","SternbergTask.osexp","C:\Users\juzal\OneDrive\Documents\Masters of Equine Science\Advanced Quantitative Methods and Experiment Design","False","mono","False","18","no","white","no","yes","768","legacy","42","11","C:/Users/juzal/OneDrive/Documents/Masters of Equine Science/Advanced Quantitative Methods and Experiment Design/Ch-subject-3.csv","legacy","4 1 5","Melodramatic Milgram","4.0.5","2","y","0","None","right","left","None","NA","2000.0","42862","9866","2000","NA","2","legacy","3","1024","2","48000","-16","experiment","3","odd","1","383102","379871","380899","2087","128821","380900","367913","2097","118954","385102","387102","381900","44961","385102","NA","Sternberg Task","44","43512.0","55","1024"
"78","78","790","790","#3d3846","experiment","legacy","legacy","legacy","0","undefined","0","left","55","55","55","0","0","55","55","0","0","55","55","55","0","55","0","Sun Oct 15 17:13:35 2023","The main experiment item","False","SternbergTask.osexp","C:\Users\juzal\OneDrive\Documents\Masters of Equine Science\Advanced Quantitative Methods and Experiment Design","False","mono","False","18","no","white","no","yes","768","legacy","43","11","C:/Users/juzal/OneDrive/Documents/Masters of Equine Science/Advanced Quantitative Methods and Experiment Design/Ch-subject-3.csv","legacy","6 8 9 3 4 9","Melodramatic Milgram","4.0.5","5","y","0","right","right","left","right","NA","745.0","42862","9866","745","NA","2","legacy","6","1024","2","48000","-16","experiment","3","odd","4","390359","379871","388158","2087","128821","388158","387131","2097","118954","392359","393104","389158","44961","392359","NA","Sternberg Task","44","44257.0","56","1024"
"78","78","791","791","#3d3846","experiment","legacy","legacy","legacy","1","undefined","1","left","56","56","56","0","0","56","56","0","0","56","56","56","0","56","0","Sun Oct 15 17:13:35 2023","The main experiment item","False","SternbergTask.osexp","C:\Users\juzal\OneDrive\Documents\Masters of Equine Science\Advanced Quantitative Methods and Experiment Design","False","mono","False","18","no","white","no","yes","768","legacy","44","11","C:/Users/juzal/OneDrive/Documents/Masters of Equine Science/Advanced Quantitative Methods and Experiment Design/Ch-subject-3.csv","legacy","8 9 5 7 1 6","Melodramatic Milgram","4.0.5","4","y","0","left","right","left","left","NA","837.0","42862","9866","837","NA","2","legacy","6","1024","2","48000","-16","experiment","3","odd","7","396361","379871","394159","2087","128821","394160","393132","2097","118954","398361","399199","395160","44961","398361","NA","Sternberg Task","45","45094.0","57","1024"
"79","79","786","786","#3d3846","experiment","legacy","legacy","legacy","1","undefined","1","left","57","57","57","0","0","57","57","0","0","57","57","57","0","57","0","Sun Oct 15 17:13:35 2023","The main experiment item","False","SternbergTask.osexp","C:\Users\juzal\OneDrive\Documents\Masters of Equine Science\Advanced Quantitative Methods and Experiment Design","False","mono","False","18","no","white","no","yes","768","legacy","45","11","C:/Users/juzal/OneDrive/Documents/Masters of Equine Science/Advanced Quantitative Methods and Experiment Design/Ch-subject-3.csv","legacy","8","Melodramatic Milgram","4.0.5","1","y","0","left","right","left","left","NA","533.0","42862","9866","533","NA","2","legacy","1","1024","2","48000","-16","experiment","3","odd","8","402457","399225","400254","2087","128821","400255","393132","2097","118954","404457","404990","401255","44961","404457","NA","Sternberg Task","46","45627.0","58","1024"
"79","79","791","791","#3d3846","experiment","legacy","legacy","legacy","1","undefined","1","left","58","58","58","0","0","58","58","0","0","58","58","58","0","58","0","Sun Oct 15 17:13:35 2023","The main experiment item","False","SternbergTask.osexp","C:\Users\juzal\OneDrive\Documents\Masters of Equine Science\Advanced Quantitative Methods and Experiment Design","False","mono","False","18","no","white","no","yes","768","legacy","46","11","C:/Users/juzal/OneDrive/Documents/Masters of Equine Science/Advanced Quantitative Methods and Experiment Design/Ch-subject-3.csv","legacy","7 1 3","Melodramatic Milgram","4.0.5","2","y","0","left","right","left","left","NA","1070.0","42862","9866","1070","NA","2","legacy","3","1024","2","48000","-16","experiment","3","odd","1","408243","405016","406041","2087","128821","406042","393132","2097","118954","410243","411314","407042","44961","410243","NA","Sternberg Task","47","46697.0","59","1024"
"80","80","789","789","#3d3846","experiment","legacy","legacy","legacy","1","undefined","1","right","59","59","59","0","0","59","59","0","0","59","59","59","0","59","0","Sun Oct 15 17:13:35 2023","The main experiment item","False","SternbergTask.osexp","C:\Users\juzal\OneDrive\Documents\Masters of Equine Science\Advanced Quantitative Methods and Experiment Design","False","mono","False","18","no","white","no","yes","768","legacy","47","11","C:/Users/juzal/OneDrive/Documents/Masters of Equine Science/Advanced Quantitative Methods and Experiment Design/Ch-subject-3.csv","legacy","1 4 9 3","Melodramatic Milgram","4.0.5","0","n","0","right","right","left","right","NA","690.0","42862","9866","690","NA","2","legacy","4","1024","2","48000","-16","experiment","3","odd","5","414589","411360","412387","2087","128821","412388","393132","2097","118954","416589","417279","413388","44961","416589","NA","Sternberg Task","48","47387.0","60","1024"
"78","78","795","795","#3d3846","experiment","legacy","legacy","legacy","0","undefined","0","right","60","60","60","0","0","60","60","0","0","60","60","60","0","60","0","Sun Oct 15 17:13:35 2023","The main experiment item","False","SternbergTask.osexp","C:\Users\juzal\OneDrive\Documents\Masters of Equine Science\Advanced Quantitative Methods and Experiment Design","False","mono","False","18","no","white","no","yes","768","legacy","48","11","C:/Users/juzal/OneDrive/Documents/Masters of Equine Science/Advanced Quantitative Methods and Experiment Design/Ch-subject-3.csv","legacy","1 3 2 6 9","Melodramatic Milgram","4.0.5","0","n","0","left","right","left","left","NA","1144.0","42862","9866","1144","NA","2","legacy","5","1024","2","48000","-16","experiment","3","odd","5","420552","417323","418350","2087","128821","418351","393132","2097","118954","422552","423696","419351","44961","422552","NA","Sternberg Task","48","48531.0","61","1024"
"79","79","799","799","#3d3846","experiment","legacy","legacy","legacy","1","undefined","1","right","61","61","61","0","0","61","61","0","0","61","61","61","0","61","0","Sun Oct 15 17:13:35 2023","The main experiment item","False","SternbergTask.osexp","C:\Users\juzal\OneDrive\Documents\Masters of Equine Science\Advanced Quantitative Methods and Experiment Design","False","mono","False","18","no","white","no","yes","768","legacy","49","11","C:/Users/juzal/OneDrive/Documents/Masters of Equine Science/Advanced Quantitative Methods and Experiment Design/Ch-subject-3.csv","legacy","8 6 3 4 7","Melodramatic Milgram","4.0.5","0","n","0","right","right","left","right","NA","1030.0","42862","9866","1030","NA","2","legacy","5","1024","2","48000","-16","experiment","3","odd","1","426974","417323","424771","2087","128821","424772","423740","2097","118954","428974","430004","425773","44961","428974","NA","Sternberg Task","49","49561.0","62","1024"
"79","79","798","798","#3d3846","experiment","legacy","legacy","legacy","1","undefined","1","left","62","62","62","0","0","62","62","0","0","62","62","62","0","62","0","Sun Oct 15 17:13:35 2023","The main experiment item","False","SternbergTask.osexp","C:\Users\juzal\OneDrive\Documents\Masters of Equine Science\Advanced Quantitative Methods and Experiment Design","False","mono","False","18","no","white","no","yes","768","legacy","50","11","C:/Users/juzal/OneDrive/Documents/Masters of Equine Science/Advanced Quantitative Methods and Experiment Design/Ch-subject-3.csv","legacy","3 5 7 1","Melodramatic Milgram","4.0.5","3","y","0","left","right","left","left","NA","772.0","42862","9866","772","NA","2","legacy","4","1024","2","48000","-16","experiment","3","odd","7","433238","430009","431035","2087","128821","431036","423740","2097","118954","435238","436011","432037","44961","435238","NA","Sternberg Task","50","50333.0","63","1024"
"79","79","801","801","#3d3846","experiment","legacy","legacy","legacy","1","undefined","1","right","63","63","63","0","0","63","63","0","0","63","63","63","0","63","0","Sun Oct 15 17:13:35 2023","The main experiment item","False","SternbergTask.osexp","C:\Users\juzal\OneDrive\Documents\Masters of Equine Science\Advanced Quantitative Methods and Experiment Design","False","mono","False","18","no","white","no","yes","768","legacy","51","11","C:/Users/juzal/OneDrive/Documents/Masters of Equine Science/Advanced Quantitative Methods and Experiment Design/Ch-subject-3.csv","legacy","5 3 2 6 9 8","Melodramatic Milgram","4.0.5","0","n","0","right","right","left","right","NA","941.0","42862","9866","941","NA","2","legacy","6","1024","2","48000","-16","experiment","3","odd","4","439283","436054","437080","2087","128821","437081","423740","2097","118954","441283","442225","438082","44961","441283","NA","Sternberg Task","51","51274.0","64","1024"
"80","80","799","799","#3d3846","experiment","legacy","legacy","legacy","1","undefined","1","right","64","64","64","0","0","64","64","0","0","64","64","64","0","64","0","Sun Oct 15 17:13:35 2023","The main experiment item","False","SternbergTask.osexp","C:\Users\juzal\OneDrive\Documents\Masters of Equine Science\Advanced Quantitative Methods and Experiment Design","False","mono","False","18","no","white","no","yes","768","legacy","52","11","C:/Users/juzal/OneDrive/Documents/Masters of Equine Science/Advanced Quantitative Methods and Experiment Design/Ch-subject-3.csv","legacy","6 9 4 5 3 2","Melodramatic Milgram","4.0.5","0","n","0","right","right","left","right","NA","693.0","42862","9866","693","NA","2","legacy","6","1024","2","48000","-16","experiment","3","odd","8","445459","442229","443256","2087","128821","443257","423740","2097","118954","447459","448153","444258","44961","447459","NA","Sternberg Task","52","51967.0","65","1024"
"80","80","801","801","#3d3846","experiment","legacy","legacy","legacy","1","undefined","1","left","65","65","65","0","0","65","65","0","0","65","65","65","0","65","0","Sun Oct 15 17:13:35 2023","The main experiment item","False","SternbergTask.osexp","C:\Users\juzal\OneDrive\Documents\Masters of Equine Science\Advanced Quantitative Methods and Experiment Design","False","mono","False","18","no","white","no","yes","768","legacy","53","11","C:/Users/juzal/OneDrive/Documents/Masters of Equine Science/Advanced Quantitative Methods and Experiment Design/Ch-subject-3.csv","legacy","8 3","Melodramatic Milgram","4.0.5","2","y","0","left","right","left","left","NA","904.0","42862","9866","904","NA","2","legacy","2","1024","2","48000","-16","experiment","3","odd","3","451410","448181","449208","2087","128821","449208","423740","2097","118954","453410","454315","450209","44961","453410","NA","Sternberg Task","53","52871.0","66","1024"
"80","80","801","801","#3d3846","experiment","legacy","legacy","legacy","1","undefined","1","left","66","66","66","0","0","66","66","0","0","66","66","66","0","66","0","Sun Oct 15 17:13:35 2023","The main experiment item","False","SternbergTask.osexp","C:\Users\juzal\OneDrive\Documents\Masters of Equine Science\Advanced Quantitative Methods and Experiment Design","False","mono","False","18","no","white","no","yes","768","legacy","54","11","C:/Users/juzal/OneDrive/Documents/Masters of Equine Science/Advanced Quantitative Methods and Experiment Design/Ch-subject-3.csv","legacy","2 6 1 7 4","Melodramatic Milgram","4.0.5","2","y","0","left","right","left","left","NA","796.0","42862","9866","796","NA","2","legacy","5","1024","2","48000","-16","experiment","3","odd","6","457584","454356","455381","2087","128821","455382","423740","2097","118954","459584","460380","456383","44961","459584","NA","Sternberg Task","54","53667.0","67","1024"
"79","79","797","797","#3d3846","experiment","legacy","legacy","legacy","0","undefined","0","left","67","67","67","0","0","67","67","0","0","67","67","67","0","67","0","Sun Oct 15 17:13:35 2023","The main experiment item","False","SternbergTask.osexp","C:\Users\juzal\OneDrive\Documents\Masters of Equine Science\Advanced Quantitative Methods and Experiment Design","False","mono","False","18","no","white","no","yes","768","legacy","55","11","C:/Users/juzal/OneDrive/Documents/Masters of Equine Science/Advanced Quantitative Methods and Experiment Design/Ch-subject-3.csv","legacy","5 2 9 6 1 7","Melodramatic Milgram","4.0.5","3","y","0","right","right","left","right","NA","533.0","42862","9866","533","NA","2","legacy","6","1024","2","48000","-16","experiment","3","odd","9","463635","460407","461433","2087","128821","461434","423740","2097","118954","465635","466169","462434","44961","465635","NA","Sternberg Task","54","54200.0","68","1024"
"79","79","793","793","#3d3846","experiment","legacy","legacy","legacy","1","undefined","1","left","68","68","68","0","0","68","68","0","0","68","68","68","0","68","0","Sun Oct 15 17:13:35 2023","The main experiment item","False","SternbergTask.osexp","C:\Users\juzal\OneDrive\Documents\Masters of Equine Science\Advanced Quantitative Methods and Experiment Design","False","mono","False","18","no","white","no","yes","768","legacy","56","11","C:/Users/juzal/OneDrive/Documents/Masters of Equine Science/Advanced Quantitative Methods and Experiment Design/Ch-subject-3.csv","legacy","6 9 3 1","Melodramatic Milgram","4.0.5","4","y","0","left","right","left","left","NA","562.0","42862","9866","562","NA","2","legacy","4","1024","2","48000","-16","experiment","3","odd","1","469443","460407","467240","2087","128821","467241","466203","2097","118954","471443","472006","468242","44961","471443","NA","Sternberg Task","55","54762.0","69","1024"
"78","78","790","790","#3d3846","experiment","legacy","legacy","legacy","0","undefined","0","right","69","69","69","0","0","69","69","0","0","69","69","69","0","69","0","Sun Oct 15 17:13:35 2023","The main experiment item","False","SternbergTask.osexp","C:\Users\juzal\OneDrive\Documents\Masters of Equine Science\Advanced Quantitative Methods and Experiment Design","False","mono","False","18","no","white","no","yes","768","legacy","57","11","C:/Users/juzal/OneDrive/Documents/Masters of Equine Science/Advanced Quantitative Methods and Experiment Design/Ch-subject-3.csv","legacy","2 3 8 5 6 7","Melodramatic Milgram","4.0.5","0","n","0","left","right","left","left","NA","571.0","42862","9866","571","NA","2","legacy","6","1024","2","48000","-16","experiment","3","odd","1","475268","472040","473066","2087","128821","473067","466203","2097","118954","477268","477840","474067","44961","477268","NA","Sternberg Task","55","55333.0","70","1024"
"78","78","785","785","#3d3846","experiment","legacy","legacy","legacy","1","undefined","1","left","70","70","70","0","0","70","70","0","0","70","70","70","0","70","0","Sun Oct 15 17:13:35 2023","The main experiment item","False","SternbergTask.osexp","C:\Users\juzal\OneDrive\Documents\Masters of Equine Science\Advanced Quantitative Methods and Experiment Design","False","mono","False","18","no","white","no","yes","768","legacy","58","11","C:/Users/juzal/OneDrive/Documents/Masters of Equine Science/Advanced Quantitative Methods and Experiment Design/Ch-subject-3.csv","legacy","4 6 2 5 1","Melodramatic Milgram","4.0.5","5","y","0","left","right","left","left","NA","451.0","42862","9866","451","NA","2","legacy","5","1024","2","48000","-16","experiment","3","odd","1","481094","472040","478893","2087","128821","478893","477867","2097","118954","483095","483546","479893","44961","483094","NA","Sternberg Task","56","55784.0","71","1024"
"79","79","783","783","#3d3846","experiment","legacy","legacy","legacy","1","undefined","1","left","71","71","71","0","0","71","71","0","0","71","71","71","0","71","0","Sun Oct 15 17:13:35 2023","The main experiment item","False","SternbergTask.osexp","C:\Users\juzal\OneDrive\Documents\Masters of Equine Science\Advanced Quantitative Methods and Experiment Design","False","mono","False","18","no","white","no","yes","768","legacy","59","11","C:/Users/juzal/OneDrive/Documents/Masters of Equine Science/Advanced Quantitative Methods and Experiment Design/Ch-subject-3.csv","legacy","9 3 1 2 5","Melodramatic Milgram","4.0.5","4","y","0","left","right","left","left","NA","663.0","42862","9866","663","NA","2","legacy","5","1024","2","48000","-16","experiment","3","odd","2","486805","483576","484602","2087","128821","484603","477867","2097","118954","488805","489468","485603","44961","488805","NA","Sternberg Task","57","56447.0","72","1024"
"78","78","778","778","#3d3846","experiment","legacy","legacy","legacy","0","undefined","0","left","72","72","72","0","0","72","72","0","0","72","72","72","0","72","0","Sun Oct 15 17:13:35 2023","The main experiment item","False","SternbergTask.osexp","C:\Users\juzal\OneDrive\Documents\Masters of Equine Science\Advanced Quantitative Methods and Experiment Design","False","mono","False","18","no","white","no","yes","768","legacy","60","11","C:/Users/juzal/OneDrive/Documents/Masters of Equine Science/Advanced Quantitative Methods and Experiment Design/Ch-subject-3.csv","legacy","6 5","Melodramatic Milgram","4.0.5","2","y","0","right","right","left","right","NA","398.0","42862","9866","398","NA","2","legacy","2","1024","2","48000","-16","experiment","3","odd","5","492723","489495","490522","2087","128821","490523","477867","2097","118954","494723","495121","491523","44961","494723","NA","Sternberg Task","57","56845.0","73","1024"
"78","78","778","778","#3d3846","experiment","legacy","legacy","legacy","1","undefined","1","right","73","73","73","0","0","73","73","0","0","73","73","73","0","73","0","Sun Oct 15 17:13:35 2023","The main experiment item","False","SternbergTask.osexp","C:\Users\juzal\OneDrive\Documents\Masters of Equine Science\Advanced Quantitative Methods and Experiment Design","False","mono","False","18","no","white","no","yes","768","legacy","61","11","C:/Users/juzal/OneDrive/Documents/Masters of Equine Science/Advanced Quantitative Methods and Experiment Design/Ch-subject-3.csv","legacy","6 9 4 5 2","Melodramatic Milgram","4.0.5","0","n","0","right","right","left","right","NA","730.0","42862","9866","730","NA","2","legacy","5","1024","2","48000","-16","experiment","3","odd","1","498375","489495","496173","2087","128821","496174","495147","2097","118954","500376","501106","497174","44961","500375","NA","Sternberg Task","58","57575.0","74","1024"
"78","78","776","776","#3d3846","experiment","legacy","legacy","legacy","1","undefined","1","left","74","74","74","0","0","74","74","0","0","74","74","74","0","74","0","Sun Oct 15 17:13:35 2023","The main experiment item","False","SternbergTask.osexp","C:\Users\juzal\OneDrive\Documents\Masters of Equine Science\Advanced Quantitative Methods and Experiment Design","False","mono","False","18","no","white","no","yes","768","legacy","62","11","C:/Users/juzal/OneDrive/Documents/Masters of Equine Science/Advanced Quantitative Methods and Experiment Design/Ch-subject-3.csv","legacy","5 7 8 2 3 8","Melodramatic Milgram","4.0.5","5","y","0","left","right","left","left","NA","690.0","42862","9866","690","NA","2","legacy","6","1024","2","48000","-16","experiment","3","odd","3","504339","501111","502137","2087","128821","502138","495147","2097","118954","506339","507029","503138","44961","506339","NA","Sternberg Task","59","58265.0","75","1024"
"78","78","776","776","#3d3846","experiment","legacy","legacy","legacy","1","undefined","1","left","75","75","75","0","0","75","75","0","0","75","75","75","0","75","0","Sun Oct 15 17:13:35 2023","The main experiment item","False","SternbergTask.osexp","C:\Users\juzal\OneDrive\Documents\Masters of Equine Science\Advanced Quantitative Methods and Experiment Design","False","mono","False","18","no","white","no","yes","768","legacy","63","11","C:/Users/juzal/OneDrive/Documents/Masters of Equine Science/Advanced Quantitative Methods and Experiment Design/Ch-subject-3.csv","legacy","3 2 1 4 7","Melodramatic Milgram","4.0.5","2","y","0","left","right","left","left","NA","767.0","42862","9866","767","NA","2","legacy","5","1024","2","48000","-16","experiment","3","odd","2","510287","507056","508084","2087","128821","508085","495147","2097","118954","512287","513055","509086","44961","512287","NA","Sternberg Task","60","59032.0","76","1024"
"79","79","774","774","#3d3846","experiment","legacy","legacy","legacy","1","undefined","1","right","76","76","76","0","0","76","76","0","0","76","76","76","0","76","0","Sun Oct 15 17:13:35 2023","The main experiment item","False","SternbergTask.osexp","C:\Users\juzal\OneDrive\Documents\Masters of Equine Science\Advanced Quantitative Methods and Experiment Design","False","mono","False","18","no","white","no","yes","768","legacy","64","11","C:/Users/juzal/OneDrive/Documents/Masters of Equine Science/Advanced Quantitative Methods and Experiment Design/Ch-subject-3.csv","legacy","1 7 8 3 9","Melodramatic Milgram","4.0.5","0","n","0","right","right","left","right","NA","616.0","42862","9866","616","NA","2","legacy","5","1024","2","48000","-16","experiment","3","odd","2","516320","513083","514118","2087","128821","514118","495147","2097","118954","518320","518937","515118","44961","518320","NA","Sternberg Task","61","59648.0","77","1024"
"79","79","771","771","#3d3846","experiment","legacy","legacy","legacy","1","undefined","1","left","77","77","77","0","0","77","77","0","0","77","77","77","0","77","0","Sun Oct 15 17:13:35 2023","The main experiment item","False","SternbergTask.osexp","C:\Users\juzal\OneDrive\Documents\Masters of Equine Science\Advanced Quantitative Methods and Experiment Design","False","mono","False","18","no","white","no","yes","768","legacy","65","11","C:/Users/juzal/OneDrive/Documents/Masters of Equine Science/Advanced Quantitative Methods and Experiment Design/Ch-subject-3.csv","legacy","2 3","Melodramatic Milgram","4.0.5","1","y","0","left","right","left","left","NA","547.0","42862","9866","547","NA","2","legacy","2","1024","2","48000","-16","experiment","3","odd","2","522198","518970","519996","2087","128821","519997","495147","2097","118954","524198","524746","520997","44961","524198","NA","Sternberg Task","62","60195.0","78","1024"
"78","78","773","773","#3d3846","experiment","legacy","legacy","legacy","0","undefined","0","left","78","78","78","0","0","78","78","0","0","78","78","78","0","78","0","Sun Oct 15 17:13:35 2023","The main experiment item","False","SternbergTask.osexp","C:\Users\juzal\OneDrive\Documents\Masters of Equine Science\Advanced Quantitative Methods and Experiment Design","False","mono","False","18","no","white","no","yes","768","legacy","66","11","C:/Users/juzal/OneDrive/Documents/Masters of Equine Science/Advanced Quantitative Methods and Experiment Design/Ch-subject-3.csv","legacy","3 9 7 6 4","Melodramatic Milgram","4.0.5","3","y","0","right","right","left","right","NA","923.0","42862","9866","923","NA","2","legacy","5","1024","2","48000","-16","experiment","3","odd","7","528002","524774","525801","2087","128821","525801","495147","2097","118954","530002","530926","526801","44961","530002","NA","Sternberg Task","62","61118.0","79","1024"
"78","78","768","768","#3d3846","experiment","legacy","legacy","legacy","1","undefined","1","right","79","79","79","0","0","79","79","0","0","79","79","79","0","79","0","Sun Oct 15 17:13:35 2023","The main experiment item","False","SternbergTask.osexp","C:\Users\juzal\OneDrive\Documents\Masters of Equine Science\Advanced Quantitative Methods and Experiment Design","False","mono","False","18","no","white","no","yes","768","legacy","67","11","C:/Users/juzal/OneDrive/Documents/Masters of Equine Science/Advanced Quantitative Methods and Experiment Design/Ch-subject-3.csv","legacy","2 7 5","Melodramatic Milgram","4.0.5","0","n","0","right","right","left","right","NA","363.0","42862","9866","363","NA","2","legacy","3","1024","2","48000","-16","experiment","3","odd","8","534159","524774","531958","2087","128821","531958","530931","2097","118954","536159","536523","532958","44961","536159","NA","Sternberg Task","63","61481.0","80","1024"
"79","79","765","765","#3d3846","experiment","legacy","legacy","legacy","1","undefined","1","left","80","80","80","0","0","80","80","0","0","80","80","80","0","80","0","Sun Oct 15 17:13:35 2023","The main experiment item","False","SternbergTask.osexp","C:\Users\juzal\OneDrive\Documents\Masters of Equine Science\Advanced Quantitative Methods and Experiment Design","False","mono","False","18","no","white","no","yes","768","legacy","68","11","C:/Users/juzal/OneDrive/Documents/Masters of Equine Science/Advanced Quantitative Methods and Experiment Design/Ch-subject-3.csv","legacy","3 5 4 7","Melodramatic Milgram","4.0.5","1","y","0","left","right","left","left","NA","542.0","42862","9866","542","NA","2","legacy","4","1024","2","48000","-16","experiment","3","odd","3","539786","536557","537584","2087","128821","537584","530931","2097","118954","541786","542329","538584","44961","541786","NA","Sternberg Task","64","62023.0","81","1024"
"79","79","766","766","#3d3846","experiment","legacy","legacy","legacy","1","undefined","1","right","81","81","81","0","0","81","81","0","0","81","81","81","0","81","0","Sun Oct 15 17:13:35 2023","The main experiment item","False","SternbergTask.osexp","C:\Users\juzal\OneDrive\Documents\Masters of Equine Science\Advanced Quantitative Methods and Experiment Design","False","mono","False","18","no","white","no","yes","768","legacy","69","11","C:/Users/juzal/OneDrive/Documents/Masters of Equine Science/Advanced Quantitative Methods and Experiment Design/Ch-subject-3.csv","legacy","4 8 1 2","Melodramatic Milgram","4.0.5","0","n","0","right","right","left","right","NA","811.0","42862","9866","811","NA","2","legacy","4","1024","2","48000","-16","experiment","3","odd","7","545581","542353","543380","2087","128821","543380","530931","2097","118954","547581","548392","544380","44961","547581","NA","Sternberg Task","65","62834.0","82","1024"
"79","79","764","764","#3d3846","experiment","legacy","legacy","legacy","1","undefined","1","right","82","82","82","0","0","82","82","0","0","82","82","82","0","82","0","Sun Oct 15 17:13:35 2023","The main experiment item","False","SternbergTask.osexp","C:\Users\juzal\OneDrive\Documents\Masters of Equine Science\Advanced Quantitative Methods and Experiment Design","False","mono","False","18","no","white","no","yes","768","legacy","70","11","C:/Users/juzal/OneDrive/Documents/Masters of Equine Science/Advanced Quantitative Methods and Experiment Design/Ch-subject-3.csv","legacy","6 7 5 9","Melodramatic Milgram","4.0.5","0","n","0","right","right","left","right","NA","641.0","42862","9866","641","NA","2","legacy","4","1024","2","48000","-16","experiment","3","odd","2","551669","548421","549467","2087","128821","549468","530931","2097","118954","553669","554311","550468","44961","553669","NA","Sternberg Task","66","63475.0","83","1024"
"79","79","767","767","#3d3846","experiment","legacy","legacy","legacy","1","undefined","1","left","83","83","83","0","0","83","83","0","0","83","83","83","0","83","0","Sun Oct 15 17:13:35 2023","The main experiment item","False","SternbergTask.osexp","C:\Users\juzal\OneDrive\Documents\Masters of Equine Science\Advanced Quantitative Methods and Experiment Design","False","mono","False","18","no","white","no","yes","768","legacy","71","11","C:/Users/juzal/OneDrive/Documents/Masters of Equine Science/Advanced Quantitative Methods and Experiment Design/Ch-subject-3.csv","legacy","3 4 9 6 2 9","Melodramatic Milgram","4.0.5","5","y","0","left","right","left","left","NA","976.0","42862","9866","976","NA","2","legacy","6","1024","2","48000","-16","experiment","3","odd","2","557578","554341","555376","2087","128821","555376","530931","2097","118954","559579","560555","556377","44961","559579","NA","Sternberg Task","67","64451.0","84","1024"
"80","80","762","762","#3d3846","experiment","legacy","legacy","legacy","1","undefined","1","right","84","84","84","0","0","84","84","0","0","84","84","84","0","84","0","Sun Oct 15 17:13:35 2023","The main experiment item","False","SternbergTask.osexp","C:\Users\juzal\OneDrive\Documents\Masters of Equine Science\Advanced Quantitative Methods and Experiment Design","False","mono","False","18","no","white","no","yes","768","legacy","72","11","C:/Users/juzal/OneDrive/Documents/Masters of Equine Science/Advanced Quantitative Methods and Experiment Design/Ch-subject-3.csv","legacy","6 8","Melodramatic Milgram","4.0.5","0","n","0","right","right","left","right","NA","335.0","42862","9866","335","NA","2","legacy","2","1024","2","48000","-16","experiment","3","odd","9","563816","560586","561614","2087","128821","561614","530931","2097","118954","565816","566152","562615","44961","565816","NA","Sternberg Task","68","64786.0","85","1024"
"80","80","763","763","#3d3846","experiment","legacy","legacy","legacy","1","undefined","1","left","85","85","85","0","0","85","85","0","0","85","85","85","0","85","0","Sun Oct 15 17:13:35 2023","The main experiment item","False","SternbergTask.osexp","C:\Users\juzal\OneDrive\Documents\Masters of Equine Science\Advanced Quantitative Methods and Experiment Design","False","mono","False","18","no","white","no","yes","768","legacy","73","11","C:/Users/juzal/OneDrive/Documents/Masters of Equine Science/Advanced Quantitative Methods and Experiment Design/Ch-subject-3.csv","legacy","9 4 2","Melodramatic Milgram","4.0.5","1","y","0","left","right","left","left","NA","916.0","42862","9866","916","NA","2","legacy","3","1024","2","48000","-16","experiment","3","odd","9","569434","566204","567231","2087","128821","567232","530931","2097","118954","571434","572351","568233","44961","571434","NA","Sternberg Task","69","65702.0","86","1024"
"79","79","763","763","#3d3846","experiment","legacy","legacy","legacy","0","undefined","0","left","86","86","86","0","0","86","86","0","0","86","86","86","0","86","0","Sun Oct 15 17:13:35 2023","The main experiment item","False","SternbergTask.osexp","C:\Users\juzal\OneDrive\Documents\Masters of Equine Science\Advanced Quantitative Methods and Experiment Design","False","mono","False","18","no","white","no","yes","768","legacy","74","11","C:/Users/juzal/OneDrive/Documents/Masters of Equine Science/Advanced Quantitative Methods and Experiment Design/Ch-subject-3.csv","legacy","2 4 6 9","Melodramatic Milgram","4.0.5","3","y","0","right","right","left","right","NA","683.0","42862","9866","683","NA","2","legacy","4","1024","2","48000","-16","experiment","3","odd","6","575610","572379","573408","2087","128821","573408","530931","2097","118954","577610","578293","574409","44961","577610","NA","Sternberg Task","69","66385.0","87","1024"
"79","79","767","767","#3d3846","experiment","legacy","legacy","legacy","1","undefined","1","right","87","87","87","0","0","87","87","0","0","87","87","87","0","87","0","Sun Oct 15 17:13:35 2023","The main experiment item","False","SternbergTask.osexp","C:\Users\juzal\OneDrive\Documents\Masters of Equine Science\Advanced Quantitative Methods and Experiment Design","False","mono","False","18","no","white","no","yes","768","legacy","75","11","C:/Users/juzal/OneDrive/Documents/Masters of Equine Science/Advanced Quantitative Methods and Experiment Design/Ch-subject-3.csv","legacy","8 4 3 9","Melodramatic Milgram","4.0.5","0","n","0","right","right","left","right","NA","1139.0","42862","9866","1139","NA","2","legacy","4","1024","2","48000","-16","experiment","3","odd","5","581549","572379","579346","2087","128821","579346","578319","2097","118954","583549","584689","580348","44961","583549","NA","Sternberg Task","70","67524.0","88","1024"
"78","78","763","763","#3d3846","experiment","legacy","legacy","legacy","0","undefined","0","left","88","88","88","0","0","88","88","0","0","88","88","88","0","88","0","Sun Oct 15 17:13:35 2023","The main experiment item","False","SternbergTask.osexp","C:\Users\juzal\OneDrive\Documents\Masters of Equine Science\Advanced Quantitative Methods and Experiment Design","False","mono","False","18","no","white","no","yes","768","legacy","76","11","C:/Users/juzal/OneDrive/Documents/Masters of Equine Science/Advanced Quantitative Methods and Experiment Design/Ch-subject-3.csv","legacy","3 4","Melodramatic Milgram","4.0.5","1","y","0","right","right","left","right","NA","393.0","42862","9866","393","NA","2","legacy","2","1024","2","48000","-16","experiment","3","odd","3","587971","584740","585769","2087","128821","585770","578319","2097","118954","589971","590365","586771","44961","589971","NA","Sternberg Task","70","67917.0","89","1024"
"78","78","760","760","#3d3846","experiment","legacy","legacy","legacy","1","undefined","1","right","89","89","89","0","0","89","89","0","0","89","89","89","0","89","0","Sun Oct 15 17:13:35 2023","The main experiment item","False","SternbergTask.osexp","C:\Users\juzal\OneDrive\Documents\Masters of Equine Science\Advanced Quantitative Methods and Experiment Design","False","mono","False","18","no","white","no","yes","768","legacy","77","11","C:/Users/juzal/OneDrive/Documents/Masters of Equine Science/Advanced Quantitative Methods and Experiment Design/Ch-subject-3.csv","legacy","1","Melodramatic Milgram","4.0.5","0","n","0","right","right","left","right","NA","513.0","42862","9866","513","NA","2","legacy","1","1024","2","48000","-16","experiment","3","odd","7","593620","584740","591418","2087","128821","591418","590390","2097","118954","595620","596133","592419","44961","595620","NA","Sternberg Task","71","68430.0","90","1024"
"79","79","755","755","#3d3846","experiment","legacy","legacy","legacy","1","undefined","1","right","90","90","90","0","0","90","90","0","0","90","90","90","0","90","0","Sun Oct 15 17:13:35 2023","The main experiment item","False","SternbergTask.osexp","C:\Users\juzal\OneDrive\Documents\Masters of Equine Science\Advanced Quantitative Methods and Experiment Design","False","mono","False","18","no","white","no","yes","768","legacy","78","11","C:/Users/juzal/OneDrive/Documents/Masters of Equine Science/Advanced Quantitative Methods and Experiment Design/Ch-subject-3.csv","legacy","4 1","Melodramatic Milgram","4.0.5","0","n","0","right","right","left","right","NA","343.0","42862","9866","343","NA","2","legacy","2","1024","2","48000","-16","experiment","3","odd","6","599392","596162","597190","2087","128821","597191","590390","2097","118954","601392","601736","598191","44961","601392","NA","Sternberg Task","72","68773.0","91","1024"
"79","79","758","758","#3d3846","experiment","legacy","legacy","legacy","1","undefined","1","right","91","91","91","0","0","91","91","0","0","91","91","91","0","91","0","Sun Oct 15 17:13:35 2023","The main experiment item","False","SternbergTask.osexp","C:\Users\juzal\OneDrive\Documents\Masters of Equine Science\Advanced Quantitative Methods and Experiment Design","False","mono","False","18","no","white","no","yes","768","legacy","79","11","C:/Users/juzal/OneDrive/Documents/Masters of Equine Science/Advanced Quantitative Methods and Experiment Design/Ch-subject-3.csv","legacy","6 3 1 7 9 8","Melodramatic Milgram","4.0.5","0","n","0","right","right","left","right","NA","1007.0","42862","9866","1007","NA","2","legacy","6","1024","2","48000","-16","experiment","3","odd","4","604975","601741","602774","2087","128821","602774","590390","2097","118954","606975","607983","603774","44961","606975","NA","Sternberg Task","73","69780.0","92","1024"
"79","79","757","757","#3d3846","experiment","legacy","legacy","legacy","1","undefined","1","right","92","92","92","0","0","92","92","0","0","92","92","92","0","92","0","Sun Oct 15 17:13:35 2023","The main experiment item","False","SternbergTask.osexp","C:\Users\juzal\OneDrive\Documents\Masters of Equine Science\Advanced Quantitative Methods and Experiment Design","False","mono","False","18","no","white","no","yes","768","legacy","80","11","C:/Users/juzal/OneDrive/Documents/Masters of Equine Science/Advanced Quantitative Methods and Experiment Design/Ch-subject-3.csv","legacy","1 5 3 2 8","Melodramatic Milgram","4.0.5","0","n","0","right","right","left","right","NA","688.0","42862","9866","688","NA","2","legacy","5","1024","2","48000","-16","experiment","3","odd","4","611241","608011","609038","2087","128821","609039","590390","2097","118954","613241","613930","610039","44961","613241","NA","Sternberg Task","74","70468.0","93","1024"
"79","79","755","755","#3d3846","experiment","legacy","legacy","legacy","1","undefined","1","right","93","93","93","0","0","93","93","0","0","93","93","93","0","93","0","Sun Oct 15 17:13:35 2023","The main experiment item","False","SternbergTask.osexp","C:\Users\juzal\OneDrive\Documents\Masters of Equine Science\Advanced Quantitative Methods and Experiment Design","False","mono","False","18","no","white","no","yes","768","legacy","81","11","C:/Users/juzal/OneDrive/Documents/Masters of Equine Science/Advanced Quantitative Methods and Experiment Design/Ch-subject-3.csv","legacy","5 7 3","Melodramatic Milgram","4.0.5","0","n","0","right","right","left","right","NA","516.0","42862","9866","516","NA","2","legacy","3","1024","2","48000","-16","experiment","3","odd","9","617192","613961","614989","2087","128821","614990","590390","2097","118954","619192","619709","615991","44961","619192","NA","Sternberg Task","75","70984.0","94","1024"
"78","78","754","754","#3d3846","experiment","legacy","legacy","legacy","0","undefined","0","left","94","94","94","0","0","94","94","0","0","94","94","94","0","94","0","Sun Oct 15 17:13:35 2023","The main experiment item","False","SternbergTask.osexp","C:\Users\juzal\OneDrive\Documents\Masters of Equine Science\Advanced Quantitative Methods and Experiment Design","False","mono","False","18","no","white","no","yes","768","legacy","82","11","C:/Users/juzal/OneDrive/Documents/Masters of Equine Science/Advanced Quantitative Methods and Experiment Design/Ch-subject-3.csv","legacy","2 4 8 5 1 3","Melodramatic Milgram","4.0.5","1","y","0","right","right","left","right","NA","647.0","42862","9866","647","NA","2","legacy","6","1024","2","48000","-16","experiment","3","odd","2","622966","619736","620764","2087","128821","620764","590390","2097","118954","624966","625614","621764","44961","624966","NA","Sternberg Task","75","71631.0","95","1024"
"78","78","753","753","#3d3846","experiment","legacy","legacy","legacy","0","undefined","0","left","95","95","95","0","0","95","95","0","0","95","95","95","0","95","0","Sun Oct 15 17:13:35 2023","The main experiment item","False","SternbergTask.osexp","C:\Users\juzal\OneDrive\Documents\Masters of Equine Science\Advanced Quantitative Methods and Experiment Design","False","mono","False","18","no","white","no","yes","768","legacy","83","11","C:/Users/juzal/OneDrive/Documents/Masters of Equine Science/Advanced Quantitative Methods and Experiment Design/Ch-subject-3.csv","legacy","7 1 8 5 6 2","Melodramatic Milgram","4.0.5","2","y","0","right","right","left","right","NA","742.0","42862","9866","742","NA","2","legacy","6","1024","2","48000","-16","experiment","3","odd","1","628874","619736","626671","2087","128821","626672","625642","2097","118954","630874","631617","627673","44961","630874","NA","Sternberg Task","75","72373.0","96","1024"
"78","78","754","754","#3d3846","experiment","legacy","legacy","legacy","1","undefined","1","left","96","96","96","0","0","96","96","0","0","96","96","96","0","96","0","Sun Oct 15 17:13:35 2023","The main experiment item","False","SternbergTask.osexp","C:\Users\juzal\OneDrive\Documents\Masters of Equine Science\Advanced Quantitative Methods and Experiment Design","False","mono","False","18","no","white","no","yes","768","legacy","84","11","C:/Users/juzal/OneDrive/Documents/Masters of Equine Science/Advanced Quantitative Methods and Experiment Design/Ch-subject-3.csv","legacy","7 8 4 6 9 5","Melodramatic Milgram","4.0.5","4","y","0","left","right","left","left","NA","801.0","42862","9866","801","NA","2","legacy","6","1024","2","48000","-16","experiment","3","odd","6","634873","619736","632670","2087","128821","632670","631642","2097","118954","636873","637675","633672","44961","636873","NA","Sternberg Task","76","73174.0","97","1024"
"78","78","753","753","#3d3846","experiment","legacy","legacy","legacy","1","undefined","1","right","97","97","97","0","0","97","97","0","0","97","97","97","0","97","0","Sun Oct 15 17:13:35 2023","The main experiment item","False","SternbergTask.osexp","C:\Users\juzal\OneDrive\Documents\Masters of Equine Science\Advanced Quantitative Methods and Experiment Design","False","mono","False","18","no","white","no","yes","768","legacy","85","11","C:/Users/juzal/OneDrive/Documents/Masters of Equine Science/Advanced Quantitative Methods and Experiment Design/Ch-subject-3.csv","legacy","2 8 9","Melodramatic Milgram","4.0.5","0","n","0","right","right","left","right","NA","665.0","42862","9866","665","NA","2","legacy","3","1024","2","48000","-16","experiment","3","odd","6","640946","637714","638743","2087","128821","638744","631642","2097","118954","642947","643613","639745","44961","642947","NA","Sternberg Task","77","73839.0","98","1024"
"78","78","753","753","#3d3846","experiment","legacy","legacy","legacy","1","undefined","1","left","98","98","98","0","0","98","98","0","0","98","98","98","0","98","0","Sun Oct 15 17:13:35 2023","The main experiment item","False","SternbergTask.osexp","C:\Users\juzal\OneDrive\Documents\Masters of Equine Science\Advanced Quantitative Methods and Experiment Design","False","mono","False","18","no","white","no","yes","768","legacy","86","11","C:/Users/juzal/OneDrive/Documents/Masters of Equine Science/Advanced Quantitative Methods and Experiment Design/Ch-subject-3.csv","legacy","9 1 7 2","Melodramatic Milgram","4.0.5","2","y","0","left","right","left","left","NA","775.0","42862","9866","775","NA","2","legacy","4","1024","2","48000","-16","experiment","3","odd","1","646854","643617","644652","2087","128821","644653","631642","2097","118954","648854","649629","645653","44961","648854","NA","Sternberg Task","78","74614.0","99","1024"
"79","79","752","752","#3d3846","experiment","legacy","legacy","legacy","1","undefined","1","right","99","99","99","0","0","99","99","0","0","99","99","99","0","99","0","Sun Oct 15 17:13:35 2023","The main experiment item","False","SternbergTask.osexp","C:\Users\juzal\OneDrive\Documents\Masters of Equine Science\Advanced Quantitative Methods and Experiment Design","False","mono","False","18","no","white","no","yes","768","legacy","87","11","C:/Users/juzal/OneDrive/Documents/Masters of Equine Science/Advanced Quantitative Methods and Experiment Design/Ch-subject-3.csv","legacy","8 2 1 4 5 9","Melodramatic Milgram","4.0.5","0","n","0","right","right","left","right","NA","601.0","42862","9866","601","NA","2","legacy","6","1024","2","48000","-16","experiment","3","odd","7","652892","649665","650691","2087","128821","650691","631642","2097","118954","654894","655496","651691","44961","654893","NA","Sternberg Task","79","75215.0","100","1024"
"79","79","749","749","#3d3846","experiment","legacy","legacy","legacy","1","undefined","1","left","100","100","100","0","0","100","100","0","0","100","100","100","0","100","0","Sun Oct 15 17:13:35 2023","The main experiment item","False","SternbergTask.osexp","C:\Users\juzal\OneDrive\Documents\Masters of Equine Science\Advanced Quantitative Methods and Experiment Design","False","mono","False","18","no","white","no","yes","768","legacy","88","11","C:/Users/juzal/OneDrive/Documents/Masters of Equine Science/Advanced Quantitative Methods and Experiment Design/Ch-subject-3.csv","legacy","4","Melodramatic Milgram","4.0.5","1","y","0","left","right","left","left","NA","498.0","42862","9866","498","NA","2","legacy","1","1024","2","48000","-16","experiment","3","odd","4","658759","655531","656557","2087","128821","656558","631642","2097","118954","660760","661259","657558","44961","660760","NA","Sternberg Task","80","75713.0","101","1024"
"79","79","749","749","#3d3846","experiment","legacy","legacy","legacy","1","undefined","1","left","101","101","101","0","0","101","101","0","0","101","101","101","0","101","0","Sun Oct 15 17:13:35 2023","The main experiment item","False","SternbergTask.osexp","C:\Users\juzal\OneDrive\Documents\Masters of Equine Science\Advanced Quantitative Methods and Experiment Design","False","mono","False","18","no","white","no","yes","768","legacy","89","11","C:/Users/juzal/OneDrive/Documents/Masters of Equine Science/Advanced Quantitative Methods and Experiment Design/Ch-subject-3.csv","legacy","8 5 4 7 3 1","Melodramatic Milgram","4.0.5","2","y","0","left","right","left","left","NA","693.0","42862","9866","693","NA","2","legacy","6","1024","2","48000","-16","experiment","3","odd","5","664490","661262","662287","2087","128821","662288","631642","2097","118954","666490","667183","663289","44961","666490","NA","Sternberg Task","81","76406.0","102","1024"
"79","79","747","747","#3d3846","experiment","legacy","legacy","legacy","1","undefined","1","left","102","102","102","0","0","102","102","0","0","102","102","102","0","102","0","Sun Oct 15 17:13:35 2023","The main experiment item","False","SternbergTask.osexp","C:\Users\juzal\OneDrive\Documents\Masters of Equine Science\Advanced Quantitative Methods and Experiment Design","False","mono","False","18","no","white","no","yes","768","legacy","90","11","C:/Users/juzal/OneDrive/Documents/Masters of Equine Science/Advanced Quantitative Methods and Experiment Design/Ch-subject-3.csv","legacy","4 6 5 8","Melodramatic Milgram","4.0.5","1","y","0","left","right","left","left","NA","603.0","42862","9866","603","NA","2","legacy","4","1024","2","48000","-16","experiment","3","odd","4","670417","667187","668214","2087","128821","668215","631642","2097","118954","672417","673021","669216","44961","672417","NA","Sternberg Task","82","77009.0","103","1024"
"79","79","746","746","#3d3846","experiment","legacy","legacy","legacy","1","undefined","1","left","103","103","103","0","0","103","103","0","0","103","103","103","0","103","0","Sun Oct 15 17:13:35 2023","The main experiment item","False","SternbergTask.osexp","C:\Users\juzal\OneDrive\Documents\Masters of Equine Science\Advanced Quantitative Methods and Experiment Design","False","mono","False","18","no","white","no","yes","768","legacy","91","11","C:/Users/juzal/OneDrive/Documents/Masters of Equine Science/Advanced Quantitative Methods and Experiment Design/Ch-subject-3.csv","legacy","5 2 6","Melodramatic Milgram","4.0.5","2","y","0","left","right","left","left","NA","600.0","42862","9866","600","NA","2","legacy","3","1024","2","48000","-16","experiment","3","odd","2","676280","673051","674079","2087","128821","674079","631642","2097","118954","678280","678881","675079","44961","678280","NA","Sternberg Task","83","77609.0","104","1024"
