"acc","accuracy","average_response_time","avg_rt","background","block","canvas_backend","clock_backend","color_backend","correct","correct_instruction1_sketchpad","correct_keyboard_response","correct_response","count_ISI_sketchpad","count_correct_sketchpad","count_exp_sequence","count_experiment","count_experiment_loop","count_fixation_sketchpad","count_incorrect_sketchpad","count_instruction1_sketchpad","count_instructions2_sketchpad","count_keyboard_response","count_memoryset_sketchpad","count_new_logger","count_practice_loop","count_probe_sketchpad","count_thankyou_sketchpad","datetime","description","disable_garbage_collection","experiment_file","experiment_path","font_bold","font_family","font_italic","font_size","font_underline","foreground","form_clicks","fullscreen","height","keyboard_backend","live_row","live_row_practice_loop","logfile","mouse_backend","numberSet","opensesame_codename","opensesame_version","posInSet","present","repeat_cycle","response","response_instruction1_sketchpad","response_instructions2_sketchpad","response_keyboard_response","response_thankyou_sketchpad","response_time","response_time_instruction1_sketchpad","response_time_instructions2_sketchpad","response_time_keyboard_response","response_time_thankyou_sketchpad","round_decimals","sampler_backend","setSize","sound_buf_size","sound_channels","sound_freq","sound_sample_size","start","subject_nr","subject_parity","target","time_ISI_sketchpad","time_correct_sketchpad","time_exp_sequence","time_experiment","time_experiment_loop","time_fixation_sketchpad","time_incorrect_sketchpad","time_instruction1_sketchpad","time_instructions2_sketchpad","time_keyboard_response","time_memoryset_sketchpad","time_new_logger","time_practice_loop","time_probe_sketchpad","time_thankyou_sketchpad","title","total_correct","total_response_time","total_responses","width"
"0","0","2000","2000","#3d3846","practice","legacy","legacy","legacy","0","undefined","0","left","0","0","0","0","0","0","0","0","0","0","0","0","0","0","0","Mon Oct 16 22:57:48 2023","The main experiment item","True","Sternbergtask.osexp","C:\Users\kikip\OneDrive\Dokumente\QUANT HW","False","mono","False","18","no","white","no","yes","768","legacy","0","0","C:/Users/kikip/OneDrive/Dokumente/QUANT HW/MK-subject-2.csv","legacy","6","Melodramatic Milgram","4.0.5","1","y","0","None","n","NA","None","NA","2000.0","181933","NA","2000","NA","2","legacy","1","1024","2","48000","-16","experiment","2","even","6","188891","NA","186682","3238","NA","186687","NA","3245","NA","190893","187689","192893","185181","190893","NA","Sternberg task ","0","2000.0","1","1024"
"0","0","1370","1370","#3d3846","practice","legacy","legacy","legacy","0","undefined","0","right","1","1","1","0","0","1","1","0","0","1","1","1","0","1","0","Mon Oct 16 22:57:48 2023","The main experiment item","True","Sternbergtask.osexp","C:\Users\kikip\OneDrive\Dokumente\QUANT HW","False","mono","False","18","no","white","no","yes","768","legacy","1","1","C:/Users/kikip/OneDrive/Dokumente/QUANT HW/MK-subject-2.csv","legacy","5","Melodramatic Milgram","4.0.5","0","n","0","left","n","NA","left","NA","741.0","181933","NA","741","NA","2","legacy","1","1024","2","48000","-16","experiment","2","even","3","196299","NA","194093","3238","NA","194096","193011","3245","NA","198302","195098","199044","185181","198302","NA","Sternberg task ","0","2741.0","2","1024"
"0","0","1064","1064","#3d3846","practice","legacy","legacy","legacy","0","undefined","0","left","2","2","2","0","0","2","2","0","0","2","2","2","0","2","0","Mon Oct 16 22:57:48 2023","The main experiment item","True","Sternbergtask.osexp","C:\Users\kikip\OneDrive\Dokumente\QUANT HW","False","mono","False","18","no","white","no","yes","768","legacy","2","2","C:/Users/kikip/OneDrive/Dokumente/QUANT HW/MK-subject-2.csv","legacy","4 3 1 7 9 8","Melodramatic Milgram","4.0.5","1","y","0","right","n","NA","right","NA","453.0","181933","NA","453","NA","2","legacy","6","1024","2","48000","-16","experiment","2","even","4","202340","NA","200133","3238","NA","200136","199049","3245","NA","204342","201138","204796","185181","204342","NA","Sternberg task ","0","3194.0","3","1024"
"0","0","1298","1298","#3d3846","practice","legacy","legacy","legacy","0","undefined","0","right","3","3","3","0","0","3","3","0","0","3","3","3","0","3","0","Mon Oct 16 22:57:48 2023","The main experiment item","True","Sternbergtask.osexp","C:\Users\kikip\OneDrive\Dokumente\QUANT HW","False","mono","False","18","no","white","no","yes","768","legacy","3","3","C:/Users/kikip/OneDrive/Dokumente/QUANT HW/MK-subject-2.csv","legacy","5 7 8 4 1 2","Melodramatic Milgram","4.0.5","0","n","0","None","n","NA","None","NA","2000.0","181933","NA","2000","NA","2","legacy","6","1024","2","48000","-16","experiment","2","even","6","208083","NA","205877","3238","NA","205879","204801","3245","NA","210086","206881","212086","185181","210085","NA","Sternberg task ","0","5194.0","4","1024"
"0","0","1190","1190","#3d3846","practice","legacy","legacy","legacy","0","undefined","0","left","4","4","4","0","0","4","4","0","0","4","4","4","0","4","0","Mon Oct 16 22:57:48 2023","The main experiment item","True","Sternbergtask.osexp","C:\Users\kikip\OneDrive\Dokumente\QUANT HW","False","mono","False","18","no","white","no","yes","768","legacy","4","4","C:/Users/kikip/OneDrive/Dokumente/QUANT HW/MK-subject-2.csv","legacy","2 9 4","Melodramatic Milgram","4.0.5","3","y","0","right","n","NA","right","NA","758.0","181933","NA","758","NA","2","legacy","3","1024","2","48000","-16","experiment","2","even","4","215364","NA","213158","3238","NA","213160","212091","3245","NA","217366","214162","218125","185181","217366","NA","Sternberg task ","0","5952.0","5","1024"
"0","0","1116","1116","#3d3846","practice","legacy","legacy","legacy","0","undefined","0","right","5","5","5","0","0","5","5","0","0","5","5","5","0","5","0","Mon Oct 16 22:57:48 2023","The main experiment item","True","Sternbergtask.osexp","C:\Users\kikip\OneDrive\Dokumente\QUANT HW","False","mono","False","18","no","white","no","yes","768","legacy","5","5","C:/Users/kikip/OneDrive/Dokumente/QUANT HW/MK-subject-2.csv","legacy","2 1","Melodramatic Milgram","4.0.5","0","n","0","left","n","NA","left","NA","749.0","181933","NA","749","NA","2","legacy","2","1024","2","48000","-16","experiment","2","even","5","221402","NA","219197","3238","NA","219199","218129","3245","NA","223405","220200","224154","185181","223405","NA","Sternberg task ","0","6701.0","6","1024"
"0","0","1243","1243","#3d3846","practice","legacy","legacy","legacy","0","undefined","0","right","6","6","6","0","0","6","6","0","0","6","6","6","0","6","0","Mon Oct 16 22:57:48 2023","The main experiment item","True","Sternbergtask.osexp","C:\Users\kikip\OneDrive\Dokumente\QUANT HW","False","mono","False","18","no","white","no","yes","768","legacy","6","6","C:/Users/kikip/OneDrive/Dokumente/QUANT HW/MK-subject-2.csv","legacy","9 6 7 4 5","Melodramatic Milgram","4.0.5","0","n","0","None","n","NA","None","NA","2000.0","181933","NA","2000","NA","2","legacy","5","1024","2","48000","-16","experiment","2","even","3","227430","NA","225225","3238","NA","225227","224159","3245","NA","229433","226229","231433","185181","229433","NA","Sternberg task ","0","8701.0","7","1024"
"12","12","1182","1182","#3d3846","practice","legacy","legacy","legacy","1","undefined","1","left","7","7","7","0","0","7","7","0","0","7","7","7","0","7","0","Mon Oct 16 22:57:48 2023","The main experiment item","True","Sternbergtask.osexp","C:\Users\kikip\OneDrive\Dokumente\QUANT HW","False","mono","False","18","no","white","no","yes","768","legacy","7","7","C:/Users/kikip/OneDrive/Dokumente/QUANT HW/MK-subject-2.csv","legacy","1 7 9 8 5","Melodramatic Milgram","4.0.5","4","y","0","left","n","NA","left","NA","758.0","181933","NA","758","NA","2","legacy","5","1024","2","48000","-16","experiment","2","even","8","234727","NA","232522","3238","NA","232524","231438","3245","NA","236730","233526","237489","185181","236730","NA","Sternberg task ","1","9459.0","8","1024"
"22","22","1108","1108","#3d3846","practice","legacy","legacy","legacy","1","undefined","1","right","8","8","8","0","0","8","8","0","0","8","8","8","0","8","0","Mon Oct 16 22:57:48 2023","The main experiment item","True","Sternbergtask.osexp","C:\Users\kikip\OneDrive\Dokumente\QUANT HW","False","mono","False","18","no","white","no","yes","768","legacy","8","8","C:/Users/kikip/OneDrive/Dokumente/QUANT HW/MK-subject-2.csv","legacy","4 1 5","Melodramatic Milgram","4.0.5","0","n","0","right","n","NA","right","NA","518.0","181933","NA","518","NA","2","legacy","3","1024","2","48000","-16","experiment","2","even","2","240789","237495","238581","3238","NA","238585","231438","3245","NA","242792","239587","243311","185181","242791","NA","Sternberg task ","2","9977.0","9","1024"
"30","30","1040","1040","#3d3846","practice","legacy","legacy","legacy","1","undefined","1","left","9","9","9","0","0","9","9","0","0","9","9","9","0","9","0","Mon Oct 16 22:57:48 2023","The main experiment item","True","Sternbergtask.osexp","C:\Users\kikip\OneDrive\Dokumente\QUANT HW","False","mono","False","18","no","white","no","yes","768","legacy","9","9","C:/Users/kikip/OneDrive/Dokumente/QUANT HW/MK-subject-2.csv","legacy","1 5 2 9","Melodramatic Milgram","4.0.5","2","y","0","left","n","NA","left","NA","430.0","181933","NA","430","NA","2","legacy","4","1024","2","48000","-16","experiment","2","even","5","246604","243315","244397","3238","NA","244400","231438","3245","NA","248606","245402","249037","185181","248605","NA","Sternberg task ","3","10407.0","10","1024"
"36","36","1006","1006","#3d3846","practice","legacy","legacy","legacy","1","undefined","1","right","10","10","10","0","0","10","10","0","0","10","10","10","0","10","0","Mon Oct 16 22:57:48 2023","The main experiment item","True","Sternbergtask.osexp","C:\Users\kikip\OneDrive\Dokumente\QUANT HW","False","mono","False","18","no","white","no","yes","768","legacy","10","10","C:/Users/kikip/OneDrive/Dokumente/QUANT HW/MK-subject-2.csv","legacy","3 1 9 4","Melodramatic Milgram","4.0.5","0","n","0","right","n","NA","right","NA","659.0","181933","NA","659","NA","2","legacy","4","1024","2","48000","-16","experiment","2","even","6","252327","249043","250121","3238","NA","250124","231438","3245","NA","254329","251126","254989","185181","254329","NA","Sternberg task ","4","11066.0","11","1024"
"41","41","974","974","#3d3846","practice","legacy","legacy","legacy","1","undefined","1","left","11","11","11","0","0","11","11","0","0","11","11","11","0","11","0","Mon Oct 16 22:57:48 2023","The main experiment item","True","Sternbergtask.osexp","C:\Users\kikip\OneDrive\Dokumente\QUANT HW","False","mono","False","18","no","white","no","yes","768","legacy","11","11","C:/Users/kikip/OneDrive/Dokumente/QUANT HW/MK-subject-2.csv","legacy","4 8","Melodramatic Milgram","4.0.5","1","y","0","left","n","NA","left","NA","624.0","181933","NA","624","NA","2","legacy","2","1024","2","48000","-16","experiment","2","even","4","258267","254994","256060","3238","NA","256063","231438","3245","NA","260269","257065","260895","185181","260269","NA","Sternberg task ","5","11690.0","12","1024"
"46","46","937","937","#3d3846","experiment","legacy","legacy","legacy","1","undefined","1","right","12","12","12","0","0","12","12","0","0","12","12","12","0","12","0","Mon Oct 16 22:57:48 2023","The main experiment item","True","Sternbergtask.osexp","C:\Users\kikip\OneDrive\Dokumente\QUANT HW","False","mono","False","18","no","white","no","yes","768","legacy","0","11","C:/Users/kikip/OneDrive/Dokumente/QUANT HW/MK-subject-2.csv","legacy","9 7 4 5 8","Melodramatic Milgram","4.0.5","0","n","0","right","n","left","right","NA","492.0","181933","10074","492","NA","2","legacy","5","1024","2","48000","-16","experiment","2","even","6","274435","260899","272229","3238","271976","272232","231438","3245","261901","276438","273233","276931","185181","276437","NA","Sternberg task ","6","12182.0","13","1024"
"50","50","911","911","#3d3846","experiment","legacy","legacy","legacy","1","undefined","1","right","13","13","13","0","0","13","13","0","0","13","13","13","0","13","0","Mon Oct 16 22:57:48 2023","The main experiment item","True","Sternbergtask.osexp","C:\Users\kikip\OneDrive\Dokumente\QUANT HW","False","mono","False","18","no","white","no","yes","768","legacy","1","11","C:/Users/kikip/OneDrive/Dokumente/QUANT HW/MK-subject-2.csv","legacy","1 6 4 3 9 7","Melodramatic Milgram","4.0.5","0","n","0","right","n","left","right","NA","585.0","181933","10074","585","NA","2","legacy","6","1024","2","48000","-16","experiment","2","even","8","280210","276938","278004","3238","271976","278006","231438","3245","261901","282212","279008","282798","185181","282211","NA","Sternberg task ","7","12767.0","14","1024"
"46","46","892","892","#3d3846","experiment","legacy","legacy","legacy","0","undefined","0","left","14","14","14","0","0","14","14","0","0","14","14","14","0","14","0","Mon Oct 16 22:57:48 2023","The main experiment item","True","Sternbergtask.osexp","C:\Users\kikip\OneDrive\Dokumente\QUANT HW","False","mono","False","18","no","white","no","yes","768","legacy","2","11","C:/Users/kikip/OneDrive/Dokumente/QUANT HW/MK-subject-2.csv","legacy","2 3 7 4","Melodramatic Milgram","4.0.5","1","y","0","right","n","left","right","NA","620.0","181933","10074","620","NA","2","legacy","4","1024","2","48000","-16","experiment","2","even","2","286072","282802","283866","3238","271976","283868","231438","3245","261901","288074","284869","288695","185181","288074","NA","Sternberg task ","7","13387.0","15","1024"
"50","50","876","876","#3d3846","experiment","legacy","legacy","legacy","1","undefined","1","right","15","15","15","0","0","15","15","0","0","15","15","15","0","15","0","Mon Oct 16 22:57:48 2023","The main experiment item","True","Sternbergtask.osexp","C:\Users\kikip\OneDrive\Dokumente\QUANT HW","False","mono","False","18","no","white","no","yes","768","legacy","3","11","C:/Users/kikip/OneDrive/Dokumente/QUANT HW/MK-subject-2.csv","legacy","1 6 4","Melodramatic Milgram","4.0.5","0","n","0","right","n","left","right","NA","644.0","181933","10074","644","NA","2","legacy","3","1024","2","48000","-16","experiment","2","even","7","291979","282802","289772","3238","271976","289775","288700","3245","261901","293981","290777","294626","185181","293981","NA","Sternberg task ","8","14031.0","16","1024"
"52","52","858","858","#3d3846","experiment","legacy","legacy","legacy","1","undefined","1","left","16","16","16","0","0","16","16","0","0","16","16","16","0","16","0","Mon Oct 16 22:57:48 2023","The main experiment item","True","Sternbergtask.osexp","C:\Users\kikip\OneDrive\Dokumente\QUANT HW","False","mono","False","18","no","white","no","yes","768","legacy","4","11","C:/Users/kikip/OneDrive/Dokumente/QUANT HW/MK-subject-2.csv","legacy","4","Melodramatic Milgram","4.0.5","1","y","0","left","n","left","left","NA","557.0","181933","10074","557","NA","2","legacy","1","1024","2","48000","-16","experiment","2","even","4","297916","294634","295710","3238","271976","295712","288700","3245","261901","299920","296715","300478","185181","299919","NA","Sternberg task ","9","14588.0","17","1024"
"55","55","855","855","#3d3846","experiment","legacy","legacy","legacy","1","undefined","1","left","17","17","17","0","0","17","17","0","0","17","17","17","0","17","0","Mon Oct 16 22:57:48 2023","The main experiment item","True","Sternbergtask.osexp","C:\Users\kikip\OneDrive\Dokumente\QUANT HW","False","mono","False","18","no","white","no","yes","768","legacy","5","11","C:/Users/kikip/OneDrive/Dokumente/QUANT HW/MK-subject-2.csv","legacy","2 5 4 8 7","Melodramatic Milgram","4.0.5","3","y","0","left","n","left","left","NA","802.0","181933","10074","802","NA","2","legacy","5","1024","2","48000","-16","experiment","2","even","4","303775","300484","301569","3238","271976","301571","288700","3245","261901","305777","302573","306580","185181","305776","NA","Sternberg task ","10","15390.0","18","1024"
"57","57","850","850","#3d3846","experiment","legacy","legacy","legacy","1","undefined","1","left","18","18","18","0","0","18","18","0","0","18","18","18","0","18","0","Mon Oct 16 22:57:48 2023","The main experiment item","True","Sternbergtask.osexp","C:\Users\kikip\OneDrive\Dokumente\QUANT HW","False","mono","False","18","no","white","no","yes","768","legacy","6","11","C:/Users/kikip/OneDrive/Dokumente/QUANT HW/MK-subject-2.csv","legacy","5 7 3 6 2","Melodramatic Milgram","4.0.5","5","y","0","left","n","left","left","NA","772.0","181933","10074","772","NA","2","legacy","5","1024","2","48000","-16","experiment","2","even","2","309866","306588","307660","3238","271976","307663","288700","3245","261901","311869","308665","312642","185181","311869","NA","Sternberg task ","11","16162.0","19","1024"
"60","60","831","831","#3d3846","experiment","legacy","legacy","legacy","1","undefined","1","left","19","19","19","0","0","19","19","0","0","19","19","19","0","19","0","Mon Oct 16 22:57:48 2023","The main experiment item","True","Sternbergtask.osexp","C:\Users\kikip\OneDrive\Dokumente\QUANT HW","False","mono","False","18","no","white","no","yes","768","legacy","7","11","C:/Users/kikip/OneDrive/Dokumente/QUANT HW/MK-subject-2.csv","legacy","8 3","Melodramatic Milgram","4.0.5","2","y","0","left","n","left","left","NA","464.0","181933","10074","464","NA","2","legacy","2","1024","2","48000","-16","experiment","2","even","3","315941","312647","313734","3238","271976","313736","288700","3245","261901","317943","314739","318408","185181","317943","NA","Sternberg task ","12","16626.0","20","1024"
"61","61","821","821","#3d3846","experiment","legacy","legacy","legacy","1","undefined","1","right","20","20","20","0","0","20","20","0","0","20","20","20","0","20","0","Mon Oct 16 22:57:48 2023","The main experiment item","True","Sternbergtask.osexp","C:\Users\kikip\OneDrive\Dokumente\QUANT HW","False","mono","False","18","no","white","no","yes","768","legacy","8","11","C:/Users/kikip/OneDrive/Dokumente/QUANT HW/MK-subject-2.csv","legacy","1 7 8 3 9","Melodramatic Milgram","4.0.5","0","n","0","right","n","left","right","NA","620.0","181933","10074","620","NA","2","legacy","5","1024","2","48000","-16","experiment","2","even","2","321692","318413","319486","3238","271976","319489","288700","3245","261901","323695","320490","324316","185181","323694","NA","Sternberg task ","13","17246.0","21","1024"
"63","63","819","819","#3d3846","experiment","legacy","legacy","legacy","1","undefined","1","left","21","21","21","0","0","21","21","0","0","21","21","21","0","21","0","Mon Oct 16 22:57:48 2023","The main experiment item","True","Sternbergtask.osexp","C:\Users\kikip\OneDrive\Dokumente\QUANT HW","False","mono","False","18","no","white","no","yes","768","legacy","9","11","C:/Users/kikip/OneDrive/Dokumente/QUANT HW/MK-subject-2.csv","legacy","3 2 1 4 7","Melodramatic Milgram","4.0.5","2","y","0","left","n","left","left","NA","784.0","181933","10074","784","NA","2","legacy","5","1024","2","48000","-16","experiment","2","even","2","327600","324324","325393","3238","271976","325396","288700","3245","261901","329602","326397","330387","185181","329602","NA","Sternberg task ","14","18030.0","22","1024"
"65","65","815","815","#3d3846","experiment","legacy","legacy","legacy","1","undefined","1","left","22","22","22","0","0","22","22","0","0","22","22","22","0","22","0","Mon Oct 16 22:57:48 2023","The main experiment item","True","Sternbergtask.osexp","C:\Users\kikip\OneDrive\Dokumente\QUANT HW","False","mono","False","18","no","white","no","yes","768","legacy","10","11","C:/Users/kikip/OneDrive/Dokumente/QUANT HW/MK-subject-2.csv","legacy","9 8 4","Melodramatic Milgram","4.0.5","1","y","0","left","n","left","left","NA","718.0","181933","10074","718","NA","2","legacy","3","1024","2","48000","-16","experiment","2","even","9","333667","330392","331461","3238","271976","331463","288700","3245","261901","335669","332464","336388","185181","335669","NA","Sternberg task ","15","18748.0","23","1024"
"66","66","804","804","#3d3846","experiment","legacy","legacy","legacy","1","undefined","1","left","23","23","23","0","0","23","23","0","0","23","23","23","0","23","0","Mon Oct 16 22:57:48 2023","The main experiment item","True","Sternbergtask.osexp","C:\Users\kikip\OneDrive\Dokumente\QUANT HW","False","mono","False","18","no","white","no","yes","768","legacy","11","11","C:/Users/kikip/OneDrive/Dokumente/QUANT HW/MK-subject-2.csv","legacy","6 5","Melodramatic Milgram","4.0.5","2","y","0","left","n","left","left","NA","548.0","181933","10074","548","NA","2","legacy","2","1024","2","48000","-16","experiment","2","even","5","339698","336396","337492","3238","271976","337495","288700","3245","261901","341701","338497","342251","185181","341701","NA","Sternberg task ","16","19296.0","24","1024"
"68","68","797","797","#3d3846","experiment","legacy","legacy","legacy","1","undefined","1","left","24","24","24","0","0","24","24","0","0","24","24","24","0","24","0","Mon Oct 16 22:57:48 2023","The main experiment item","True","Sternbergtask.osexp","C:\Users\kikip\OneDrive\Dokumente\QUANT HW","False","mono","False","18","no","white","no","yes","768","legacy","12","11","C:/Users/kikip/OneDrive/Dokumente/QUANT HW/MK-subject-2.csv","legacy","2 4 8 5 1 3","Melodramatic Milgram","4.0.5","1","y","0","left","n","left","left","NA","629.0","181933","10074","629","NA","2","legacy","6","1024","2","48000","-16","experiment","2","even","2","345535","342260","343330","3238","271976","343332","288700","3245","261901","347537","344334","348167","185181","347536","NA","Sternberg task ","17","19925.0","25","1024"
"69","69","787","787","#3d3846","experiment","legacy","legacy","legacy","1","undefined","1","left","25","25","25","0","0","25","25","0","0","25","25","25","0","25","0","Mon Oct 16 22:57:48 2023","The main experiment item","True","Sternbergtask.osexp","C:\Users\kikip\OneDrive\Dokumente\QUANT HW","False","mono","False","18","no","white","no","yes","768","legacy","13","11","C:/Users/kikip/OneDrive/Dokumente/QUANT HW/MK-subject-2.csv","legacy","6 1 2","Melodramatic Milgram","4.0.5","3","y","0","left","n","left","left","NA","556.0","181933","10074","556","NA","2","legacy","3","1024","2","48000","-16","experiment","2","even","2","351484","348171","349275","3238","271976","349280","288700","3245","261901","353486","350282","354044","185181","353486","NA","Sternberg task ","18","20481.0","26","1024"
"70","70","782","782","#3d3846","experiment","legacy","legacy","legacy","1","undefined","1","right","26","26","26","0","0","26","26","0","0","26","26","26","0","26","0","Mon Oct 16 22:57:48 2023","The main experiment item","True","Sternbergtask.osexp","C:\Users\kikip\OneDrive\Dokumente\QUANT HW","False","mono","False","18","no","white","no","yes","768","legacy","14","11","C:/Users/kikip/OneDrive/Dokumente/QUANT HW/MK-subject-2.csv","legacy","8 6 3 4 7","Melodramatic Milgram","4.0.5","0","n","0","right","n","left","right","NA","639.0","181933","10074","639","NA","2","legacy","5","1024","2","48000","-16","experiment","2","even","1","357387","354052","355181","3238","271976","355183","288700","3245","261901","359390","356186","360032","185181","359389","NA","Sternberg task ","19","21120.0","27","1024"
"71","71","782","782","#3d3846","experiment","legacy","legacy","legacy","1","undefined","1","right","27","27","27","0","0","27","27","0","0","27","27","27","0","27","0","Mon Oct 16 22:57:48 2023","The main experiment item","True","Sternbergtask.osexp","C:\Users\kikip\OneDrive\Dokumente\QUANT HW","False","mono","False","18","no","white","no","yes","768","legacy","15","11","C:/Users/kikip/OneDrive/Dokumente/QUANT HW/MK-subject-2.csv","legacy","7 1 8 4 9 3","Melodramatic Milgram","4.0.5","0","n","0","right","n","left","right","NA","802.0","181933","10074","802","NA","2","legacy","6","1024","2","48000","-16","experiment","2","even","6","363317","360037","361110","3238","271976","361113","288700","3245","261901","365319","362115","366122","185181","365318","NA","Sternberg task ","20","21922.0","28","1024"
"72","72","777","777","#3d3846","experiment","legacy","legacy","legacy","1","undefined","1","right","28","28","28","0","0","28","28","0","0","28","28","28","0","28","0","Mon Oct 16 22:57:48 2023","The main experiment item","True","Sternbergtask.osexp","C:\Users\kikip\OneDrive\Dokumente\QUANT HW","False","mono","False","18","no","white","no","yes","768","legacy","16","11","C:/Users/kikip/OneDrive/Dokumente/QUANT HW/MK-subject-2.csv","legacy","6 3 1 7 9 8","Melodramatic Milgram","4.0.5","0","n","0","right","n","left","right","NA","612.0","181933","10074","612","NA","2","legacy","6","1024","2","48000","-16","experiment","2","even","4","369405","366127","367200","3238","271976","367202","288700","3245","261901","371418","368203","372031","185181","371418","NA","Sternberg task ","21","22534.0","29","1024"
"73","73","768","768","#3d3846","experiment","legacy","legacy","legacy","1","undefined","1","left","29","29","29","0","0","29","29","0","0","29","29","29","0","29","0","Mon Oct 16 22:57:48 2023","The main experiment item","True","Sternbergtask.osexp","C:\Users\kikip\OneDrive\Dokumente\QUANT HW","False","mono","False","18","no","white","no","yes","768","legacy","17","11","C:/Users/kikip/OneDrive/Dokumente/QUANT HW/MK-subject-2.csv","legacy","5 2 6","Melodramatic Milgram","4.0.5","2","y","0","left","n","left","left","NA","528.0","181933","10074","528","NA","2","legacy","3","1024","2","48000","-16","experiment","2","even","2","375325","372040","373119","3238","271976","373121","288700","3245","261901","377327","374122","377856","185181","377327","NA","Sternberg task ","22","23062.0","30","1024"
"74","74","765","765","#3d3846","experiment","legacy","legacy","legacy","1","undefined","1","right","30","30","30","0","0","30","30","0","0","30","30","30","0","30","0","Mon Oct 16 22:57:48 2023","The main experiment item","True","Sternbergtask.osexp","C:\Users\kikip\OneDrive\Dokumente\QUANT HW","False","mono","False","18","no","white","no","yes","768","legacy","18","11","C:/Users/kikip/OneDrive/Dokumente/QUANT HW/MK-subject-2.csv","legacy","9 5 3 2 8 6","Melodramatic Milgram","4.0.5","0","n","0","right","n","left","right","NA","658.0","181933","10074","658","NA","2","legacy","6","1024","2","48000","-16","experiment","2","even","7","381142","377864","378935","3238","271976","378938","288700","3245","261901","383144","379940","383803","185181","383144","NA","Sternberg task ","23","23720.0","31","1024"
"75","75","758","758","#3d3846","experiment","legacy","legacy","legacy","1","undefined","1","right","31","31","31","0","0","31","31","0","0","31","31","31","0","31","0","Mon Oct 16 22:57:48 2023","The main experiment item","True","Sternbergtask.osexp","C:\Users\kikip\OneDrive\Dokumente\QUANT HW","False","mono","False","18","no","white","no","yes","768","legacy","19","11","C:/Users/kikip/OneDrive/Dokumente/QUANT HW/MK-subject-2.csv","legacy","2 8 9","Melodramatic Milgram","4.0.5","0","n","0","right","n","left","right","NA","548.0","181933","10074","548","NA","2","legacy","3","1024","2","48000","-16","experiment","2","even","6","387101","383808","384895","3238","271976","384898","288700","3245","261901","389104","385900","389654","185181","389104","NA","Sternberg task ","24","24268.0","32","1024"
"75","75","757","757","#3d3846","experiment","legacy","legacy","legacy","1","undefined","1","right","32","32","32","0","0","32","32","0","0","32","32","32","0","32","0","Mon Oct 16 22:57:48 2023","The main experiment item","True","Sternbergtask.osexp","C:\Users\kikip\OneDrive\Dokumente\QUANT HW","False","mono","False","18","no","white","no","yes","768","legacy","20","11","C:/Users/kikip/OneDrive/Dokumente/QUANT HW/MK-subject-2.csv","legacy","4 8 1 2","Melodramatic Milgram","4.0.5","0","n","0","right","n","left","right","NA","728.0","181933","10074","728","NA","2","legacy","4","1024","2","48000","-16","experiment","2","even","7","392934","389661","390728","3238","271976","390730","288700","3245","261901","394936","391732","395665","185181","394936","NA","Sternberg task ","25","24996.0","33","1024"
"73","73","755","755","#3d3846","experiment","legacy","legacy","legacy","0","undefined","0","left","33","33","33","0","0","33","33","0","0","33","33","33","0","33","0","Mon Oct 16 22:57:48 2023","The main experiment item","True","Sternbergtask.osexp","C:\Users\kikip\OneDrive\Dokumente\QUANT HW","False","mono","False","18","no","white","no","yes","768","legacy","21","11","C:/Users/kikip/OneDrive/Dokumente/QUANT HW/MK-subject-2.csv","legacy","4 3 2 5 8","Melodramatic Milgram","4.0.5","2","y","0","right","n","left","right","NA","703.0","181933","10074","703","NA","2","legacy","5","1024","2","48000","-16","experiment","2","even","3","398946","395674","396739","3238","271976","396741","288700","3245","261901","400948","397744","401652","185181","400948","NA","Sternberg task ","25","25699.0","34","1024"
"74","74","753","753","#3d3846","experiment","legacy","legacy","legacy","1","undefined","1","right","34","34","34","0","0","34","34","0","0","34","34","34","0","34","0","Mon Oct 16 22:57:48 2023","The main experiment item","True","Sternbergtask.osexp","C:\Users\kikip\OneDrive\Dokumente\QUANT HW","False","mono","False","18","no","white","no","yes","768","legacy","22","11","C:/Users/kikip/OneDrive/Dokumente/QUANT HW/MK-subject-2.csv","legacy","9 8 2 7 4","Melodramatic Milgram","4.0.5","0","n","0","right","n","left","right","NA","688.0","181933","10074","688","NA","2","legacy","5","1024","2","48000","-16","experiment","2","even","5","404933","395674","402728","3238","271976","402730","401657","3245","261901","406936","403732","407625","185181","406935","NA","Sternberg task ","26","26387.0","35","1024"
"75","75","750","750","#3d3846","experiment","legacy","legacy","legacy","1","undefined","1","left","35","35","35","0","0","35","35","0","0","35","35","35","0","35","0","Mon Oct 16 22:57:48 2023","The main experiment item","True","Sternbergtask.osexp","C:\Users\kikip\OneDrive\Dokumente\QUANT HW","False","mono","False","18","no","white","no","yes","768","legacy","23","11","C:/Users/kikip/OneDrive/Dokumente/QUANT HW/MK-subject-2.csv","legacy","5 7 8 2 3 8","Melodramatic Milgram","4.0.5","5","y","0","left","n","left","left","NA","642.0","181933","10074","642","NA","2","legacy","6","1024","2","48000","-16","experiment","2","even","3","410905","407633","408698","3238","271976","408701","401657","3245","261901","412907","409702","413550","185181","412907","NA","Sternberg task ","27","27029.0","36","1024"
"75","75","744","744","#3d3846","experiment","legacy","legacy","legacy","1","undefined","1","right","36","36","36","0","0","36","36","0","0","36","36","36","0","36","0","Mon Oct 16 22:57:48 2023","The main experiment item","True","Sternbergtask.osexp","C:\Users\kikip\OneDrive\Dokumente\QUANT HW","False","mono","False","18","no","white","no","yes","768","legacy","24","11","C:/Users/kikip/OneDrive/Dokumente/QUANT HW/MK-subject-2.csv","legacy","1 8 7","Melodramatic Milgram","4.0.5","0","n","0","right","n","left","right","NA","503.0","181933","10074","503","NA","2","legacy","3","1024","2","48000","-16","experiment","2","even","4","416824","413554","414618","3238","271976","414621","401657","3245","261901","418827","415622","419332","185181","418826","NA","Sternberg task ","28","27532.0","37","1024"
"76","76","742","742","#3d3846","experiment","legacy","legacy","legacy","1","undefined","1","right","37","37","37","0","0","37","37","0","0","37","37","37","0","37","0","Mon Oct 16 22:57:48 2023","The main experiment item","True","Sternbergtask.osexp","C:\Users\kikip\OneDrive\Dokumente\QUANT HW","False","mono","False","18","no","white","no","yes","768","legacy","25","11","C:/Users/kikip/OneDrive/Dokumente/QUANT HW/MK-subject-2.csv","legacy","6 9 4 5 2","Melodramatic Milgram","4.0.5","0","n","0","right","n","left","right","NA","690.0","181933","10074","690","NA","2","legacy","5","1024","2","48000","-16","experiment","2","even","1","422635","419337","420428","3238","271976","420431","401657","3245","261901","424637","421433","425328","185181","424636","NA","Sternberg task ","29","28222.0","38","1024"
"76","76","735","735","#3d3846","experiment","legacy","legacy","legacy","1","undefined","1","right","38","38","38","0","0","38","38","0","0","38","38","38","0","38","0","Mon Oct 16 22:57:48 2023","The main experiment item","True","Sternbergtask.osexp","C:\Users\kikip\OneDrive\Dokumente\QUANT HW","False","mono","False","18","no","white","no","yes","768","legacy","26","11","C:/Users/kikip/OneDrive/Dokumente/QUANT HW/MK-subject-2.csv","legacy","9","Melodramatic Milgram","4.0.5","0","n","0","right","n","left","right","NA","460.0","181933","10074","460","NA","2","legacy","1","1024","2","48000","-16","experiment","2","even","6","428638","425337","426432","3238","271976","426434","401657","3245","261901","430640","427435","431101","185181","430639","NA","Sternberg task ","30","28682.0","39","1024"
"77","77","730","730","#3d3846","experiment","legacy","legacy","legacy","1","undefined","1","left","39","39","39","0","0","39","39","0","0","39","39","39","0","39","0","Mon Oct 16 22:57:48 2023","The main experiment item","True","Sternbergtask.osexp","C:\Users\kikip\OneDrive\Dokumente\QUANT HW","False","mono","False","18","no","white","no","yes","768","legacy","27","11","C:/Users/kikip/OneDrive/Dokumente/QUANT HW/MK-subject-2.csv","legacy","8 7 3","Melodramatic Milgram","4.0.5","1","y","0","left","n","left","left","NA","525.0","181933","10074","525","NA","2","legacy","3","1024","2","48000","-16","experiment","2","even","8","434394","431109","432187","3238","271976","432190","401657","3245","261901","436396","433192","436923","185181","436396","NA","Sternberg task ","31","29207.0","40","1024"
"78","78","725","725","#3d3846","experiment","legacy","legacy","legacy","1","undefined","1","left","40","40","40","0","0","40","40","0","0","40","40","40","0","40","0","Mon Oct 16 22:57:48 2023","The main experiment item","True","Sternbergtask.osexp","C:\Users\kikip\OneDrive\Dokumente\QUANT HW","False","mono","False","18","no","white","no","yes","768","legacy","28","11","C:/Users/kikip/OneDrive/Dokumente/QUANT HW/MK-subject-2.csv","legacy","9 3 1 2 5","Melodramatic Milgram","4.0.5","4","y","0","left","n","left","left","NA","546.0","181933","10074","546","NA","2","legacy","5","1024","2","48000","-16","experiment","2","even","2","440203","436928","437998","3238","271976","438000","401657","3245","261901","442206","439002","442753","185181","442206","NA","Sternberg task ","32","29753.0","41","1024"
"78","78","722","722","#3d3846","experiment","legacy","legacy","legacy","1","undefined","1","right","41","41","41","0","0","41","41","0","0","41","41","41","0","41","0","Mon Oct 16 22:57:48 2023","The main experiment item","True","Sternbergtask.osexp","C:\Users\kikip\OneDrive\Dokumente\QUANT HW","False","mono","False","18","no","white","no","yes","768","legacy","29","11","C:/Users/kikip/OneDrive/Dokumente/QUANT HW/MK-subject-2.csv","legacy","2 5 1 4","Melodramatic Milgram","4.0.5","0","n","0","right","n","left","right","NA","574.0","181933","10074","574","NA","2","legacy","4","1024","2","48000","-16","experiment","2","even","6","446039","442762","443834","3238","271976","443836","401657","3245","261901","448041","444837","448616","185181","448041","NA","Sternberg task ","33","30327.0","42","1024"
"79","79","722","722","#3d3846","experiment","legacy","legacy","legacy","1","undefined","1","right","42","42","42","0","0","42","42","0","0","42","42","42","0","42","0","Mon Oct 16 22:57:48 2023","The main experiment item","True","Sternbergtask.osexp","C:\Users\kikip\OneDrive\Dokumente\QUANT HW","False","mono","False","18","no","white","no","yes","768","legacy","30","11","C:/Users/kikip/OneDrive/Dokumente/QUANT HW/MK-subject-2.csv","legacy","2 8 7 9 5 3","Melodramatic Milgram","4.0.5","0","n","0","right","n","left","right","NA","742.0","181933","10074","742","NA","2","legacy","6","1024","2","48000","-16","experiment","2","even","6","451906","448626","449699","3238","271976","449702","401657","3245","261901","453908","450704","454651","185181","453907","NA","Sternberg task ","34","31069.0","43","1024"
"79","79","720","720","#3d3846","experiment","legacy","legacy","legacy","1","undefined","1","right","43","43","43","0","0","43","43","0","0","43","43","43","0","43","0","Mon Oct 16 22:57:48 2023","The main experiment item","True","Sternbergtask.osexp","C:\Users\kikip\OneDrive\Dokumente\QUANT HW","False","mono","False","18","no","white","no","yes","768","legacy","31","11","C:/Users/kikip/OneDrive/Dokumente/QUANT HW/MK-subject-2.csv","legacy","8 5 7 3 6","Melodramatic Milgram","4.0.5","0","n","0","right","n","left","right","NA","619.0","181933","10074","619","NA","2","legacy","5","1024","2","48000","-16","experiment","2","even","9","457940","454661","455734","3238","271976","455736","401657","3245","261901","459942","456738","460563","185181","459942","NA","Sternberg task ","35","31688.0","44","1024"
"80","80","715","715","#3d3846","experiment","legacy","legacy","legacy","1","undefined","1","left","44","44","44","0","0","44","44","0","0","44","44","44","0","44","0","Mon Oct 16 22:57:48 2023","The main experiment item","True","Sternbergtask.osexp","C:\Users\kikip\OneDrive\Dokumente\QUANT HW","False","mono","False","18","no","white","no","yes","768","legacy","32","11","C:/Users/kikip/OneDrive/Dokumente/QUANT HW/MK-subject-2.csv","legacy","7 1 3","Melodramatic Milgram","4.0.5","2","y","0","left","n","left","left","NA","491.0","181933","10074","491","NA","2","legacy","3","1024","2","48000","-16","experiment","2","even","1","463890","460571","461685","3238","271976","461687","401657","3245","261901","465893","462689","466386","185181","465892","NA","Sternberg task ","36","32179.0","45","1024"
"80","80","712","712","#3d3846","experiment","legacy","legacy","legacy","1","undefined","1","right","45","45","45","0","0","45","45","0","0","45","45","45","0","45","0","Mon Oct 16 22:57:48 2023","The main experiment item","True","Sternbergtask.osexp","C:\Users\kikip\OneDrive\Dokumente\QUANT HW","False","mono","False","18","no","white","no","yes","768","legacy","33","11","C:/Users/kikip/OneDrive/Dokumente/QUANT HW/MK-subject-2.csv","legacy","1 5 3 2 8","Melodramatic Milgram","4.0.5","0","n","0","right","n","left","right","NA","591.0","181933","10074","591","NA","2","legacy","5","1024","2","48000","-16","experiment","2","even","4","469661","466390","467456","3238","271976","467458","401657","3245","261901","471664","468460","472256","185181","471663","NA","Sternberg task ","37","32770.0","46","1024"
"80","80","715","715","#3d3846","experiment","legacy","legacy","legacy","1","undefined","1","left","46","46","46","0","0","46","46","0","0","46","46","46","0","46","0","Mon Oct 16 22:57:48 2023","The main experiment item","True","Sternbergtask.osexp","C:\Users\kikip\OneDrive\Dokumente\QUANT HW","False","mono","False","18","no","white","no","yes","768","legacy","34","11","C:/Users/kikip/OneDrive/Dokumente/QUANT HW/MK-subject-2.csv","legacy","3 5 4 7","Melodramatic Milgram","4.0.5","1","y","0","left","n","left","left","NA","850.0","181933","10074","850","NA","2","legacy","4","1024","2","48000","-16","experiment","2","even","3","475574","472261","473369","3238","271976","473372","401657","3245","261901","477577","474373","478429","185181","477577","NA","Sternberg task ","38","33620.0","47","1024"
"81","81","712","712","#3d3846","experiment","legacy","legacy","legacy","1","undefined","1","left","47","47","47","0","0","47","47","0","0","47","47","47","0","47","0","Mon Oct 16 22:57:48 2023","The main experiment item","True","Sternbergtask.osexp","C:\Users\kikip\OneDrive\Dokumente\QUANT HW","False","mono","False","18","no","white","no","yes","768","legacy","35","11","C:/Users/kikip/OneDrive/Dokumente/QUANT HW/MK-subject-2.csv","legacy","9 5 8 1","Melodramatic Milgram","4.0.5","2","y","0","left","n","left","left","NA","588.0","181933","10074","588","NA","2","legacy","4","1024","2","48000","-16","experiment","2","even","5","481709","478434","479503","3238","271976","479505","401657","3245","261901","483711","480507","484301","185181","483711","NA","Sternberg task ","39","34208.0","48","1024"
"81","81","711","711","#3d3846","experiment","legacy","legacy","legacy","1","undefined","1","left","48","48","48","0","0","48","48","0","0","48","48","48","0","48","0","Mon Oct 16 22:57:48 2023","The main experiment item","True","Sternbergtask.osexp","C:\Users\kikip\OneDrive\Dokumente\QUANT HW","False","mono","False","18","no","white","no","yes","768","legacy","36","11","C:/Users/kikip/OneDrive/Dokumente/QUANT HW/MK-subject-2.csv","legacy","9 3 8 2 1 4","Melodramatic Milgram","4.0.5","3","y","0","left","n","left","left","NA","645.0","181933","10074","645","NA","2","legacy","6","1024","2","48000","-16","experiment","2","even","8","487593","484306","485386","3238","271976","485389","401657","3245","261901","489595","486391","490241","185181","489595","NA","Sternberg task ","40","34853.0","49","1024"
"82","82","709","709","#3d3846","experiment","legacy","legacy","legacy","1","undefined","1","right","49","49","49","0","0","49","49","0","0","49","49","49","0","49","0","Mon Oct 16 22:57:48 2023","The main experiment item","True","Sternbergtask.osexp","C:\Users\kikip\OneDrive\Dokumente\QUANT HW","False","mono","False","18","no","white","no","yes","768","legacy","37","11","C:/Users/kikip/OneDrive/Dokumente/QUANT HW/MK-subject-2.csv","legacy","6 8 4","Melodramatic Milgram","4.0.5","0","n","0","right","n","left","right","NA","617.0","181933","10074","617","NA","2","legacy","3","1024","2","48000","-16","experiment","2","even","1","493527","490246","491321","3238","271976","491323","401657","3245","261901","495529","492324","496147","185181","495528","NA","Sternberg task ","41","35470.0","50","1024"
"82","82","706","706","#3d3846","experiment","legacy","legacy","legacy","1","undefined","1","left","50","50","50","0","0","50","50","0","0","50","50","50","0","50","0","Mon Oct 16 22:57:48 2023","The main experiment item","True","Sternbergtask.osexp","C:\Users\kikip\OneDrive\Dokumente\QUANT HW","False","mono","False","18","no","white","no","yes","768","legacy","38","11","C:/Users/kikip/OneDrive/Dokumente/QUANT HW/MK-subject-2.csv","legacy","8 5 3 7 4 6","Melodramatic Milgram","4.0.5","6","y","0","left","n","left","left","NA","549.0","181933","10074","549","NA","2","legacy","6","1024","2","48000","-16","experiment","2","even","6","499436","496152","497231","3238","271976","497233","401657","3245","261901","501439","498234","501989","185181","501439","NA","Sternberg task ","42","36019.0","51","1024"
"80","80","704","704","#3d3846","experiment","legacy","legacy","legacy","0","undefined","0","left","51","51","51","0","0","51","51","0","0","51","51","51","0","51","0","Mon Oct 16 22:57:48 2023","The main experiment item","True","Sternbergtask.osexp","C:\Users\kikip\OneDrive\Dokumente\QUANT HW","False","mono","False","18","no","white","no","yes","768","legacy","39","11","C:/Users/kikip/OneDrive/Dokumente/QUANT HW/MK-subject-2.csv","legacy","9 1 6 7 8","Melodramatic Milgram","4.0.5","1","y","0","right","n","left","right","NA","614.0","181933","10074","614","NA","2","legacy","5","1024","2","48000","-16","experiment","2","even","9","505270","501994","503063","3238","271976","503066","401657","3245","261901","507272","504068","507887","185181","507272","NA","Sternberg task ","42","36633.0","52","1024"
"81","81","707","707","#3d3846","experiment","legacy","legacy","legacy","1","undefined","1","right","52","52","52","0","0","52","52","0","0","52","52","52","0","52","0","Mon Oct 16 22:57:48 2023","The main experiment item","True","Sternbergtask.osexp","C:\Users\kikip\OneDrive\Dokumente\QUANT HW","False","mono","False","18","no","white","no","yes","768","legacy","40","11","C:/Users/kikip/OneDrive/Dokumente/QUANT HW/MK-subject-2.csv","legacy","5 7 3","Melodramatic Milgram","4.0.5","0","n","0","right","n","left","right","NA","871.0","181933","10074","871","NA","2","legacy","3","1024","2","48000","-16","experiment","2","even","9","511174","501994","508966","3238","271976","508969","507892","3245","261901","513176","509972","514049","185181","513176","NA","Sternberg task ","43","37504.0","53","1024"
"79","79","705","705","#3d3846","experiment","legacy","legacy","legacy","0","undefined","0","right","53","53","53","0","0","53","53","0","0","53","53","53","0","53","0","Mon Oct 16 22:57:48 2023","The main experiment item","True","Sternbergtask.osexp","C:\Users\kikip\OneDrive\Dokumente\QUANT HW","False","mono","False","18","no","white","no","yes","768","legacy","41","11","C:/Users/kikip/OneDrive/Dokumente/QUANT HW/MK-subject-2.csv","legacy","2 8 9 4 1","Melodramatic Milgram","4.0.5","0","n","0","left","n","left","left","NA","568.0","181933","10074","568","NA","2","legacy","5","1024","2","48000","-16","experiment","2","even","5","517353","514054","515148","3238","271976","515150","507892","3245","261901","519356","516152","519926","185181","519355","NA","Sternberg task ","43","38072.0","54","1024"
"80","80","701","701","#3d3846","experiment","legacy","legacy","legacy","1","undefined","1","left","54","54","54","0","0","54","54","0","0","54","54","54","0","54","0","Mon Oct 16 22:57:48 2023","The main experiment item","True","Sternbergtask.osexp","C:\Users\kikip\OneDrive\Dokumente\QUANT HW","False","mono","False","18","no","white","no","yes","768","legacy","42","11","C:/Users/kikip/OneDrive/Dokumente/QUANT HW/MK-subject-2.csv","legacy","7","Melodramatic Milgram","4.0.5","1","y","0","left","n","left","left","NA","501.0","181933","10074","501","NA","2","legacy","1","1024","2","48000","-16","experiment","2","even","7","523201","514054","520995","3238","271976","520997","519930","3245","261901","525203","521998","525706","185181","525203","NA","Sternberg task ","44","38573.0","55","1024"
"80","80","699","699","#3d3846","experiment","legacy","legacy","legacy","1","undefined","1","right","55","55","55","0","0","55","55","0","0","55","55","55","0","55","0","Mon Oct 16 22:57:48 2023","The main experiment item","True","Sternbergtask.osexp","C:\Users\kikip\OneDrive\Dokumente\QUANT HW","False","mono","False","18","no","white","no","yes","768","legacy","43","11","C:/Users/kikip/OneDrive/Dokumente/QUANT HW/MK-subject-2.csv","legacy","1 4 3 6 5","Melodramatic Milgram","4.0.5","0","n","0","right","n","left","right","NA","585.0","181933","10074","585","NA","2","legacy","5","1024","2","48000","-16","experiment","2","even","8","528990","525711","526784","3238","271976","526786","519930","3245","261901","530992","527788","531578","185181","530991","NA","Sternberg task ","45","39158.0","56","1024"
"80","80","700","700","#3d3846","experiment","legacy","legacy","legacy","1","undefined","1","right","56","56","56","0","0","56","56","0","0","56","56","56","0","56","0","Mon Oct 16 22:57:48 2023","The main experiment item","True","Sternbergtask.osexp","C:\Users\kikip\OneDrive\Dokumente\QUANT HW","False","mono","False","18","no","white","no","yes","768","legacy","44","11","C:/Users/kikip/OneDrive/Dokumente/QUANT HW/MK-subject-2.csv","legacy","1 7 5 2 9","Melodramatic Milgram","4.0.5","0","n","0","right","n","left","right","NA","770.0","181933","10074","770","NA","2","legacy","5","1024","2","48000","-16","experiment","2","even","3","534868","531583","532663","3238","271976","532665","519930","3245","261901","536870","533667","537642","185181","536869","NA","Sternberg task ","46","39928.0","57","1024"
"81","81","706","706","#3d3846","experiment","legacy","legacy","legacy","1","undefined","1","left","57","57","57","0","0","57","57","0","0","57","57","57","0","57","0","Mon Oct 16 22:57:48 2023","The main experiment item","True","Sternbergtask.osexp","C:\Users\kikip\OneDrive\Dokumente\QUANT HW","False","mono","False","18","no","white","no","yes","768","legacy","45","11","C:/Users/kikip/OneDrive/Dokumente/QUANT HW/MK-subject-2.csv","legacy","7 2 3","Melodramatic Milgram","4.0.5","3","y","0","left","n","left","left","NA","1073.0","181933","10074","1073","NA","2","legacy","3","1024","2","48000","-16","experiment","2","even","3","540928","537647","538722","3238","271976","538725","519930","3245","261901","542930","539726","544004","185181","542929","NA","Sternberg task ","47","41001.0","58","1024"
"81","81","703","703","#3d3846","experiment","legacy","legacy","legacy","1","undefined","1","left","58","58","58","0","0","58","58","0","0","58","58","58","0","58","0","Mon Oct 16 22:57:48 2023","The main experiment item","True","Sternbergtask.osexp","C:\Users\kikip\OneDrive\Dokumente\QUANT HW","False","mono","False","18","no","white","no","yes","768","legacy","46","11","C:/Users/kikip/OneDrive/Dokumente/QUANT HW/MK-subject-2.csv","legacy","7 6","Melodramatic Milgram","4.0.5","2","y","0","left","n","left","left","NA","506.0","181933","10074","506","NA","2","legacy","2","1024","2","48000","-16","experiment","2","even","6","547293","544012","545087","3238","271976","545089","519930","3245","261901","549295","546091","549802","185181","549295","NA","Sternberg task ","48","41507.0","59","1024"
"81","81","701","701","#3d3846","experiment","legacy","legacy","legacy","1","undefined","1","right","59","59","59","0","0","59","59","0","0","59","59","59","0","59","0","Mon Oct 16 22:57:48 2023","The main experiment item","True","Sternbergtask.osexp","C:\Users\kikip\OneDrive\Dokumente\QUANT HW","False","mono","False","18","no","white","no","yes","768","legacy","47","11","C:/Users/kikip/OneDrive/Dokumente/QUANT HW/MK-subject-2.csv","legacy","8 4 3 9","Melodramatic Milgram","4.0.5","0","n","0","right","n","left","right","NA","601.0","181933","10074","601","NA","2","legacy","4","1024","2","48000","-16","experiment","2","even","5","553091","549811","550885","3238","271976","550887","519930","3245","261901","555093","551888","555696","185181","555093","NA","Sternberg task ","49","42108.0","60","1024"
"81","81","705","705","#3d3846","experiment","legacy","legacy","legacy","1","undefined","1","left","60","60","60","0","0","60","60","0","0","60","60","60","0","60","0","Mon Oct 16 22:57:48 2023","The main experiment item","True","Sternbergtask.osexp","C:\Users\kikip\OneDrive\Dokumente\QUANT HW","False","mono","False","18","no","white","no","yes","768","legacy","48","11","C:/Users/kikip/OneDrive/Dokumente/QUANT HW/MK-subject-2.csv","legacy","4 6 5 8","Melodramatic Milgram","4.0.5","1","y","0","left","n","left","left","NA","908.0","181933","10074","908","NA","2","legacy","4","1024","2","48000","-16","experiment","2","even","4","558979","555701","556772","3238","271976","556775","519930","3245","261901","560981","557776","561890","185181","560980","NA","Sternberg task ","50","43016.0","61","1024"
"82","82","703","703","#3d3846","experiment","legacy","legacy","legacy","1","undefined","1","right","61","61","61","0","0","61","61","0","0","61","61","61","0","61","0","Mon Oct 16 22:57:48 2023","The main experiment item","True","Sternbergtask.osexp","C:\Users\kikip\OneDrive\Dokumente\QUANT HW","False","mono","False","18","no","white","no","yes","768","legacy","49","11","C:/Users/kikip/OneDrive/Dokumente/QUANT HW/MK-subject-2.csv","legacy","8 9","Melodramatic Milgram","4.0.5","0","n","0","right","n","left","right","NA","620.0","181933","10074","620","NA","2","legacy","2","1024","2","48000","-16","experiment","2","even","5","565207","561898","563002","3238","271976","563004","519930","3245","261901","567210","564006","567832","185181","567210","NA","Sternberg task ","51","43636.0","62","1024"
"82","82","701","701","#3d3846","experiment","legacy","legacy","legacy","1","undefined","1","left","62","62","62","0","0","62","62","0","0","62","62","62","0","62","0","Mon Oct 16 22:57:48 2023","The main experiment item","True","Sternbergtask.osexp","C:\Users\kikip\OneDrive\Dokumente\QUANT HW","False","mono","False","18","no","white","no","yes","768","legacy","50","11","C:/Users/kikip/OneDrive/Dokumente/QUANT HW/MK-subject-2.csv","legacy","8","Melodramatic Milgram","4.0.5","1","y","0","left","n","left","left","NA","543.0","181933","10074","543","NA","2","legacy","1","1024","2","48000","-16","experiment","2","even","8","571116","567837","568909","3238","271976","568912","519930","3245","261901","573118","569914","573662","185181","573118","NA","Sternberg task ","52","44179.0","63","1024"
"82","82","699","699","#3d3846","experiment","legacy","legacy","legacy","1","undefined","1","right","63","63","63","0","0","63","63","0","0","63","63","63","0","63","0","Mon Oct 16 22:57:48 2023","The main experiment item","True","Sternbergtask.osexp","C:\Users\kikip\OneDrive\Dokumente\QUANT HW","False","mono","False","18","no","white","no","yes","768","legacy","51","11","C:/Users/kikip/OneDrive/Dokumente/QUANT HW/MK-subject-2.csv","legacy","7 1 5 6 3","Melodramatic Milgram","4.0.5","0","n","0","right","n","left","right","NA","592.0","181933","10074","592","NA","2","legacy","5","1024","2","48000","-16","experiment","2","even","8","576944","573670","574738","3238","271976","574740","519930","3245","261901","578946","575741","579539","185181","578945","NA","Sternberg task ","53","44771.0","64","1024"
"81","81","700","700","#3d3846","experiment","legacy","legacy","legacy","0","undefined","0","left","64","64","64","0","0","64","64","0","0","64","64","64","0","64","0","Mon Oct 16 22:57:48 2023","The main experiment item","True","Sternbergtask.osexp","C:\Users\kikip\OneDrive\Dokumente\QUANT HW","False","mono","False","18","no","white","no","yes","768","legacy","52","11","C:/Users/kikip/OneDrive/Dokumente/QUANT HW/MK-subject-2.csv","legacy","2 8 5 1","Melodramatic Milgram","4.0.5","4","y","0","right","n","left","right","NA","764.0","181933","10074","764","NA","2","legacy","4","1024","2","48000","-16","experiment","2","even","1","582830","579547","580623","3238","271976","580626","519930","3245","261901","584832","581628","585598","185181","584832","NA","Sternberg task ","53","45535.0","65","1024"
"81","81","700","700","#3d3846","experiment","legacy","legacy","legacy","1","undefined","1","right","65","65","65","0","0","65","65","0","0","65","65","65","0","65","0","Mon Oct 16 22:57:48 2023","The main experiment item","True","Sternbergtask.osexp","C:\Users\kikip\OneDrive\Dokumente\QUANT HW","False","mono","False","18","no","white","no","yes","768","legacy","53","11","C:/Users/kikip/OneDrive/Dokumente/QUANT HW/MK-subject-2.csv","legacy","7 6 4 8 1 2","Melodramatic Milgram","4.0.5","0","n","0","right","n","left","right","NA","723.0","181933","10074","723","NA","2","legacy","6","1024","2","48000","-16","experiment","2","even","9","588879","579547","586673","3238","271976","586675","585603","3245","261901","590881","587677","591606","185181","590881","NA","Sternberg task ","54","46258.0","66","1024"
"82","82","699","699","#3d3846","experiment","legacy","legacy","legacy","1","undefined","1","right","66","66","66","0","0","66","66","0","0","66","66","66","0","66","0","Mon Oct 16 22:57:48 2023","The main experiment item","True","Sternbergtask.osexp","C:\Users\kikip\OneDrive\Dokumente\QUANT HW","False","mono","False","18","no","white","no","yes","768","legacy","54","11","C:/Users/kikip/OneDrive/Dokumente/QUANT HW/MK-subject-2.csv","legacy","5","Melodramatic Milgram","4.0.5","0","n","0","right","n","left","right","NA","576.0","181933","10074","576","NA","2","legacy","1","1024","2","48000","-16","experiment","2","even","8","594893","591615","592687","3238","271976","592689","585603","3245","261901","596896","593692","597474","185181","596896","NA","Sternberg task ","55","46834.0","67","1024"
"82","82","696","696","#3d3846","experiment","legacy","legacy","legacy","1","undefined","1","left","67","67","67","0","0","67","67","0","0","67","67","67","0","67","0","Mon Oct 16 22:57:48 2023","The main experiment item","True","Sternbergtask.osexp","C:\Users\kikip\OneDrive\Dokumente\QUANT HW","False","mono","False","18","no","white","no","yes","768","legacy","55","11","C:/Users/kikip/OneDrive/Dokumente/QUANT HW/MK-subject-2.csv","legacy","4 1 5","Melodramatic Milgram","4.0.5","2","y","0","left","n","left","left","NA","511.0","181933","10074","511","NA","2","legacy","3","1024","2","48000","-16","experiment","2","even","1","600764","597482","598558","3238","271976","598560","585603","3245","261901","602766","599561","603279","185181","602766","NA","Sternberg task ","56","47345.0","68","1024"
"82","82","694","694","#3d3846","experiment","legacy","legacy","legacy","1","undefined","1","right","68","68","68","0","0","68","68","0","0","68","68","68","0","68","0","Mon Oct 16 22:57:48 2023","The main experiment item","True","Sternbergtask.osexp","C:\Users\kikip\OneDrive\Dokumente\QUANT HW","False","mono","False","18","no","white","no","yes","768","legacy","56","11","C:/Users/kikip/OneDrive/Dokumente/QUANT HW/MK-subject-2.csv","legacy","8 4 3 5","Melodramatic Milgram","4.0.5","0","n","0","right","n","left","right","NA","588.0","181933","10074","588","NA","2","legacy","4","1024","2","48000","-16","experiment","2","even","6","606579","603283","604373","3238","271976","604375","585603","3245","261901","608581","605377","609171","185181","608581","NA","Sternberg task ","57","47933.0","69","1024"
"82","82","694","694","#3d3846","experiment","legacy","legacy","legacy","1","undefined","1","left","69","69","69","0","0","69","69","0","0","69","69","69","0","69","0","Mon Oct 16 22:57:48 2023","The main experiment item","True","Sternbergtask.osexp","C:\Users\kikip\OneDrive\Dokumente\QUANT HW","False","mono","False","18","no","white","no","yes","768","legacy","57","11","C:/Users/kikip/OneDrive/Dokumente/QUANT HW/MK-subject-2.csv","legacy","2 6 1 7 4","Melodramatic Milgram","4.0.5","2","y","0","left","n","left","left","NA","674.0","181933","10074","674","NA","2","legacy","5","1024","2","48000","-16","experiment","2","even","6","612459","609179","610252","3238","271976","610254","585603","3245","261901","614461","611257","615136","185181","614461","NA","Sternberg task ","58","48607.0","70","1024"
"81","81","692","692","#3d3846","experiment","legacy","legacy","legacy","0","undefined","0","left","70","70","70","0","0","70","70","0","0","70","70","70","0","70","0","Mon Oct 16 22:57:48 2023","The main experiment item","True","Sternbergtask.osexp","C:\Users\kikip\OneDrive\Dokumente\QUANT HW","False","mono","False","18","no","white","no","yes","768","legacy","58","11","C:/Users/kikip/OneDrive/Dokumente/QUANT HW/MK-subject-2.csv","legacy","4 7 6 8 2 3","Melodramatic Milgram","4.0.5","6","y","0","right","n","left","right","NA","578.0","181933","10074","578","NA","2","legacy","6","1024","2","48000","-16","experiment","2","even","3","618431","615147","616225","3238","271976","616228","585603","3245","261901","620434","617230","621013","185181","620433","NA","Sternberg task ","58","49185.0","71","1024"
"81","81","690","690","#3d3846","experiment","legacy","legacy","legacy","1","undefined","1","left","71","71","71","0","0","71","71","0","0","71","71","71","0","71","0","Mon Oct 16 22:57:48 2023","The main experiment item","True","Sternbergtask.osexp","C:\Users\kikip\OneDrive\Dokumente\QUANT HW","False","mono","False","18","no","white","no","yes","768","legacy","59","11","C:/Users/kikip/OneDrive/Dokumente/QUANT HW/MK-subject-2.csv","legacy","4 9 7 8 5 3","Melodramatic Milgram","4.0.5","4","y","0","left","n","left","left","NA","532.0","181933","10074","532","NA","2","legacy","6","1024","2","48000","-16","experiment","2","even","8","624305","615147","622098","3238","271976","622100","621018","3245","261901","626307","623103","626841","185181","626307","NA","Sternberg task ","59","49717.0","72","1024"
"82","82","688","688","#3d3846","experiment","legacy","legacy","legacy","1","undefined","1","right","72","72","72","0","0","72","72","0","0","72","72","72","0","72","0","Mon Oct 16 22:57:48 2023","The main experiment item","True","Sternbergtask.osexp","C:\Users\kikip\OneDrive\Dokumente\QUANT HW","False","mono","False","18","no","white","no","yes","768","legacy","60","11","C:/Users/kikip/OneDrive/Dokumente/QUANT HW/MK-subject-2.csv","legacy","3 4 9 6 7 8","Melodramatic Milgram","4.0.5","0","n","0","right","n","left","right","NA","577.0","181933","10074","577","NA","2","legacy","6","1024","2","48000","-16","experiment","2","even","2","630126","626849","627919","3238","271976","627922","621018","3245","261901","632128","628924","632706","185181","632128","NA","Sternberg task ","60","50294.0","73","1024"
"81","81","687","687","#3d3846","experiment","legacy","legacy","legacy","0","undefined","0","right","73","73","73","0","0","73","73","0","0","73","73","73","0","73","0","Mon Oct 16 22:57:48 2023","The main experiment item","True","Sternbergtask.osexp","C:\Users\kikip\OneDrive\Dokumente\QUANT HW","False","mono","False","18","no","white","no","yes","768","legacy","61","11","C:/Users/kikip/OneDrive/Dokumente/QUANT HW/MK-subject-2.csv","legacy","5 3 2 6 9 8","Melodramatic Milgram","4.0.5","0","n","0","left","n","left","left","NA","558.0","181933","10074","558","NA","2","legacy","6","1024","2","48000","-16","experiment","2","even","4","635988","632715","633782","3238","271976","633784","621018","3245","261901","637990","634786","638549","185181","637990","NA","Sternberg task ","60","50852.0","74","1024"
"81","81","688","688","#3d3846","experiment","legacy","legacy","legacy","1","undefined","1","right","74","74","74","0","0","74","74","0","0","74","74","74","0","74","0","Mon Oct 16 22:57:48 2023","The main experiment item","True","Sternbergtask.osexp","C:\Users\kikip\OneDrive\Dokumente\QUANT HW","False","mono","False","18","no","white","no","yes","768","legacy","62","11","C:/Users/kikip/OneDrive/Dokumente/QUANT HW/MK-subject-2.csv","legacy","2 7 5","Melodramatic Milgram","4.0.5","0","n","0","right","n","left","right","NA","805.0","181933","10074","805","NA","2","legacy","3","1024","2","48000","-16","experiment","2","even","8","641830","632715","639626","3238","271976","639628","638554","3245","261901","643833","640629","644640","185181","643833","NA","Sternberg task ","61","51657.0","75","1024"
"81","81","688","688","#3d3846","experiment","legacy","legacy","legacy","1","undefined","1","right","75","75","75","0","0","75","75","0","0","75","75","75","0","75","0","Mon Oct 16 22:57:48 2023","The main experiment item","True","Sternbergtask.osexp","C:\Users\kikip\OneDrive\Dokumente\QUANT HW","False","mono","False","18","no","white","no","yes","768","legacy","63","11","C:/Users/kikip/OneDrive/Dokumente/QUANT HW/MK-subject-2.csv","legacy","3 4 2","Melodramatic Milgram","4.0.5","0","n","0","right","n","left","right","NA","689.0","181933","10074","689","NA","2","legacy","3","1024","2","48000","-16","experiment","2","even","5","647924","644648","645718","3238","271976","645720","638554","3245","261901","649926","646721","650617","185181","649926","NA","Sternberg task ","62","52346.0","76","1024"
"81","81","688","688","#3d3846","experiment","legacy","legacy","legacy","1","undefined","1","left","76","76","76","0","0","76","76","0","0","76","76","76","0","76","0","Mon Oct 16 22:57:48 2023","The main experiment item","True","Sternbergtask.osexp","C:\Users\kikip\OneDrive\Dokumente\QUANT HW","False","mono","False","18","no","white","no","yes","768","legacy","64","11","C:/Users/kikip/OneDrive/Dokumente/QUANT HW/MK-subject-2.csv","legacy","3 9 7 6 4","Melodramatic Milgram","4.0.5","3","y","0","left","n","left","left","NA","668.0","181933","10074","668","NA","2","legacy","5","1024","2","48000","-16","experiment","2","even","7","653916","650621","651709","3238","271976","651712","638554","3245","261901","655918","652714","656588","185181","655917","NA","Sternberg task ","63","53014.0","77","1024"
"82","82","690","690","#3d3846","experiment","legacy","legacy","legacy","1","undefined","1","right","77","77","77","0","0","77","77","0","0","77","77","77","0","77","0","Mon Oct 16 22:57:48 2023","The main experiment item","True","Sternbergtask.osexp","C:\Users\kikip\OneDrive\Dokumente\QUANT HW","False","mono","False","18","no","white","no","yes","768","legacy","65","11","C:/Users/kikip/OneDrive/Dokumente/QUANT HW/MK-subject-2.csv","legacy","3 9 8 1 6 4","Melodramatic Milgram","4.0.5","0","n","0","right","n","left","right","NA","823.0","181933","10074","823","NA","2","legacy","6","1024","2","48000","-16","experiment","2","even","7","659869","656594","657663","3238","271976","657666","638554","3245","261901","661872","658668","662697","185181","661871","NA","Sternberg task ","64","53837.0","78","1024"
"82","82","689","689","#3d3846","experiment","legacy","legacy","legacy","1","undefined","1","left","78","78","78","0","0","78","78","0","0","78","78","78","0","78","0","Mon Oct 16 22:57:48 2023","The main experiment item","True","Sternbergtask.osexp","C:\Users\kikip\OneDrive\Dokumente\QUANT HW","False","mono","False","18","no","white","no","yes","768","legacy","66","11","C:/Users/kikip/OneDrive/Dokumente/QUANT HW/MK-subject-2.csv","legacy","8 5 4 7 3 1","Melodramatic Milgram","4.0.5","2","y","0","left","n","left","left","NA","649.0","181933","10074","649","NA","2","legacy","6","1024","2","48000","-16","experiment","2","even","5","665979","662702","663773","3238","271976","663775","638554","3245","261901","667981","664777","668631","185181","667981","NA","Sternberg task ","65","54486.0","79","1024"
"82","82","688","688","#3d3846","experiment","legacy","legacy","legacy","1","undefined","1","right","79","79","79","0","0","79","79","0","0","79","79","79","0","79","0","Mon Oct 16 22:57:48 2023","The main experiment item","True","Sternbergtask.osexp","C:\Users\kikip\OneDrive\Dokumente\QUANT HW","False","mono","False","18","no","white","no","yes","768","legacy","67","11","C:/Users/kikip/OneDrive/Dokumente/QUANT HW/MK-subject-2.csv","legacy","2 6 4 3 9","Melodramatic Milgram","4.0.5","0","n","0","right","n","left","right","NA","632.0","181933","10074","632","NA","2","legacy","5","1024","2","48000","-16","experiment","2","even","1","671907","668636","669702","3238","271976","669704","638554","3245","261901","673909","670705","674543","185181","673909","NA","Sternberg task ","66","55118.0","80","1024"
"82","82","688","688","#3d3846","experiment","legacy","legacy","legacy","1","undefined","1","left","80","80","80","0","0","80","80","0","0","80","80","80","0","80","0","Mon Oct 16 22:57:48 2023","The main experiment item","True","Sternbergtask.osexp","C:\Users\kikip\OneDrive\Dokumente\QUANT HW","False","mono","False","18","no","white","no","yes","768","legacy","68","11","C:/Users/kikip/OneDrive/Dokumente/QUANT HW/MK-subject-2.csv","legacy","8 9 5 6 7","Melodramatic Milgram","4.0.5","1","y","0","left","n","left","left","NA","648.0","181933","10074","648","NA","2","legacy","5","1024","2","48000","-16","experiment","2","even","8","677839","674552","675632","3238","271976","675635","638554","3245","261901","679841","676636","680491","185181","679840","NA","Sternberg task ","67","55766.0","81","1024"
"82","82","685","685","#3d3846","experiment","legacy","legacy","legacy","1","undefined","1","right","81","81","81","0","0","81","81","0","0","81","81","81","0","81","0","Mon Oct 16 22:57:48 2023","The main experiment item","True","Sternbergtask.osexp","C:\Users\kikip\OneDrive\Dokumente\QUANT HW","False","mono","False","18","no","white","no","yes","768","legacy","69","11","C:/Users/kikip/OneDrive/Dokumente/QUANT HW/MK-subject-2.csv","legacy","7 1","Melodramatic Milgram","4.0.5","0","n","0","right","n","left","right","NA","407.0","181933","10074","407","NA","2","legacy","2","1024","2","48000","-16","experiment","2","even","8","683770","680498","681564","3238","271976","681566","638554","3245","261901","685772","682567","686181","185181","685772","NA","Sternberg task ","68","56173.0","82","1024"
"83","83","684","684","#3d3846","experiment","legacy","legacy","legacy","1","undefined","1","right","82","82","82","0","0","82","82","0","0","82","82","82","0","82","0","Mon Oct 16 22:57:48 2023","The main experiment item","True","Sternbergtask.osexp","C:\Users\kikip\OneDrive\Dokumente\QUANT HW","False","mono","False","18","no","white","no","yes","768","legacy","70","11","C:/Users/kikip/OneDrive/Dokumente/QUANT HW/MK-subject-2.csv","legacy","6 9 5","Melodramatic Milgram","4.0.5","0","n","0","right","n","left","right","NA","647.0","181933","10074","647","NA","2","legacy","3","1024","2","48000","-16","experiment","2","even","8","689468","686186","687262","3238","271976","687264","638554","3245","261901","691470","688266","692120","185181","691469","NA","Sternberg task ","69","56820.0","83","1024"
"83","83","683","683","#3d3846","experiment","legacy","legacy","legacy","1","undefined","1","right","83","83","83","0","0","83","83","0","0","83","83","83","0","83","0","Mon Oct 16 22:57:48 2023","The main experiment item","True","Sternbergtask.osexp","C:\Users\kikip\OneDrive\Dokumente\QUANT HW","False","mono","False","18","no","white","no","yes","768","legacy","71","11","C:/Users/kikip/OneDrive/Dokumente/QUANT HW/MK-subject-2.csv","legacy","7 9","Melodramatic Milgram","4.0.5","0","n","0","right","n","left","right","NA","613.0","181933","10074","613","NA","2","legacy","2","1024","2","48000","-16","experiment","2","even","1","695434","692126","693227","3238","271976","693230","638554","3245","261901","697436","694232","698050","185181","697436","NA","Sternberg task ","70","57433.0","84","1024"
"83","83","683","683","#3d3846","experiment","legacy","legacy","legacy","1","undefined","1","right","84","84","84","0","0","84","84","0","0","84","84","84","0","84","0","Mon Oct 16 22:57:48 2023","The main experiment item","True","Sternbergtask.osexp","C:\Users\kikip\OneDrive\Dokumente\QUANT HW","False","mono","False","18","no","white","no","yes","768","legacy","72","11","C:/Users/kikip/OneDrive/Dokumente/QUANT HW/MK-subject-2.csv","legacy","6 2 9 3 8 4","Melodramatic Milgram","4.0.5","0","n","0","right","n","left","right","NA","669.0","181933","10074","669","NA","2","legacy","6","1024","2","48000","-16","experiment","2","even","1","701333","698059","699128","3238","271976","699130","638554","3245","261901","703335","700132","704006","185181","703334","NA","Sternberg task ","71","58102.0","85","1024"
"82","82","685","685","#3d3846","experiment","legacy","legacy","legacy","0","undefined","0","right","85","85","85","0","0","85","85","0","0","85","85","85","0","85","0","Mon Oct 16 22:57:48 2023","The main experiment item","True","Sternbergtask.osexp","C:\Users\kikip\OneDrive\Dokumente\QUANT HW","False","mono","False","18","no","white","no","yes","768","legacy","73","11","C:/Users/kikip/OneDrive/Dokumente/QUANT HW/MK-subject-2.csv","legacy","6 9 7 3 8 2","Melodramatic Milgram","4.0.5","0","n","0","left","n","left","left","NA","808.0","181933","10074","808","NA","2","legacy","6","1024","2","48000","-16","experiment","2","even","5","707286","704010","705080","3238","271976","705082","638554","3245","261901","709288","706084","710098","185181","709288","NA","Sternberg task ","71","58910.0","86","1024"
"82","82","683","683","#3d3846","experiment","legacy","legacy","legacy","1","undefined","1","right","86","86","86","0","0","86","86","0","0","86","86","86","0","86","0","Mon Oct 16 22:57:48 2023","The main experiment item","True","Sternbergtask.osexp","C:\Users\kikip\OneDrive\Dokumente\QUANT HW","False","mono","False","18","no","white","no","yes","768","legacy","74","11","C:/Users/kikip/OneDrive/Dokumente/QUANT HW/MK-subject-2.csv","legacy","1","Melodramatic Milgram","4.0.5","0","n","0","right","n","left","right","NA","582.0","181933","10074","582","NA","2","legacy","1","1024","2","48000","-16","experiment","2","even","7","713377","704010","711171","3238","271976","711173","710106","3245","261901","715379","712175","715963","185181","715379","NA","Sternberg task ","72","59492.0","87","1024"
"82","82","685","685","#3d3846","experiment","legacy","legacy","legacy","1","undefined","1","left","87","87","87","0","0","87","87","0","0","87","87","87","0","87","0","Mon Oct 16 22:57:48 2023","The main experiment item","True","Sternbergtask.osexp","C:\Users\kikip\OneDrive\Dokumente\QUANT HW","False","mono","False","18","no","white","no","yes","768","legacy","75","11","C:/Users/kikip/OneDrive/Dokumente/QUANT HW/MK-subject-2.csv","legacy","6 8 9 3 4 9","Melodramatic Milgram","4.0.5","5","y","0","left","n","left","left","NA","835.0","181933","10074","835","NA","2","legacy","6","1024","2","48000","-16","experiment","2","even","4","719279","715967","717074","3238","271976","717076","710106","3245","261901","721282","718078","722119","185181","721281","NA","Sternberg task ","73","60327.0","88","1024"
"83","83","684","684","#3d3846","experiment","legacy","legacy","legacy","1","undefined","1","left","88","88","88","0","0","88","88","0","0","88","88","88","0","88","0","Mon Oct 16 22:57:48 2023","The main experiment item","True","Sternbergtask.osexp","C:\Users\kikip\OneDrive\Dokumente\QUANT HW","False","mono","False","18","no","white","no","yes","768","legacy","76","11","C:/Users/kikip/OneDrive/Dokumente/QUANT HW/MK-subject-2.csv","legacy","4 6 2 5 1","Melodramatic Milgram","4.0.5","5","y","0","left","n","left","left","NA","555.0","181933","10074","555","NA","2","legacy","5","1024","2","48000","-16","experiment","2","even","1","725397","722123","723190","3238","271976","723193","710106","3245","261901","727399","724194","727956","185181","727399","NA","Sternberg task ","74","60882.0","89","1024"
"82","82","683","683","#3d3846","experiment","legacy","legacy","legacy","0","undefined","0","left","89","89","89","0","0","89","89","0","0","89","89","89","0","89","0","Mon Oct 16 22:57:48 2023","The main experiment item","True","Sternbergtask.osexp","C:\Users\kikip\OneDrive\Dokumente\QUANT HW","False","mono","False","18","no","white","no","yes","768","legacy","77","11","C:/Users/kikip/OneDrive/Dokumente/QUANT HW/MK-subject-2.csv","legacy","6 7 9 3 1 2","Melodramatic Milgram","4.0.5","1","y","0","right","n","left","right","NA","616.0","181933","10074","616","NA","2","legacy","6","1024","2","48000","-16","experiment","2","even","6","731249","727965","729042","3238","271976","729044","710106","3245","261901","733251","730047","733869","185181","733251","NA","Sternberg task ","74","61498.0","90","1024"
"82","82","682","682","#3d3846","experiment","legacy","legacy","legacy","1","undefined","1","left","90","90","90","0","0","90","90","0","0","90","90","90","0","90","0","Mon Oct 16 22:57:48 2023","The main experiment item","True","Sternbergtask.osexp","C:\Users\kikip\OneDrive\Dokumente\QUANT HW","False","mono","False","18","no","white","no","yes","768","legacy","78","11","C:/Users/kikip/OneDrive/Dokumente/QUANT HW/MK-subject-2.csv","legacy","9 1 7 2","Melodramatic Milgram","4.0.5","2","y","0","left","n","left","left","NA","567.0","181933","10074","567","NA","2","legacy","4","1024","2","48000","-16","experiment","2","even","1","737148","727965","734942","3238","271976","734944","733873","3245","261901","739150","735946","739719","185181","739150","NA","Sternberg task ","75","62065.0","91","1024"
"82","82","680","680","#3d3846","experiment","legacy","legacy","legacy","1","undefined","1","left","91","91","91","0","0","91","91","0","0","91","91","91","0","91","0","Mon Oct 16 22:57:48 2023","The main experiment item","True","Sternbergtask.osexp","C:\Users\kikip\OneDrive\Dokumente\QUANT HW","False","mono","False","18","no","white","no","yes","768","legacy","79","11","C:/Users/kikip/OneDrive/Dokumente/QUANT HW/MK-subject-2.csv","legacy","6 9 3 1","Melodramatic Milgram","4.0.5","4","y","0","left","n","left","left","NA","509.0","181933","10074","509","NA","2","legacy","4","1024","2","48000","-16","experiment","2","even","1","743068","739724","740861","3238","271976","740864","733873","3245","261901","745070","741866","745582","185181","745069","NA","Sternberg task ","76","62574.0","92","1024"
"82","82","678","678","#3d3846","experiment","legacy","legacy","legacy","1","undefined","1","left","92","92","92","0","0","92","92","0","0","92","92","92","0","92","0","Mon Oct 16 22:57:48 2023","The main experiment item","True","Sternbergtask.osexp","C:\Users\kikip\OneDrive\Dokumente\QUANT HW","False","mono","False","18","no","white","no","yes","768","legacy","80","11","C:/Users/kikip/OneDrive/Dokumente/QUANT HW/MK-subject-2.csv","legacy","4 1 8 7 5","Melodramatic Milgram","4.0.5","3","y","0","left","n","left","left","NA","563.0","181933","10074","563","NA","2","legacy","5","1024","2","48000","-16","experiment","2","even","8","748870","745590","746664","3238","271976","746666","733873","3245","261901","750872","747668","751438","185181","750872","NA","Sternberg task ","77","63137.0","93","1024"
"82","82","679","679","#3d3846","experiment","legacy","legacy","legacy","1","undefined","1","right","93","93","93","0","0","93","93","0","0","93","93","93","0","93","0","Mon Oct 16 22:57:48 2023","The main experiment item","True","Sternbergtask.osexp","C:\Users\kikip\OneDrive\Dokumente\QUANT HW","False","mono","False","18","no","white","no","yes","768","legacy","81","11","C:/Users/kikip/OneDrive/Dokumente/QUANT HW/MK-subject-2.csv","legacy","6 7 5 9","Melodramatic Milgram","4.0.5","0","n","0","right","n","left","right","NA","726.0","181933","10074","726","NA","2","legacy","4","1024","2","48000","-16","experiment","2","even","2","754714","751443","752508","3238","271976","752510","733873","3245","261901","756716","753512","757444","185181","756716","NA","Sternberg task ","78","63863.0","94","1024"
"83","83","678","678","#3d3846","experiment","legacy","legacy","legacy","1","undefined","1","left","94","94","94","0","0","94","94","0","0","94","94","94","0","94","0","Mon Oct 16 22:57:48 2023","The main experiment item","True","Sternbergtask.osexp","C:\Users\kikip\OneDrive\Dokumente\QUANT HW","False","mono","False","18","no","white","no","yes","768","legacy","82","11","C:/Users/kikip/OneDrive/Dokumente/QUANT HW/MK-subject-2.csv","legacy","3 5 7 1","Melodramatic Milgram","4.0.5","3","y","0","left","n","left","left","NA","622.0","181933","10074","622","NA","2","legacy","4","1024","2","48000","-16","experiment","2","even","7","760729","757449","758522","3238","271976","758524","733873","3245","261901","762731","759527","763356","185181","762731","NA","Sternberg task ","79","64485.0","95","1024"
"83","83","678","678","#3d3846","experiment","legacy","legacy","legacy","1","undefined","1","right","95","95","95","0","0","95","95","0","0","95","95","95","0","95","0","Mon Oct 16 22:57:48 2023","The main experiment item","True","Sternbergtask.osexp","C:\Users\kikip\OneDrive\Dokumente\QUANT HW","False","mono","False","18","no","white","no","yes","768","legacy","83","11","C:/Users/kikip/OneDrive/Dokumente/QUANT HW/MK-subject-2.csv","legacy","7 3 2 8","Melodramatic Milgram","4.0.5","0","n","0","right","n","left","right","NA","657.0","181933","10074","657","NA","2","legacy","4","1024","2","48000","-16","experiment","2","even","4","766636","763364","764431","3238","271976","764433","733873","3245","261901","768638","765435","769297","185181","768638","NA","Sternberg task ","80","65142.0","96","1024"
"83","83","677","677","#3d3846","experiment","legacy","legacy","legacy","1","undefined","1","left","96","96","96","0","0","96","96","0","0","96","96","96","0","96","0","Mon Oct 16 22:57:48 2023","The main experiment item","True","Sternbergtask.osexp","C:\Users\kikip\OneDrive\Dokumente\QUANT HW","False","mono","False","18","no","white","no","yes","768","legacy","84","11","C:/Users/kikip/OneDrive/Dokumente/QUANT HW/MK-subject-2.csv","legacy","3 4 9 6 2 9","Melodramatic Milgram","4.0.5","5","y","0","left","n","left","left","NA","541.0","181933","10074","541","NA","2","legacy","6","1024","2","48000","-16","experiment","2","even","2","772577","769302","770372","3238","271976","770374","733873","3245","261901","774579","771376","775123","185181","774579","NA","Sternberg task ","81","65683.0","97","1024"
"83","83","679","679","#3d3846","experiment","legacy","legacy","legacy","1","undefined","1","right","97","97","97","0","0","97","97","0","0","97","97","97","0","97","0","Mon Oct 16 22:57:48 2023","The main experiment item","True","Sternbergtask.osexp","C:\Users\kikip\OneDrive\Dokumente\QUANT HW","False","mono","False","18","no","white","no","yes","768","legacy","85","11","C:/Users/kikip/OneDrive/Dokumente/QUANT HW/MK-subject-2.csv","legacy","8 5 4 2 9 6","Melodramatic Milgram","4.0.5","0","n","0","right","n","left","right","NA","943.0","181933","10074","943","NA","2","legacy","6","1024","2","48000","-16","experiment","2","even","3","778408","775129","776203","3238","271976","776206","733873","3245","261901","780410","777207","781355","185181","780409","NA","Sternberg task ","82","66626.0","98","1024"
"83","83","680","680","#3d3846","experiment","legacy","legacy","legacy","1","undefined","1","right","98","98","98","0","0","98","98","0","0","98","98","98","0","98","0","Mon Oct 16 22:57:48 2023","The main experiment item","True","Sternbergtask.osexp","C:\Users\kikip\OneDrive\Dokumente\QUANT HW","False","mono","False","18","no","white","no","yes","768","legacy","86","11","C:/Users/kikip/OneDrive/Dokumente/QUANT HW/MK-subject-2.csv","legacy","5 9 2 3","Melodramatic Milgram","4.0.5","0","n","0","right","n","left","right","NA","748.0","181933","10074","748","NA","2","legacy","4","1024","2","48000","-16","experiment","2","even","8","784673","781360","782468","3238","271976","782471","733873","3245","261901","786676","783472","787426","185181","786676","NA","Sternberg task ","83","67374.0","99","1024"
"84","84","679","679","#3d3846","experiment","legacy","legacy","legacy","1","undefined","1","left","99","99","99","0","0","99","99","0","0","99","99","99","0","99","0","Mon Oct 16 22:57:48 2023","The main experiment item","True","Sternbergtask.osexp","C:\Users\kikip\OneDrive\Dokumente\QUANT HW","False","mono","False","18","no","white","no","yes","768","legacy","87","11","C:/Users/kikip/OneDrive/Dokumente/QUANT HW/MK-subject-2.csv","legacy","5 2 9 6 1 7","Melodramatic Milgram","4.0.5","3","y","0","left","n","left","left","NA","592.0","181933","10074","592","NA","2","legacy","6","1024","2","48000","-16","experiment","2","even","9","790707","787430","788502","3238","271976","788504","733873","3245","261901","792708","789506","793302","185181","792708","NA","Sternberg task ","84","67966.0","100","1024"
"84","84","679","679","#3d3846","experiment","legacy","legacy","legacy","1","undefined","1","left","100","100","100","0","0","100","100","0","0","100","100","100","0","100","0","Mon Oct 16 22:57:48 2023","The main experiment item","True","Sternbergtask.osexp","C:\Users\kikip\OneDrive\Dokumente\QUANT HW","False","mono","False","18","no","white","no","yes","768","legacy","88","11","C:/Users/kikip/OneDrive/Dokumente/QUANT HW/MK-subject-2.csv","legacy","2 4 6 9","Melodramatic Milgram","4.0.5","3","y","0","left","n","left","left","NA","695.0","181933","10074","695","NA","2","legacy","4","1024","2","48000","-16","experiment","2","even","6","796586","793310","794381","3238","271976","794383","733873","3245","261901","798588","795384","799285","185181","798587","NA","Sternberg task ","85","68661.0","101","1024"
"84","84","680","680","#3d3846","experiment","legacy","legacy","legacy","1","undefined","1","right","101","101","101","0","0","101","101","0","0","101","101","101","0","101","0","Mon Oct 16 22:57:48 2023","The main experiment item","True","Sternbergtask.osexp","C:\Users\kikip\OneDrive\Dokumente\QUANT HW","False","mono","False","18","no","white","no","yes","768","legacy","89","11","C:/Users/kikip/OneDrive/Dokumente/QUANT HW/MK-subject-2.csv","legacy","1 4 9 3","Melodramatic Milgram","4.0.5","0","n","0","right","n","left","right","NA","737.0","181933","10074","737","NA","2","legacy","4","1024","2","48000","-16","experiment","2","even","5","802574","799293","800368","3238","271976","800370","733873","3245","261901","804575","801372","805314","185181","804575","NA","Sternberg task ","86","69398.0","102","1024"
"83","83","682","682","#3d3846","experiment","legacy","legacy","legacy","0","undefined","0","left","102","102","102","0","0","102","102","0","0","102","102","102","0","102","0","Mon Oct 16 22:57:48 2023","The main experiment item","True","Sternbergtask.osexp","C:\Users\kikip\OneDrive\Dokumente\QUANT HW","False","mono","False","18","no","white","no","yes","768","legacy","90","11","C:/Users/kikip/OneDrive/Dokumente/QUANT HW/MK-subject-2.csv","legacy","8 9 6 1","Melodramatic Milgram","4.0.5","2","y","0","right","n","left","right","NA","932.0","181933","10074","932","NA","2","legacy","4","1024","2","48000","-16","experiment","2","even","9","808601","805321","806397","3238","271976","806399","733873","3245","261901","810603","807400","811537","185181","810603","NA","Sternberg task ","86","70330.0","103","1024"
"83","83","680","680","#3d3846","experiment","legacy","legacy","legacy","1","undefined","1","left","103","103","103","0","0","103","103","0","0","103","103","103","0","103","0","Mon Oct 16 22:57:48 2023","The main experiment item","True","Sternbergtask.osexp","C:\Users\kikip\OneDrive\Dokumente\QUANT HW","False","mono","False","18","no","white","no","yes","768","legacy","91","11","C:/Users/kikip/OneDrive/Dokumente/QUANT HW/MK-subject-2.csv","legacy","3 5 9 6 2 4","Melodramatic Milgram","4.0.5","1","y","0","left","n","left","left","NA","488.0","181933","10074","488","NA","2","legacy","6","1024","2","48000","-16","experiment","2","even","3","814822","805321","812618","3238","271976","812620","811542","3245","261901","816823","813621","817313","185181","816823","NA","Sternberg task ","87","70818.0","104","1024"
"83","83","680","680","#3d3846","experiment","legacy","legacy","legacy","1","undefined","1","left","104","104","104","0","0","104","104","0","0","104","104","104","0","104","0","Mon Oct 16 22:57:48 2023","The main experiment item","True","Sternbergtask.osexp","C:\Users\kikip\OneDrive\Dokumente\QUANT HW","False","mono","False","18","no","white","no","yes","768","legacy","92","11","C:/Users/kikip/OneDrive/Dokumente/QUANT HW/MK-subject-2.csv","legacy","1 4 9 3 2 5","Melodramatic Milgram","4.0.5","3","y","0","left","n","left","left","NA","653.0","181933","10074","653","NA","2","legacy","6","1024","2","48000","-16","experiment","2","even","9","820613","817318","818409","3238","271976","818411","811542","3245","261901","822615","819412","823270","185181","822614","NA","Sternberg task ","88","71471.0","105","1024"
"83","83","679","679","#3d3846","experiment","legacy","legacy","legacy","1","undefined","1","left","105","105","105","0","0","105","105","0","0","105","105","105","0","105","0","Mon Oct 16 22:57:48 2023","The main experiment item","True","Sternbergtask.osexp","C:\Users\kikip\OneDrive\Dokumente\QUANT HW","False","mono","False","18","no","white","no","yes","768","legacy","93","11","C:/Users/kikip/OneDrive/Dokumente/QUANT HW/MK-subject-2.csv","legacy","9 6 2 4 1","Melodramatic Milgram","4.0.5","4","y","0","left","n","left","left","NA","598.0","181933","10074","598","NA","2","legacy","5","1024","2","48000","-16","experiment","2","even","4","826554","823277","824350","3238","271976","824352","811542","3245","261901","828556","825353","829156","185181","828555","NA","Sternberg task ","89","72069.0","106","1024"
"84","84","679","679","#3d3846","experiment","legacy","legacy","legacy","1","undefined","1","right","106","106","106","0","0","106","106","0","0","106","106","106","0","106","0","Mon Oct 16 22:57:48 2023","The main experiment item","True","Sternbergtask.osexp","C:\Users\kikip\OneDrive\Dokumente\QUANT HW","False","mono","False","18","no","white","no","yes","768","legacy","94","11","C:/Users/kikip/OneDrive/Dokumente/QUANT HW/MK-subject-2.csv","legacy","4 2 6 9","Melodramatic Milgram","4.0.5","0","n","0","right","n","left","right","NA","668.0","181933","10074","668","NA","2","legacy","4","1024","2","48000","-16","experiment","2","even","7","832475","829161","830270","3238","271976","830273","811542","3245","261901","834476","831274","835146","185181","834476","NA","Sternberg task ","90","72737.0","107","1024"
"84","84","678","678","#3d3846","experiment","legacy","legacy","legacy","1","undefined","1","right","107","107","107","0","0","107","107","0","0","107","107","107","0","107","0","Mon Oct 16 22:57:48 2023","The main experiment item","True","Sternbergtask.osexp","C:\Users\kikip\OneDrive\Dokumente\QUANT HW","False","mono","False","18","no","white","no","yes","768","legacy","95","11","C:/Users/kikip/OneDrive/Dokumente/QUANT HW/MK-subject-2.csv","legacy","5 2","Melodramatic Milgram","4.0.5","0","n","0","right","n","left","right","NA","549.0","181933","10074","549","NA","2","legacy","2","1024","2","48000","-16","experiment","2","even","7","838432","835151","836228","3238","271976","836230","811542","3245","261901","840433","837231","840983","185181","840433","NA","Sternberg task ","91","73286.0","108","1024"
"84","84","677","677","#3d3846","experiment","legacy","legacy","legacy","1","undefined","1","right","108","108","108","0","0","108","108","0","0","108","108","108","0","108","0","Mon Oct 16 22:57:48 2023","The main experiment item","True","Sternbergtask.osexp","C:\Users\kikip\OneDrive\Dokumente\QUANT HW","False","mono","False","18","no","white","no","yes","768","legacy","96","11","C:/Users/kikip/OneDrive/Dokumente/QUANT HW/MK-subject-2.csv","legacy","1 4 9 2 5","Melodramatic Milgram","4.0.5","0","n","0","right","n","left","right","NA","517.0","181933","10074","517","NA","2","legacy","5","1024","2","48000","-16","experiment","2","even","7","844271","840991","842067","3238","271976","842069","811542","3245","261901","846272","843070","846791","185181","846272","NA","Sternberg task ","92","73803.0","109","1024"
"84","84","678","678","#3d3846","experiment","legacy","legacy","legacy","1","undefined","1","right","109","109","109","0","0","109","109","0","0","109","109","109","0","109","0","Mon Oct 16 22:57:48 2023","The main experiment item","True","Sternbergtask.osexp","C:\Users\kikip\OneDrive\Dokumente\QUANT HW","False","mono","False","18","no","white","no","yes","768","legacy","97","11","C:/Users/kikip/OneDrive/Dokumente/QUANT HW/MK-subject-2.csv","legacy","2 3 8 5 6 7","Melodramatic Milgram","4.0.5","0","n","0","right","n","left","right","NA","834.0","181933","10074","834","NA","2","legacy","6","1024","2","48000","-16","experiment","2","even","1","850074","846795","847870","3238","271976","847872","811542","3245","261901","852075","848873","852912","185181","852075","NA","Sternberg task ","93","74637.0","110","1024"
"84","84","677","677","#3d3846","experiment","legacy","legacy","legacy","1","undefined","1","right","110","110","110","0","0","110","110","0","0","110","110","110","0","110","0","Mon Oct 16 22:57:48 2023","The main experiment item","True","Sternbergtask.osexp","C:\Users\kikip\OneDrive\Dokumente\QUANT HW","False","mono","False","18","no","white","no","yes","768","legacy","98","11","C:/Users/kikip/OneDrive/Dokumente/QUANT HW/MK-subject-2.csv","legacy","1 7 5 2","Melodramatic Milgram","4.0.5","0","n","0","right","n","left","right","NA","550.0","181933","10074","550","NA","2","legacy","4","1024","2","48000","-16","experiment","2","even","3","856194","852917","853990","3238","271976","853992","811542","3245","261901","858196","854993","858748","185181","858195","NA","Sternberg task ","94","75187.0","111","1024"
"84","84","676","676","#3d3846","experiment","legacy","legacy","legacy","1","undefined","1","left","111","111","111","0","0","111","111","0","0","111","111","111","0","111","0","Mon Oct 16 22:57:48 2023","The main experiment item","True","Sternbergtask.osexp","C:\Users\kikip\OneDrive\Dokumente\QUANT HW","False","mono","False","18","no","white","no","yes","768","legacy","99","11","C:/Users/kikip/OneDrive/Dokumente/QUANT HW/MK-subject-2.csv","legacy","6 7 8 5","Melodramatic Milgram","4.0.5","3","y","0","left","n","left","left","NA","636.0","181933","10074","636","NA","2","legacy","4","1024","2","48000","-16","experiment","2","even","8","862035","858755","859831","3238","271976","859833","811542","3245","261901","864036","860834","864674","185181","864036","NA","Sternberg task ","95","75823.0","112","1024"
"84","84","676","676","#3d3846","experiment","legacy","legacy","legacy","1","undefined","1","left","112","112","112","0","0","112","112","0","0","112","112","112","0","112","0","Mon Oct 16 22:57:48 2023","The main experiment item","True","Sternbergtask.osexp","C:\Users\kikip\OneDrive\Dokumente\QUANT HW","False","mono","False","18","no","white","no","yes","768","legacy","100","11","C:/Users/kikip/OneDrive/Dokumente/QUANT HW/MK-subject-2.csv","legacy","8 1 6","Melodramatic Milgram","4.0.5","3","y","0","left","n","left","left","NA","633.0","181933","10074","633","NA","2","legacy","3","1024","2","48000","-16","experiment","2","even","6","867958","864682","865754","3238","271976","865756","811542","3245","261901","869960","866757","870595","185181","869959","NA","Sternberg task ","96","76456.0","113","1024"
"85","85","675","675","#3d3846","experiment","legacy","legacy","legacy","1","undefined","1","left","113","113","113","0","0","113","113","0","0","113","113","113","0","113","0","Mon Oct 16 22:57:48 2023","The main experiment item","True","Sternbergtask.osexp","C:\Users\kikip\OneDrive\Dokumente\QUANT HW","False","mono","False","18","no","white","no","yes","768","legacy","101","11","C:/Users/kikip/OneDrive/Dokumente/QUANT HW/MK-subject-2.csv","legacy","3 4","Melodramatic Milgram","4.0.5","1","y","0","left","n","left","left","NA","556.0","181933","10074","556","NA","2","legacy","2","1024","2","48000","-16","experiment","2","even","3","873903","870600","871698","3238","271976","871700","811542","3245","261901","875904","872701","876462","185181","875904","NA","Sternberg task ","97","77012.0","114","1024"
"85","85","674","674","#3d3846","experiment","legacy","legacy","legacy","1","undefined","1","left","114","114","114","0","0","114","114","0","0","114","114","114","0","114","0","Mon Oct 16 22:57:48 2023","The main experiment item","True","Sternbergtask.osexp","C:\Users\kikip\OneDrive\Dokumente\QUANT HW","False","mono","False","18","no","white","no","yes","768","legacy","102","11","C:/Users/kikip/OneDrive/Dokumente/QUANT HW/MK-subject-2.csv","legacy","9 4 2","Melodramatic Milgram","4.0.5","1","y","0","left","n","left","left","NA","563.0","181933","10074","563","NA","2","legacy","3","1024","2","48000","-16","experiment","2","even","9","879746","876467","877540","3238","271976","877542","811542","3245","261901","881748","878543","882314","185181","881747","NA","Sternberg task ","98","77575.0","115","1024"
"85","85","674","674","#3d3846","experiment","legacy","legacy","legacy","1","undefined","1","right","115","115","115","0","0","115","115","0","0","115","115","115","0","115","0","Mon Oct 16 22:57:48 2023","The main experiment item","True","Sternbergtask.osexp","C:\Users\kikip\OneDrive\Dokumente\QUANT HW","False","mono","False","18","no","white","no","yes","768","legacy","103","11","C:/Users/kikip/OneDrive/Dokumente/QUANT HW/MK-subject-2.csv","legacy","7 4 2 8 1 9","Melodramatic Milgram","4.0.5","0","n","0","right","n","left","right","NA","620.0","181933","10074","620","NA","2","legacy","6","1024","2","48000","-16","experiment","2","even","5","885607","882322","883402","3238","271976","883404","811542","3245","261901","887608","884406","888230","185181","887608","NA","Sternberg task ","99","78195.0","116","1024"
"85","85","674","674","#3d3846","experiment","legacy","legacy","legacy","1","undefined","1","left","116","116","116","0","0","116","116","0","0","116","116","116","0","116","0","Mon Oct 16 22:57:48 2023","The main experiment item","True","Sternbergtask.osexp","C:\Users\kikip\OneDrive\Dokumente\QUANT HW","False","mono","False","18","no","white","no","yes","768","legacy","104","11","C:/Users/kikip/OneDrive/Dokumente/QUANT HW/MK-subject-2.csv","legacy","8 5 1 3 9","Melodramatic Milgram","4.0.5","4","y","0","left","n","left","left","NA","672.0","181933","10074","672","NA","2","legacy","5","1024","2","48000","-16","experiment","2","even","3","891518","888234","889312","3238","271976","889314","811542","3245","261901","893519","890316","894193","185181","893519","NA","Sternberg task ","100","78867.0","117","1024"
"85","85","674","674","#3d3846","experiment","legacy","legacy","legacy","1","undefined","1","right","117","117","117","0","0","117","117","0","0","117","117","117","0","117","0","Mon Oct 16 22:57:48 2023","The main experiment item","True","Sternbergtask.osexp","C:\Users\kikip\OneDrive\Dokumente\QUANT HW","False","mono","False","18","no","white","no","yes","768","legacy","105","11","C:/Users/kikip/OneDrive/Dokumente/QUANT HW/MK-subject-2.csv","legacy","1 3 2 6 9","Melodramatic Milgram","4.0.5","0","n","0","right","n","left","right","NA","692.0","181933","10074","692","NA","2","legacy","5","1024","2","48000","-16","experiment","2","even","5","897488","894201","895282","3238","271976","895285","811542","3245","261901","899489","896287","900183","185181","899489","NA","Sternberg task ","101","79559.0","118","1024"
"85","85","673","673","#3d3846","experiment","legacy","legacy","legacy","1","undefined","1","right","118","118","118","0","0","118","118","0","0","118","118","118","0","118","0","Mon Oct 16 22:57:48 2023","The main experiment item","True","Sternbergtask.osexp","C:\Users\kikip\OneDrive\Dokumente\QUANT HW","False","mono","False","18","no","white","no","yes","768","legacy","106","11","C:/Users/kikip/OneDrive/Dokumente/QUANT HW/MK-subject-2.csv","legacy","2 8 6 3 1","Melodramatic Milgram","4.0.5","0","n","0","right","n","left","right","NA","581.0","181933","10074","581","NA","2","legacy","5","1024","2","48000","-16","experiment","2","even","7","903480","900187","901274","3238","271976","901277","811542","3245","261901","905481","902278","906064","185181","905481","NA","Sternberg task ","102","80140.0","119","1024"
"85","85","673","673","#3d3846","experiment","legacy","legacy","legacy","1","undefined","1","left","119","119","119","0","0","119","119","0","0","119","119","119","0","119","0","Mon Oct 16 22:57:48 2023","The main experiment item","True","Sternbergtask.osexp","C:\Users\kikip\OneDrive\Dokumente\QUANT HW","False","mono","False","18","no","white","no","yes","768","legacy","107","11","C:/Users/kikip/OneDrive/Dokumente/QUANT HW/MK-subject-2.csv","legacy","7 4 2 6 3 5","Melodramatic Milgram","4.0.5","6","y","0","left","n","left","left","NA","666.0","181933","10074","666","NA","2","legacy","6","1024","2","48000","-16","experiment","2","even","5","909348","906069","907144","3238","271976","907146","811542","3245","261901","911349","908147","912017","185181","911349","NA","Sternberg task ","103","80806.0","120","1024"
"85","85","672","672","#3d3846","experiment","legacy","legacy","legacy","1","undefined","1","left","120","120","120","0","0","120","120","0","0","120","120","120","0","120","0","Mon Oct 16 22:57:48 2023","The main experiment item","True","Sternbergtask.osexp","C:\Users\kikip\OneDrive\Dokumente\QUANT HW","False","mono","False","18","no","white","no","yes","768","legacy","108","11","C:/Users/kikip/OneDrive/Dokumente/QUANT HW/MK-subject-2.csv","legacy","9 5 3 8 4","Melodramatic Milgram","4.0.5","1","y","0","left","n","left","left","NA","625.0","181933","10074","625","NA","2","legacy","5","1024","2","48000","-16","experiment","2","even","9","915309","912025","913105","3238","271976","913107","811542","3245","261901","917310","914108","917937","185181","917310","NA","Sternberg task ","104","81431.0","121","1024"
