"acc","accuracy","average_response_time","avg_rt","background","block","canvas_backend","clock_backend","color_backend","correct","correct_instruction1","correct_keyboard_response","correct_response","count_ISI","count_PracticeLoop","count_correctFeedback","count_exSequence","count_experiment","count_experimentLoop","count_fixation","count_incorrectFeedback","count_instruction1","count_instructions2","count_keyboard_response","count_logger","count_memorySet","count_probe","count_thankYou","datetime","description","disable_garbage_collection","experiment_file","experiment_path","font_bold","font_family","font_italic","font_size","font_underline","foreground","form_clicks","fullscreen","height","keyboard_backend","live_row","live_row_PracticeLoop","logfile","mouse_backend","numberSet","opensesame_codename","opensesame_version","posInSet","present","repeat_cycle","response","response_instruction1","response_instructions2","response_keyboard_response","response_thankYou","response_time","response_time_instruction1","response_time_instructions2","response_time_keyboard_response","response_time_thankYou","round_decimals","sampler_backend","setSize","sound_buf_size","sound_channels","sound_freq","sound_sample_size","start","subject_nr","subject_parity","target","time_ISI","time_PracticeLoop","time_correctFeedback","time_exSequence","time_experiment","time_experimentLoop","time_fixation","time_incorrectFeedback","time_instruction1","time_instructions2","time_keyboard_response","time_logger","time_memorySet","time_probe","time_thankYou","title","total_correct","total_response_time","total_responses","width"
"0","0","987","987","black","practice","legacy","legacy","legacy","0","undefined","0","left","0","0","0","0","0","0","0","0","0","0","0","0","0","0","0","Mon Oct 16 19:33:37 2023","The main experiment item","True","SternbergTask.osexp","/Users/baileymcwhirter","False","mono","False","18","no","white","no","yes","768","legacy","0","0","/Users/baileymcwhirter/BMsubject-3.csv","legacy","4 8","Melodramatic Milgram","4.0.5","1","y","0","right","right","NA","right","NA","987.0","27833","NA","987","NA","2","legacy","2","1024","2","48000","-16","experiment","3","odd","4","31326","28971","NA","29110","1070","NA","29114","NA","1122","NA","33330","34322","30119","33329","NA","Sternberg Task","0","987.0","1","1024"
"50","50","833","833","black","practice","legacy","legacy","legacy","1","undefined","1","left","1","0","1","1","0","0","1","1","0","0","1","1","1","1","0","Mon Oct 16 19:33:37 2023","The main experiment item","True","SternbergTask.osexp","/Users/baileymcwhirter","False","mono","False","18","no","white","no","yes","768","legacy","1","1","/Users/baileymcwhirter/BMsubject-3.csv","legacy","4 3 1 7 9 8","Melodramatic Milgram","4.0.5","1","y","0","left","right","NA","left","NA","680.0","27833","NA","680","NA","2","legacy","6","1024","2","48000","-16","experiment","3","odd","4","37605","28971","NA","35391","1070","NA","35393","34347","1122","NA","39608","40289","36399","39608","NA","Sternberg Task","1","1667.0","2","1024"
"66","66","747","747","black","practice","legacy","legacy","legacy","1","undefined","1","left","2","0","2","2","0","0","2","2","0","0","2","2","2","2","0","Mon Oct 16 19:33:37 2023","The main experiment item","True","SternbergTask.osexp","/Users/baileymcwhirter","False","mono","False","18","no","white","no","yes","768","legacy","2","2","/Users/baileymcwhirter/BMsubject-3.csv","legacy","1 7 9 8 5","Melodramatic Milgram","4.0.5","4","y","0","left","right","NA","left","NA","575.0","27833","NA","575","NA","2","legacy","5","1024","2","48000","-16","experiment","3","odd","8","43557","28971","40292","41343","1070","NA","41346","34347","1122","NA","45560","46136","42351","45560","NA","Sternberg Task","2","2242.0","3","1024"
"75","75","691","691","black","practice","legacy","legacy","legacy","1","undefined","1","right","3","0","3","3","0","0","3","3","0","0","3","3","3","3","0","Mon Oct 16 19:33:37 2023","The main experiment item","True","SternbergTask.osexp","/Users/baileymcwhirter","False","mono","False","18","no","white","no","yes","768","legacy","3","3","/Users/baileymcwhirter/BMsubject-3.csv","legacy","3 1 9 4","Melodramatic Milgram","4.0.5","0","n","0","right","right","NA","right","NA","523.0","27833","NA","523","NA","2","legacy","4","1024","2","48000","-16","experiment","3","odd","6","49394","28971","46139","47180","1070","NA","47183","34347","1122","NA","51396","51920","48187","51396","NA","Sternberg Task","3","2765.0","4","1024"
"80","80","653","653","black","practice","legacy","legacy","legacy","1","undefined","1","right","4","0","4","4","0","0","4","4","0","0","4","4","4","4","0","Mon Oct 16 19:33:37 2023","The main experiment item","True","SternbergTask.osexp","/Users/baileymcwhirter","False","mono","False","18","no","white","no","yes","768","legacy","4","4","/Users/baileymcwhirter/BMsubject-3.csv","legacy","5","Melodramatic Milgram","4.0.5","0","n","0","right","right","NA","right","NA","503.0","27833","NA","503","NA","2","legacy","1","1024","2","48000","-16","experiment","3","odd","3","55175","28971","51923","52964","1070","NA","52966","34347","1122","NA","57177","57681","53969","57177","NA","Sternberg Task","4","3268.0","5","1024"
"83","83","613","613","black","practice","legacy","legacy","legacy","1","undefined","1","left","5","0","5","5","0","0","5","5","0","0","5","5","5","5","0","Mon Oct 16 19:33:37 2023","The main experiment item","True","SternbergTask.osexp","/Users/baileymcwhirter","False","mono","False","18","no","white","no","yes","768","legacy","5","5","/Users/baileymcwhirter/BMsubject-3.csv","legacy","6","Melodramatic Milgram","4.0.5","1","y","0","left","right","NA","left","NA","411.0","27833","NA","411","NA","2","legacy","1","1024","2","48000","-16","experiment","3","odd","6","60928","28971","57684","58715","1070","NA","58718","34347","1122","NA","62931","63342","59722","62931","NA","Sternberg Task","5","3679.0","6","1024"
"85","85","593","593","black","practice","legacy","legacy","legacy","1","undefined","1","right","6","0","6","6","0","0","6","6","0","0","6","6","6","6","0","Mon Oct 16 19:33:37 2023","The main experiment item","True","SternbergTask.osexp","/Users/baileymcwhirter","False","mono","False","18","no","white","no","yes","768","legacy","6","6","/Users/baileymcwhirter/BMsubject-3.csv","legacy","4 1 5","Melodramatic Milgram","4.0.5","0","n","0","right","right","NA","right","NA","478.0","27833","NA","478","NA","2","legacy","3","1024","2","48000","-16","experiment","3","odd","2","66589","28971","63345","64378","1070","NA","64381","34347","1122","NA","68591","69069","65384","68591","NA","Sternberg Task","6","4157.0","7","1024"
"87","87","603","603","black","practice","legacy","legacy","legacy","1","undefined","1","right","7","0","7","7","0","0","7","7","0","0","7","7","7","7","0","Mon Oct 16 19:33:37 2023","The main experiment item","True","SternbergTask.osexp","/Users/baileymcwhirter","False","mono","False","18","no","white","no","yes","768","legacy","7","7","/Users/baileymcwhirter/BMsubject-3.csv","legacy","5 7 8 4 1 2","Melodramatic Milgram","4.0.5","0","n","0","right","right","NA","right","NA","672.0","27833","NA","672","NA","2","legacy","6","1024","2","48000","-16","experiment","3","odd","6","72317","28971","69072","70107","1070","NA","70109","34347","1122","NA","74319","74991","71112","74319","NA","Sternberg Task","7","4829.0","8","1024"
"88","88","591","591","black","practice","legacy","legacy","legacy","1","undefined","1","right","8","0","8","8","0","0","8","8","0","0","8","8","8","8","0","Mon Oct 16 19:33:37 2023","The main experiment item","True","SternbergTask.osexp","/Users/baileymcwhirter","False","mono","False","18","no","white","no","yes","768","legacy","8","8","/Users/baileymcwhirter/BMsubject-3.csv","legacy","2 1","Melodramatic Milgram","4.0.5","0","n","0","right","right","NA","right","NA","493.0","27833","NA","493","NA","2","legacy","2","1024","2","48000","-16","experiment","3","odd","5","78247","28971","74995","76033","1070","NA","76036","34347","1122","NA","80250","80744","77042","80250","NA","Sternberg Task","8","5322.0","9","1024"
"90","90","593","593","black","practice","legacy","legacy","legacy","1","undefined","1","right","9","0","9","9","0","0","9","9","0","0","9","9","9","9","0","Mon Oct 16 19:33:37 2023","The main experiment item","True","SternbergTask.osexp","/Users/baileymcwhirter","False","mono","False","18","no","white","no","yes","768","legacy","9","9","/Users/baileymcwhirter/BMsubject-3.csv","legacy","9 6 7 4 5","Melodramatic Milgram","4.0.5","0","n","0","right","right","NA","right","NA","617.0","27833","NA","617","NA","2","legacy","5","1024","2","48000","-16","experiment","3","odd","3","84006","28971","80747","81791","1070","NA","81793","34347","1122","NA","86010","86627","82799","86010","NA","Sternberg Task","9","5939.0","10","1024"
"81","81","590","590","black","practice","legacy","legacy","legacy","0","undefined","0","left","10","0","10","10","0","0","10","10","0","0","10","10","10","10","0","Mon Oct 16 19:33:37 2023","The main experiment item","True","SternbergTask.osexp","/Users/baileymcwhirter","False","mono","False","18","no","white","no","yes","768","legacy","10","10","/Users/baileymcwhirter/BMsubject-3.csv","legacy","2 9 4","Melodramatic Milgram","4.0.5","3","y","0","right","right","NA","right","NA","561.0","27833","NA","561","NA","2","legacy","3","1024","2","48000","-16","experiment","3","odd","4","89883","28971","86631","87670","1070","NA","87673","34347","1122","NA","91887","92449","88676","91886","NA","Sternberg Task","9","6500.0","11","1024"
"83","83","596","596","black","practice","legacy","legacy","legacy","1","undefined","1","left","11","0","11","11","0","0","11","11","0","0","11","11","11","11","0","Mon Oct 16 19:33:37 2023","The main experiment item","True","SternbergTask.osexp","/Users/baileymcwhirter","False","mono","False","18","no","white","no","yes","768","legacy","11","11","/Users/baileymcwhirter/BMsubject-3.csv","legacy","1 5 2 9","Melodramatic Milgram","4.0.5","2","y","0","left","right","NA","left","NA","652.0","27833","NA","652","NA","2","legacy","4","1024","2","48000","-16","experiment","3","odd","5","95694","28971","86631","93484","1070","NA","93486","92451","1122","NA","97697","98350","94488","97697","NA","Sternberg Task","10","7152.0","12","1024"
"76","76","606","606","black","experiment","legacy","legacy","legacy","0","undefined","0","right","12","0","12","12","0","0","12","12","0","0","12","12","12","12","0","Mon Oct 16 19:33:37 2023","The main experiment item","True","SternbergTask.osexp","/Users/baileymcwhirter","False","mono","False","18","no","white","no","yes","768","legacy","0","11","/Users/baileymcwhirter/BMsubject-3.csv","legacy","6 9 4 5 2","Melodramatic Milgram","4.0.5","0","n","0","left","right","left","left","NA","736.0","27833","7898","736","NA","2","legacy","5","1024","2","48000","-16","experiment","3","odd","1","109513","28971","98352","107301","1070","107258","107303","92451","1122","99360","111515","112252","108308","111515","NA","Sternberg Task","10","7888.0","13","1024"
"78","78","612","612","black","experiment","legacy","legacy","legacy","1","undefined","1","right","13","0","13","13","0","0","13","13","0","0","13","13","13","13","0","Mon Oct 16 19:33:37 2023","The main experiment item","True","SternbergTask.osexp","/Users/baileymcwhirter","False","mono","False","18","no","white","no","yes","768","legacy","1","11","/Users/baileymcwhirter/BMsubject-3.csv","legacy","6 9 7 3 8 2","Melodramatic Milgram","4.0.5","0","n","0","right","right","left","right","NA","693.0","27833","7898","693","NA","2","legacy","6","1024","2","48000","-16","experiment","3","odd","5","115504","28971","98352","113292","1070","107258","113294","112255","1122","99360","117506","118200","114297","117506","NA","Sternberg Task","11","8581.0","14","1024"
"80","80","613","613","black","experiment","legacy","legacy","legacy","1","undefined","1","right","14","0","14","14","0","0","14","14","0","0","14","14","14","14","0","Mon Oct 16 19:33:37 2023","The main experiment item","True","SternbergTask.osexp","/Users/baileymcwhirter","False","mono","False","18","no","white","no","yes","768","legacy","2","11","/Users/baileymcwhirter/BMsubject-3.csv","legacy","3 9 8 1 6 4","Melodramatic Milgram","4.0.5","0","n","0","right","right","left","right","NA","617.0","27833","7898","617","NA","2","legacy","6","1024","2","48000","-16","experiment","3","odd","7","121448","28971","118203","119238","1070","107258","119240","112255","1122","99360","123450","124067","120243","123450","NA","Sternberg Task","12","9198.0","15","1024"
"81","81","613","613","black","experiment","legacy","legacy","legacy","1","undefined","1","right","15","0","15","15","0","0","15","15","0","0","15","15","15","15","0","Mon Oct 16 19:33:37 2023","The main experiment item","True","SternbergTask.osexp","/Users/baileymcwhirter","False","mono","False","18","no","white","no","yes","768","legacy","3","11","/Users/baileymcwhirter/BMsubject-3.csv","legacy","4 1","Melodramatic Milgram","4.0.5","0","n","0","right","right","left","right","NA","611.0","27833","7898","611","NA","2","legacy","2","1024","2","48000","-16","experiment","3","odd","6","127314","28971","124070","125101","1070","107258","125103","112255","1122","99360","129318","129930","126108","129318","NA","Sternberg Task","13","9809.0","16","1024"
"76","76","613","613","black","experiment","legacy","legacy","legacy","0","undefined","0","left","16","0","16","16","0","0","16","16","0","0","16","16","16","16","0","Mon Oct 16 19:33:37 2023","The main experiment item","True","SternbergTask.osexp","/Users/baileymcwhirter","False","mono","False","18","no","white","no","yes","768","legacy","4","11","/Users/baileymcwhirter/BMsubject-3.csv","legacy","7 2 3","Melodramatic Milgram","4.0.5","3","y","0","right","right","left","right","NA","615.0","27833","7898","615","NA","2","legacy","3","1024","2","48000","-16","experiment","3","odd","3","133188","28971","129934","130973","1070","107258","130976","112255","1122","99360","135191","135807","131981","135190","NA","Sternberg Task","13","10424.0","17","1024"
"77","77","619","619","black","experiment","legacy","legacy","legacy","1","undefined","1","left","17","0","17","17","0","0","17","17","0","0","17","17","17","17","0","Mon Oct 16 19:33:37 2023","The main experiment item","True","SternbergTask.osexp","/Users/baileymcwhirter","False","mono","False","18","no","white","no","yes","768","legacy","5","11","/Users/baileymcwhirter/BMsubject-3.csv","legacy","8 9 5 6 7","Melodramatic Milgram","4.0.5","1","y","0","left","right","left","left","NA","718.0","27833","7898","718","NA","2","legacy","5","1024","2","48000","-16","experiment","3","odd","8","139057","28971","129934","136845","1070","107258","136847","135809","1122","99360","141059","141777","137852","141059","NA","Sternberg Task","14","11142.0","18","1024"
"78","78","622","622","black","experiment","legacy","legacy","legacy","1","undefined","1","right","18","0","18","18","0","0","18","18","0","0","18","18","18","18","0","Mon Oct 16 19:33:37 2023","The main experiment item","True","SternbergTask.osexp","/Users/baileymcwhirter","False","mono","False","18","no","white","no","yes","768","legacy","6","11","/Users/baileymcwhirter/BMsubject-3.csv","legacy","7 9 1 6","Melodramatic Milgram","4.0.5","0","n","0","right","right","left","right","NA","679.0","27833","7898","679","NA","2","legacy","4","1024","2","48000","-16","experiment","3","odd","4","145022","28971","141780","142811","1070","107258","142813","135809","1122","99360","147024","147704","143816","147024","NA","Sternberg Task","15","11821.0","19","1024"
"80","80","630","630","black","experiment","legacy","legacy","legacy","1","undefined","1","right","19","0","19","19","0","0","19","19","0","0","19","19","19","19","0","Mon Oct 16 19:33:37 2023","The main experiment item","True","SternbergTask.osexp","/Users/baileymcwhirter","False","mono","False","18","no","white","no","yes","768","legacy","7","11","/Users/baileymcwhirter/BMsubject-3.csv","legacy","8 2 1 4 5 9","Melodramatic Milgram","4.0.5","0","n","0","right","right","left","right","NA","795.0","27833","7898","795","NA","2","legacy","6","1024","2","48000","-16","experiment","3","odd","7","150959","28971","147706","148744","1070","107258","148746","135809","1122","99360","152963","153759","149751","152962","NA","Sternberg Task","16","12616.0","20","1024"
"80","80","648","648","black","experiment","legacy","legacy","legacy","1","undefined","1","left","20","0","20","20","0","0","20","20","0","0","20","20","20","20","0","Mon Oct 16 19:33:37 2023","The main experiment item","True","SternbergTask.osexp","/Users/baileymcwhirter","False","mono","False","18","no","white","no","yes","768","legacy","8","11","/Users/baileymcwhirter/BMsubject-3.csv","legacy","7 4 2 6 3 5","Melodramatic Milgram","4.0.5","6","y","0","left","right","left","left","NA","1002.0","27833","7898","1002","NA","2","legacy","6","1024","2","48000","-16","experiment","3","odd","5","157023","28971","153763","154811","1070","107258","154814","135809","1122","99360","159026","160029","155817","159026","NA","Sternberg Task","17","13618.0","21","1024"
"81","81","652","652","black","experiment","legacy","legacy","legacy","1","undefined","1","right","21","0","21","21","0","0","21","21","0","0","21","21","21","21","0","Mon Oct 16 19:33:37 2023","The main experiment item","True","SternbergTask.osexp","/Users/baileymcwhirter","False","mono","False","18","no","white","no","yes","768","legacy","9","11","/Users/baileymcwhirter/BMsubject-3.csv","legacy","7 8 6 1","Melodramatic Milgram","4.0.5","0","n","0","right","right","left","right","NA","747.0","27833","7898","747","NA","2","legacy","4","1024","2","48000","-16","experiment","3","odd","3","163284","28971","160032","161072","1070","107258","161074","135809","1122","99360","165286","166034","162076","165286","NA","Sternberg Task","18","14365.0","22","1024"
"82","82","654","654","black","experiment","legacy","legacy","legacy","1","undefined","1","right","22","0","22","22","0","0","22","22","0","0","22","22","22","22","0","Mon Oct 16 19:33:37 2023","The main experiment item","True","SternbergTask.osexp","/Users/baileymcwhirter","False","mono","False","18","no","white","no","yes","768","legacy","10","11","/Users/baileymcwhirter/BMsubject-3.csv","legacy","1 4 3 6 5","Melodramatic Milgram","4.0.5","0","n","0","right","right","left","right","NA","699.0","27833","7898","699","NA","2","legacy","5","1024","2","48000","-16","experiment","3","odd","8","169281","28971","166037","167068","1070","107258","167070","135809","1122","99360","171284","171984","168075","171284","NA","Sternberg Task","19","15064.0","23","1024"
"83","83","671","671","black","experiment","legacy","legacy","legacy","1","undefined","1","right","23","0","23","23","0","0","23","23","0","0","23","23","23","23","0","Mon Oct 16 19:33:37 2023","The main experiment item","True","SternbergTask.osexp","/Users/baileymcwhirter","False","mono","False","18","no","white","no","yes","768","legacy","11","11","/Users/baileymcwhirter/BMsubject-3.csv","legacy","5 9 2 3","Melodramatic Milgram","4.0.5","0","n","0","right","right","left","right","NA","1051.0","27833","7898","1051","NA","2","legacy","4","1024","2","48000","-16","experiment","3","odd","8","175233","28971","171986","173021","1070","107258","173023","135809","1122","99360","177236","178288","174029","177236","NA","Sternberg Task","20","16115.0","24","1024"
"84","84","680","680","black","experiment","legacy","legacy","legacy","1","undefined","1","right","24","0","24","24","0","0","24","24","0","0","24","24","24","24","0","Mon Oct 16 19:33:37 2023","The main experiment item","True","SternbergTask.osexp","/Users/baileymcwhirter","False","mono","False","18","no","white","no","yes","768","legacy","12","11","/Users/baileymcwhirter/BMsubject-3.csv","legacy","6 2 9 3 8 4","Melodramatic Milgram","4.0.5","0","n","0","right","right","left","right","NA","900.0","27833","7898","900","NA","2","legacy","6","1024","2","48000","-16","experiment","3","odd","1","181537","28971","178291","179325","1070","107258","179327","135809","1122","99360","183542","184443","180331","183541","NA","Sternberg Task","21","17015.0","25","1024"
"84","84","681","681","black","experiment","legacy","legacy","legacy","1","undefined","1","left","25","0","25","25","0","0","25","25","0","0","25","25","25","25","0","Mon Oct 16 19:33:37 2023","The main experiment item","True","SternbergTask.osexp","/Users/baileymcwhirter","False","mono","False","18","no","white","no","yes","768","legacy","13","11","/Users/baileymcwhirter/BMsubject-3.csv","legacy","4 1 8 7 5","Melodramatic Milgram","4.0.5","3","y","0","left","right","left","left","NA","716.0","27833","7898","716","NA","2","legacy","5","1024","2","48000","-16","experiment","3","odd","8","187695","28971","184446","185482","1070","107258","185484","135809","1122","99360","189697","190414","186489","189697","NA","Sternberg Task","22","17731.0","26","1024"
"85","85","693","693","black","experiment","legacy","legacy","legacy","1","undefined","1","right","26","0","26","26","0","0","26","26","0","0","26","26","26","26","0","Mon Oct 16 19:33:37 2023","The main experiment item","True","SternbergTask.osexp","/Users/baileymcwhirter","False","mono","False","18","no","white","no","yes","768","legacy","14","11","/Users/baileymcwhirter/BMsubject-3.csv","legacy","6 9 4 5 3 2","Melodramatic Milgram","4.0.5","0","n","0","right","right","left","right","NA","997.0","27833","7898","997","NA","2","legacy","6","1024","2","48000","-16","experiment","3","odd","8","193667","28971","190417","191456","1070","107258","191458","135809","1122","99360","195669","196666","192460","195669","NA","Sternberg Task","23","18728.0","27","1024"
"85","85","689","689","black","experiment","legacy","legacy","legacy","1","undefined","1","right","27","0","27","27","0","0","27","27","0","0","27","27","27","27","0","Mon Oct 16 19:33:37 2023","The main experiment item","True","SternbergTask.osexp","/Users/baileymcwhirter","False","mono","False","18","no","white","no","yes","768","legacy","15","11","/Users/baileymcwhirter/BMsubject-3.csv","legacy","3 4 9 6 7 8","Melodramatic Milgram","4.0.5","0","n","0","right","right","left","right","NA","589.0","27833","7898","589","NA","2","legacy","6","1024","2","48000","-16","experiment","3","odd","2","199929","28971","196669","197716","1070","107258","197718","135809","1122","99360","201932","202522","198723","201932","NA","Sternberg Task","24","19317.0","28","1024"
"86","86","684","684","black","experiment","legacy","legacy","legacy","1","undefined","1","right","28","0","28","28","0","0","28","28","0","0","28","28","28","28","0","Mon Oct 16 19:33:37 2023","The main experiment item","True","SternbergTask.osexp","/Users/baileymcwhirter","False","mono","False","18","no","white","no","yes","768","legacy","16","11","/Users/baileymcwhirter/BMsubject-3.csv","legacy","5","Melodramatic Milgram","4.0.5","0","n","0","right","right","left","right","NA","532.0","27833","7898","532","NA","2","legacy","1","1024","2","48000","-16","experiment","3","odd","8","205782","28971","202525","203569","1070","107258","203572","135809","1122","99360","207787","208320","204576","207787","NA","Sternberg Task","25","19849.0","29","1024"
"86","86","689","689","black","experiment","legacy","legacy","legacy","1","undefined","1","right","29","0","29","29","0","0","29","29","0","0","29","29","29","29","0","Mon Oct 16 19:33:37 2023","The main experiment item","True","SternbergTask.osexp","/Users/baileymcwhirter","False","mono","False","18","no","white","no","yes","768","legacy","17","11","/Users/baileymcwhirter/BMsubject-3.csv","legacy","1 7 5 2 9","Melodramatic Milgram","4.0.5","0","n","0","right","right","left","right","NA","832.0","27833","7898","832","NA","2","legacy","5","1024","2","48000","-16","experiment","3","odd","3","211574","28971","208323","209363","1070","107258","209365","135809","1122","99360","213578","214411","210368","213578","NA","Sternberg Task","26","20681.0","30","1024"
"87","87","692","692","black","experiment","legacy","legacy","legacy","1","undefined","1","left","30","0","30","30","0","0","30","30","0","0","30","30","30","30","0","Mon Oct 16 19:33:37 2023","The main experiment item","True","SternbergTask.osexp","/Users/baileymcwhirter","False","mono","False","18","no","white","no","yes","768","legacy","18","11","/Users/baileymcwhirter/BMsubject-3.csv","legacy","5 7 8 2 3 8","Melodramatic Milgram","4.0.5","5","y","0","left","right","left","left","NA","789.0","27833","7898","789","NA","2","legacy","6","1024","2","48000","-16","experiment","3","odd","3","217669","28971","214414","215454","1070","107258","215457","135809","1122","99360","219672","220461","216461","219672","NA","Sternberg Task","27","21470.0","31","1024"
"87","87","691","691","black","experiment","legacy","legacy","legacy","1","undefined","1","right","31","0","31","31","0","0","31","31","0","0","31","31","31","31","0","Mon Oct 16 19:33:37 2023","The main experiment item","True","SternbergTask.osexp","/Users/baileymcwhirter","False","mono","False","18","no","white","no","yes","768","legacy","19","11","/Users/baileymcwhirter/BMsubject-3.csv","legacy","5 3 8 7 2 4","Melodramatic Milgram","4.0.5","0","n","0","right","right","left","right","NA","644.0","27833","7898","644","NA","2","legacy","6","1024","2","48000","-16","experiment","3","odd","9","223719","28971","220464","221509","1070","107258","221511","135809","1122","99360","225722","226367","222514","225722","NA","Sternberg Task","28","22114.0","32","1024"
"87","87","686","686","black","experiment","legacy","legacy","legacy","1","undefined","1","right","32","0","32","32","0","0","32","32","0","0","32","32","32","32","0","Mon Oct 16 19:33:37 2023","The main experiment item","True","SternbergTask.osexp","/Users/baileymcwhirter","False","mono","False","18","no","white","no","yes","768","legacy","20","11","/Users/baileymcwhirter/BMsubject-3.csv","legacy","2 5 1 4","Melodramatic Milgram","4.0.5","0","n","0","right","right","left","right","NA","541.0","27833","7898","541","NA","2","legacy","4","1024","2","48000","-16","experiment","3","odd","6","229618","28971","226370","227409","1070","107258","227411","135809","1122","99360","231622","232163","228414","231622","NA","Sternberg Task","29","22655.0","33","1024"
"88","88","682","682","black","experiment","legacy","legacy","legacy","1","undefined","1","left","33","0","33","33","0","0","33","33","0","0","33","33","33","33","0","Mon Oct 16 19:33:37 2023","The main experiment item","True","SternbergTask.osexp","/Users/baileymcwhirter","False","mono","False","18","no","white","no","yes","768","legacy","21","11","/Users/baileymcwhirter/BMsubject-3.csv","legacy","8 9 5 7 1 6","Melodramatic Milgram","4.0.5","4","y","0","left","right","left","left","NA","553.0","27833","7898","553","NA","2","legacy","6","1024","2","48000","-16","experiment","3","odd","7","235420","28971","232167","233207","1070","107258","233209","135809","1122","99360","237423","237977","234216","237423","NA","Sternberg Task","30","23208.0","34","1024"
"88","88","689","689","black","experiment","legacy","legacy","legacy","1","undefined","1","left","34","0","34","34","0","0","34","34","0","0","34","34","34","34","0","Mon Oct 16 19:33:37 2023","The main experiment item","True","SternbergTask.osexp","/Users/baileymcwhirter","False","mono","False","18","no","white","no","yes","768","legacy","22","11","/Users/baileymcwhirter/BMsubject-3.csv","legacy","9 5 3 8 4","Melodramatic Milgram","4.0.5","1","y","0","left","right","left","left","NA","920.0","27833","7898","920","NA","2","legacy","5","1024","2","48000","-16","experiment","3","odd","9","241222","28971","237979","239010","1070","107258","239012","135809","1122","99360","243226","244147","240017","243226","NA","Sternberg Task","31","24128.0","35","1024"
"88","88","683","683","black","experiment","legacy","legacy","legacy","1","undefined","1","right","35","0","35","35","0","0","35","35","0","0","35","35","35","35","0","Mon Oct 16 19:33:37 2023","The main experiment item","True","SternbergTask.osexp","/Users/baileymcwhirter","False","mono","False","18","no","white","no","yes","768","legacy","23","11","/Users/baileymcwhirter/BMsubject-3.csv","legacy","8 9","Melodramatic Milgram","4.0.5","0","n","0","right","right","left","right","NA","483.0","27833","7898","483","NA","2","legacy","2","1024","2","48000","-16","experiment","3","odd","5","247394","28971","244150","245183","1070","107258","245185","135809","1122","99360","249397","249881","246188","249397","NA","Sternberg Task","32","24611.0","36","1024"
"89","89","686","686","black","experiment","legacy","legacy","legacy","1","undefined","1","right","36","0","36","36","0","0","36","36","0","0","36","36","36","36","0","Mon Oct 16 19:33:37 2023","The main experiment item","True","SternbergTask.osexp","/Users/baileymcwhirter","False","mono","False","18","no","white","no","yes","768","legacy","24","11","/Users/baileymcwhirter/BMsubject-3.csv","legacy","8 6 3 4 7","Melodramatic Milgram","4.0.5","0","n","0","right","right","left","right","NA","791.0","27833","7898","791","NA","2","legacy","5","1024","2","48000","-16","experiment","3","odd","1","253125","28971","249884","250914","1070","107258","250916","135809","1122","99360","255127","255919","251920","255127","NA","Sternberg Task","33","25402.0","37","1024"
"89","89","683","683","black","experiment","legacy","legacy","legacy","1","undefined","1","right","37","0","37","37","0","0","37","37","0","0","37","37","37","37","0","Mon Oct 16 19:33:37 2023","The main experiment item","True","SternbergTask.osexp","/Users/baileymcwhirter","False","mono","False","18","no","white","no","yes","768","legacy","25","11","/Users/baileymcwhirter/BMsubject-3.csv","legacy","3 9 1","Melodramatic Milgram","4.0.5","0","n","0","right","right","left","right","NA","576.0","27833","7898","576","NA","2","legacy","3","1024","2","48000","-16","experiment","3","odd","7","259165","28971","255921","256956","1070","107258","256958","135809","1122","99360","261168","261745","257960","261168","NA","Sternberg Task","34","25978.0","38","1024"
"89","89","682","682","black","experiment","legacy","legacy","legacy","1","undefined","1","left","38","0","38","38","0","0","38","38","0","0","38","38","38","38","0","Mon Oct 16 19:33:37 2023","The main experiment item","True","SternbergTask.osexp","/Users/baileymcwhirter","False","mono","False","18","no","white","no","yes","768","legacy","26","11","/Users/baileymcwhirter/BMsubject-3.csv","legacy","4 9 7 8 5 3","Melodramatic Milgram","4.0.5","4","y","0","left","right","left","left","NA","635.0","27833","7898","635","NA","2","legacy","6","1024","2","48000","-16","experiment","3","odd","8","264994","28971","261747","262783","1070","107258","262786","135809","1122","99360","266997","267633","263788","266997","NA","Sternberg Task","35","26613.0","39","1024"
"90","90","688","688","black","experiment","legacy","legacy","legacy","1","undefined","1","right","39","0","39","39","0","0","39","39","0","0","39","39","39","39","0","Mon Oct 16 19:33:37 2023","The main experiment item","True","SternbergTask.osexp","/Users/baileymcwhirter","False","mono","False","18","no","white","no","yes","768","legacy","27","11","/Users/baileymcwhirter/BMsubject-3.csv","legacy","1 4 9 3","Melodramatic Milgram","4.0.5","0","n","0","right","right","left","right","NA","921.0","27833","7898","921","NA","2","legacy","4","1024","2","48000","-16","experiment","3","odd","5","270886","28971","267637","268675","1070","107258","268678","135809","1122","99360","272888","273809","269681","272888","NA","Sternberg Task","36","27534.0","40","1024"
"90","90","686","686","black","experiment","legacy","legacy","legacy","1","undefined","1","left","40","0","40","40","0","0","40","40","0","0","40","40","40","40","0","Mon Oct 16 19:33:37 2023","The main experiment item","True","SternbergTask.osexp","/Users/baileymcwhirter","False","mono","False","18","no","white","no","yes","768","legacy","28","11","/Users/baileymcwhirter/BMsubject-3.csv","legacy","3 2 1 4 7","Melodramatic Milgram","4.0.5","2","y","0","left","right","left","left","NA","622.0","27833","7898","622","NA","2","legacy","5","1024","2","48000","-16","experiment","3","odd","2","277054","28971","273812","274843","1070","107258","274845","135809","1122","99360","279057","279680","275848","279057","NA","Sternberg Task","37","28156.0","41","1024"
"90","90","681","681","black","experiment","legacy","legacy","legacy","1","undefined","1","left","41","0","41","41","0","0","41","41","0","0","41","41","41","41","0","Mon Oct 16 19:33:37 2023","The main experiment item","True","SternbergTask.osexp","/Users/baileymcwhirter","False","mono","False","18","no","white","no","yes","768","legacy","29","11","/Users/baileymcwhirter/BMsubject-3.csv","legacy","8 3","Melodramatic Milgram","4.0.5","2","y","0","left","right","left","left","NA","480.0","27833","7898","480","NA","2","legacy","2","1024","2","48000","-16","experiment","3","odd","3","282924","28971","279682","280714","1070","107258","280716","135809","1122","99360","284926","285407","281718","284926","NA","Sternberg Task","38","28636.0","42","1024"
"90","90","683","683","black","experiment","legacy","legacy","legacy","1","undefined","1","right","42","0","42","42","0","0","42","42","0","0","42","42","42","42","0","Mon Oct 16 19:33:37 2023","The main experiment item","True","SternbergTask.osexp","/Users/baileymcwhirter","False","mono","False","18","no","white","no","yes","768","legacy","30","11","/Users/baileymcwhirter/BMsubject-3.csv","legacy","1 7 5 2","Melodramatic Milgram","4.0.5","0","n","0","right","right","left","right","NA","754.0","27833","7898","754","NA","2","legacy","4","1024","2","48000","-16","experiment","3","odd","3","288654","28971","285409","286444","1070","107258","286447","135809","1122","99360","290656","291411","287450","290656","NA","Sternberg Task","39","29390.0","43","1024"
"88","88","689","689","black","experiment","legacy","legacy","legacy","0","undefined","0","right","43","0","43","43","0","0","43","43","0","0","43","43","43","43","0","Mon Oct 16 19:33:37 2023","The main experiment item","True","SternbergTask.osexp","/Users/baileymcwhirter","False","mono","False","18","no","white","no","yes","768","legacy","31","11","/Users/baileymcwhirter/BMsubject-3.csv","legacy","8 4 3 5","Melodramatic Milgram","4.0.5","0","n","0","left","right","left","left","NA","969.0","27833","7898","969","NA","2","legacy","4","1024","2","48000","-16","experiment","3","odd","6","294663","28971","291413","292451","1070","107258","292453","135809","1122","99360","296666","297636","293458","296666","NA","Sternberg Task","39","30359.0","44","1024"
"88","88","690","690","black","experiment","legacy","legacy","legacy","1","undefined","1","right","44","0","44","44","0","0","44","44","0","0","44","44","44","44","0","Mon Oct 16 19:33:37 2023","The main experiment item","True","SternbergTask.osexp","/Users/baileymcwhirter","False","mono","False","18","no","white","no","yes","768","legacy","32","11","/Users/baileymcwhirter/BMsubject-3.csv","legacy","2 7 5","Melodramatic Milgram","4.0.5","0","n","0","right","right","left","right","NA","734.0","27833","7898","734","NA","2","legacy","3","1024","2","48000","-16","experiment","3","odd","8","300882","28971","291413","298672","1070","107258","298675","297639","1122","99360","302884","303619","299677","302884","NA","Sternberg Task","40","31093.0","45","1024"
"89","89","688","688","black","experiment","legacy","legacy","legacy","1","undefined","1","left","45","0","45","45","0","0","45","45","0","0","45","45","45","45","0","Mon Oct 16 19:33:37 2023","The main experiment item","True","SternbergTask.osexp","/Users/baileymcwhirter","False","mono","False","18","no","white","no","yes","768","legacy","33","11","/Users/baileymcwhirter/BMsubject-3.csv","legacy","8 7 3","Melodramatic Milgram","4.0.5","1","y","0","left","right","left","left","NA","591.0","27833","7898","591","NA","2","legacy","3","1024","2","48000","-16","experiment","3","odd","8","306865","28971","303621","304654","1070","107258","304657","297639","1122","99360","308868","309460","305660","308868","NA","Sternberg Task","41","31684.0","46","1024"
"89","89","684","684","black","experiment","legacy","legacy","legacy","1","undefined","1","left","46","0","46","46","0","0","46","46","0","0","46","46","46","46","0","Mon Oct 16 19:33:37 2023","The main experiment item","True","SternbergTask.osexp","/Users/baileymcwhirter","False","mono","False","18","no","white","no","yes","768","legacy","34","11","/Users/baileymcwhirter/BMsubject-3.csv","legacy","2 3","Melodramatic Milgram","4.0.5","1","y","0","left","right","left","left","NA","506.0","27833","7898","506","NA","2","legacy","2","1024","2","48000","-16","experiment","3","odd","2","312705","28971","309463","310493","1070","107258","310495","297639","1122","99360","314707","315214","311500","314707","NA","Sternberg Task","42","32190.0","47","1024"
"89","89","682","682","black","experiment","legacy","legacy","legacy","1","undefined","1","right","47","0","47","47","0","0","47","47","0","0","47","47","47","47","0","Mon Oct 16 19:33:37 2023","The main experiment item","True","SternbergTask.osexp","/Users/baileymcwhirter","False","mono","False","18","no","white","no","yes","768","legacy","35","11","/Users/baileymcwhirter/BMsubject-3.csv","legacy","1 5 3 2 8","Melodramatic Milgram","4.0.5","0","n","0","right","right","left","right","NA","574.0","27833","7898","574","NA","2","legacy","5","1024","2","48000","-16","experiment","3","odd","4","318461","28971","315216","316249","1070","107258","316252","297639","1122","99360","320464","321039","317255","320464","NA","Sternberg Task","43","32764.0","48","1024"
"87","87","687","687","black","experiment","legacy","legacy","legacy","0","undefined","0","right","48","0","48","48","0","0","48","48","0","0","48","48","48","48","0","Mon Oct 16 19:33:37 2023","The main experiment item","True","SternbergTask.osexp","/Users/baileymcwhirter","False","mono","False","18","no","white","no","yes","768","legacy","36","11","/Users/baileymcwhirter/BMsubject-3.csv","legacy","7 1 8 4 9 3","Melodramatic Milgram","4.0.5","0","n","0","left","right","left","left","NA","901.0","27833","7898","901","NA","2","legacy","6","1024","2","48000","-16","experiment","3","odd","6","324284","28971","321042","322074","1070","107258","322077","297639","1122","99360","326286","327188","323079","326286","NA","Sternberg Task","43","33665.0","49","1024"
"88","88","691","691","black","experiment","legacy","legacy","legacy","1","undefined","1","left","49","0","49","49","0","0","49","49","0","0","49","49","49","49","0","Mon Oct 16 19:33:37 2023","The main experiment item","True","SternbergTask.osexp","/Users/baileymcwhirter","False","mono","False","18","no","white","no","yes","768","legacy","37","11","/Users/baileymcwhirter/BMsubject-3.csv","legacy","5 2 9 6 1 7","Melodramatic Milgram","4.0.5","3","y","0","left","right","left","left","NA","898.0","27833","7898","898","NA","2","legacy","6","1024","2","48000","-16","experiment","3","odd","9","330435","28971","321042","328222","1070","107258","328224","327190","1122","99360","332437","333336","329229","332437","NA","Sternberg Task","44","34563.0","50","1024"
"88","88","700","700","black","experiment","legacy","legacy","legacy","1","undefined","1","right","50","0","50","50","0","0","50","50","0","0","50","50","50","50","0","Mon Oct 16 19:33:37 2023","The main experiment item","True","SternbergTask.osexp","/Users/baileymcwhirter","False","mono","False","18","no","white","no","yes","768","legacy","38","11","/Users/baileymcwhirter/BMsubject-3.csv","legacy","4 2 6 9","Melodramatic Milgram","4.0.5","0","n","0","right","right","left","right","NA","1143.0","27833","7898","1143","NA","2","legacy","4","1024","2","48000","-16","experiment","3","odd","7","336580","28971","333338","334371","1070","107258","334373","327190","1122","99360","338583","339727","335375","338583","NA","Sternberg Task","45","35706.0","51","1024"
"88","88","702","702","black","experiment","legacy","legacy","legacy","1","undefined","1","right","51","0","51","51","0","0","51","51","0","0","51","51","51","51","0","Mon Oct 16 19:33:37 2023","The main experiment item","True","SternbergTask.osexp","/Users/baileymcwhirter","False","mono","False","18","no","white","no","yes","768","legacy","39","11","/Users/baileymcwhirter/BMsubject-3.csv","legacy","7 4 2 8 1 9","Melodramatic Milgram","4.0.5","0","n","0","right","right","left","right","NA","800.0","27833","7898","800","NA","2","legacy","6","1024","2","48000","-16","experiment","3","odd","5","342973","28971","339729","340761","1070","107258","340763","327190","1122","99360","344975","345776","341768","344975","NA","Sternberg Task","46","36506.0","52","1024"
"88","88","697","697","black","experiment","legacy","legacy","legacy","1","undefined","1","left","52","0","52","52","0","0","52","52","0","0","52","52","52","52","0","Mon Oct 16 19:33:37 2023","The main experiment item","True","SternbergTask.osexp","/Users/baileymcwhirter","False","mono","False","18","no","white","no","yes","768","legacy","40","11","/Users/baileymcwhirter/BMsubject-3.csv","legacy","4 6 5 8","Melodramatic Milgram","4.0.5","1","y","0","left","right","left","left","NA","447.0","27833","7898","447","NA","2","legacy","4","1024","2","48000","-16","experiment","3","odd","4","349020","28971","345779","346810","1070","107258","346813","327190","1122","99360","351024","351472","347816","351024","NA","Sternberg Task","47","36953.0","53","1024"
"88","88","694","694","black","experiment","legacy","legacy","legacy","1","undefined","1","left","53","0","53","53","0","0","53","53","0","0","53","53","53","53","0","Mon Oct 16 19:33:37 2023","The main experiment item","True","SternbergTask.osexp","/Users/baileymcwhirter","False","mono","False","18","no","white","no","yes","768","legacy","41","11","/Users/baileymcwhirter/BMsubject-3.csv","legacy","6 2","Melodramatic Milgram","4.0.5","1","y","0","left","right","left","left","NA","555.0","27833","7898","555","NA","2","legacy","2","1024","2","48000","-16","experiment","3","odd","6","354716","28971","351475","352504","1070","107258","352506","327190","1122","99360","356718","357274","353511","356718","NA","Sternberg Task","48","37508.0","54","1024"
"89","89","692","692","black","experiment","legacy","legacy","legacy","1","undefined","1","left","54","0","54","54","0","0","54","54","0","0","54","54","54","54","0","Mon Oct 16 19:33:37 2023","The main experiment item","True","SternbergTask.osexp","/Users/baileymcwhirter","False","mono","False","18","no","white","no","yes","768","legacy","42","11","/Users/baileymcwhirter/BMsubject-3.csv","legacy","8 1 6","Melodramatic Milgram","4.0.5","3","y","0","left","right","left","left","NA","598.0","27833","7898","598","NA","2","legacy","3","1024","2","48000","-16","experiment","3","odd","6","360518","28971","357277","358306","1070","107258","358308","327190","1122","99360","362521","363120","359313","362521","NA","Sternberg Task","49","38106.0","55","1024"
"89","89","688","688","black","experiment","legacy","legacy","legacy","1","undefined","1","right","55","0","55","55","0","0","55","55","0","0","55","55","55","55","0","Mon Oct 16 19:33:37 2023","The main experiment item","True","SternbergTask.osexp","/Users/baileymcwhirter","False","mono","False","18","no","white","no","yes","768","legacy","43","11","/Users/baileymcwhirter/BMsubject-3.csv","legacy","7 1","Melodramatic Milgram","4.0.5","0","n","0","right","right","left","right","NA","469.0","27833","7898","469","NA","2","legacy","2","1024","2","48000","-16","experiment","3","odd","8","366363","28971","363123","364153","1070","107258","364155","327190","1122","99360","368366","368836","365158","368366","NA","Sternberg Task","50","38575.0","56","1024"
"89","89","691","691","black","experiment","legacy","legacy","legacy","1","undefined","1","left","56","0","56","56","0","0","56","56","0","0","56","56","56","56","0","Mon Oct 16 19:33:37 2023","The main experiment item","True","SternbergTask.osexp","/Users/baileymcwhirter","False","mono","False","18","no","white","no","yes","768","legacy","44","11","/Users/baileymcwhirter/BMsubject-3.csv","legacy","3 5 9 6 2 4","Melodramatic Milgram","4.0.5","1","y","0","left","right","left","left","NA","830.0","27833","7898","830","NA","2","legacy","6","1024","2","48000","-16","experiment","3","odd","3","372079","28971","368838","369869","1070","107258","369872","327190","1122","99360","374082","374913","370874","374082","NA","Sternberg Task","51","39405.0","57","1024"
"89","89","687","687","black","experiment","legacy","legacy","legacy","1","undefined","1","left","57","0","57","57","0","0","57","57","0","0","57","57","57","57","0","Mon Oct 16 19:33:37 2023","The main experiment item","True","SternbergTask.osexp","/Users/baileymcwhirter","False","mono","False","18","no","white","no","yes","768","legacy","45","11","/Users/baileymcwhirter/BMsubject-3.csv","legacy","8","Melodramatic Milgram","4.0.5","1","y","0","left","right","left","left","NA","489.0","27833","7898","489","NA","2","legacy","1","1024","2","48000","-16","experiment","3","odd","8","378164","28971","374916","375952","1070","107258","375954","327190","1122","99360","380166","380656","376959","380166","NA","Sternberg Task","52","39894.0","58","1024"
"89","89","685","685","black","experiment","legacy","legacy","legacy","1","undefined","1","left","58","0","58","58","0","0","58","58","0","0","58","58","58","58","0","Mon Oct 16 19:33:37 2023","The main experiment item","True","SternbergTask.osexp","/Users/baileymcwhirter","False","mono","False","18","no","white","no","yes","768","legacy","46","11","/Users/baileymcwhirter/BMsubject-3.csv","legacy","3 4","Melodramatic Milgram","4.0.5","1","y","0","left","right","left","left","NA","543.0","27833","7898","543","NA","2","legacy","2","1024","2","48000","-16","experiment","3","odd","3","383904","28971","380658","381692","1070","107258","381694","327190","1122","99360","385906","386450","382700","385906","NA","Sternberg Task","53","40437.0","59","1024"
"90","90","685","685","black","experiment","legacy","legacy","legacy","1","undefined","1","left","59","0","59","59","0","0","59","59","0","0","59","59","59","59","0","Mon Oct 16 19:33:37 2023","The main experiment item","True","SternbergTask.osexp","/Users/baileymcwhirter","False","mono","False","18","no","white","no","yes","768","legacy","47","11","/Users/baileymcwhirter/BMsubject-3.csv","legacy","6 1 2","Melodramatic Milgram","4.0.5","3","y","0","left","right","left","left","NA","666.0","27833","7898","666","NA","2","legacy","3","1024","2","48000","-16","experiment","3","odd","2","389698","28971","386452","387487","1070","107258","387489","327190","1122","99360","391700","392367","388492","391700","NA","Sternberg Task","54","41103.0","60","1024"
"90","90","683","683","black","experiment","legacy","legacy","legacy","1","undefined","1","left","60","0","60","60","0","0","60","60","0","0","60","60","60","60","0","Mon Oct 16 19:33:37 2023","The main experiment item","True","SternbergTask.osexp","/Users/baileymcwhirter","False","mono","False","18","no","white","no","yes","768","legacy","48","11","/Users/baileymcwhirter/BMsubject-3.csv","legacy","9 4 2","Melodramatic Milgram","4.0.5","1","y","0","left","right","left","left","NA","602.0","27833","7898","602","NA","2","legacy","3","1024","2","48000","-16","experiment","3","odd","9","395612","28971","392370","393400","1070","107258","393402","327190","1122","99360","397614","398217","394405","397614","NA","Sternberg Task","55","41705.0","61","1024"
"90","90","682","682","black","experiment","legacy","legacy","legacy","1","undefined","1","left","61","0","61","61","0","0","61","61","0","0","61","61","61","61","0","Mon Oct 16 19:33:37 2023","The main experiment item","True","SternbergTask.osexp","/Users/baileymcwhirter","False","mono","False","18","no","white","no","yes","768","legacy","49","11","/Users/baileymcwhirter/BMsubject-3.csv","legacy","7 1 3","Melodramatic Milgram","4.0.5","2","y","0","left","right","left","left","NA","607.0","27833","7898","607","NA","2","legacy","3","1024","2","48000","-16","experiment","3","odd","1","401470","28971","398219","399257","1070","107258","399259","327190","1122","99360","403474","404082","400265","403474","NA","Sternberg Task","56","42312.0","62","1024"
"90","90","679","679","black","experiment","legacy","legacy","legacy","1","undefined","1","left","62","0","62","62","0","0","62","62","0","0","62","62","62","62","0","Mon Oct 16 19:33:37 2023","The main experiment item","True","SternbergTask.osexp","/Users/baileymcwhirter","False","mono","False","18","no","white","no","yes","768","legacy","50","11","/Users/baileymcwhirter/BMsubject-3.csv","legacy","9 6 2 4 1","Melodramatic Milgram","4.0.5","4","y","0","left","right","left","left","NA","509.0","27833","7898","509","NA","2","legacy","5","1024","2","48000","-16","experiment","3","odd","4","407326","28971","404084","405117","1070","107258","405119","327190","1122","99360","409330","409840","406121","409329","NA","Sternberg Task","57","42821.0","63","1024"
"90","90","678","678","black","experiment","legacy","legacy","legacy","1","undefined","1","left","63","0","63","63","0","0","63","63","0","0","63","63","63","63","0","Mon Oct 16 19:33:37 2023","The main experiment item","True","SternbergTask.osexp","/Users/baileymcwhirter","False","mono","False","18","no","white","no","yes","768","legacy","51","11","/Users/baileymcwhirter/BMsubject-3.csv","legacy","6 7 8 5","Melodramatic Milgram","4.0.5","3","y","0","left","right","left","left","NA","596.0","27833","7898","596","NA","2","legacy","4","1024","2","48000","-16","experiment","3","odd","8","413085","28971","409843","410876","1070","107258","410878","327190","1122","99360","415088","415685","411880","415088","NA","Sternberg Task","58","43417.0","64","1024"
"90","90","675","675","black","experiment","legacy","legacy","legacy","1","undefined","1","left","64","0","64","64","0","0","64","64","0","0","64","64","64","64","0","Mon Oct 16 19:33:37 2023","The main experiment item","True","SternbergTask.osexp","/Users/baileymcwhirter","False","mono","False","18","no","white","no","yes","768","legacy","52","11","/Users/baileymcwhirter/BMsubject-3.csv","legacy","7","Melodramatic Milgram","4.0.5","1","y","0","left","right","left","left","NA","503.0","27833","7898","503","NA","2","legacy","1","1024","2","48000","-16","experiment","3","odd","7","418928","28971","415688","416719","1070","107258","416721","327190","1122","99360","420930","421434","417723","420930","NA","Sternberg Task","59","43920.0","65","1024"
"90","90","675","675","black","experiment","legacy","legacy","legacy","1","undefined","1","left","65","0","65","65","0","0","65","65","0","0","65","65","65","65","0","Mon Oct 16 19:33:37 2023","The main experiment item","True","SternbergTask.osexp","/Users/baileymcwhirter","False","mono","False","18","no","white","no","yes","768","legacy","53","11","/Users/baileymcwhirter/BMsubject-3.csv","legacy","6 5","Melodramatic Milgram","4.0.5","2","y","0","left","right","left","left","NA","648.0","27833","7898","648","NA","2","legacy","2","1024","2","48000","-16","experiment","3","odd","5","424691","28971","421436","422475","1070","107258","422478","327190","1122","99360","426695","427344","423485","426695","NA","Sternberg Task","60","44568.0","66","1024"
"91","91","674","674","black","experiment","legacy","legacy","legacy","1","undefined","1","left","66","0","66","66","0","0","66","66","0","0","66","66","66","66","0","Mon Oct 16 19:33:37 2023","The main experiment item","True","SternbergTask.osexp","/Users/baileymcwhirter","False","mono","False","18","no","white","no","yes","768","legacy","54","11","/Users/baileymcwhirter/BMsubject-3.csv","legacy","4 6 2 5 1","Melodramatic Milgram","4.0.5","5","y","0","left","right","left","left","NA","653.0","27833","7898","653","NA","2","legacy","5","1024","2","48000","-16","experiment","3","odd","1","430591","28971","427347","428380","1070","107258","428382","327190","1122","99360","432594","433248","429386","432594","NA","Sternberg Task","61","45221.0","67","1024"
"91","91","674","674","black","experiment","legacy","legacy","legacy","1","undefined","1","right","67","0","67","67","0","0","67","67","0","0","67","67","67","67","0","Mon Oct 16 19:33:37 2023","The main experiment item","True","SternbergTask.osexp","/Users/baileymcwhirter","False","mono","False","18","no","white","no","yes","768","legacy","55","11","/Users/baileymcwhirter/BMsubject-3.csv","legacy","7 1 5 6 3","Melodramatic Milgram","4.0.5","0","n","0","right","right","left","right","NA","620.0","27833","7898","620","NA","2","legacy","5","1024","2","48000","-16","experiment","3","odd","8","436493","28971","433251","434280","1070","107258","434283","327190","1122","99360","438497","439118","435287","438497","NA","Sternberg Task","62","45841.0","68","1024"
"91","91","675","675","black","experiment","legacy","legacy","legacy","1","undefined","1","right","68","0","68","68","0","0","68","68","0","0","68","68","68","68","0","Mon Oct 16 19:33:37 2023","The main experiment item","True","SternbergTask.osexp","/Users/baileymcwhirter","False","mono","False","18","no","white","no","yes","768","legacy","56","11","/Users/baileymcwhirter/BMsubject-3.csv","legacy","8 5 7 3 6","Melodramatic Milgram","4.0.5","0","n","0","right","right","left","right","NA","786.0","27833","7898","786","NA","2","legacy","5","1024","2","48000","-16","experiment","3","odd","9","442366","28971","439121","440154","1070","107258","440156","327190","1122","99360","444368","445155","441160","444368","NA","Sternberg Task","63","46627.0","69","1024"
"91","91","676","676","black","experiment","legacy","legacy","legacy","1","undefined","1","left","69","0","69","69","0","0","69","69","0","0","69","69","69","69","0","Mon Oct 16 19:33:37 2023","The main experiment item","True","SternbergTask.osexp","/Users/baileymcwhirter","False","mono","False","18","no","white","no","yes","768","legacy","57","11","/Users/baileymcwhirter/BMsubject-3.csv","legacy","6 8 9 3 4 9","Melodramatic Milgram","4.0.5","5","y","0","left","right","left","left","NA","701.0","27833","7898","701","NA","2","legacy","6","1024","2","48000","-16","experiment","3","odd","4","448407","28971","445158","446196","1070","107258","446198","327190","1122","99360","450409","451111","447201","450409","NA","Sternberg Task","64","47328.0","70","1024"
"91","91","674","674","black","experiment","legacy","legacy","legacy","1","undefined","1","right","70","0","70","70","0","0","70","70","0","0","70","70","70","70","0","Mon Oct 16 19:33:37 2023","The main experiment item","True","SternbergTask.osexp","/Users/baileymcwhirter","False","mono","False","18","no","white","no","yes","768","legacy","58","11","/Users/baileymcwhirter/BMsubject-3.csv","legacy","6 7 5 9","Melodramatic Milgram","4.0.5","0","n","0","right","right","left","right","NA","589.0","27833","7898","589","NA","2","legacy","4","1024","2","48000","-16","experiment","3","odd","2","454360","28971","451114","452149","1070","107258","452151","327190","1122","99360","456362","456952","453154","456362","NA","Sternberg Task","65","47917.0","71","1024"
"91","91","675","675","black","experiment","legacy","legacy","legacy","1","undefined","1","left","71","0","71","71","0","0","71","71","0","0","71","71","71","71","0","Mon Oct 16 19:33:37 2023","The main experiment item","True","SternbergTask.osexp","/Users/baileymcwhirter","False","mono","False","18","no","white","no","yes","768","legacy","59","11","/Users/baileymcwhirter/BMsubject-3.csv","legacy","4 3 2 5 8","Melodramatic Milgram","4.0.5","2","y","0","left","right","left","left","NA","713.0","27833","7898","713","NA","2","legacy","5","1024","2","48000","-16","experiment","3","odd","3","460197","28971","456955","457987","1070","107258","457990","327190","1122","99360","462200","462913","458992","462200","NA","Sternberg Task","66","48630.0","72","1024"
"91","91","673","673","black","experiment","legacy","legacy","legacy","1","undefined","1","left","72","0","72","72","0","0","72","72","0","0","72","72","72","72","0","Mon Oct 16 19:33:37 2023","The main experiment item","True","SternbergTask.osexp","/Users/baileymcwhirter","False","mono","False","18","no","white","no","yes","768","legacy","60","11","/Users/baileymcwhirter/BMsubject-3.csv","legacy","3 5 4 7","Melodramatic Milgram","4.0.5","1","y","0","left","right","left","left","NA","565.0","27833","7898","565","NA","2","legacy","4","1024","2","48000","-16","experiment","3","odd","3","466165","28971","462916","463954","1070","107258","463957","327190","1122","99360","468170","468736","464960","468169","NA","Sternberg Task","67","49195.0","73","1024"
"91","91","672","672","black","experiment","legacy","legacy","legacy","1","undefined","1","right","73","0","73","73","0","0","73","73","0","0","73","73","73","73","0","Mon Oct 16 19:33:37 2023","The main experiment item","True","SternbergTask.osexp","/Users/baileymcwhirter","False","mono","False","18","no","white","no","yes","768","legacy","61","11","/Users/baileymcwhirter/BMsubject-3.csv","legacy","2 8 9 4 1","Melodramatic Milgram","4.0.5","0","n","0","right","right","left","right","NA","604.0","27833","7898","604","NA","2","legacy","5","1024","2","48000","-16","experiment","3","odd","5","471985","28971","468739","469771","1070","107258","469774","327190","1122","99360","473989","474594","470781","473989","NA","Sternberg Task","68","49799.0","74","1024"
"92","92","676","676","black","experiment","legacy","legacy","legacy","1","undefined","1","left","74","0","74","74","0","0","74","74","0","0","74","74","74","74","0","Mon Oct 16 19:33:37 2023","The main experiment item","True","SternbergTask.osexp","/Users/baileymcwhirter","False","mono","False","18","no","white","no","yes","768","legacy","62","11","/Users/baileymcwhirter/BMsubject-3.csv","legacy","1 4 9 3 2 5","Melodramatic Milgram","4.0.5","3","y","0","left","right","left","left","NA","960.0","27833","7898","960","NA","2","legacy","6","1024","2","48000","-16","experiment","3","odd","9","477841","28971","474597","475628","1070","107258","475629","327190","1122","99360","479845","480806","476637","479845","NA","Sternberg Task","69","50759.0","75","1024"
"92","92","677","677","black","experiment","legacy","legacy","legacy","1","undefined","1","left","75","0","75","75","0","0","75","75","0","0","75","75","75","75","0","Mon Oct 16 19:33:37 2023","The main experiment item","True","SternbergTask.osexp","/Users/baileymcwhirter","False","mono","False","18","no","white","no","yes","768","legacy","63","11","/Users/baileymcwhirter/BMsubject-3.csv","legacy","5 2 6","Melodramatic Milgram","4.0.5","2","y","0","left","right","left","left","NA","750.0","27833","7898","750","NA","2","legacy","3","1024","2","48000","-16","experiment","3","odd","2","484052","28971","480809","481841","1070","107258","481844","327190","1122","99360","486058","486809","482846","486058","NA","Sternberg Task","70","51509.0","76","1024"
"92","92","676","676","black","experiment","legacy","legacy","legacy","1","undefined","1","right","76","0","76","76","0","0","76","76","0","0","76","76","76","76","0","Mon Oct 16 19:33:37 2023","The main experiment item","True","SternbergTask.osexp","/Users/baileymcwhirter","False","mono","False","18","no","white","no","yes","768","legacy","64","11","/Users/baileymcwhirter/BMsubject-3.csv","legacy","6 8","Melodramatic Milgram","4.0.5","0","n","0","right","right","left","right","NA","584.0","27833","7898","584","NA","2","legacy","2","1024","2","48000","-16","experiment","3","odd","9","490051","28971","486812","487841","1070","107258","487843","327190","1122","99360","492053","492638","488846","492053","NA","Sternberg Task","71","52093.0","77","1024"
"92","92","677","677","black","experiment","legacy","legacy","legacy","1","undefined","1","right","77","0","77","77","0","0","77","77","0","0","77","77","77","77","0","Mon Oct 16 19:33:37 2023","The main experiment item","True","SternbergTask.osexp","/Users/baileymcwhirter","False","mono","False","18","no","white","no","yes","768","legacy","65","11","/Users/baileymcwhirter/BMsubject-3.csv","legacy","1 6 4","Melodramatic Milgram","4.0.5","0","n","0","right","right","left","right","NA","717.0","27833","7898","717","NA","2","legacy","3","1024","2","48000","-16","experiment","3","odd","7","495882","28971","492641","493670","1070","107258","493672","327190","1122","99360","497887","498605","494677","497887","NA","Sternberg Task","72","52810.0","78","1024"
"92","92","676","676","black","experiment","legacy","legacy","legacy","1","undefined","1","left","78","0","78","78","0","0","78","78","0","0","78","78","78","78","0","Mon Oct 16 19:33:37 2023","The main experiment item","True","SternbergTask.osexp","/Users/baileymcwhirter","False","mono","False","18","no","white","no","yes","768","legacy","66","11","/Users/baileymcwhirter/BMsubject-3.csv","legacy","8 9 6 1","Melodramatic Milgram","4.0.5","2","y","0","left","right","left","left","NA","651.0","27833","7898","651","NA","2","legacy","4","1024","2","48000","-16","experiment","3","odd","9","501852","28971","498608","499638","1070","107258","499640","327190","1122","99360","503856","504508","500646","503855","NA","Sternberg Task","73","53461.0","79","1024"
"92","92","675","675","black","experiment","legacy","legacy","legacy","1","undefined","1","left","79","0","79","79","0","0","79","79","0","0","79","79","79","79","0","Mon Oct 16 19:33:37 2023","The main experiment item","True","SternbergTask.osexp","/Users/baileymcwhirter","False","mono","False","18","no","white","no","yes","768","legacy","67","11","/Users/baileymcwhirter/BMsubject-3.csv","legacy","3 9 7 6 4","Melodramatic Milgram","4.0.5","3","y","0","left","right","left","left","NA","550.0","27833","7898","550","NA","2","legacy","5","1024","2","48000","-16","experiment","3","odd","7","507757","28971","504511","505545","1070","107258","505548","327190","1122","99360","509760","510311","506550","509760","NA","Sternberg Task","74","54011.0","80","1024"
"92","92","676","676","black","experiment","legacy","legacy","legacy","1","undefined","1","right","80","0","80","80","0","0","80","80","0","0","80","80","80","80","0","Mon Oct 16 19:33:37 2023","The main experiment item","True","SternbergTask.osexp","/Users/baileymcwhirter","False","mono","False","18","no","white","no","yes","768","legacy","68","11","/Users/baileymcwhirter/BMsubject-3.csv","legacy","4 8 1 2","Melodramatic Milgram","4.0.5","0","n","0","right","right","left","right","NA","784.0","27833","7898","784","NA","2","legacy","4","1024","2","48000","-16","experiment","3","odd","7","513555","28971","510313","511345","1070","107258","511348","327190","1122","99360","515557","516342","512350","515557","NA","Sternberg Task","75","54795.0","81","1024"
"92","92","676","676","black","experiment","legacy","legacy","legacy","1","undefined","1","right","81","0","81","81","0","0","81","81","0","0","81","81","81","81","0","Mon Oct 16 19:33:37 2023","The main experiment item","True","SternbergTask.osexp","/Users/baileymcwhirter","False","mono","False","18","no","white","no","yes","768","legacy","69","11","/Users/baileymcwhirter/BMsubject-3.csv","legacy","1 3 2 6 9","Melodramatic Milgram","4.0.5","0","n","0","right","right","left","right","NA","646.0","27833","7898","646","NA","2","legacy","5","1024","2","48000","-16","experiment","3","odd","5","519604","28971","516345","517390","1070","107258","517392","327190","1122","99360","521609","522256","518398","521609","NA","Sternberg Task","76","55441.0","82","1024"
"92","92","675","675","black","experiment","legacy","legacy","legacy","1","undefined","1","right","82","0","82","82","0","0","82","82","0","0","82","82","82","82","0","Mon Oct 16 19:33:37 2023","The main experiment item","True","SternbergTask.osexp","/Users/baileymcwhirter","False","mono","False","18","no","white","no","yes","768","legacy","70","11","/Users/baileymcwhirter/BMsubject-3.csv","legacy","9 7 4 5 8","Melodramatic Milgram","4.0.5","0","n","0","right","right","left","right","NA","658.0","27833","7898","658","NA","2","legacy","5","1024","2","48000","-16","experiment","3","odd","6","525503","28971","522259","523293","1070","107258","523295","327190","1122","99360","527508","528167","524298","527508","NA","Sternberg Task","77","56099.0","83","1024"
"92","92","675","675","black","experiment","legacy","legacy","legacy","1","undefined","1","left","83","0","83","83","0","0","83","83","0","0","83","83","83","83","0","Mon Oct 16 19:33:37 2023","The main experiment item","True","SternbergTask.osexp","/Users/baileymcwhirter","False","mono","False","18","no","white","no","yes","768","legacy","71","11","/Users/baileymcwhirter/BMsubject-3.csv","legacy","9 1 7 2","Melodramatic Milgram","4.0.5","2","y","0","left","right","left","left","NA","618.0","27833","7898","618","NA","2","legacy","4","1024","2","48000","-16","experiment","3","odd","1","531416","28971","528170","529204","1070","107258","529206","327190","1122","99360","533418","534037","530211","533418","NA","Sternberg Task","78","56717.0","84","1024"
"92","92","675","675","black","experiment","legacy","legacy","legacy","1","undefined","1","right","84","0","84","84","0","0","84","84","0","0","84","84","84","84","0","Mon Oct 16 19:33:37 2023","The main experiment item","True","SternbergTask.osexp","/Users/baileymcwhirter","False","mono","False","18","no","white","no","yes","768","legacy","72","11","/Users/baileymcwhirter/BMsubject-3.csv","legacy","6 8 4","Melodramatic Milgram","4.0.5","0","n","0","right","right","left","right","NA","660.0","27833","7898","660","NA","2","legacy","3","1024","2","48000","-16","experiment","3","odd","1","537280","28971","534040","535070","1070","107258","535073","327190","1122","99360","539282","539943","536075","539281","NA","Sternberg Task","79","57377.0","85","1024"
"93","93","674","674","black","experiment","legacy","legacy","legacy","1","undefined","1","left","85","0","85","85","0","0","85","85","0","0","85","85","85","85","0","Mon Oct 16 19:33:37 2023","The main experiment item","True","SternbergTask.osexp","/Users/baileymcwhirter","False","mono","False","18","no","white","no","yes","768","legacy","73","11","/Users/baileymcwhirter/BMsubject-3.csv","legacy","6 9 3 1","Melodramatic Milgram","4.0.5","4","y","0","left","right","left","left","NA","615.0","27833","7898","615","NA","2","legacy","4","1024","2","48000","-16","experiment","3","odd","1","543194","28971","539946","540981","1070","107258","540983","327190","1122","99360","545197","545813","541987","545197","NA","Sternberg Task","80","57992.0","86","1024"
"93","93","674","674","black","experiment","legacy","legacy","legacy","1","undefined","1","left","86","0","86","86","0","0","86","86","0","0","86","86","86","86","0","Mon Oct 16 19:33:37 2023","The main experiment item","True","SternbergTask.osexp","/Users/baileymcwhirter","False","mono","False","18","no","white","no","yes","768","legacy","74","11","/Users/baileymcwhirter/BMsubject-3.csv","legacy","7 1 8 5 6 2","Melodramatic Milgram","4.0.5","2","y","0","left","right","left","left","NA","689.0","27833","7898","689","NA","2","legacy","6","1024","2","48000","-16","experiment","3","odd","1","549058","28971","545815","546846","1070","107258","546848","327190","1122","99360","551060","551750","547853","551060","NA","Sternberg Task","81","58681.0","87","1024"
"93","93","674","674","black","experiment","legacy","legacy","legacy","1","undefined","1","left","87","0","87","87","0","0","87","87","0","0","87","87","87","87","0","Mon Oct 16 19:33:37 2023","The main experiment item","True","SternbergTask.osexp","/Users/baileymcwhirter","False","mono","False","18","no","white","no","yes","768","legacy","75","11","/Users/baileymcwhirter/BMsubject-3.csv","legacy","6 7 9 3 1 2","Melodramatic Milgram","4.0.5","1","y","0","left","right","left","left","NA","678.0","27833","7898","678","NA","2","legacy","6","1024","2","48000","-16","experiment","3","odd","6","554997","28971","551752","552786","1070","107258","552788","327190","1122","99360","557002","557681","553791","557002","NA","Sternberg Task","82","59359.0","88","1024"
"93","93","673","673","black","experiment","legacy","legacy","legacy","1","undefined","1","left","88","0","88","88","0","0","88","88","0","0","88","88","88","88","0","Mon Oct 16 19:33:37 2023","The main experiment item","True","SternbergTask.osexp","/Users/baileymcwhirter","False","mono","False","18","no","white","no","yes","768","legacy","76","11","/Users/baileymcwhirter/BMsubject-3.csv","legacy","3 4 9 6 2 9","Melodramatic Milgram","4.0.5","5","y","0","left","right","left","left","NA","611.0","27833","7898","611","NA","2","legacy","6","1024","2","48000","-16","experiment","3","odd","2","560927","28971","557684","558716","1070","107258","558718","327190","1122","99360","562929","563541","559722","562929","NA","Sternberg Task","83","59970.0","89","1024"
"93","93","673","673","black","experiment","legacy","legacy","legacy","1","undefined","1","left","89","0","89","89","0","0","89","89","0","0","89","89","89","89","0","Mon Oct 16 19:33:37 2023","The main experiment item","True","SternbergTask.osexp","/Users/baileymcwhirter","False","mono","False","18","no","white","no","yes","768","legacy","77","11","/Users/baileymcwhirter/BMsubject-3.csv","legacy","8 5 4 7 3 1","Melodramatic Milgram","4.0.5","2","y","0","left","right","left","left","NA","600.0","27833","7898","600","NA","2","legacy","6","1024","2","48000","-16","experiment","3","odd","5","566794","28971","563544","564582","1070","107258","564584","327190","1122","99360","568796","569398","565589","568796","NA","Sternberg Task","84","60570.0","90","1024"
"92","92","671","671","black","experiment","legacy","legacy","legacy","0","undefined","0","left","90","0","90","90","0","0","90","90","0","0","90","90","90","90","0","Mon Oct 16 19:33:37 2023","The main experiment item","True","SternbergTask.osexp","/Users/baileymcwhirter","False","mono","False","18","no","white","no","yes","768","legacy","78","11","/Users/baileymcwhirter/BMsubject-3.csv","legacy","6 9 7 4 5 1","Melodramatic Milgram","4.0.5","2","y","0","right","right","left","right","NA","524.0","27833","7898","524","NA","2","legacy","6","1024","2","48000","-16","experiment","3","odd","9","572646","28971","569400","570436","1070","107258","570438","327190","1122","99360","574648","575173","571441","574648","NA","Sternberg Task","84","61094.0","91","1024"
"92","92","672","672","black","experiment","legacy","legacy","legacy","1","undefined","1","right","91","0","91","91","0","0","91","91","0","0","91","91","91","91","0","Mon Oct 16 19:33:37 2023","The main experiment item","True","SternbergTask.osexp","/Users/baileymcwhirter","False","mono","False","18","no","white","no","yes","768","legacy","79","11","/Users/baileymcwhirter/BMsubject-3.csv","legacy","6 3 1 7 9 8","Melodramatic Milgram","4.0.5","0","n","0","right","right","left","right","NA","788.0","27833","7898","788","NA","2","legacy","6","1024","2","48000","-16","experiment","3","odd","4","578423","28971","569400","576211","1070","107258","576213","575175","1122","99360","580425","581214","577218","580425","NA","Sternberg Task","85","61882.0","92","1024"
"92","92","672","672","black","experiment","legacy","legacy","legacy","1","undefined","1","right","92","0","92","92","0","0","92","92","0","0","92","92","92","92","0","Mon Oct 16 19:33:37 2023","The main experiment item","True","SternbergTask.osexp","/Users/baileymcwhirter","False","mono","False","18","no","white","no","yes","768","legacy","80","11","/Users/baileymcwhirter/BMsubject-3.csv","legacy","5 7 3","Melodramatic Milgram","4.0.5","0","n","0","right","right","left","right","NA","678.0","27833","7898","678","NA","2","legacy","3","1024","2","48000","-16","experiment","3","odd","9","584456","28971","581217","582246","1070","107258","582248","575175","1122","99360","586461","587140","583251","586461","NA","Sternberg Task","86","62560.0","93","1024"
"92","92","673","673","black","experiment","legacy","legacy","legacy","1","undefined","1","right","93","0","93","93","0","0","93","93","0","0","93","93","93","93","0","Mon Oct 16 19:33:37 2023","The main experiment item","True","SternbergTask.osexp","/Users/baileymcwhirter","False","mono","False","18","no","white","no","yes","768","legacy","81","11","/Users/baileymcwhirter/BMsubject-3.csv","legacy","1 4 9 2 5","Melodramatic Milgram","4.0.5","0","n","0","right","right","left","right","NA","719.0","27833","7898","719","NA","2","legacy","5","1024","2","48000","-16","experiment","3","odd","7","590396","28971","587143","588182","1070","107258","588185","575175","1122","99360","592399","593119","589191","592398","NA","Sternberg Task","87","63279.0","94","1024"
"92","92","677","677","black","experiment","legacy","legacy","legacy","1","undefined","1","right","94","0","94","94","0","0","94","94","0","0","94","94","94","94","0","Mon Oct 16 19:33:37 2023","The main experiment item","True","SternbergTask.osexp","/Users/baileymcwhirter","False","mono","False","18","no","white","no","yes","768","legacy","82","11","/Users/baileymcwhirter/BMsubject-3.csv","legacy","1 7 8 3 9","Melodramatic Milgram","4.0.5","0","n","0","right","right","left","right","NA","1095.0","27833","7898","1095","NA","2","legacy","5","1024","2","48000","-16","experiment","3","odd","2","596367","28971","593122","594154","1070","107258","594157","575175","1122","99360","598369","599465","595162","598369","NA","Sternberg Task","88","64374.0","95","1024"
"91","91","691","691","black","experiment","legacy","legacy","legacy","0","undefined","0","right","95","0","95","95","0","0","95","95","0","0","95","95","95","95","0","Mon Oct 16 19:33:37 2023","The main experiment item","True","SternbergTask.osexp","/Users/baileymcwhirter","False","mono","False","18","no","white","no","yes","768","legacy","83","11","/Users/baileymcwhirter/BMsubject-3.csv","legacy","7 3 2 8","Melodramatic Milgram","4.0.5","0","n","0","None","right","left","None","NA","2000.0","27833","7898","2000","NA","2","legacy","4","1024","2","48000","-16","experiment","3","odd","4","602706","28971","599467","600497","1070","107258","600499","575175","1122","99360","604708","606708","601501","604708","NA","Sternberg Task","88","66374.0","96","1024"
"91","91","697","697","black","experiment","legacy","legacy","legacy","1","undefined","1","right","96","0","96","96","0","0","96","96","0","0","96","96","96","96","0","Mon Oct 16 19:33:37 2023","The main experiment item","True","SternbergTask.osexp","/Users/baileymcwhirter","False","mono","False","18","no","white","no","yes","768","legacy","84","11","/Users/baileymcwhirter/BMsubject-3.csv","legacy","3 4 2","Melodramatic Milgram","4.0.5","0","n","0","right","right","left","right","NA","1265.0","27833","7898","1265","NA","2","legacy","3","1024","2","48000","-16","experiment","3","odd","5","609953","28971","599467","607741","1070","107258","607744","606711","1122","99360","611957","613224","608748","611957","NA","Sternberg Task","89","67639.0","97","1024"
"91","91","698","698","black","experiment","legacy","legacy","legacy","1","undefined","1","left","97","0","97","97","0","0","97","97","0","0","97","97","97","97","0","Mon Oct 16 19:33:37 2023","The main experiment item","True","SternbergTask.osexp","/Users/baileymcwhirter","False","mono","False","18","no","white","no","yes","768","legacy","85","11","/Users/baileymcwhirter/BMsubject-3.csv","legacy","2 4 8 5 1 3","Melodramatic Milgram","4.0.5","1","y","0","left","right","left","left","NA","811.0","27833","7898","811","NA","2","legacy","6","1024","2","48000","-16","experiment","3","odd","2","616475","28971","613226","614264","1070","107258","614266","606711","1122","99360","618478","619290","615270","618478","NA","Sternberg Task","90","68450.0","98","1024"
"90","90","701","701","black","experiment","legacy","legacy","legacy","0","undefined","0","left","98","0","98","98","0","0","98","98","0","0","98","98","98","98","0","Mon Oct 16 19:33:37 2023","The main experiment item","True","SternbergTask.osexp","/Users/baileymcwhirter","False","mono","False","18","no","white","no","yes","768","legacy","86","11","/Users/baileymcwhirter/BMsubject-3.csv","legacy","8 5 3 7 4 6","Melodramatic Milgram","4.0.5","6","y","0","right","right","left","right","NA","1001.0","27833","7898","1001","NA","2","legacy","6","1024","2","48000","-16","experiment","3","odd","6","622546","28971","619293","620336","1070","107258","620338","606711","1122","99360","624550","625552","621341","624550","NA","Sternberg Task","90","69451.0","99","1024"
"91","91","701","701","black","experiment","legacy","legacy","legacy","1","undefined","1","right","99","0","99","99","0","0","99","99","0","0","99","99","99","99","0","Mon Oct 16 19:33:37 2023","The main experiment item","True","SternbergTask.osexp","/Users/baileymcwhirter","False","mono","False","18","no","white","no","yes","768","legacy","87","11","/Users/baileymcwhirter/BMsubject-3.csv","legacy","7 6 4 8 1 2","Melodramatic Milgram","4.0.5","0","n","0","right","right","left","right","NA","706.0","27833","7898","706","NA","2","legacy","6","1024","2","48000","-16","experiment","3","odd","9","628798","28971","619293","626588","1070","107258","626590","625555","1122","99360","630799","631506","627593","630799","NA","Sternberg Task","91","70157.0","100","1024"
"91","91","701","701","black","experiment","legacy","legacy","legacy","1","undefined","1","left","100","0","100","100","0","0","100","100","0","0","100","100","100","100","0","Mon Oct 16 19:33:37 2023","The main experiment item","True","SternbergTask.osexp","/Users/baileymcwhirter","False","mono","False","18","no","white","no","yes","768","legacy","88","11","/Users/baileymcwhirter/BMsubject-3.csv","legacy","2 8 5 1","Melodramatic Milgram","4.0.5","4","y","0","left","right","left","left","NA","703.0","27833","7898","703","NA","2","legacy","4","1024","2","48000","-16","experiment","3","odd","1","634751","28971","631509","632542","1070","107258","632544","625555","1122","99360","636753","637457","633546","636752","NA","Sternberg Task","92","70860.0","101","1024"
"90","90","700","700","black","experiment","legacy","legacy","legacy","0","undefined","0","right","101","0","101","101","0","0","101","101","0","0","101","101","101","101","0","Mon Oct 16 19:33:37 2023","The main experiment item","True","SternbergTask.osexp","/Users/baileymcwhirter","False","mono","False","18","no","white","no","yes","768","legacy","89","11","/Users/baileymcwhirter/BMsubject-3.csv","legacy","7 9","Melodramatic Milgram","4.0.5","0","n","0","left","right","left","left","NA","563.0","27833","7898","563","NA","2","legacy","2","1024","2","48000","-16","experiment","3","odd","1","640702","28971","637459","638492","1070","107258","638494","625555","1122","99360","642706","643270","639496","642706","NA","Sternberg Task","92","71423.0","102","1024"
"90","90","701","701","black","experiment","legacy","legacy","legacy","1","undefined","1","right","102","0","102","102","0","0","102","102","0","0","102","102","102","102","0","Mon Oct 16 19:33:37 2023","The main experiment item","True","SternbergTask.osexp","/Users/baileymcwhirter","False","mono","False","18","no","white","no","yes","768","legacy","90","11","/Users/baileymcwhirter/BMsubject-3.csv","legacy","9 8 2 7 4","Melodramatic Milgram","4.0.5","0","n","0","right","right","left","right","NA","875.0","27833","7898","875","NA","2","legacy","5","1024","2","48000","-16","experiment","3","odd","5","646515","28971","637459","644305","1070","107258","644308","643273","1122","99360","648519","649395","645310","648519","NA","Sternberg Task","93","72298.0","103","1024"
"90","90","703","703","black","experiment","legacy","legacy","legacy","1","undefined","1","left","103","0","103","103","0","0","103","103","0","0","103","103","103","103","0","Mon Oct 16 19:33:37 2023","The main experiment item","True","SternbergTask.osexp","/Users/baileymcwhirter","False","mono","False","18","no","white","no","yes","768","legacy","91","11","/Users/baileymcwhirter/BMsubject-3.csv","legacy","2 3 7 4","Melodramatic Milgram","4.0.5","1","y","0","left","right","left","left","NA","846.0","27833","7898","846","NA","2","legacy","4","1024","2","48000","-16","experiment","3","odd","2","652639","28971","649398","650428","1070","107258","650431","643273","1122","99360","654641","655488","651434","654641","NA","Sternberg Task","94","73144.0","104","1024"
"90","90","704","704","black","experiment","legacy","legacy","legacy","1","undefined","1","right","104","0","104","104","0","0","104","104","0","0","104","104","104","104","0","Mon Oct 16 19:33:37 2023","The main experiment item","True","SternbergTask.osexp","/Users/baileymcwhirter","False","mono","False","18","no","white","no","yes","768","legacy","92","11","/Users/baileymcwhirter/BMsubject-3.csv","legacy","5 2","Melodramatic Milgram","4.0.5","0","n","0","right","right","left","right","NA","786.0","27833","7898","786","NA","2","legacy","2","1024","2","48000","-16","experiment","3","odd","7","658738","28971","655491","656523","1070","107258","656525","643273","1122","99360","660740","661528","657531","660740","NA","Sternberg Task","95","73930.0","105","1024"
"90","90","707","707","black","experiment","legacy","legacy","legacy","1","undefined","1","left","105","0","105","105","0","0","105","105","0","0","105","105","105","105","0","Mon Oct 16 19:33:37 2023","The main experiment item","True","SternbergTask.osexp","/Users/baileymcwhirter","False","mono","False","18","no","white","no","yes","768","legacy","93","11","/Users/baileymcwhirter/BMsubject-3.csv","legacy","9 3 8 2 1 4","Melodramatic Milgram","4.0.5","3","y","0","left","right","left","left","NA","1013.0","27833","7898","1013","NA","2","legacy","6","1024","2","48000","-16","experiment","3","odd","8","664775","28971","661530","662560","1070","107258","662562","643273","1122","99360","666779","667793","663569","666779","NA","Sternberg Task","96","74943.0","106","1024"
"90","90","706","706","black","experiment","legacy","legacy","legacy","1","undefined","1","left","106","0","106","106","0","0","106","106","0","0","106","106","106","106","0","Mon Oct 16 19:33:37 2023","The main experiment item","True","SternbergTask.osexp","/Users/baileymcwhirter","False","mono","False","18","no","white","no","yes","768","legacy","94","11","/Users/baileymcwhirter/BMsubject-3.csv","legacy","4 7 6 8 2 3","Melodramatic Milgram","4.0.5","6","y","0","left","right","left","left","NA","639.0","27833","7898","639","NA","2","legacy","6","1024","2","48000","-16","experiment","3","odd","3","671038","28971","667795","668828","1070","107258","668830","643273","1122","99360","673040","673680","669833","673039","NA","Sternberg Task","97","75582.0","107","1024"
"90","90","706","706","black","experiment","legacy","legacy","legacy","1","undefined","1","right","107","0","107","107","0","0","107","107","0","0","107","107","107","107","0","Mon Oct 16 19:33:37 2023","The main experiment item","True","SternbergTask.osexp","/Users/baileymcwhirter","False","mono","False","18","no","white","no","yes","768","legacy","95","11","/Users/baileymcwhirter/BMsubject-3.csv","legacy","5 3 2 6 9 8","Melodramatic Milgram","4.0.5","0","n","0","right","right","left","right","NA","712.0","27833","7898","712","NA","2","legacy","6","1024","2","48000","-16","experiment","3","odd","4","676924","28971","673683","674715","1070","107258","674717","643273","1122","99360","678926","679639","675720","678926","NA","Sternberg Task","98","76294.0","108","1024"
"90","90","706","706","black","experiment","legacy","legacy","legacy","1","undefined","1","left","108","0","108","108","0","0","108","108","0","0","108","108","108","108","0","Mon Oct 16 19:33:37 2023","The main experiment item","True","SternbergTask.osexp","/Users/baileymcwhirter","False","mono","False","18","no","white","no","yes","768","legacy","96","11","/Users/baileymcwhirter/BMsubject-3.csv","legacy","9 8 4","Melodramatic Milgram","4.0.5","1","y","0","left","right","left","left","NA","700.0","27833","7898","700","NA","2","legacy","3","1024","2","48000","-16","experiment","3","odd","9","682882","28971","679641","680670","1070","107258","680672","643273","1122","99360","684885","685586","681676","684885","NA","Sternberg Task","99","76994.0","109","1024"
"90","90","706","706","black","experiment","legacy","legacy","legacy","1","undefined","1","right","109","0","109","109","0","0","109","109","0","0","109","109","109","109","0","Mon Oct 16 19:33:37 2023","The main experiment item","True","SternbergTask.osexp","/Users/baileymcwhirter","False","mono","False","18","no","white","no","yes","768","legacy","97","11","/Users/baileymcwhirter/BMsubject-3.csv","legacy","2 3 8 5 6 7","Melodramatic Milgram","4.0.5","0","n","0","right","right","left","right","NA","756.0","27833","7898","756","NA","2","legacy","6","1024","2","48000","-16","experiment","3","odd","1","688835","28971","685589","686625","1070","107258","686628","643273","1122","99360","690837","691594","687630","690837","NA","Sternberg Task","100","77750.0","110","1024"
"90","90","706","706","black","experiment","legacy","legacy","legacy","1","undefined","1","right","110","0","110","110","0","0","110","110","0","0","110","110","110","110","0","Mon Oct 16 19:33:37 2023","The main experiment item","True","SternbergTask.osexp","/Users/baileymcwhirter","False","mono","False","18","no","white","no","yes","768","legacy","98","11","/Users/baileymcwhirter/BMsubject-3.csv","legacy","1 8 7","Melodramatic Milgram","4.0.5","0","n","0","right","right","left","right","NA","656.0","27833","7898","656","NA","2","legacy","3","1024","2","48000","-16","experiment","3","odd","4","694840","28971","691597","692628","1070","107258","692630","643273","1122","99360","696842","697499","693635","696842","NA","Sternberg Task","101","78406.0","111","1024"
"91","91","704","704","black","experiment","legacy","legacy","legacy","1","undefined","1","right","111","0","111","111","0","0","111","111","0","0","111","111","111","111","0","Mon Oct 16 19:33:37 2023","The main experiment item","True","SternbergTask.osexp","/Users/baileymcwhirter","False","mono","False","18","no","white","no","yes","768","legacy","99","11","/Users/baileymcwhirter/BMsubject-3.csv","legacy","1","Melodramatic Milgram","4.0.5","0","n","0","right","right","left","right","NA","534.0","27833","7898","534","NA","2","legacy","1","1024","2","48000","-16","experiment","3","odd","7","700750","28971","697502","698537","1070","107258","698539","643273","1122","99360","702752","703287","699544","702752","NA","Sternberg Task","102","78940.0","112","1024"
"91","91","708","708","black","experiment","legacy","legacy","legacy","1","undefined","1","right","112","0","112","112","0","0","112","112","0","0","112","112","112","112","0","Mon Oct 16 19:33:37 2023","The main experiment item","True","SternbergTask.osexp","/Users/baileymcwhirter","False","mono","False","18","no","white","no","yes","768","legacy","100","11","/Users/baileymcwhirter/BMsubject-3.csv","legacy","4 2 7 6 1 3","Melodramatic Milgram","4.0.5","0","n","0","right","right","left","right","NA","1064.0","27833","7898","1064","NA","2","legacy","6","1024","2","48000","-16","experiment","3","odd","8","706533","28971","703290","704321","1070","107258","704323","643273","1122","99360","708535","709600","705328","708535","NA","Sternberg Task","103","80004.0","113","1024"
"91","91","708","708","black","experiment","legacy","legacy","legacy","1","undefined","1","left","113","0","113","113","0","0","113","113","0","0","113","113","113","113","0","Mon Oct 16 19:33:37 2023","The main experiment item","True","SternbergTask.osexp","/Users/baileymcwhirter","False","mono","False","18","no","white","no","yes","768","legacy","101","11","/Users/baileymcwhirter/BMsubject-3.csv","legacy","9 5 8 1","Melodramatic Milgram","4.0.5","2","y","0","left","right","left","left","NA","718.0","27833","7898","718","NA","2","legacy","4","1024","2","48000","-16","experiment","3","odd","5","712848","28971","709603","710638","1070","107258","710640","643273","1122","99360","714852","715571","711644","714852","NA","Sternberg Task","104","80722.0","114","1024"
"91","91","707","707","black","experiment","legacy","legacy","legacy","1","undefined","1","left","114","0","114","114","0","0","114","114","0","0","114","114","114","114","0","Mon Oct 16 19:33:37 2023","The main experiment item","True","SternbergTask.osexp","/Users/baileymcwhirter","False","mono","False","18","no","white","no","yes","768","legacy","102","11","/Users/baileymcwhirter/BMsubject-3.csv","legacy","3 5 7 1","Melodramatic Milgram","4.0.5","3","y","0","left","right","left","left","NA","624.0","27833","7898","624","NA","2","legacy","4","1024","2","48000","-16","experiment","3","odd","7","718820","28971","715574","716609","1070","107258","716611","643273","1122","99360","720823","721448","717616","720823","NA","Sternberg Task","105","81346.0","115","1024"
"91","91","707","707","black","experiment","legacy","legacy","legacy","1","undefined","1","left","115","0","115","115","0","0","115","115","0","0","115","115","115","115","0","Mon Oct 16 19:33:37 2023","The main experiment item","True","SternbergTask.osexp","/Users/baileymcwhirter","False","mono","False","18","no","white","no","yes","768","legacy","103","11","/Users/baileymcwhirter/BMsubject-3.csv","legacy","3 9 6 2","Melodramatic Milgram","4.0.5","4","y","0","left","right","left","left","NA","767.0","27833","7898","767","NA","2","legacy","4","1024","2","48000","-16","experiment","3","odd","2","724691","28971","721451","722481","1070","107258","722483","643273","1122","99360","726693","727461","723486","726693","NA","Sternberg Task","106","82113.0","116","1024"
"91","91","707","707","black","experiment","legacy","legacy","legacy","1","undefined","1","left","116","0","116","116","0","0","116","116","0","0","116","116","116","116","0","Mon Oct 16 19:33:37 2023","The main experiment item","True","SternbergTask.osexp","/Users/baileymcwhirter","False","mono","False","18","no","white","no","yes","768","legacy","104","11","/Users/baileymcwhirter/BMsubject-3.csv","legacy","2 5 4 8 7","Melodramatic Milgram","4.0.5","3","y","0","left","right","left","left","NA","664.0","27833","7898","664","NA","2","legacy","5","1024","2","48000","-16","experiment","3","odd","4","730704","28971","727464","728496","1070","107258","728498","643273","1122","99360","732708","733373","729500","732708","NA","Sternberg Task","107","82777.0","117","1024"
"91","91","707","707","black","experiment","legacy","legacy","legacy","1","undefined","1","right","117","0","117","117","0","0","117","117","0","0","117","117","117","117","0","Mon Oct 16 19:33:37 2023","The main experiment item","True","SternbergTask.osexp","/Users/baileymcwhirter","False","mono","False","18","no","white","no","yes","768","legacy","105","11","/Users/baileymcwhirter/BMsubject-3.csv","legacy","2 8 9","Melodramatic Milgram","4.0.5","0","n","0","right","right","left","right","NA","661.0","27833","7898","661","NA","2","legacy","3","1024","2","48000","-16","experiment","3","odd","6","736616","28971","733376","734406","1070","107258","734408","643273","1122","99360","738618","739280","735411","738618","NA","Sternberg Task","108","83438.0","118","1024"
"91","91","707","707","black","experiment","legacy","legacy","legacy","1","undefined","1","left","118","0","118","118","0","0","118","118","0","0","118","118","118","118","0","Mon Oct 16 19:33:37 2023","The main experiment item","True","SternbergTask.osexp","/Users/baileymcwhirter","False","mono","False","18","no","white","no","yes","768","legacy","106","11","/Users/baileymcwhirter/BMsubject-3.csv","legacy","7 8 6 3 1","Melodramatic Milgram","4.0.5","5","y","0","left","right","left","left","NA","721.0","27833","7898","721","NA","2","legacy","5","1024","2","48000","-16","experiment","3","odd","1","742523","28971","739282","740313","1070","107258","740315","643273","1122","99360","744527","745249","741318","744527","NA","Sternberg Task","109","84159.0","119","1024"
"91","91","709","709","black","experiment","legacy","legacy","legacy","1","undefined","1","right","119","0","119","119","0","0","119","119","0","0","119","119","119","119","0","Mon Oct 16 19:33:37 2023","The main experiment item","True","SternbergTask.osexp","/Users/baileymcwhirter","False","mono","False","18","no","white","no","yes","768","legacy","107","11","/Users/baileymcwhirter/BMsubject-3.csv","legacy","2 6 4 3 9","Melodramatic Milgram","4.0.5","0","n","0","right","right","left","right","NA","966.0","27833","7898","966","NA","2","legacy","5","1024","2","48000","-16","experiment","3","odd","1","748496","28971","745252","746283","1070","107258","746285","643273","1122","99360","750499","751466","747291","750499","NA","Sternberg Task","110","85125.0","120","1024"
"91","91","710","710","black","experiment","legacy","legacy","legacy","1","undefined","1","left","120","0","120","120","0","0","120","120","0","0","120","120","120","120","0","Mon Oct 16 19:33:37 2023","The main experiment item","True","SternbergTask.osexp","/Users/baileymcwhirter","False","mono","False","18","no","white","no","yes","768","legacy","108","11","/Users/baileymcwhirter/BMsubject-3.csv","legacy","2 4 6 9","Melodramatic Milgram","4.0.5","3","y","0","left","right","left","left","NA","865.0","27833","7898","865","NA","2","legacy","4","1024","2","48000","-16","experiment","3","odd","6","754718","28971","751469","752505","1070","107258","752507","643273","1122","99360","756721","757587","753513","756721","NA","Sternberg Task","111","85990.0","121","1024"
"91","91","710","710","black","experiment","legacy","legacy","legacy","1","undefined","1","right","121","0","121","121","0","0","121","121","0","0","121","121","121","121","0","Mon Oct 16 19:33:37 2023","The main experiment item","True","SternbergTask.osexp","/Users/baileymcwhirter","False","mono","False","18","no","white","no","yes","768","legacy","109","11","/Users/baileymcwhirter/BMsubject-3.csv","legacy","9 5 3 2 8 6","Melodramatic Milgram","4.0.5","0","n","0","right","right","left","right","NA","736.0","27833","7898","736","NA","2","legacy","6","1024","2","48000","-16","experiment","3","odd","7","760837","28971","757590","758625","1070","107258","758627","643273","1122","99360","762839","763577","759631","762839","NA","Sternberg Task","112","86726.0","122","1024"
"91","91","710","710","black","experiment","legacy","legacy","legacy","1","undefined","1","left","122","0","122","122","0","0","122","122","0","0","122","122","122","122","0","Mon Oct 16 19:33:37 2023","The main experiment item","True","SternbergTask.osexp","/Users/baileymcwhirter","False","mono","False","18","no","white","no","yes","768","legacy","110","11","/Users/baileymcwhirter/BMsubject-3.csv","legacy","5 7 3 6 2","Melodramatic Milgram","4.0.5","5","y","0","left","right","left","left","NA","701.0","27833","7898","701","NA","2","legacy","5","1024","2","48000","-16","experiment","3","odd","2","766821","28971","763579","764610","1070","107258","764612","643273","1122","99360","768823","769525","765616","768823","NA","Sternberg Task","113","87427.0","123","1024"
"91","91","709","709","black","experiment","legacy","legacy","legacy","1","undefined","1","left","123","0","123","123","0","0","123","123","0","0","123","123","123","123","0","Mon Oct 16 19:33:37 2023","The main experiment item","True","SternbergTask.osexp","/Users/baileymcwhirter","False","mono","False","18","no","white","no","yes","768","legacy","111","11","/Users/baileymcwhirter/BMsubject-3.csv","legacy","4 1 5","Melodramatic Milgram","4.0.5","2","y","0","left","right","left","left","NA","556.0","27833","7898","556","NA","2","legacy","3","1024","2","48000","-16","experiment","3","odd","1","772777","28971","769528","770567","1070","107258","770569","643273","1122","99360","774779","775336","771572","774779","NA","Sternberg Task","114","87983.0","124","1024"
"92","92","708","708","black","experiment","legacy","legacy","legacy","1","undefined","1","right","124","0","124","124","0","0","124","124","0","0","124","124","124","124","0","Mon Oct 16 19:33:37 2023","The main experiment item","True","SternbergTask.osexp","/Users/baileymcwhirter","False","mono","False","18","no","white","no","yes","768","legacy","112","11","/Users/baileymcwhirter/BMsubject-3.csv","legacy","9","Melodramatic Milgram","4.0.5","0","n","0","right","right","left","right","NA","528.0","27833","7898","528","NA","2","legacy","1","1024","2","48000","-16","experiment","3","odd","6","778587","28971","775339","776374","1070","107258","776376","643273","1122","99360","780590","781119","777381","780589","NA","Sternberg Task","115","88511.0","125","1024"
"92","92","706","706","black","experiment","legacy","legacy","legacy","1","undefined","1","left","125","0","125","125","0","0","125","125","0","0","125","125","125","125","0","Mon Oct 16 19:33:37 2023","The main experiment item","True","SternbergTask.osexp","/Users/baileymcwhirter","False","mono","False","18","no","white","no","yes","768","legacy","113","11","/Users/baileymcwhirter/BMsubject-3.csv","legacy","7 6","Melodramatic Milgram","4.0.5","2","y","0","left","right","left","left","NA","461.0","27833","7898","461","NA","2","legacy","2","1024","2","48000","-16","experiment","3","odd","6","784368","28971","781121","782159","1070","107258","782162","643273","1122","99360","786372","786834","783164","786372","NA","Sternberg Task","116","88972.0","126","1024"
"92","92","704","704","black","experiment","legacy","legacy","legacy","1","undefined","1","right","126","0","126","126","0","0","126","126","0","0","126","126","126","126","0","Mon Oct 16 19:33:37 2023","The main experiment item","True","SternbergTask.osexp","/Users/baileymcwhirter","False","mono","False","18","no","white","no","yes","768","legacy","114","11","/Users/baileymcwhirter/BMsubject-3.csv","legacy","2 8 6 3 1","Melodramatic Milgram","4.0.5","0","n","0","right","right","left","right","NA","552.0","27833","7898","552","NA","2","legacy","5","1024","2","48000","-16","experiment","3","odd","7","790076","28971","786836","787867","1070","107258","787869","643273","1122","99360","792080","792633","788871","792080","NA","Sternberg Task","117","89524.0","127","1024"
"92","92","704","704","black","experiment","legacy","legacy","legacy","1","undefined","1","right","127","0","127","127","0","0","127","127","0","0","127","127","127","127","0","Mon Oct 16 19:33:37 2023","The main experiment item","True","SternbergTask.osexp","/Users/baileymcwhirter","False","mono","False","18","no","white","no","yes","768","legacy","115","11","/Users/baileymcwhirter/BMsubject-3.csv","legacy","8 5 4 2 9 6","Melodramatic Milgram","4.0.5","0","n","0","right","right","left","right","NA","680.0","27833","7898","680","NA","2","legacy","6","1024","2","48000","-16","experiment","3","odd","3","795889","28971","792636","793677","1070","107258","793679","643273","1122","99360","797891","798573","794684","797891","NA","Sternberg Task","118","90204.0","128","1024"
"92","92","705","705","black","experiment","legacy","legacy","legacy","1","undefined","1","left","128","0","128","128","0","0","128","128","0","0","128","128","128","128","0","Mon Oct 16 19:33:37 2023","The main experiment item","True","SternbergTask.osexp","/Users/baileymcwhirter","False","mono","False","18","no","white","no","yes","768","legacy","116","11","/Users/baileymcwhirter/BMsubject-3.csv","legacy","8 5 1 3 9","Melodramatic Milgram","4.0.5","4","y","0","left","right","left","left","NA","757.0","27833","7898","757","NA","2","legacy","5","1024","2","48000","-16","experiment","3","odd","3","801827","28971","798575","799614","1070","107258","799616","643273","1122","99360","803830","804589","800621","803830","NA","Sternberg Task","119","90961.0","129","1024"
