acc,accuracy,average_response_time,avg_rt,background,block,canvas_backend,clock_backend,color_backend,compensation,coordinates,correct,correct_instruction1,correct_keyboard_response,correct_response,count_ISI,count_correctFeedback,count_experiment,count_experimentLoop,count_fixation,count_incorrectFeedback,count_instruction1,count_instructions2,count_keyboard_response,count_logger,count_memorySet,count_memorySet_1,count_practiceLoop,count_probe,count_thankYou,datetime,description,disable_garbage_collection,experiment_file,experiment_path,font_bold,font_family,font_italic,font_size,font_underline,foreground,form_clicks,fullscreen,height,keyboard_backend,live_row,live_row_practiceLoop,logfile,mouse_backend,numberSet,opensesame_codename,opensesame_version,posInSet,present,repeat_cycle,response,response_instruction1,response_instructions2,response_keyboard_response,response_thankYou,response_time,response_time_instruction1,response_time_instructions2,response_time_keyboard_response,response_time_thankYou,round_decimals,sampler_backend,setSize,sound_buf_size,sound_channels,sound_freq,sound_sample_size,start,subject_nr,subject_parity,target,time_ISI,time_correctFeedback,time_experiment,time_experimentLoop,time_fixation,time_incorrectFeedback,time_instruction1,time_instructions2,time_keyboard_response,time_logger,time_memorySet,time_memorySet_1,time_practiceLoop,time_probe,time_thankYou,title,total_correct,total_response_time,total_responses,uniform_coordinates,width
100,100,1451,1451,black,practice,legacy,legacy,legacy,0,uniform,1,undefined,1,left,0,0,0,0,0,0,0,0,0,0,0,0,0,0,0,Sat Oct 26 21:45:16 2019,The main experiment item,yes,Sternbergtask.osexp,/Users/Linzi/Desktop,no,mono,no,18,no,white,no,yes,768,legacy,0,0,/Users/Linzi/Desktop/LM-subject-4M26.csv,legacy,6,Kafkaesque Koffka,3.2.8,1,y,0,left,right shift,NA,left,NA,1451,112592,NA,1451,NA,2,legacy,1,1024,2,48000,-16,experiment,4,even,6,121294,NA,5480,NA,119037,NA,5522,NA,123323,124792,119009,120066,118115,123323,NA,Sternberg task,1,1451,1,yes,1024
100,100,950,950,black,practice,legacy,legacy,legacy,0,uniform,1,undefined,1,right,1,1,0,0,1,1,0,0,1,1,1,1,0,1,0,Sat Oct 26 21:45:16 2019,The main experiment item,yes,Sternbergtask.osexp,/Users/Linzi/Desktop,no,mono,no,18,no,white,no,yes,768,legacy,1,1,/Users/Linzi/Desktop/LM-subject-4M26.csv,legacy,2 1,Kafkaesque Koffka,3.2.8,0,n,0,right,right shift,NA,right,NA,449,112592,NA,449,NA,2,legacy,2,1024,2,48000,-16,experiment,4,even,5,128583,124987,5480,NA,126326,NA,5522,NA,130611,131063,126298,127354,118115,130611,NA,Sternberg task,2,1900,2,yes,1024
100,100,891.3333333,891.3333333,black,practice,legacy,legacy,legacy,0,uniform,1,undefined,1,right,2,2,0,0,2,2,0,0,2,2,2,2,0,2,0,Sat Oct 26 21:45:16 2019,The main experiment item,yes,Sternbergtask.osexp,/Users/Linzi/Desktop,no,mono,no,18,no,white,no,yes,768,legacy,2,2,/Users/Linzi/Desktop/LM-subject-4M26.csv,legacy,4 1 5,Kafkaesque Koffka,3.2.8,0,n,0,right,right shift,NA,right,NA,774,112592,NA,774,NA,2,legacy,3,1024,2,48000,-16,experiment,4,even,2,134660,131096,5480,NA,132406,NA,5522,NA,136687,137464,132379,133434,118115,136687,NA,Sternberg task,3,2674,3,yes,1024
100,100,869.25,869.25,black,practice,legacy,legacy,legacy,0,uniform,1,undefined,1,right,3,3,0,0,3,3,0,0,3,3,3,3,0,3,0,Sat Oct 26 21:45:16 2019,The main experiment item,yes,Sternbergtask.osexp,/Users/Linzi/Desktop,no,mono,no,18,no,white,no,yes,768,legacy,3,3,/Users/Linzi/Desktop/LM-subject-4M26.csv,legacy,9 6 7 4 5,Kafkaesque Koffka,3.2.8,0,n,0,right,right shift,NA,right,NA,803,112592,NA,803,NA,2,legacy,5,1024,2,48000,-16,experiment,4,even,3,141059,137496,5480,NA,138806,NA,5522,NA,143087,143893,138779,139832,118115,143086,NA,Sternberg task,4,3477,4,yes,1024
100,100,806,806,black,practice,legacy,legacy,legacy,0,uniform,1,undefined,1,right,4,4,0,0,4,4,0,0,4,4,4,4,0,4,0,Sat Oct 26 21:45:16 2019,The main experiment item,yes,Sternbergtask.osexp,/Users/Linzi/Desktop,no,mono,no,18,no,white,no,yes,768,legacy,4,4,/Users/Linzi/Desktop/LM-subject-4M26.csv,legacy,5,Kafkaesque Koffka,3.2.8,0,n,0,right,right shift,NA,right,NA,553,112592,NA,553,NA,2,legacy,1,1024,2,48000,-16,experiment,4,even,3,147484,143925,5480,NA,145231,NA,5522,NA,149512,150068,145204,146257,118115,149512,NA,Sternberg task,5,4030,5,yes,1024
100,100,775.3333333,775.3333333,black,practice,legacy,legacy,legacy,0,uniform,1,undefined,1,right,5,5,0,0,5,5,0,0,5,5,5,5,0,5,0,Sat Oct 26 21:45:16 2019,The main experiment item,yes,Sternbergtask.osexp,/Users/Linzi/Desktop,no,mono,no,18,no,white,no,yes,768,legacy,5,5,/Users/Linzi/Desktop/LM-subject-4M26.csv,legacy,3 1 9 4,Kafkaesque Koffka,3.2.8,0,n,0,right,right shift,NA,right,NA,622,112592,NA,622,NA,2,legacy,4,1024,2,48000,-16,experiment,4,even,6,153662,150099,5480,NA,151408,NA,5522,NA,155689,156314,151381,152435,118115,155688,NA,Sternberg task,6,4652,6,yes,1024
100,100,778.5714286,778.5714286,black,practice,legacy,legacy,legacy,0,uniform,1,undefined,1,left,6,6,0,0,6,6,0,0,6,6,6,6,0,6,0,Sat Oct 26 21:45:16 2019,The main experiment item,yes,Sternbergtask.osexp,/Users/Linzi/Desktop,no,mono,no,18,no,white,no,yes,768,legacy,6,6,/Users/Linzi/Desktop/LM-subject-4M26.csv,legacy,2 9 4,Kafkaesque Koffka,3.2.8,3,y,0,left,right shift,NA,left,NA,798,112592,NA,798,NA,2,legacy,3,1024,2,48000,-16,experiment,4,even,4,159910,156347,5480,NA,157656,NA,5522,NA,161938,162739,157629,158683,118115,161938,NA,Sternberg task,7,5450,7,yes,1024
100,100,758.25,758.25,black,practice,legacy,legacy,legacy,0,uniform,1,undefined,1,right,7,7,0,0,7,7,0,0,7,7,7,7,0,7,0,Sat Oct 26 21:45:16 2019,The main experiment item,yes,Sternbergtask.osexp,/Users/Linzi/Desktop,no,mono,no,18,no,white,no,yes,768,legacy,7,7,/Users/Linzi/Desktop/LM-subject-4M26.csv,legacy,5 7 8 4 1 2,Kafkaesque Koffka,3.2.8,0,n,0,right,right shift,NA,right,NA,616,112592,NA,616,NA,2,legacy,6,1024,2,48000,-16,experiment,4,even,6,166332,162770,5480,NA,164078,NA,5522,NA,168360,168979,164051,165106,118115,168360,NA,Sternberg task,8,6066,8,yes,1024
100,100,766.5555556,766.5555556,black,practice,legacy,legacy,legacy,0,uniform,1,undefined,1,left,8,8,0,0,8,8,0,0,8,8,8,8,0,8,0,Sat Oct 26 21:45:16 2019,The main experiment item,yes,Sternbergtask.osexp,/Users/Linzi/Desktop,no,mono,no,18,no,white,no,yes,768,legacy,8,8,/Users/Linzi/Desktop/LM-subject-4M26.csv,legacy,1 5 2 9,Kafkaesque Koffka,3.2.8,2,y,0,left,right shift,NA,left,NA,833,112592,NA,833,NA,2,legacy,4,1024,2,48000,-16,experiment,4,even,5,172575,169010,5480,NA,170320,NA,5522,NA,174603,175439,170293,171348,118115,174602,NA,Sternberg task,9,6899,9,yes,1024
100,100,751.3,751.3,black,practice,legacy,legacy,legacy,0,uniform,1,undefined,1,left,9,9,0,0,9,9,0,0,9,9,9,9,0,9,0,Sat Oct 26 21:45:16 2019,The main experiment item,yes,Sternbergtask.osexp,/Users/Linzi/Desktop,no,mono,no,18,no,white,no,yes,768,legacy,9,9,/Users/Linzi/Desktop/LM-subject-4M26.csv,legacy,4 8,Kafkaesque Koffka,3.2.8,1,y,0,left,right shift,NA,left,NA,614,112592,NA,614,NA,2,legacy,2,1024,2,48000,-16,experiment,4,even,4,179033,175471,5480,NA,176779,NA,5522,NA,181060,181677,176752,177806,118115,181059,NA,Sternberg task,10,7513,10,yes,1024
100,100,743,743,black,practice,legacy,legacy,legacy,0,uniform,1,undefined,1,left,10,10,0,0,10,10,0,0,10,10,10,10,0,10,0,Sat Oct 26 21:45:16 2019,The main experiment item,yes,Sternbergtask.osexp,/Users/Linzi/Desktop,no,mono,no,18,no,white,no,yes,768,legacy,10,10,/Users/Linzi/Desktop/LM-subject-4M26.csv,legacy,1 7 9 8 5,Kafkaesque Koffka,3.2.8,4,y,0,left,right shift,NA,left,NA,660,112592,NA,660,NA,2,legacy,5,1024,2,48000,-16,experiment,4,even,8,185270,181710,5480,NA,183016,NA,5522,NA,187298,187961,182990,184043,118115,187297,NA,Sternberg task,11,8173,11,yes,1024
100,100,740.5833333,740.5833333,black,practice,legacy,legacy,legacy,0,uniform,1,undefined,1,left,11,11,0,0,11,11,0,0,11,11,11,11,0,11,0,Sat Oct 26 21:45:16 2019,The main experiment item,yes,Sternbergtask.osexp,/Users/Linzi/Desktop,no,mono,no,18,no,white,no,yes,768,legacy,11,11,/Users/Linzi/Desktop/LM-subject-4M26.csv,legacy,4 3 1 7 9 8,Kafkaesque Koffka,3.2.8,1,y,0,left,right shift,NA,left,NA,714,112592,NA,714,NA,2,legacy,6,1024,2,48000,-16,experiment,4,even,4,191557,187994,5480,NA,189303,NA,5522,NA,193584,194301,189275,190329,118115,193583,NA,Sternberg task,12,8887,12,yes,1024
100,100,720.3846154,720.3846154,black,experiment,legacy,legacy,legacy,0,uniform,1,undefined,1,right,12,12,0,0,12,12,0,0,12,12,12,12,0,12,0,Sat Oct 26 21:45:16 2019,The main experiment item,yes,Sternbergtask.osexp,/Users/Linzi/Desktop,no,mono,no,18,no,white,no,yes,768,legacy,0,11,/Users/Linzi/Desktop/LM-subject-4M26.csv,legacy,6 7 5 9,Kafkaesque Koffka,3.2.8,0,n,0,right,right shift,space,right,NA,478,112592,8842,478,NA,2,legacy,4,1024,2,48000,-16,experiment,4,even,2,206913,194333,5480,204268,204660,NA,5522,195421,208940,209421,204633,205687,118115,208940,NA,Sternberg task,13,9365,13,yes,1024
100,100,706.9285714,706.9285714,black,experiment,legacy,legacy,legacy,0,uniform,1,undefined,1,left,13,13,0,0,13,13,0,0,13,13,13,13,0,13,0,Sat Oct 26 21:45:16 2019,The main experiment item,yes,Sternbergtask.osexp,/Users/Linzi/Desktop,no,mono,no,18,no,white,no,yes,768,legacy,1,11,/Users/Linzi/Desktop/LM-subject-4M26.csv,legacy,8 1 6,Kafkaesque Koffka,3.2.8,3,y,0,left,right shift,space,left,NA,532,112592,8842,532,NA,2,legacy,3,1024,2,48000,-16,experiment,4,even,6,213015,209453,5480,204268,210762,NA,5522,195421,215042,215577,210735,211789,118115,215042,NA,Sternberg task,14,9897,14,yes,1024
100,100,701.4666667,701.4666667,black,experiment,legacy,legacy,legacy,0,uniform,1,undefined,1,right,14,14,0,0,14,14,0,0,14,14,14,14,0,14,0,Sat Oct 26 21:45:16 2019,The main experiment item,yes,Sternbergtask.osexp,/Users/Linzi/Desktop,no,mono,no,18,no,white,no,yes,768,legacy,2,11,/Users/Linzi/Desktop/LM-subject-4M26.csv,legacy,7 6 4 8 1 2,Kafkaesque Koffka,3.2.8,0,n,0,right,right shift,space,right,NA,625,112592,8842,625,NA,2,legacy,6,1024,2,48000,-16,experiment,4,even,9,219176,215609,5480,204268,216922,NA,5522,195421,221203,221832,216895,217948,118115,221203,NA,Sternberg task,15,10522,15,yes,1024
100,100,693.8125,693.8125,black,experiment,legacy,legacy,legacy,0,uniform,1,undefined,1,left,15,15,0,0,15,15,0,0,15,15,15,15,0,15,0,Sat Oct 26 21:45:16 2019,The main experiment item,yes,Sternbergtask.osexp,/Users/Linzi/Desktop,no,mono,no,18,no,white,no,yes,768,legacy,3,11,/Users/Linzi/Desktop/LM-subject-4M26.csv,legacy,5 2 9 6 1 7,Kafkaesque Koffka,3.2.8,3,y,0,left,right shift,space,left,NA,579,112592,8842,579,NA,2,legacy,6,1024,2,48000,-16,experiment,4,even,9,225428,221865,5480,204268,223174,NA,5522,195421,227455,228038,223147,224200,118115,227455,NA,Sternberg task,16,11101,16,yes,1024
100,100,677.7647059,677.7647059,black,experiment,legacy,legacy,legacy,0,uniform,1,undefined,1,right,16,16,0,0,16,16,0,0,16,16,16,16,0,16,0,Sat Oct 26 21:45:16 2019,The main experiment item,yes,Sternbergtask.osexp,/Users/Linzi/Desktop,no,mono,no,18,no,white,no,yes,768,legacy,4,11,/Users/Linzi/Desktop/LM-subject-4M26.csv,legacy,7 3 2 8,Kafkaesque Koffka,3.2.8,0,n,0,right,right shift,space,right,NA,421,112592,8842,421,NA,2,legacy,4,1024,2,48000,-16,experiment,4,even,4,231635,228069,5480,204268,229381,NA,5522,195421,233663,234087,229354,230408,118115,233663,NA,Sternberg task,17,11522,17,yes,1024
100,100,676.2222222,676.2222222,black,experiment,legacy,legacy,legacy,0,uniform,1,undefined,1,right,17,17,0,0,17,17,0,0,17,17,17,17,0,17,0,Sat Oct 26 21:45:16 2019,The main experiment item,yes,Sternbergtask.osexp,/Users/Linzi/Desktop,no,mono,no,18,no,white,no,yes,768,legacy,5,11,/Users/Linzi/Desktop/LM-subject-4M26.csv,legacy,3 9 8 1 6 4,Kafkaesque Koffka,3.2.8,0,n,0,right,right shift,space,right,NA,650,112592,8842,650,NA,2,legacy,6,1024,2,48000,-16,experiment,4,even,7,237681,234119,5480,204268,235427,NA,5522,195421,239708,240361,235400,236453,118115,239708,NA,Sternberg task,18,12172,18,yes,1024
100,100,668.6315789,668.6315789,black,experiment,legacy,legacy,legacy,0,uniform,1,undefined,1,right,18,18,0,0,18,18,0,0,18,18,18,18,0,18,0,Sat Oct 26 21:45:16 2019,The main experiment item,yes,Sternbergtask.osexp,/Users/Linzi/Desktop,no,mono,no,18,no,white,no,yes,768,legacy,6,11,/Users/Linzi/Desktop/LM-subject-4M26.csv,legacy,6 2 9 3 8 4,Kafkaesque Koffka,3.2.8,0,n,0,right,right shift,space,right,NA,532,112592,8842,532,NA,2,legacy,6,1024,2,48000,-16,experiment,4,even,1,243957,240393,5480,204268,241703,NA,5522,195421,245991,246527,241675,242729,118115,245990,NA,Sternberg task,19,12704,19,yes,1024
100,100,661.5,661.5,black,experiment,legacy,legacy,legacy,0,uniform,1,undefined,1,right,19,19,0,0,19,19,0,0,19,19,19,19,0,19,0,Sat Oct 26 21:45:16 2019,The main experiment item,yes,Sternbergtask.osexp,/Users/Linzi/Desktop,no,mono,no,18,no,white,no,yes,768,legacy,7,11,/Users/Linzi/Desktop/LM-subject-4M26.csv,legacy,3 9 1,Kafkaesque Koffka,3.2.8,0,n,0,right,right shift,space,right,NA,526,112592,8842,526,NA,2,legacy,3,1024,2,48000,-16,experiment,4,even,7,250120,246560,5480,204268,247865,NA,5522,195421,252147,252676,247839,248893,118115,252147,NA,Sternberg task,20,13230,20,yes,1024
100,100,649.5714286,649.5714286,black,experiment,legacy,legacy,legacy,0,uniform,1,undefined,1,right,20,20,0,0,20,20,0,0,20,20,20,20,0,20,0,Sat Oct 26 21:45:16 2019,The main experiment item,yes,Sternbergtask.osexp,/Users/Linzi/Desktop,no,mono,no,18,no,white,no,yes,768,legacy,8,11,/Users/Linzi/Desktop/LM-subject-4M26.csv,legacy,5,Kafkaesque Koffka,3.2.8,0,n,0,right,right shift,space,right,NA,411,112592,8842,411,NA,2,legacy,1,1024,2,48000,-16,experiment,4,even,8,256265,252708,5480,204268,254012,NA,5522,195421,258293,258708,253985,255039,118115,258292,NA,Sternberg task,21,13641,21,yes,1024
100,100,655.0454545,655.0454545,black,experiment,legacy,legacy,legacy,0,uniform,1,undefined,1,right,21,21,0,0,21,21,0,0,21,21,21,21,0,21,0,Sat Oct 26 21:45:16 2019,The main experiment item,yes,Sternbergtask.osexp,/Users/Linzi/Desktop,no,mono,no,18,no,white,no,yes,768,legacy,9,11,/Users/Linzi/Desktop/LM-subject-4M26.csv,legacy,1 7 5 2,Kafkaesque Koffka,3.2.8,0,n,0,right,right shift,space,right,NA,770,112592,8842,770,NA,2,legacy,4,1024,2,48000,-16,experiment,4,even,3,262299,258740,5480,204268,260046,NA,5522,195421,264327,265101,260019,261073,118115,264326,NA,Sternberg task,22,14411,22,yes,1024
100,100,651.6956522,651.6956522,black,experiment,legacy,legacy,legacy,0,uniform,1,undefined,1,left,22,22,0,0,22,22,0,0,22,22,22,22,0,22,0,Sat Oct 26 21:45:16 2019,The main experiment item,yes,Sternbergtask.osexp,/Users/Linzi/Desktop,no,mono,no,18,no,white,no,yes,768,legacy,10,11,/Users/Linzi/Desktop/LM-subject-4M26.csv,legacy,7 4 2 6 3 5,Kafkaesque Koffka,3.2.8,6,y,0,left,right shift,space,left,NA,578,112592,8842,578,NA,2,legacy,6,1024,2,48000,-16,experiment,4,even,5,268699,265133,5480,204268,266446,NA,5522,195421,270728,271309,266419,267472,118115,270727,NA,Sternberg task,23,14989,23,yes,1024
100,100,641.75,641.75,black,experiment,legacy,legacy,legacy,0,uniform,1,undefined,1,right,23,23,0,0,23,23,0,0,23,23,23,23,0,23,0,Sat Oct 26 21:45:16 2019,The main experiment item,yes,Sternbergtask.osexp,/Users/Linzi/Desktop,no,mono,no,18,no,white,no,yes,768,legacy,11,11,/Users/Linzi/Desktop/LM-subject-4M26.csv,legacy,5 2,Kafkaesque Koffka,3.2.8,0,n,0,right,right shift,space,right,NA,413,112592,8842,413,NA,2,legacy,2,1024,2,48000,-16,experiment,4,even,7,274902,271341,5480,204268,272647,NA,5522,195421,276929,277347,272620,273674,118115,276928,NA,Sternberg task,24,15402,24,yes,1024
100,100,637.96,637.96,black,experiment,legacy,legacy,legacy,0,uniform,1,undefined,1,left,24,24,0,0,24,24,0,0,24,24,24,24,0,24,0,Sat Oct 26 21:45:16 2019,The main experiment item,yes,Sternbergtask.osexp,/Users/Linzi/Desktop,no,mono,no,18,no,white,no,yes,768,legacy,12,11,/Users/Linzi/Desktop/LM-subject-4M26.csv,legacy,5 2 6,Kafkaesque Koffka,3.2.8,2,y,0,left,right shift,space,left,NA,547,112592,8842,547,NA,2,legacy,3,1024,2,48000,-16,experiment,4,even,2,280943,277379,5480,204268,278690,NA,5522,195421,282971,283521,278663,279716,118115,282970,NA,Sternberg task,25,15949,25,yes,1024
100,100,633.2692308,633.2692308,black,experiment,legacy,legacy,legacy,0,uniform,1,undefined,1,right,25,25,0,0,25,25,0,0,25,25,25,25,0,25,0,Sat Oct 26 21:45:16 2019,The main experiment item,yes,Sternbergtask.osexp,/Users/Linzi/Desktop,no,mono,no,18,no,white,no,yes,768,legacy,13,11,/Users/Linzi/Desktop/LM-subject-4M26.csv,legacy,8 6 3 4 7,Kafkaesque Koffka,3.2.8,0,n,0,right,right shift,space,right,NA,516,112592,8842,516,NA,2,legacy,5,1024,2,48000,-16,experiment,4,even,1,287116,283553,5480,204268,284861,NA,5522,195421,289143,289662,284835,285889,118115,289142,NA,Sternberg task,26,16465,26,yes,1024
100,100,629.962963,629.962963,black,experiment,legacy,legacy,legacy,0,uniform,1,undefined,1,right,26,26,0,0,26,26,0,0,26,26,26,26,0,26,0,Sat Oct 26 21:45:16 2019,The main experiment item,yes,Sternbergtask.osexp,/Users/Linzi/Desktop,no,mono,no,18,no,white,no,yes,768,legacy,14,11,/Users/Linzi/Desktop/LM-subject-4M26.csv,legacy,1 6 4 3 9 7,Kafkaesque Koffka,3.2.8,0,n,0,right,right shift,space,right,NA,544,112592,8842,544,NA,2,legacy,6,1024,2,48000,-16,experiment,4,even,8,293259,289694,5480,204268,291006,NA,5522,195421,295287,295834,290980,292033,118115,295287,NA,Sternberg task,27,17009,27,yes,1024
100,100,635.25,635.25,black,experiment,legacy,legacy,legacy,0,uniform,1,undefined,1,left,27,27,0,0,27,27,0,0,27,27,27,27,0,27,0,Sat Oct 26 21:45:16 2019,The main experiment item,yes,Sternbergtask.osexp,/Users/Linzi/Desktop,no,mono,no,18,no,white,no,yes,768,legacy,15,11,/Users/Linzi/Desktop/LM-subject-4M26.csv,legacy,9 1 6 7 8,Kafkaesque Koffka,3.2.8,1,y,0,left,right shift,space,left,NA,778,112592,8842,778,NA,2,legacy,5,1024,2,48000,-16,experiment,4,even,9,299430,295866,5480,204268,297176,NA,5522,195421,301458,302240,297149,298203,118115,301458,NA,Sternberg task,28,17787,28,yes,1024
100,100,633.0689655,633.0689655,black,experiment,legacy,legacy,legacy,0,uniform,1,undefined,1,right,28,28,0,0,28,28,0,0,28,28,28,28,0,28,0,Sat Oct 26 21:45:16 2019,The main experiment item,yes,Sternbergtask.osexp,/Users/Linzi/Desktop,no,mono,no,18,no,white,no,yes,768,legacy,16,11,/Users/Linzi/Desktop/LM-subject-4M26.csv,legacy,8 2 1 4 5 9,Kafkaesque Koffka,3.2.8,0,n,0,right,right shift,space,right,NA,572,112592,8842,572,NA,2,legacy,6,1024,2,48000,-16,experiment,4,even,7,305840,302271,5480,204268,303586,NA,5522,195421,307868,308444,303559,304613,118115,307867,NA,Sternberg task,29,18359,29,yes,1024
100,100,628.0333333,628.0333333,black,experiment,legacy,legacy,legacy,0,uniform,1,undefined,1,left,29,29,0,0,29,29,0,0,29,29,29,29,0,29,0,Sat Oct 26 21:45:16 2019,The main experiment item,yes,Sternbergtask.osexp,/Users/Linzi/Desktop,no,mono,no,18,no,white,no,yes,768,legacy,17,11,/Users/Linzi/Desktop/LM-subject-4M26.csv,legacy,3 5 9 6 2 4,Kafkaesque Koffka,3.2.8,1,y,0,left,right shift,space,left,NA,482,112592,8842,482,NA,2,legacy,6,1024,2,48000,-16,experiment,4,even,3,312039,308476,5480,204268,309786,NA,5522,195421,314067,314553,309759,310813,118115,314067,NA,Sternberg task,30,18841,30,yes,1024
100,100,627.0967742,627.0967742,black,experiment,legacy,legacy,legacy,0,uniform,1,undefined,1,right,30,30,0,0,30,30,0,0,30,30,30,30,0,30,0,Sat Oct 26 21:45:16 2019,The main experiment item,yes,Sternbergtask.osexp,/Users/Linzi/Desktop,no,mono,no,18,no,white,no,yes,768,legacy,18,11,/Users/Linzi/Desktop/LM-subject-4M26.csv,legacy,9 7 4 5 8,Kafkaesque Koffka,3.2.8,0,n,0,right,right shift,space,right,NA,599,112592,8842,599,NA,2,legacy,5,1024,2,48000,-16,experiment,4,even,6,318149,314585,5480,204268,315894,NA,5522,195421,320177,320780,315867,316921,118115,320176,NA,Sternberg task,31,19440,31,yes,1024
100,100,626.8125,626.8125,black,experiment,legacy,legacy,legacy,0,uniform,1,undefined,1,left,31,31,0,0,31,31,0,0,31,31,31,31,0,31,0,Sat Oct 26 21:45:16 2019,The main experiment item,yes,Sternbergtask.osexp,/Users/Linzi/Desktop,no,mono,no,18,no,white,no,yes,768,legacy,19,11,/Users/Linzi/Desktop/LM-subject-4M26.csv,legacy,2 4 8 5 1 3,Kafkaesque Koffka,3.2.8,1,y,0,left,right shift,space,left,NA,618,112592,8842,618,NA,2,legacy,6,1024,2,48000,-16,experiment,4,even,2,324374,320812,5480,204268,322120,NA,5522,195421,326402,327024,322093,323148,118115,326401,NA,Sternberg task,32,20058,32,yes,1024
100,100,629.8787879,629.8787879,black,experiment,legacy,legacy,legacy,0,uniform,1,undefined,1,right,32,32,0,0,32,32,0,0,32,32,32,32,0,32,0,Sat Oct 26 21:45:16 2019,The main experiment item,yes,Sternbergtask.osexp,/Users/Linzi/Desktop,no,mono,no,18,no,white,no,yes,768,legacy,20,11,/Users/Linzi/Desktop/LM-subject-4M26.csv,legacy,8 4 3 9,Kafkaesque Koffka,3.2.8,0,n,0,right,right shift,space,right,NA,728,112592,8842,728,NA,2,legacy,4,1024,2,48000,-16,experiment,4,even,5,330620,327056,5480,204268,328366,NA,5522,195421,332648,333379,328338,329392,118115,332647,NA,Sternberg task,33,20786,33,yes,1024
100,100,627.6470588,627.6470588,black,experiment,legacy,legacy,legacy,0,uniform,1,undefined,1,left,33,33,0,0,33,33,0,0,33,33,33,33,0,33,0,Sat Oct 26 21:45:16 2019,The main experiment item,yes,Sternbergtask.osexp,/Users/Linzi/Desktop,no,mono,no,18,no,white,no,yes,768,legacy,21,11,/Users/Linzi/Desktop/LM-subject-4M26.csv,legacy,7 8 6 3 1,Kafkaesque Koffka,3.2.8,5,y,0,left,right shift,space,left,NA,554,112592,8842,554,NA,2,legacy,5,1024,2,48000,-16,experiment,4,even,1,336970,333411,5480,204268,334718,NA,5522,195421,338997,339555,334691,335744,118115,338996,NA,Sternberg task,34,21340,34,yes,1024
100,100,624.7714286,624.7714286,black,experiment,legacy,legacy,legacy,0,uniform,1,undefined,1,left,34,34,0,0,34,34,0,0,34,34,34,34,0,34,0,Sat Oct 26 21:45:16 2019,The main experiment item,yes,Sternbergtask.osexp,/Users/Linzi/Desktop,no,mono,no,18,no,white,no,yes,768,legacy,22,11,/Users/Linzi/Desktop/LM-subject-4M26.csv,legacy,8 5 3 7 4 6,Kafkaesque Koffka,3.2.8,6,y,0,left,right shift,space,left,NA,527,112592,8842,527,NA,2,legacy,6,1024,2,48000,-16,experiment,4,even,6,343153,339586,5480,204268,340900,NA,5522,195421,345181,345712,340873,341927,118115,345181,NA,Sternberg task,35,21867,35,yes,1024
100,100,619.5555556,619.5555556,black,experiment,legacy,legacy,legacy,0,uniform,1,undefined,1,left,35,35,0,0,35,35,0,0,35,35,35,35,0,35,0,Sat Oct 26 21:45:16 2019,The main experiment item,yes,Sternbergtask.osexp,/Users/Linzi/Desktop,no,mono,no,18,no,white,no,yes,768,legacy,23,11,/Users/Linzi/Desktop/LM-subject-4M26.csv,legacy,4 9 7 8 5 3,Kafkaesque Koffka,3.2.8,4,y,0,left,right shift,space,left,NA,437,112592,8842,437,NA,2,legacy,6,1024,2,48000,-16,experiment,4,even,8,349306,345744,5480,204268,347052,NA,5522,195421,351333,351774,347025,348079,118115,351332,NA,Sternberg task,36,22304,36,yes,1024
100,100,620.4864865,620.4864865,black,experiment,legacy,legacy,legacy,0,uniform,1,undefined,1,right,36,36,0,0,36,36,0,0,36,36,36,36,0,36,0,Sat Oct 26 21:45:16 2019,The main experiment item,yes,Sternbergtask.osexp,/Users/Linzi/Desktop,no,mono,no,18,no,white,no,yes,768,legacy,24,11,/Users/Linzi/Desktop/LM-subject-4M26.csv,legacy,7 9 1 6,Kafkaesque Koffka,3.2.8,0,n,0,right,right shift,space,right,NA,654,112592,8842,654,NA,2,legacy,4,1024,2,48000,-16,experiment,4,even,4,355372,351806,5480,204268,353118,NA,5522,195421,357401,358059,353090,354145,118115,357400,NA,Sternberg task,37,22958,37,yes,1024
100,100,618.4736842,618.4736842,black,experiment,legacy,legacy,legacy,0,uniform,1,undefined,1,left,37,37,0,0,37,37,0,0,37,37,37,37,0,37,0,Sat Oct 26 21:45:16 2019,The main experiment item,yes,Sternbergtask.osexp,/Users/Linzi/Desktop,no,mono,no,18,no,white,no,yes,768,legacy,25,11,/Users/Linzi/Desktop/LM-subject-4M26.csv,legacy,2 8 5 1,Kafkaesque Koffka,3.2.8,4,y,0,left,right shift,space,left,NA,544,112592,8842,544,NA,2,legacy,4,1024,2,48000,-16,experiment,4,even,1,361652,358090,5480,204268,359398,NA,5522,195421,363679,364227,359371,360425,118115,363679,NA,Sternberg task,38,23502,38,yes,1024
100,100,620.2564103,620.2564103,black,experiment,legacy,legacy,legacy,0,uniform,1,undefined,1,left,38,38,0,0,38,38,0,0,38,38,38,38,0,38,0,Sat Oct 26 21:45:16 2019,The main experiment item,yes,Sternbergtask.osexp,/Users/Linzi/Desktop,no,mono,no,18,no,white,no,yes,768,legacy,26,11,/Users/Linzi/Desktop/LM-subject-4M26.csv,legacy,8,Kafkaesque Koffka,3.2.8,1,y,0,left,right shift,space,left,NA,688,112592,8842,688,NA,2,legacy,1,1024,2,48000,-16,experiment,4,even,8,367819,364259,5480,204268,365564,NA,5522,195421,369847,370539,365537,366592,118115,369847,NA,Sternberg task,39,24190,39,yes,1024
100,100,620.375,620.375,black,experiment,legacy,legacy,legacy,0,uniform,1,undefined,1,right,39,39,0,0,39,39,0,0,39,39,39,39,0,39,0,Sat Oct 26 21:45:16 2019,The main experiment item,yes,Sternbergtask.osexp,/Users/Linzi/Desktop,no,mono,no,18,no,white,no,yes,768,legacy,27,11,/Users/Linzi/Desktop/LM-subject-4M26.csv,legacy,8 5 4 2 9 6,Kafkaesque Koffka,3.2.8,0,n,0,right,right shift,space,right,NA,625,112592,8842,625,NA,2,legacy,6,1024,2,48000,-16,experiment,4,even,3,374136,370572,5480,204268,371882,NA,5522,195421,376164,376793,371855,372909,118115,376163,NA,Sternberg task,40,24815,40,yes,1024
100,100,615.7317073,615.7317073,black,experiment,legacy,legacy,legacy,0,uniform,1,undefined,1,left,40,40,0,0,40,40,0,0,40,40,40,40,0,40,0,Sat Oct 26 21:45:16 2019,The main experiment item,yes,Sternbergtask.osexp,/Users/Linzi/Desktop,no,mono,no,18,no,white,no,yes,768,legacy,28,11,/Users/Linzi/Desktop/LM-subject-4M26.csv,legacy,8 3,Kafkaesque Koffka,3.2.8,2,y,0,left,right shift,space,left,NA,430,112592,8842,430,NA,2,legacy,2,1024,2,48000,-16,experiment,4,even,3,380383,376825,5480,204268,378130,NA,5522,195421,382412,382846,378103,379156,118115,382412,NA,Sternberg task,41,25245,41,yes,1024
100,100,612.3333333,612.3333333,black,experiment,legacy,legacy,legacy,0,uniform,1,undefined,1,left,41,41,0,0,41,41,0,0,41,41,41,41,0,41,0,Sat Oct 26 21:45:16 2019,The main experiment item,yes,Sternbergtask.osexp,/Users/Linzi/Desktop,no,mono,no,18,no,white,no,yes,768,legacy,29,11,/Users/Linzi/Desktop/LM-subject-4M26.csv,legacy,6 9 3 1,Kafkaesque Koffka,3.2.8,4,y,0,left,right shift,space,left,NA,473,112592,8842,473,NA,2,legacy,4,1024,2,48000,-16,experiment,4,even,1,386441,382878,5480,204268,384186,NA,5522,195421,388469,388946,384159,385214,118115,388468,NA,Sternberg task,42,25718,42,yes,1024
100,100,614.8139535,614.8139535,black,experiment,legacy,legacy,legacy,0,uniform,1,undefined,1,left,42,42,0,0,42,42,0,0,42,42,42,42,0,42,0,Sat Oct 26 21:45:16 2019,The main experiment item,yes,Sternbergtask.osexp,/Users/Linzi/Desktop,no,mono,no,18,no,white,no,yes,768,legacy,30,11,/Users/Linzi/Desktop/LM-subject-4M26.csv,legacy,6 7 9 3 1 2,Kafkaesque Koffka,3.2.8,1,y,0,left,right shift,space,left,NA,719,112592,8842,719,NA,2,legacy,6,1024,2,48000,-16,experiment,4,even,6,392542,388978,5480,204268,390288,NA,5522,195421,394570,395293,390261,391315,118115,394570,NA,Sternberg task,43,26437,43,yes,1024
100,100,609.7727273,609.7727273,black,experiment,legacy,legacy,legacy,0,uniform,1,undefined,1,left,43,43,0,0,43,43,0,0,43,43,43,43,0,43,0,Sat Oct 26 21:45:16 2019,The main experiment item,yes,Sternbergtask.osexp,/Users/Linzi/Desktop,no,mono,no,18,no,white,no,yes,768,legacy,31,11,/Users/Linzi/Desktop/LM-subject-4M26.csv,legacy,4 7 6 8 2 3,Kafkaesque Koffka,3.2.8,6,y,0,left,right shift,space,left,NA,393,112592,8842,393,NA,2,legacy,6,1024,2,48000,-16,experiment,4,even,3,398886,395325,5480,204268,396633,NA,5522,195421,400914,401311,396606,397660,118115,400913,NA,Sternberg task,44,26830,44,yes,1024
100,100,607.6444444,607.6444444,black,experiment,legacy,legacy,legacy,0,uniform,1,undefined,1,left,44,44,0,0,44,44,0,0,44,44,44,44,0,44,0,Sat Oct 26 21:45:16 2019,The main experiment item,yes,Sternbergtask.osexp,/Users/Linzi/Desktop,no,mono,no,18,no,white,no,yes,768,legacy,32,11,/Users/Linzi/Desktop/LM-subject-4M26.csv,legacy,4,Kafkaesque Koffka,3.2.8,1,y,0,left,right shift,space,left,NA,514,112592,8842,514,NA,2,legacy,1,1024,2,48000,-16,experiment,4,even,4,404909,401344,5480,204268,402654,NA,5522,195421,406937,407456,402627,403681,118115,406937,NA,Sternberg task,45,27344,45,yes,1024
100,100,607.673913,607.673913,black,experiment,legacy,legacy,legacy,0,uniform,1,undefined,1,right,45,45,0,0,45,45,0,0,45,45,45,45,0,45,0,Sat Oct 26 21:45:16 2019,The main experiment item,yes,Sternbergtask.osexp,/Users/Linzi/Desktop,no,mono,no,18,no,white,no,yes,768,legacy,33,11,/Users/Linzi/Desktop/LM-subject-4M26.csv,legacy,1 4 9 3,Kafkaesque Koffka,3.2.8,0,n,0,right,right shift,space,right,NA,609,112592,8842,609,NA,2,legacy,4,1024,2,48000,-16,experiment,4,even,5,411052,407488,5480,204268,408799,NA,5522,195421,413079,413692,408772,409825,118115,413078,NA,Sternberg task,46,27953,46,yes,1024
100,100,607.3404255,607.3404255,black,experiment,legacy,legacy,legacy,0,uniform,1,undefined,1,right,46,46,0,0,46,46,0,0,46,46,46,46,0,46,0,Sat Oct 26 21:45:16 2019,The main experiment item,yes,Sternbergtask.osexp,/Users/Linzi/Desktop,no,mono,no,18,no,white,no,yes,768,legacy,34,11,/Users/Linzi/Desktop/LM-subject-4M26.csv,legacy,6 9 4 5 3 2,Kafkaesque Koffka,3.2.8,0,n,0,right,right shift,space,right,NA,592,112592,8842,592,NA,2,legacy,6,1024,2,48000,-16,experiment,4,even,8,417288,413724,5480,204268,415033,NA,5522,195421,419316,419913,415006,416061,118115,419316,NA,Sternberg task,47,28545,47,yes,1024
100,100,604.1041667,604.1041667,black,experiment,legacy,legacy,legacy,0,uniform,1,undefined,1,left,47,47,0,0,47,47,0,0,47,47,47,47,0,47,0,Sat Oct 26 21:45:16 2019,The main experiment item,yes,Sternbergtask.osexp,/Users/Linzi/Desktop,no,mono,no,18,no,white,no,yes,768,legacy,35,11,/Users/Linzi/Desktop/LM-subject-4M26.csv,legacy,9 8 4,Kafkaesque Koffka,3.2.8,1,y,0,left,right shift,space,left,NA,452,112592,8842,452,NA,2,legacy,3,1024,2,48000,-16,experiment,4,even,9,423504,419945,5480,204268,421250,NA,5522,195421,425531,425988,421223,422276,118115,425530,NA,Sternberg task,48,28997,48,yes,1024
100,100,610.8571429,610.8571429,black,experiment,legacy,legacy,legacy,0,uniform,1,undefined,1,right,48,48,0,0,48,48,0,0,48,48,48,48,0,48,0,Sat Oct 26 21:45:16 2019,The main experiment item,yes,Sternbergtask.osexp,/Users/Linzi/Desktop,no,mono,no,18,no,white,no,yes,768,legacy,36,11,/Users/Linzi/Desktop/LM-subject-4M26.csv,legacy,5 3 8 7 2 4,Kafkaesque Koffka,3.2.8,0,n,0,right,right shift,space,right,NA,935,112592,8842,935,NA,2,legacy,6,1024,2,48000,-16,experiment,4,even,9,429582,426019,5480,204268,427328,NA,5522,195421,431611,432550,427301,428356,118115,431611,NA,Sternberg task,49,29932,49,yes,1024
100,100,607.5,607.5,black,experiment,legacy,legacy,legacy,0,uniform,1,undefined,1,left,49,49,0,0,49,49,0,0,49,49,49,49,0,49,0,Sat Oct 26 21:45:16 2019,The main experiment item,yes,Sternbergtask.osexp,/Users/Linzi/Desktop,no,mono,no,18,no,white,no,yes,768,legacy,37,11,/Users/Linzi/Desktop/LM-subject-4M26.csv,legacy,2 3 7 4,Kafkaesque Koffka,3.2.8,1,y,0,left,right shift,space,left,NA,443,112592,8842,443,NA,2,legacy,4,1024,2,48000,-16,experiment,4,even,2,436143,432582,5480,204268,433890,NA,5522,195421,438170,438617,433863,434917,118115,438170,NA,Sternberg task,50,30375,50,yes,1024
100,100,605.7647059,605.7647059,black,experiment,legacy,legacy,legacy,0,uniform,1,undefined,1,left,50,50,0,0,50,50,0,0,50,50,50,50,0,50,0,Sat Oct 26 21:45:16 2019,The main experiment item,yes,Sternbergtask.osexp,/Users/Linzi/Desktop,no,mono,no,18,no,white,no,yes,768,legacy,38,11,/Users/Linzi/Desktop/LM-subject-4M26.csv,legacy,3 9 6 2,Kafkaesque Koffka,3.2.8,4,y,0,left,right shift,space,left,NA,519,112592,8842,519,NA,2,legacy,4,1024,2,48000,-16,experiment,4,even,2,442213,438648,5480,204268,439959,NA,5522,195421,444241,444765,439932,440986,118115,444241,NA,Sternberg task,51,30894,51,yes,1024
100,100,609.6153846,609.6153846,black,experiment,legacy,legacy,legacy,0,uniform,1,undefined,1,right,51,51,0,0,51,51,0,0,51,51,51,51,0,51,0,Sat Oct 26 21:45:16 2019,The main experiment item,yes,Sternbergtask.osexp,/Users/Linzi/Desktop,no,mono,no,18,no,white,no,yes,768,legacy,39,11,/Users/Linzi/Desktop/LM-subject-4M26.csv,legacy,2 8 9 4 1,Kafkaesque Koffka,3.2.8,0,n,0,right,right shift,space,right,NA,806,112592,8842,806,NA,2,legacy,5,1024,2,48000,-16,experiment,4,even,5,448360,444797,5480,204268,446105,NA,5522,195421,450387,451197,446078,447131,118115,450387,NA,Sternberg task,52,31700,52,yes,1024
100,100,618.1886792,618.1886792,black,experiment,legacy,legacy,legacy,0,uniform,1,undefined,1,left,52,52,0,0,52,52,0,0,52,52,52,52,0,52,0,Sat Oct 26 21:45:16 2019,The main experiment item,yes,Sternbergtask.osexp,/Users/Linzi/Desktop,no,mono,no,18,no,white,no,yes,768,legacy,40,11,/Users/Linzi/Desktop/LM-subject-4M26.csv,legacy,6 5,Kafkaesque Koffka,3.2.8,2,y,0,left,right shift,space,left,NA,1064,112592,8842,1064,NA,2,legacy,2,1024,2,48000,-16,experiment,4,even,5,454790,451229,5480,204268,452536,NA,5522,195421,456818,457887,452509,453563,118115,456818,NA,Sternberg task,53,32764,53,yes,1024
100,100,617.9259259,617.9259259,black,experiment,legacy,legacy,legacy,0,uniform,1,undefined,1,right,53,53,0,0,53,53,0,0,53,53,53,53,0,53,0,Sat Oct 26 21:45:16 2019,The main experiment item,yes,Sternbergtask.osexp,/Users/Linzi/Desktop,no,mono,no,18,no,white,no,yes,768,legacy,41,11,/Users/Linzi/Desktop/LM-subject-4M26.csv,legacy,1 6 4,Kafkaesque Koffka,3.2.8,0,n,0,right,right shift,space,right,NA,604,112592,8842,604,NA,2,legacy,3,1024,2,48000,-16,experiment,4,even,7,461480,457919,5480,204268,459226,NA,5522,195421,463507,464116,459199,460253,118115,463507,NA,Sternberg task,54,33368,54,yes,1024
100,100,616.3818182,616.3818182,black,experiment,legacy,legacy,legacy,0,uniform,1,undefined,1,right,54,54,0,0,54,54,0,0,54,54,54,54,0,54,0,Sat Oct 26 21:45:16 2019,The main experiment item,yes,Sternbergtask.osexp,/Users/Linzi/Desktop,no,mono,no,18,no,white,no,yes,768,legacy,42,11,/Users/Linzi/Desktop/LM-subject-4M26.csv,legacy,7 1 5 6 3,Kafkaesque Koffka,3.2.8,0,n,0,right,right shift,space,right,NA,533,112592,8842,533,NA,2,legacy,5,1024,2,48000,-16,experiment,4,even,8,467712,464147,5480,204268,465457,NA,5522,195421,469740,470277,465431,466484,118115,469740,NA,Sternberg task,55,33901,55,yes,1024
100,100,615.1785714,615.1785714,black,experiment,legacy,legacy,legacy,0,uniform,1,undefined,1,right,55,55,0,0,55,55,0,0,55,55,55,55,0,55,0,Sat Oct 26 21:45:16 2019,The main experiment item,yes,Sternbergtask.osexp,/Users/Linzi/Desktop,no,mono,no,18,no,white,no,yes,768,legacy,43,11,/Users/Linzi/Desktop/LM-subject-4M26.csv,legacy,6 9 4 5 2,Kafkaesque Koffka,3.2.8,0,n,0,right,right shift,space,right,NA,549,112592,8842,549,NA,2,legacy,5,1024,2,48000,-16,experiment,4,even,1,473874,470309,5480,204268,471621,NA,5522,195421,475902,476455,471594,472648,118115,475902,NA,Sternberg task,56,34450,56,yes,1024
100,100,612.5087719,612.5087719,black,experiment,legacy,legacy,legacy,0,uniform,1,undefined,1,left,56,56,0,0,56,56,0,0,56,56,56,56,0,56,0,Sat Oct 26 21:45:16 2019,The main experiment item,yes,Sternbergtask.osexp,/Users/Linzi/Desktop,no,mono,no,18,no,white,no,yes,768,legacy,44,11,/Users/Linzi/Desktop/LM-subject-4M26.csv,legacy,8 5 1 3 9,Kafkaesque Koffka,3.2.8,4,y,0,left,right shift,space,left,NA,463,112592,8842,463,NA,2,legacy,5,1024,2,48000,-16,experiment,4,even,3,480052,476487,5480,204268,477798,NA,5522,195421,482080,482548,477771,478826,118115,482079,NA,Sternberg task,57,34913,57,yes,1024
100,100,611.0517241,611.0517241,black,experiment,legacy,legacy,legacy,0,uniform,1,undefined,1,left,57,57,0,0,57,57,0,0,57,57,57,57,0,57,0,Sat Oct 26 21:45:16 2019,The main experiment item,yes,Sternbergtask.osexp,/Users/Linzi/Desktop,no,mono,no,18,no,white,no,yes,768,legacy,45,11,/Users/Linzi/Desktop/LM-subject-4M26.csv,legacy,9 6 2 4 1,Kafkaesque Koffka,3.2.8,4,y,0,left,right shift,space,left,NA,528,112592,8842,528,NA,2,legacy,5,1024,2,48000,-16,experiment,4,even,4,486143,482579,5480,204268,483889,NA,5522,195421,488170,488703,483862,484915,118115,488170,NA,Sternberg task,58,35441,58,yes,1024
98.30508475,98.30508475,608.779661,608.779661,black,experiment,legacy,legacy,legacy,0,uniform,0,undefined,0,right,58,58,0,0,58,58,0,0,58,58,58,58,0,58,0,Sat Oct 26 21:45:16 2019,The main experiment item,yes,Sternbergtask.osexp,/Users/Linzi/Desktop,no,mono,no,18,no,white,no,yes,768,legacy,46,11,/Users/Linzi/Desktop/LM-subject-4M26.csv,legacy,6 3 1 7 9 8,Kafkaesque Koffka,3.2.8,0,n,0,left,right shift,space,left,NA,477,112592,8842,477,NA,2,legacy,6,1024,2,48000,-16,experiment,4,even,4,492298,488736,5480,204268,490045,NA,5522,195421,494327,494809,490019,491071,118115,494327,NA,Sternberg task,58,35918,59,yes,1024
98.33333333,98.33333333,611.0333333,611.0333333,black,experiment,legacy,legacy,legacy,0,uniform,1,undefined,1,right,59,59,0,0,59,59,0,0,59,59,59,59,0,59,0,Sat Oct 26 21:45:16 2019,The main experiment item,yes,Sternbergtask.osexp,/Users/Linzi/Desktop,no,mono,no,18,no,white,no,yes,768,legacy,47,11,/Users/Linzi/Desktop/LM-subject-4M26.csv,legacy,5 3 2 6 9 8,Kafkaesque Koffka,3.2.8,0,n,0,right,right shift,space,right,NA,744,112592,8842,744,NA,2,legacy,6,1024,2,48000,-16,experiment,4,even,4,498405,488736,5480,204268,496151,494840,5522,195421,500432,501180,496124,497178,118115,500431,NA,Sternberg task,59,36662,60,yes,1024
98.36065574,98.36065574,611.1803279,611.1803279,black,experiment,legacy,legacy,legacy,0,uniform,1,undefined,1,right,60,60,0,0,60,60,0,0,60,60,60,60,0,60,0,Sat Oct 26 21:45:16 2019,The main experiment item,yes,Sternbergtask.osexp,/Users/Linzi/Desktop,no,mono,no,18,no,white,no,yes,768,legacy,48,11,/Users/Linzi/Desktop/LM-subject-4M26.csv,legacy,4 8 1 2,Kafkaesque Koffka,3.2.8,0,n,0,right,right shift,space,right,NA,620,112592,8842,620,NA,2,legacy,4,1024,2,48000,-16,experiment,4,even,7,504777,501212,5480,204268,502523,494840,5522,195421,506805,507430,502495,503550,118115,506804,NA,Sternberg task,60,37282,61,yes,1024
96.77419355,96.77419355,609.8548387,609.8548387,black,experiment,legacy,legacy,legacy,0,uniform,0,undefined,0,left,61,61,0,0,61,61,0,0,61,61,61,61,0,61,0,Sat Oct 26 21:45:16 2019,The main experiment item,yes,Sternbergtask.osexp,/Users/Linzi/Desktop,no,mono,no,18,no,white,no,yes,768,legacy,49,11,/Users/Linzi/Desktop/LM-subject-4M26.csv,legacy,7 1 8 5 6 2,Kafkaesque Koffka,3.2.8,2,y,0,right,right shift,space,right,NA,529,112592,8842,529,NA,2,legacy,6,1024,2,48000,-16,experiment,4,even,1,511023,507461,5480,204268,508771,494840,5522,195421,513050,513584,508744,509797,118115,513049,NA,Sternberg task,60,37811,62,yes,1024
96.82539683,96.82539683,609.9365079,609.9365079,black,experiment,legacy,legacy,legacy,0,uniform,1,undefined,1,left,62,62,0,0,62,62,0,0,62,62,62,62,0,62,0,Sat Oct 26 21:45:16 2019,The main experiment item,yes,Sternbergtask.osexp,/Users/Linzi/Desktop,no,mono,no,18,no,white,no,yes,768,legacy,50,11,/Users/Linzi/Desktop/LM-subject-4M26.csv,legacy,9 5 8 1,Kafkaesque Koffka,3.2.8,2,y,0,left,right shift,space,left,NA,615,112592,8842,615,NA,2,legacy,4,1024,2,48000,-16,experiment,4,even,5,517177,507461,5480,204268,514923,513615,5522,195421,519204,519824,514896,515950,118115,519204,NA,Sternberg task,61,38426,63,yes,1024
96.875,96.875,612.28125,612.28125,black,experiment,legacy,legacy,legacy,0,uniform,1,undefined,1,right,63,63,0,0,63,63,0,0,63,63,63,63,0,63,0,Sat Oct 26 21:45:16 2019,The main experiment item,yes,Sternbergtask.osexp,/Users/Linzi/Desktop,no,mono,no,18,no,white,no,yes,768,legacy,51,11,/Users/Linzi/Desktop/LM-subject-4M26.csv,legacy,2 3 8 5 6 7,Kafkaesque Koffka,3.2.8,0,n,0,right,right shift,space,right,NA,760,112592,8842,760,NA,2,legacy,6,1024,2,48000,-16,experiment,4,even,1,523420,519856,5480,204268,521166,513615,5522,195421,525447,526212,521139,522193,118115,525447,NA,Sternberg task,62,39186,64,yes,1024
96.92307692,96.92307692,613.8769231,613.8769231,black,experiment,legacy,legacy,legacy,0,uniform,1,undefined,1,left,64,64,0,0,64,64,0,0,64,64,64,64,0,64,0,Sat Oct 26 21:45:16 2019,The main experiment item,yes,Sternbergtask.osexp,/Users/Linzi/Desktop,no,mono,no,18,no,white,no,yes,768,legacy,52,11,/Users/Linzi/Desktop/LM-subject-4M26.csv,legacy,6 7 8 5,Kafkaesque Koffka,3.2.8,3,y,0,left,right shift,space,left,NA,716,112592,8842,716,NA,2,legacy,4,1024,2,48000,-16,experiment,4,even,8,529805,526244,5480,204268,527552,513615,5522,195421,531834,532555,527525,528579,118115,531833,NA,Sternberg task,63,39902,65,yes,1024
96.96969697,96.96969697,612.7121212,612.7121212,black,experiment,legacy,legacy,legacy,0,uniform,1,undefined,1,left,65,65,0,0,65,65,0,0,65,65,65,65,0,65,0,Sat Oct 26 21:45:16 2019,The main experiment item,yes,Sternbergtask.osexp,/Users/Linzi/Desktop,no,mono,no,18,no,white,no,yes,768,legacy,53,11,/Users/Linzi/Desktop/LM-subject-4M26.csv,legacy,4 6 5 8,Kafkaesque Koffka,3.2.8,1,y,0,left,right shift,space,left,NA,537,112592,8842,537,NA,2,legacy,4,1024,2,48000,-16,experiment,4,even,4,536150,532586,5480,204268,533897,513615,5522,195421,538177,538719,533870,534923,118115,538177,NA,Sternberg task,64,40439,66,yes,1024
97.01492537,97.01492537,611.2985075,611.2985075,black,experiment,legacy,legacy,legacy,0,uniform,1,undefined,1,left,66,66,0,0,66,66,0,0,66,66,66,66,0,66,0,Sat Oct 26 21:45:16 2019,The main experiment item,yes,Sternbergtask.osexp,/Users/Linzi/Desktop,no,mono,no,18,no,white,no,yes,768,legacy,54,11,/Users/Linzi/Desktop/LM-subject-4M26.csv,legacy,7 2 3,Kafkaesque Koffka,3.2.8,3,y,0,left,right shift,space,left,NA,518,112592,8842,518,NA,2,legacy,3,1024,2,48000,-16,experiment,4,even,3,542311,538750,5480,204268,540056,513615,5522,195421,544339,544862,540030,541083,118115,544339,NA,Sternberg task,65,40957,67,yes,1024
97.05882353,97.05882353,611.7647059,611.7647059,black,experiment,legacy,legacy,legacy,0,uniform,1,undefined,1,left,67,67,0,0,67,67,0,0,67,67,67,67,0,67,0,Sat Oct 26 21:45:16 2019,The main experiment item,yes,Sternbergtask.osexp,/Users/Linzi/Desktop,no,mono,no,18,no,white,no,yes,768,legacy,55,11,/Users/Linzi/Desktop/LM-subject-4M26.csv,legacy,5 7 8 2 3 8,Kafkaesque Koffka,3.2.8,5,y,0,left,right shift,space,left,NA,643,112592,8842,643,NA,2,legacy,6,1024,2,48000,-16,experiment,4,even,3,548459,544893,5480,204268,546205,513615,5522,195421,550486,551133,546178,547232,118115,550485,NA,Sternberg task,66,41600,68,yes,1024
97.10144928,97.10144928,608.9710145,608.9710145,black,experiment,legacy,legacy,legacy,0,uniform,1,undefined,1,left,68,68,0,0,68,68,0,0,68,68,68,68,0,68,0,Sat Oct 26 21:45:16 2019,The main experiment item,yes,Sternbergtask.osexp,/Users/Linzi/Desktop,no,mono,no,18,no,white,no,yes,768,legacy,56,11,/Users/Linzi/Desktop/LM-subject-4M26.csv,legacy,8 9 6 1,Kafkaesque Koffka,3.2.8,2,y,0,left,right shift,space,left,NA,419,112592,8842,419,NA,2,legacy,4,1024,2,48000,-16,experiment,4,even,9,554731,551166,5480,204268,552476,513615,5522,195421,556759,557183,552450,553504,118115,556759,NA,Sternberg task,67,42019,69,yes,1024
97.14285714,97.14285714,609.5714286,609.5714286,black,experiment,legacy,legacy,legacy,0,uniform,1,undefined,1,left,69,69,0,0,69,69,0,0,69,69,69,69,0,69,0,Sat Oct 26 21:45:16 2019,The main experiment item,yes,Sternbergtask.osexp,/Users/Linzi/Desktop,no,mono,no,18,no,white,no,yes,768,legacy,57,11,/Users/Linzi/Desktop/LM-subject-4M26.csv,legacy,9 1 7 2,Kafkaesque Koffka,3.2.8,2,y,0,left,right shift,space,left,NA,651,112592,8842,651,NA,2,legacy,4,1024,2,48000,-16,experiment,4,even,1,560776,557214,5480,204268,558523,513615,5522,195421,562804,563460,558496,559550,118115,562804,NA,Sternberg task,68,42670,70,yes,1024
97.18309859,97.18309859,608.1549296,608.1549296,black,experiment,legacy,legacy,legacy,0,uniform,1,undefined,1,left,70,70,0,0,70,70,0,0,70,70,70,70,0,70,0,Sat Oct 26 21:45:16 2019,The main experiment item,yes,Sternbergtask.osexp,/Users/Linzi/Desktop,no,mono,no,18,no,white,no,yes,768,legacy,58,11,/Users/Linzi/Desktop/LM-subject-4M26.csv,legacy,8 9 5 6 7,Kafkaesque Koffka,3.2.8,1,y,0,left,right shift,space,left,NA,509,112592,8842,509,NA,2,legacy,5,1024,2,48000,-16,experiment,4,even,8,567055,563492,5480,204268,564801,513615,5522,195421,569083,569597,564773,565827,118115,569082,NA,Sternberg task,69,43179,71,yes,1024
97.22222222,97.22222222,610.8055556,610.8055556,black,experiment,legacy,legacy,legacy,0,uniform,1,undefined,1,left,71,71,0,0,71,71,0,0,71,71,71,71,0,71,0,Sat Oct 26 21:45:16 2019,The main experiment item,yes,Sternbergtask.osexp,/Users/Linzi/Desktop,no,mono,no,18,no,white,no,yes,768,legacy,59,11,/Users/Linzi/Desktop/LM-subject-4M26.csv,legacy,4 1 5,Kafkaesque Koffka,3.2.8,2,y,0,left,right shift,space,left,NA,799,112592,8842,799,NA,2,legacy,3,1024,2,48000,-16,experiment,4,even,1,573188,569628,5480,204268,570935,513615,5522,195421,575215,576020,570908,571962,118115,575215,NA,Sternberg task,70,43978,72,yes,1024
97.26027397,97.26027397,611.1369863,611.1369863,black,experiment,legacy,legacy,legacy,0,uniform,1,undefined,1,right,72,72,0,0,72,72,0,0,72,72,72,72,0,72,0,Sat Oct 26 21:45:16 2019,The main experiment item,yes,Sternbergtask.osexp,/Users/Linzi/Desktop,no,mono,no,18,no,white,no,yes,768,legacy,60,11,/Users/Linzi/Desktop/LM-subject-4M26.csv,legacy,1 3 2 6 9,Kafkaesque Koffka,3.2.8,0,n,0,right,right shift,space,right,NA,635,112592,8842,635,NA,2,legacy,5,1024,2,48000,-16,experiment,4,even,5,579618,576051,5480,204268,577361,513615,5522,195421,581646,582286,577333,578391,118115,581645,NA,Sternberg task,71,44613,73,yes,1024
97.2972973,97.2972973,611.7972973,611.7972973,black,experiment,legacy,legacy,legacy,0,uniform,1,undefined,1,right,73,73,0,0,73,73,0,0,73,73,73,73,0,73,0,Sat Oct 26 21:45:16 2019,The main experiment item,yes,Sternbergtask.osexp,/Users/Linzi/Desktop,no,mono,no,18,no,white,no,yes,768,legacy,61,11,/Users/Linzi/Desktop/LM-subject-4M26.csv,legacy,2 8 9,Kafkaesque Koffka,3.2.8,0,n,0,right,right shift,space,right,NA,660,112592,8842,660,NA,2,legacy,3,1024,2,48000,-16,experiment,4,even,6,585879,582319,5480,204268,583626,513615,5522,195421,587907,588572,583599,584653,118115,587906,NA,Sternberg task,72,45273,74,yes,1024
96,96,617.9066667,617.9066667,black,experiment,legacy,legacy,legacy,0,uniform,0,undefined,0,right,74,74,0,0,74,74,0,0,74,74,74,74,0,74,0,Sat Oct 26 21:45:16 2019,The main experiment item,yes,Sternbergtask.osexp,/Users/Linzi/Desktop,no,mono,no,18,no,white,no,yes,768,legacy,62,11,/Users/Linzi/Desktop/LM-subject-4M26.csv,legacy,5 9 2 3,Kafkaesque Koffka,3.2.8,0,n,0,left,right shift,space,left,NA,1070,112592,8842,1070,NA,2,legacy,4,1024,2,48000,-16,experiment,4,even,8,592165,588604,5480,204268,589911,513615,5522,195421,594193,595268,589884,590938,118115,594193,NA,Sternberg task,72,46343,75,yes,1024
96.05263158,96.05263158,617.3421053,617.3421053,black,experiment,legacy,legacy,legacy,0,uniform,1,undefined,1,left,75,75,0,0,75,75,0,0,75,75,75,75,0,75,0,Sat Oct 26 21:45:16 2019,The main experiment item,yes,Sternbergtask.osexp,/Users/Linzi/Desktop,no,mono,no,18,no,white,no,yes,768,legacy,63,11,/Users/Linzi/Desktop/LM-subject-4M26.csv,legacy,9 4 2,Kafkaesque Koffka,3.2.8,1,y,0,left,right shift,space,left,NA,575,112592,8842,575,NA,2,legacy,3,1024,2,48000,-16,experiment,4,even,9,598861,588604,5480,204268,596608,595299,5522,195421,600889,601469,596581,597635,118115,600888,NA,Sternberg task,73,46918,76,yes,1024
96.1038961,96.1038961,617.3636364,617.3636364,black,experiment,legacy,legacy,legacy,0,uniform,1,undefined,1,right,76,76,0,0,76,76,0,0,76,76,76,76,0,76,0,Sat Oct 26 21:45:16 2019,The main experiment item,yes,Sternbergtask.osexp,/Users/Linzi/Desktop,no,mono,no,18,no,white,no,yes,768,legacy,64,11,/Users/Linzi/Desktop/LM-subject-4M26.csv,legacy,1 8 7,Kafkaesque Koffka,3.2.8,0,n,0,right,right shift,space,right,NA,619,112592,8842,619,NA,2,legacy,3,1024,2,48000,-16,experiment,4,even,4,605063,601501,5480,204268,602809,595299,5522,195421,607091,607716,602782,603836,118115,607091,NA,Sternberg task,74,47537,77,yes,1024
96.15384615,96.15384615,615.4487179,615.4487179,black,experiment,legacy,legacy,legacy,0,uniform,1,undefined,1,left,77,77,0,0,77,77,0,0,77,77,77,77,0,77,0,Sat Oct 26 21:45:16 2019,The main experiment item,yes,Sternbergtask.osexp,/Users/Linzi/Desktop,no,mono,no,18,no,white,no,yes,768,legacy,65,11,/Users/Linzi/Desktop/LM-subject-4M26.csv,legacy,2 3,Kafkaesque Koffka,3.2.8,1,y,0,left,right shift,space,left,NA,468,112592,8842,468,NA,2,legacy,2,1024,2,48000,-16,experiment,4,even,2,611305,607748,5480,204268,609052,595299,5522,195421,613333,613807,609025,610079,118115,613332,NA,Sternberg task,75,48005,78,yes,1024
96.20253165,96.20253165,616.6455696,616.6455696,black,experiment,legacy,legacy,legacy,0,uniform,1,undefined,1,right,78,78,0,0,78,78,0,0,78,78,78,78,0,78,0,Sat Oct 26 21:45:16 2019,The main experiment item,yes,Sternbergtask.osexp,/Users/Linzi/Desktop,no,mono,no,18,no,white,no,yes,768,legacy,66,11,/Users/Linzi/Desktop/LM-subject-4M26.csv,legacy,2 6 4 3 9,Kafkaesque Koffka,3.2.8,0,n,0,right,right shift,space,right,NA,710,112592,8842,710,NA,2,legacy,5,1024,2,48000,-16,experiment,4,even,1,617400,613838,5480,204268,615147,595299,5522,195421,619429,620144,615120,616173,118115,619428,NA,Sternberg task,76,48715,79,yes,1024
96.25,96.25,616.875,616.875,black,experiment,legacy,legacy,legacy,0,uniform,1,undefined,1,right,79,79,0,0,79,79,0,0,79,79,79,79,0,79,0,Sat Oct 26 21:45:16 2019,The main experiment item,yes,Sternbergtask.osexp,/Users/Linzi/Desktop,no,mono,no,18,no,white,no,yes,768,legacy,67,11,/Users/Linzi/Desktop/LM-subject-4M26.csv,legacy,2 8 6 3 1,Kafkaesque Koffka,3.2.8,0,n,0,right,right shift,space,right,NA,635,112592,8842,635,NA,2,legacy,5,1024,2,48000,-16,experiment,4,even,7,623741,620176,5480,204268,621487,595299,5522,195421,625768,626409,621461,622514,118115,625768,NA,Sternberg task,77,49350,80,yes,1024
96.2962963,96.2962963,616.5555556,616.5555556,black,experiment,legacy,legacy,legacy,0,uniform,1,undefined,1,left,80,80,0,0,80,80,0,0,80,80,80,80,0,80,0,Sat Oct 26 21:45:16 2019,The main experiment item,yes,Sternbergtask.osexp,/Users/Linzi/Desktop,no,mono,no,18,no,white,no,yes,768,legacy,68,11,/Users/Linzi/Desktop/LM-subject-4M26.csv,legacy,6 8 9 3 4 9,Kafkaesque Koffka,3.2.8,5,y,0,left,right shift,space,left,NA,591,112592,8842,591,NA,2,legacy,6,1024,2,48000,-16,experiment,4,even,4,630001,626440,5480,204268,627749,595299,5522,195421,632030,632627,627722,628776,118115,632029,NA,Sternberg task,78,49941,81,yes,1024
95.12195122,95.12195122,616.5487805,616.5487805,black,experiment,legacy,legacy,legacy,0,uniform,0,undefined,0,left,81,81,0,0,81,81,0,0,81,81,81,81,0,81,0,Sat Oct 26 21:45:16 2019,The main experiment item,yes,Sternbergtask.osexp,/Users/Linzi/Desktop,no,mono,no,18,no,white,no,yes,768,legacy,69,11,/Users/Linzi/Desktop/LM-subject-4M26.csv,legacy,8 5 4 7 3 1,Kafkaesque Koffka,3.2.8,2,y,0,right,right shift,space,right,NA,616,112592,8842,616,NA,2,legacy,6,1024,2,48000,-16,experiment,4,even,5,636223,632658,5480,204268,633969,595299,5522,195421,638251,638872,633942,634995,118115,638250,NA,Sternberg task,78,50557,82,yes,1024
95.18072289,95.18072289,618.2409639,618.2409639,black,experiment,legacy,legacy,legacy,0,uniform,1,undefined,1,right,82,82,0,0,82,82,0,0,82,82,82,82,0,82,0,Sat Oct 26 21:45:16 2019,The main experiment item,yes,Sternbergtask.osexp,/Users/Linzi/Desktop,no,mono,no,18,no,white,no,yes,768,legacy,70,11,/Users/Linzi/Desktop/LM-subject-4M26.csv,legacy,5 7 3,Kafkaesque Koffka,3.2.8,0,n,0,right,right shift,space,right,NA,757,112592,8842,757,NA,2,legacy,3,1024,2,48000,-16,experiment,4,even,9,642465,632658,5480,204268,640211,638905,5522,195421,644493,645256,640184,641237,118115,644492,NA,Sternberg task,79,51314,83,yes,1024
95.23809524,95.23809524,617.3452381,617.3452381,black,experiment,legacy,legacy,legacy,0,uniform,1,undefined,1,left,83,83,0,0,83,83,0,0,83,83,83,83,0,83,0,Sat Oct 26 21:45:16 2019,The main experiment item,yes,Sternbergtask.osexp,/Users/Linzi/Desktop,no,mono,no,18,no,white,no,yes,768,legacy,71,11,/Users/Linzi/Desktop/LM-subject-4M26.csv,legacy,9 5 3 8 4,Kafkaesque Koffka,3.2.8,1,y,0,left,right shift,space,left,NA,543,112592,8842,543,NA,2,legacy,5,1024,2,48000,-16,experiment,4,even,9,648856,645287,5480,204268,646602,638905,5522,195421,650883,651431,646575,647629,118115,650883,NA,Sternberg task,80,51857,84,yes,1024
95.29411765,95.29411765,618.3411765,618.3411765,black,experiment,legacy,legacy,legacy,0,uniform,1,undefined,1,left,84,84,0,0,84,84,0,0,84,84,84,84,0,84,0,Sat Oct 26 21:45:16 2019,The main experiment item,yes,Sternbergtask.osexp,/Users/Linzi/Desktop,no,mono,no,18,no,white,no,yes,768,legacy,72,11,/Users/Linzi/Desktop/LM-subject-4M26.csv,legacy,4 6 2 5 1,Kafkaesque Koffka,3.2.8,5,y,0,left,right shift,space,left,NA,702,112592,8842,702,NA,2,legacy,5,1024,2,48000,-16,experiment,4,even,1,655030,651462,5480,204268,652776,638905,5522,195421,657058,657766,652748,653802,118115,657057,NA,Sternberg task,81,52559,85,yes,1024
95.34883721,95.34883721,619.0348837,619.0348837,black,experiment,legacy,legacy,legacy,0,uniform,1,undefined,1,right,85,85,0,0,85,85,0,0,85,85,85,85,0,85,0,Sat Oct 26 21:45:16 2019,The main experiment item,yes,Sternbergtask.osexp,/Users/Linzi/Desktop,no,mono,no,18,no,white,no,yes,768,legacy,73,11,/Users/Linzi/Desktop/LM-subject-4M26.csv,legacy,1 7 5 2 9,Kafkaesque Koffka,3.2.8,0,n,0,right,right shift,space,right,NA,678,112592,8842,678,NA,2,legacy,5,1024,2,48000,-16,experiment,4,even,3,661357,657797,5480,204268,659104,638905,5522,195421,663385,664069,659077,660130,118115,663385,NA,Sternberg task,82,53237,86,yes,1024
95.40229885,95.40229885,621.5402299,621.5402299,black,experiment,legacy,legacy,legacy,0,uniform,1,undefined,1,right,86,86,0,0,86,86,0,0,86,86,86,86,0,86,0,Sat Oct 26 21:45:16 2019,The main experiment item,yes,Sternbergtask.osexp,/Users/Linzi/Desktop,no,mono,no,18,no,white,no,yes,768,legacy,74,11,/Users/Linzi/Desktop/LM-subject-4M26.csv,legacy,6 8 4,Kafkaesque Koffka,3.2.8,0,n,0,right,right shift,space,right,NA,837,112592,8842,837,NA,2,legacy,3,1024,2,48000,-16,experiment,4,even,1,667664,664101,5480,204268,665410,638905,5522,195421,669692,670534,665383,666437,118115,669692,NA,Sternberg task,83,54074,87,yes,1024
95.45454545,95.45454545,622.1136364,622.1136364,black,experiment,legacy,legacy,legacy,0,uniform,1,undefined,1,right,87,87,0,0,87,87,0,0,87,87,87,87,0,87,0,Sat Oct 26 21:45:16 2019,The main experiment item,yes,Sternbergtask.osexp,/Users/Linzi/Desktop,no,mono,no,18,no,white,no,yes,768,legacy,75,11,/Users/Linzi/Desktop/LM-subject-4M26.csv,legacy,2 8 7 9 5 3,Kafkaesque Koffka,3.2.8,0,n,0,right,right shift,space,right,NA,672,112592,8842,672,NA,2,legacy,6,1024,2,48000,-16,experiment,4,even,6,674132,670567,5480,204268,671878,638905,5522,195421,676159,676837,671851,672905,118115,676159,NA,Sternberg task,84,54746,88,yes,1024
95.50561798,95.50561798,625.8539326,625.8539326,black,experiment,legacy,legacy,legacy,0,uniform,1,undefined,1,left,88,88,0,0,88,88,0,0,88,88,88,88,0,88,0,Sat Oct 26 21:45:16 2019,The main experiment item,yes,Sternbergtask.osexp,/Users/Linzi/Desktop,no,mono,no,18,no,white,no,yes,768,legacy,76,11,/Users/Linzi/Desktop/LM-subject-4M26.csv,legacy,2 6 1 7 4,Kafkaesque Koffka,3.2.8,2,y,0,left,right shift,space,left,NA,955,112592,8842,955,NA,2,legacy,5,1024,2,48000,-16,experiment,4,even,6,680431,676868,5480,204268,678178,638905,5522,195421,682459,683419,678151,679204,118115,682458,NA,Sternberg task,85,55701,89,yes,1024
95.55555556,95.55555556,624.8333333,624.8333333,black,experiment,legacy,legacy,legacy,0,uniform,1,undefined,1,left,89,89,0,0,89,89,0,0,89,89,89,89,0,89,0,Sat Oct 26 21:45:16 2019,The main experiment item,yes,Sternbergtask.osexp,/Users/Linzi/Desktop,no,mono,no,18,no,white,no,yes,768,legacy,77,11,/Users/Linzi/Desktop/LM-subject-4M26.csv,legacy,9 3 8 2 1 4,Kafkaesque Koffka,3.2.8,3,y,0,left,right shift,space,left,NA,534,112592,8842,534,NA,2,legacy,6,1024,2,48000,-16,experiment,4,even,8,687011,683451,5480,204268,684758,638905,5522,195421,689038,689577,684731,685785,118115,689037,NA,Sternberg task,86,56235,90,yes,1024
95.6043956,95.6043956,623.7912088,623.7912088,black,experiment,legacy,legacy,legacy,0,uniform,1,undefined,1,left,90,90,0,0,90,90,0,0,90,90,90,90,0,90,0,Sat Oct 26 21:45:16 2019,The main experiment item,yes,Sternbergtask.osexp,/Users/Linzi/Desktop,no,mono,no,18,no,white,no,yes,768,legacy,78,11,/Users/Linzi/Desktop/LM-subject-4M26.csv,legacy,3 5 4 7,Kafkaesque Koffka,3.2.8,1,y,0,left,right shift,space,left,NA,530,112592,8842,530,NA,2,legacy,4,1024,2,48000,-16,experiment,4,even,3,693171,689608,5480,204268,690917,638905,5522,195421,695199,695735,690891,691944,118115,695198,NA,Sternberg task,87,56765,91,yes,1024
95.65217391,95.65217391,622.9565217,622.9565217,black,experiment,legacy,legacy,legacy,0,uniform,1,undefined,1,right,91,91,0,0,91,91,0,0,91,91,91,91,0,91,0,Sat Oct 26 21:45:16 2019,The main experiment item,yes,Sternbergtask.osexp,/Users/Linzi/Desktop,no,mono,no,18,no,white,no,yes,768,legacy,79,11,/Users/Linzi/Desktop/LM-subject-4M26.csv,legacy,8 9,Kafkaesque Koffka,3.2.8,0,n,0,right,right shift,space,right,NA,547,112592,8842,547,NA,2,legacy,2,1024,2,48000,-16,experiment,4,even,5,699328,695766,5480,204268,697073,638905,5522,195421,701356,701909,697047,698101,118115,701355,NA,Sternberg task,88,57312,92,yes,1024
95.69892473,95.69892473,621.6989247,621.6989247,black,experiment,legacy,legacy,legacy,0,uniform,1,undefined,1,right,92,92,0,0,92,92,0,0,92,92,92,92,0,92,0,Sat Oct 26 21:45:16 2019,The main experiment item,yes,Sternbergtask.osexp,/Users/Linzi/Desktop,no,mono,no,18,no,white,no,yes,768,legacy,80,11,/Users/Linzi/Desktop/LM-subject-4M26.csv,legacy,4 1,Kafkaesque Koffka,3.2.8,0,n,0,right,right shift,space,right,NA,506,112592,8842,506,NA,2,legacy,2,1024,2,48000,-16,experiment,4,even,6,705504,701941,5480,204268,703249,638905,5522,195421,707532,708044,703222,704276,118115,707532,NA,Sternberg task,89,57818,93,yes,1024
95.74468085,95.74468085,621.393617,621.393617,black,experiment,legacy,legacy,legacy,0,uniform,1,undefined,1,left,93,93,0,0,93,93,0,0,93,93,93,93,0,93,0,Sat Oct 26 21:45:16 2019,The main experiment item,yes,Sternbergtask.osexp,/Users/Linzi/Desktop,no,mono,no,18,no,white,no,yes,768,legacy,81,11,/Users/Linzi/Desktop/LM-subject-4M26.csv,legacy,7 6,Kafkaesque Koffka,3.2.8,2,y,0,left,right shift,space,left,NA,593,112592,8842,593,NA,2,legacy,2,1024,2,48000,-16,experiment,4,even,6,711635,708075,5480,204268,709380,638905,5522,195421,713662,714261,709354,710408,118115,713662,NA,Sternberg task,90,58411,94,yes,1024
95.78947368,95.78947368,623.4947368,623.4947368,black,experiment,legacy,legacy,legacy,0,uniform,1,undefined,1,right,94,94,0,0,94,94,0,0,94,94,94,94,0,94,0,Sat Oct 26 21:45:16 2019,The main experiment item,yes,Sternbergtask.osexp,/Users/Linzi/Desktop,no,mono,no,18,no,white,no,yes,768,legacy,82,11,/Users/Linzi/Desktop/LM-subject-4M26.csv,legacy,2 5 1 4,Kafkaesque Koffka,3.2.8,0,n,0,right,right shift,space,right,NA,821,112592,8842,821,NA,2,legacy,4,1024,2,48000,-16,experiment,4,even,6,717859,714292,5480,204268,715605,638905,5522,195421,719887,720714,715578,716632,118115,719887,NA,Sternberg task,91,59232,95,yes,1024
95.83333333,95.83333333,624.2291667,624.2291667,black,experiment,legacy,legacy,legacy,0,uniform,1,undefined,1,left,95,95,0,0,95,95,0,0,95,95,95,95,0,95,0,Sat Oct 26 21:45:16 2019,The main experiment item,yes,Sternbergtask.osexp,/Users/Linzi/Desktop,no,mono,no,18,no,white,no,yes,768,legacy,83,11,/Users/Linzi/Desktop/LM-subject-4M26.csv,legacy,4 3 2 5 8,Kafkaesque Koffka,3.2.8,2,y,0,left,right shift,space,left,NA,694,112592,8842,694,NA,2,legacy,5,1024,2,48000,-16,experiment,4,even,3,724307,720745,5480,204268,722054,638905,5522,195421,726334,727034,722027,723081,118115,726333,NA,Sternberg task,92,59926,96,yes,1024
95.87628866,95.87628866,623.6701031,623.6701031,black,experiment,legacy,legacy,legacy,0,uniform,1,undefined,1,right,96,96,0,0,96,96,0,0,96,96,96,96,0,96,0,Sat Oct 26 21:45:16 2019,The main experiment item,yes,Sternbergtask.osexp,/Users/Linzi/Desktop,no,mono,no,18,no,white,no,yes,768,legacy,84,11,/Users/Linzi/Desktop/LM-subject-4M26.csv,legacy,1 4 3 6 5,Kafkaesque Koffka,3.2.8,0,n,0,right,right shift,space,right,NA,570,112592,8842,570,NA,2,legacy,5,1024,2,48000,-16,experiment,4,even,8,730630,727066,5480,204268,728377,638905,5522,195421,732658,733233,728350,729404,118115,732658,NA,Sternberg task,93,60496,97,yes,1024
94.89795918,94.89795918,623.9081633,623.9081633,black,experiment,legacy,legacy,legacy,0,uniform,0,undefined,0,right,97,97,0,0,97,97,0,0,97,97,97,97,0,97,0,Sat Oct 26 21:45:16 2019,The main experiment item,yes,Sternbergtask.osexp,/Users/Linzi/Desktop,no,mono,no,18,no,white,no,yes,768,legacy,85,11,/Users/Linzi/Desktop/LM-subject-4M26.csv,legacy,6 9 5,Kafkaesque Koffka,3.2.8,0,n,0,left,right shift,space,left,NA,647,112592,8842,647,NA,2,legacy,3,1024,2,48000,-16,experiment,4,even,8,736826,733265,5480,204268,734572,638905,5522,195421,738853,739506,734545,735599,118115,738853,NA,Sternberg task,93,61143,98,yes,1024
94.94949495,94.94949495,623.5656566,623.5656566,black,experiment,legacy,legacy,legacy,0,uniform,1,undefined,1,right,98,98,0,0,98,98,0,0,98,98,98,98,0,98,0,Sat Oct 26 21:45:16 2019,The main experiment item,yes,Sternbergtask.osexp,/Users/Linzi/Desktop,no,mono,no,18,no,white,no,yes,768,legacy,86,11,/Users/Linzi/Desktop/LM-subject-4M26.csv,legacy,4 2 6 9,Kafkaesque Koffka,3.2.8,0,n,0,right,right shift,space,right,NA,590,112592,8842,590,NA,2,legacy,4,1024,2,48000,-16,experiment,4,even,7,743099,733265,5480,204268,740845,739537,5522,195421,745127,745723,740818,741872,118115,745127,NA,Sternberg task,94,61733,99,yes,1024
95,95,622.47,622.47,black,experiment,legacy,legacy,legacy,0,uniform,1,undefined,1,left,99,99,0,0,99,99,0,0,99,99,99,99,0,99,0,Sat Oct 26 21:45:16 2019,The main experiment item,yes,Sternbergtask.osexp,/Users/Linzi/Desktop,no,mono,no,18,no,white,no,yes,768,legacy,87,11,/Users/Linzi/Desktop/LM-subject-4M26.csv,legacy,6 1 2,Kafkaesque Koffka,3.2.8,3,y,0,left,right shift,space,left,NA,514,112592,8842,514,NA,2,legacy,3,1024,2,48000,-16,experiment,4,even,2,749313,745755,5480,204268,747060,739537,5522,195421,751340,751860,747034,748086,118115,751340,NA,Sternberg task,95,62247,100,yes,1024
95.04950495,95.04950495,621.4455446,621.4455446,black,experiment,legacy,legacy,legacy,0,uniform,1,undefined,1,left,100,100,0,0,100,100,0,0,100,100,100,100,0,100,0,Sat Oct 26 21:45:16 2019,The main experiment item,yes,Sternbergtask.osexp,/Users/Linzi/Desktop,no,mono,no,18,no,white,no,yes,768,legacy,88,11,/Users/Linzi/Desktop/LM-subject-4M26.csv,legacy,3 4 9 6 2 9,Kafkaesque Koffka,3.2.8,5,y,0,left,right shift,space,left,NA,519,112592,8842,519,NA,2,legacy,6,1024,2,48000,-16,experiment,4,even,2,755453,751892,5480,204268,753199,739537,5522,195421,757482,758007,753173,754226,118115,757482,NA,Sternberg task,96,62766,101,yes,1024
95.09803922,95.09803922,619.2352941,619.2352941,black,experiment,legacy,legacy,legacy,0,uniform,1,undefined,1,left,101,101,0,0,101,101,0,0,101,101,101,101,0,101,0,Sat Oct 26 21:45:16 2019,The main experiment item,yes,Sternbergtask.osexp,/Users/Linzi/Desktop,no,mono,no,18,no,white,no,yes,768,legacy,89,11,/Users/Linzi/Desktop/LM-subject-4M26.csv,legacy,2 4 6 9,Kafkaesque Koffka,3.2.8,3,y,0,left,right shift,space,left,NA,396,112592,8842,396,NA,2,legacy,4,1024,2,48000,-16,experiment,4,even,6,761607,758040,5480,204268,759353,739537,5522,195421,763634,764037,759325,760380,118115,763634,NA,Sternberg task,97,63162,102,yes,1024
95.14563107,95.14563107,617.2718447,617.2718447,black,experiment,legacy,legacy,legacy,0,uniform,1,undefined,1,left,102,102,0,0,102,102,0,0,102,102,102,102,0,102,0,Sat Oct 26 21:45:16 2019,The main experiment item,yes,Sternbergtask.osexp,/Users/Linzi/Desktop,no,mono,no,18,no,white,no,yes,768,legacy,90,11,/Users/Linzi/Desktop/LM-subject-4M26.csv,legacy,4 1 8 7 5,Kafkaesque Koffka,3.2.8,3,y,0,left,right shift,space,left,NA,417,112592,8842,417,NA,2,legacy,5,1024,2,48000,-16,experiment,4,even,8,767632,764068,5480,204268,765378,739537,5522,195421,769660,770083,765352,766405,118115,769659,NA,Sternberg task,98,63579,103,yes,1024
95.19230769,95.19230769,616.8076923,616.8076923,black,experiment,legacy,legacy,legacy,0,uniform,1,undefined,1,right,103,103,0,0,103,103,0,0,103,103,103,103,0,103,0,Sat Oct 26 21:45:16 2019,The main experiment item,yes,Sternbergtask.osexp,/Users/Linzi/Desktop,no,mono,no,18,no,white,no,yes,768,legacy,91,11,/Users/Linzi/Desktop/LM-subject-4M26.csv,legacy,9 5 3 2 8 6,Kafkaesque Koffka,3.2.8,0,n,0,right,right shift,space,right,NA,569,112592,8842,569,NA,2,legacy,6,1024,2,48000,-16,experiment,4,even,7,773681,770115,5480,204268,771427,739537,5522,195421,775708,776283,771400,772454,118115,775708,NA,Sternberg task,99,64148,104,yes,1024
95.23809524,95.23809524,616.3904762,616.3904762,black,experiment,legacy,legacy,legacy,0,uniform,1,undefined,1,right,104,104,0,0,104,104,0,0,104,104,104,104,0,104,0,Sat Oct 26 21:45:16 2019,The main experiment item,yes,Sternbergtask.osexp,/Users/Linzi/Desktop,no,mono,no,18,no,white,no,yes,768,legacy,92,11,/Users/Linzi/Desktop/LM-subject-4M26.csv,legacy,3 4 9 6 7 8,Kafkaesque Koffka,3.2.8,0,n,0,right,right shift,space,right,NA,573,112592,8842,573,NA,2,legacy,6,1024,2,48000,-16,experiment,4,even,2,779883,776314,5480,204268,777628,739537,5522,195421,781911,782490,777601,778656,118115,781910,NA,Sternberg task,100,64721,105,yes,1024
95.28301887,95.28301887,615.509434,615.509434,black,experiment,legacy,legacy,legacy,0,uniform,1,undefined,1,right,105,105,0,0,105,105,0,0,105,105,105,105,0,105,0,Sat Oct 26 21:45:16 2019,The main experiment item,yes,Sternbergtask.osexp,/Users/Linzi/Desktop,no,mono,no,18,no,white,no,yes,768,legacy,93,11,/Users/Linzi/Desktop/LM-subject-4M26.csv,legacy,7 9,Kafkaesque Koffka,3.2.8,0,n,0,right,right shift,space,right,NA,523,112592,8842,523,NA,2,legacy,2,1024,2,48000,-16,experiment,4,even,1,786081,782522,5480,204268,783827,739537,5522,195421,788108,788637,783801,784854,118115,788108,NA,Sternberg task,101,65244,106,yes,1024
95.3271028,95.3271028,615.3831776,615.3831776,black,experiment,legacy,legacy,legacy,0,uniform,1,undefined,1,right,106,106,0,0,106,106,0,0,106,106,106,106,0,106,0,Sat Oct 26 21:45:16 2019,The main experiment item,yes,Sternbergtask.osexp,/Users/Linzi/Desktop,no,mono,no,18,no,white,no,yes,768,legacy,94,11,/Users/Linzi/Desktop/LM-subject-4M26.csv,legacy,3 4 2,Kafkaesque Koffka,3.2.8,0,n,0,right,right shift,space,right,NA,602,112592,8842,602,NA,2,legacy,3,1024,2,48000,-16,experiment,4,even,5,792230,788670,5480,204268,789977,739537,5522,195421,794258,794866,789950,791003,118115,794258,NA,Sternberg task,102,65846,107,yes,1024
95.37037037,95.37037037,616.1296296,616.1296296,black,experiment,legacy,legacy,legacy,0,uniform,1,undefined,1,right,107,107,0,0,107,107,0,0,107,107,107,107,0,107,0,Sat Oct 26 21:45:16 2019,The main experiment item,yes,Sternbergtask.osexp,/Users/Linzi/Desktop,no,mono,no,18,no,white,no,yes,768,legacy,95,11,/Users/Linzi/Desktop/LM-subject-4M26.csv,legacy,6 9 7 3 8 2,Kafkaesque Koffka,3.2.8,0,n,0,right,right shift,space,right,NA,696,112592,8842,696,NA,2,legacy,6,1024,2,48000,-16,experiment,4,even,5,798461,794897,5480,204268,796207,739537,5522,195421,800488,801191,796180,797233,118115,800488,NA,Sternberg task,103,66542,108,yes,1024
95.41284404,95.41284404,616.0091743,616.0091743,black,experiment,legacy,legacy,legacy,0,uniform,1,undefined,1,left,108,108,0,0,108,108,0,0,108,108,108,108,0,108,0,Sat Oct 26 21:45:16 2019,The main experiment item,yes,Sternbergtask.osexp,/Users/Linzi/Desktop,no,mono,no,18,no,white,no,yes,768,legacy,96,11,/Users/Linzi/Desktop/LM-subject-4M26.csv,legacy,3 5 7 1,Kafkaesque Koffka,3.2.8,3,y,0,left,right shift,space,left,NA,603,112592,8842,603,NA,2,legacy,4,1024,2,48000,-16,experiment,4,even,7,804785,801222,5480,204268,802531,739537,5522,195421,806813,807422,802503,803558,118115,806813,NA,Sternberg task,104,67145,109,yes,1024
95.45454545,95.45454545,615.1909091,615.1909091,black,experiment,legacy,legacy,legacy,0,uniform,1,undefined,1,left,109,109,0,0,109,109,0,0,109,109,109,109,0,109,0,Sat Oct 26 21:45:16 2019,The main experiment item,yes,Sternbergtask.osexp,/Users/Linzi/Desktop,no,mono,no,18,no,white,no,yes,768,legacy,97,11,/Users/Linzi/Desktop/LM-subject-4M26.csv,legacy,6 2,Kafkaesque Koffka,3.2.8,1,y,0,left,right shift,space,left,NA,526,112592,8842,526,NA,2,legacy,2,1024,2,48000,-16,experiment,4,even,6,811012,807454,5480,204268,808759,739537,5522,195421,813040,813572,808732,809786,118115,813039,NA,Sternberg task,105,67671,110,yes,1024
95.4954955,95.4954955,613.6486486,613.6486486,black,experiment,legacy,legacy,legacy,0,uniform,1,undefined,1,left,110,110,0,0,110,110,0,0,110,110,110,110,0,110,0,Sat Oct 26 21:45:16 2019,The main experiment item,yes,Sternbergtask.osexp,/Users/Linzi/Desktop,no,mono,no,18,no,white,no,yes,768,legacy,98,11,/Users/Linzi/Desktop/LM-subject-4M26.csv,legacy,8 7 3,Kafkaesque Koffka,3.2.8,1,y,0,left,right shift,space,left,NA,444,112592,8842,444,NA,2,legacy,3,1024,2,48000,-16,experiment,4,even,8,817165,813603,5480,204268,814911,739537,5522,195421,819193,819644,814884,815937,118115,819193,NA,Sternberg task,106,68115,111,yes,1024
94.64285714,94.64285714,613.8125,613.8125,black,experiment,legacy,legacy,legacy,0,uniform,0,undefined,0,right,111,111,0,0,111,111,0,0,111,111,111,111,0,111,0,Sat Oct 26 21:45:16 2019,The main experiment item,yes,Sternbergtask.osexp,/Users/Linzi/Desktop,no,mono,no,18,no,white,no,yes,768,legacy,99,11,/Users/Linzi/Desktop/LM-subject-4M26.csv,legacy,4 2 7 6 1 3,Kafkaesque Koffka,3.2.8,0,n,0,left,right shift,space,left,NA,632,112592,8842,632,NA,2,legacy,6,1024,2,48000,-16,experiment,4,even,8,823236,819676,5480,204268,820985,739537,5522,195421,825264,825902,820958,822010,118115,825264,NA,Sternberg task,106,68747,112,yes,1024
94.69026549,94.69026549,613.079646,613.079646,black,experiment,legacy,legacy,legacy,0,uniform,1,undefined,1,right,112,112,0,0,112,112,0,0,112,112,112,112,0,112,0,Sat Oct 26 21:45:16 2019,The main experiment item,yes,Sternbergtask.osexp,/Users/Linzi/Desktop,no,mono,no,18,no,white,no,yes,768,legacy,100,11,/Users/Linzi/Desktop/LM-subject-4M26.csv,legacy,9,Kafkaesque Koffka,3.2.8,0,n,0,right,right shift,space,right,NA,531,112592,8842,531,NA,2,legacy,1,1024,2,48000,-16,experiment,4,even,6,829493,819676,5480,204268,827238,825934,5522,195421,831521,832058,827212,828266,118115,831521,NA,Sternberg task,107,69278,113,yes,1024
94.73684211,94.73684211,612.5789474,612.5789474,black,experiment,legacy,legacy,legacy,0,uniform,1,undefined,1,right,113,113,0,0,113,113,0,0,113,113,113,113,0,113,0,Sat Oct 26 21:45:16 2019,The main experiment item,yes,Sternbergtask.osexp,/Users/Linzi/Desktop,no,mono,no,18,no,white,no,yes,768,legacy,101,11,/Users/Linzi/Desktop/LM-subject-4M26.csv,legacy,1,Kafkaesque Koffka,3.2.8,0,n,0,right,right shift,space,right,NA,556,112592,8842,556,NA,2,legacy,1,1024,2,48000,-16,experiment,4,even,7,835648,832090,5480,204268,833394,825934,5522,195421,837675,838237,833367,834421,118115,837675,NA,Sternberg task,108,69834,114,yes,1024
94.7826087,94.7826087,611.973913,611.973913,black,experiment,legacy,legacy,legacy,0,uniform,1,undefined,1,left,114,114,0,0,114,114,0,0,114,114,114,114,0,114,0,Sat Oct 26 21:45:16 2019,The main experiment item,yes,Sternbergtask.osexp,/Users/Linzi/Desktop,no,mono,no,18,no,white,no,yes,768,legacy,102,11,/Users/Linzi/Desktop/LM-subject-4M26.csv,legacy,3 4,Kafkaesque Koffka,3.2.8,1,y,0,left,right shift,space,left,NA,543,112592,8842,543,NA,2,legacy,2,1024,2,48000,-16,experiment,4,even,3,841831,838269,5480,204268,839578,825934,5522,195421,843859,844409,839552,840605,118115,843859,NA,Sternberg task,109,70377,115,yes,1024
94.82758621,94.82758621,619.2068966,619.2068966,black,experiment,legacy,legacy,legacy,0,uniform,1,undefined,1,right,115,115,0,0,115,115,0,0,115,115,115,115,0,115,0,Sat Oct 26 21:45:16 2019,The main experiment item,yes,Sternbergtask.osexp,/Users/Linzi/Desktop,no,mono,no,18,no,white,no,yes,768,legacy,103,11,/Users/Linzi/Desktop/LM-subject-4M26.csv,legacy,1 7 8 3 9,Kafkaesque Koffka,3.2.8,0,n,0,right,right shift,space,right,NA,1451,112592,8842,1451,NA,2,legacy,5,1024,2,48000,-16,experiment,4,even,2,848001,844440,5480,204268,845748,825934,5522,195421,850030,851487,845720,846775,118115,850030,NA,Sternberg task,110,71828,116,yes,1024
94.87179487,94.87179487,620.7350427,620.7350427,black,experiment,legacy,legacy,legacy,0,uniform,1,undefined,1,right,116,116,0,0,116,116,0,0,116,116,116,116,0,116,0,Sat Oct 26 21:45:16 2019,The main experiment item,yes,Sternbergtask.osexp,/Users/Linzi/Desktop,no,mono,no,18,no,white,no,yes,768,legacy,104,11,/Users/Linzi/Desktop/LM-subject-4M26.csv,legacy,1 4 9 2 5,Kafkaesque Koffka,3.2.8,0,n,0,right,right shift,space,right,NA,798,112592,8842,798,NA,2,legacy,5,1024,2,48000,-16,experiment,4,even,7,855084,851519,5480,204268,852829,825934,5522,195421,857111,857915,852802,853856,118115,857111,NA,Sternberg task,111,72626,117,yes,1024
94.91525424,94.91525424,623.9576271,623.9576271,black,experiment,legacy,legacy,legacy,0,uniform,1,undefined,1,right,117,117,0,0,117,117,0,0,117,117,117,117,0,117,0,Sat Oct 26 21:45:16 2019,The main experiment item,yes,Sternbergtask.osexp,/Users/Linzi/Desktop,no,mono,no,18,no,white,no,yes,768,legacy,105,11,/Users/Linzi/Desktop/LM-subject-4M26.csv,legacy,8 5 7 3 6,Kafkaesque Koffka,3.2.8,0,n,0,right,right shift,space,right,NA,1001,112592,8842,1001,NA,2,legacy,5,1024,2,48000,-16,experiment,4,even,9,861509,857947,5480,204268,859255,825934,5522,195421,863536,864543,859228,860282,118115,863535,NA,Sternberg task,112,73627,118,yes,1024
94.95798319,94.95798319,623.1008403,623.1008403,black,experiment,legacy,legacy,legacy,0,uniform,1,undefined,1,left,118,118,0,0,118,118,0,0,118,118,118,118,0,118,0,Sat Oct 26 21:45:16 2019,The main experiment item,yes,Sternbergtask.osexp,/Users/Linzi/Desktop,no,mono,no,18,no,white,no,yes,768,legacy,106,11,/Users/Linzi/Desktop/LM-subject-4M26.csv,legacy,8 9 5 7 1 6,Kafkaesque Koffka,3.2.8,4,y,0,left,right shift,space,left,NA,522,112592,8842,522,NA,2,legacy,6,1024,2,48000,-16,experiment,4,even,7,868138,864575,5480,204268,865885,825934,5522,195421,870166,870694,865857,866912,118115,870165,NA,Sternberg task,113,74149,119,yes,1024
95,95,621.8416667,621.8416667,black,experiment,legacy,legacy,legacy,0,uniform,1,undefined,1,left,119,119,0,0,119,119,0,0,119,119,119,119,0,119,0,Sat Oct 26 21:45:16 2019,The main experiment item,yes,Sternbergtask.osexp,/Users/Linzi/Desktop,no,mono,no,18,no,white,no,yes,768,legacy,107,11,/Users/Linzi/Desktop/LM-subject-4M26.csv,legacy,6 9 7 4 5 1,Kafkaesque Koffka,3.2.8,2,y,0,left,right shift,space,left,NA,472,112592,8842,472,NA,2,legacy,6,1024,2,48000,-16,experiment,4,even,9,874286,870726,5480,204268,872033,825934,5522,195421,876312,876791,872005,873060,118115,876312,NA,Sternberg task,114,74621,120,yes,1024
95.04132231,95.04132231,621.3471074,621.3471074,black,experiment,legacy,legacy,legacy,0,uniform,1,undefined,1,right,120,120,0,0,120,120,0,0,120,120,120,120,0,120,0,Sat Oct 26 21:45:16 2019,The main experiment item,yes,Sternbergtask.osexp,/Users/Linzi/Desktop,no,mono,no,18,no,white,no,yes,768,legacy,108,11,/Users/Linzi/Desktop/LM-subject-4M26.csv,legacy,6 8,Kafkaesque Koffka,3.2.8,0,n,0,right,right shift,space,right,NA,562,112592,8842,562,NA,2,legacy,2,1024,2,48000,-16,experiment,4,even,9,880385,876823,5480,204268,878132,825934,5522,195421,882412,882981,878103,879158,118115,882411,NA,Sternberg task,115,75183,121,yes,1024
95.08196721,95.08196721,621.1065574,621.1065574,black,experiment,legacy,legacy,legacy,0,uniform,1,undefined,1,right,121,121,0,0,121,121,0,0,121,121,121,121,0,121,0,Sat Oct 26 21:45:16 2019,The main experiment item,yes,Sternbergtask.osexp,/Users/Linzi/Desktop,no,mono,no,18,no,white,no,yes,768,legacy,109,11,/Users/Linzi/Desktop/LM-subject-4M26.csv,legacy,8 4 3 5,Kafkaesque Koffka,3.2.8,0,n,0,right,right shift,space,right,NA,592,112592,8842,592,NA,2,legacy,4,1024,2,48000,-16,experiment,4,even,6,886570,883011,5480,204268,884317,825934,5522,195421,888597,889196,884290,885344,118115,888597,NA,Sternberg task,116,75775,122,yes,1024
95.12195122,95.12195122,622,622,black,experiment,legacy,legacy,legacy,0,uniform,1,undefined,1,left,122,122,0,0,122,122,0,0,122,122,122,122,0,122,0,Sat Oct 26 21:45:16 2019,The main experiment item,yes,Sternbergtask.osexp,/Users/Linzi/Desktop,no,mono,no,18,no,white,no,yes,768,legacy,110,11,/Users/Linzi/Desktop/LM-subject-4M26.csv,legacy,1 4 9 3 2 5,Kafkaesque Koffka,3.2.8,3,y,0,left,right shift,space,left,NA,731,112592,8842,731,NA,2,legacy,6,1024,2,48000,-16,experiment,4,even,9,892796,889227,5480,204268,890542,825934,5522,195421,894823,895561,890514,891569,118115,894822,NA,Sternberg task,117,76506,123,yes,1024
95.16129032,95.16129032,621.2258065,621.2258065,black,experiment,legacy,legacy,legacy,0,uniform,1,undefined,1,left,123,123,0,0,123,123,0,0,123,123,123,123,0,123,0,Sat Oct 26 21:45:16 2019,The main experiment item,yes,Sternbergtask.osexp,/Users/Linzi/Desktop,no,mono,no,18,no,white,no,yes,768,legacy,111,11,/Users/Linzi/Desktop/LM-subject-4M26.csv,legacy,5 7 3 6 2,Kafkaesque Koffka,3.2.8,5,y,0,left,right shift,space,left,NA,526,112592,8842,526,NA,2,legacy,5,1024,2,48000,-16,experiment,4,even,2,899159,895593,5480,204268,896905,825934,5522,195421,901187,901720,896878,897932,118115,901187,NA,Sternberg task,118,77032,124,yes,1024
95.2,95.2,620.016,620.016,black,experiment,legacy,legacy,legacy,0,uniform,1,undefined,1,left,124,124,0,0,124,124,0,0,124,124,124,124,0,124,0,Sat Oct 26 21:45:16 2019,The main experiment item,yes,Sternbergtask.osexp,/Users/Linzi/Desktop,no,mono,no,18,no,white,no,yes,768,legacy,112,11,/Users/Linzi/Desktop/LM-subject-4M26.csv,legacy,7 1 3,Kafkaesque Koffka,3.2.8,2,y,0,left,right shift,space,left,NA,470,112592,8842,470,NA,2,legacy,3,1024,2,48000,-16,experiment,4,even,1,905312,901751,5480,204268,903059,825934,5522,195421,907340,907817,903032,904086,118115,907340,NA,Sternberg task,119,77502,125,yes,1024
95.23809524,95.23809524,618.8571429,618.8571429,black,experiment,legacy,legacy,legacy,0,uniform,1,undefined,1,left,125,125,0,0,125,125,0,0,125,125,125,125,0,125,0,Sat Oct 26 21:45:16 2019,The main experiment item,yes,Sternbergtask.osexp,/Users/Linzi/Desktop,no,mono,no,18,no,white,no,yes,768,legacy,113,11,/Users/Linzi/Desktop/LM-subject-4M26.csv,legacy,7,Kafkaesque Koffka,3.2.8,1,y,0,left,right shift,space,left,NA,474,112592,8842,474,NA,2,legacy,1,1024,2,48000,-16,experiment,4,even,7,911406,907849,5480,204268,909152,825934,5522,195421,913434,913914,909125,910178,118115,913433,NA,Sternberg task,120,77976,126,yes,1024
94.48818898,94.48818898,618.2913386,618.2913386,black,experiment,legacy,legacy,legacy,0,uniform,0,undefined,0,right,126,126,0,0,126,126,0,0,126,126,126,126,0,126,0,Sat Oct 26 21:45:16 2019,The main experiment item,yes,Sternbergtask.osexp,/Users/Linzi/Desktop,no,mono,no,18,no,white,no,yes,768,legacy,114,11,/Users/Linzi/Desktop/LM-subject-4M26.csv,legacy,7 1 8 4 9 3,Kafkaesque Koffka,3.2.8,0,n,0,left,right shift,space,left,NA,547,112592,8842,547,NA,2,legacy,6,1024,2,48000,-16,experiment,4,even,6,917511,913946,5480,204268,915258,825934,5522,195421,919538,920092,915230,916284,118115,919537,NA,Sternberg task,120,78523,127,yes,1024
94.53125,94.53125,617.59375,617.59375,black,experiment,legacy,legacy,legacy,0,uniform,1,undefined,1,right,127,127,0,0,127,127,0,0,127,127,127,127,0,127,0,Sat Oct 26 21:45:16 2019,The main experiment item,yes,Sternbergtask.osexp,/Users/Linzi/Desktop,no,mono,no,18,no,white,no,yes,768,legacy,115,11,/Users/Linzi/Desktop/LM-subject-4M26.csv,legacy,7 1,Kafkaesque Koffka,3.2.8,0,n,0,right,right shift,space,right,NA,529,112592,8842,529,NA,2,legacy,2,1024,2,48000,-16,experiment,4,even,8,923683,913946,5480,204268,921430,920124,5522,195421,925711,926247,921403,922456,118115,925710,NA,Sternberg task,121,79052,128,yes,1024
94.57364341,94.57364341,617.0387597,617.0387597,black,experiment,legacy,legacy,legacy,0,uniform,1,undefined,1,left,128,128,0,0,128,128,0,0,128,128,128,128,0,128,0,Sat Oct 26 21:45:16 2019,The main experiment item,yes,Sternbergtask.osexp,/Users/Linzi/Desktop,no,mono,no,18,no,white,no,yes,768,legacy,116,11,/Users/Linzi/Desktop/LM-subject-4M26.csv,legacy,7 8 4 6 9 5,Kafkaesque Koffka,3.2.8,4,y,0,left,right shift,space,left,NA,546,112592,8842,546,NA,2,legacy,6,1024,2,48000,-16,experiment,4,even,6,929848,926279,5480,204268,927593,920124,5522,195421,931876,932428,927566,928620,118115,931875,NA,Sternberg task,122,79598,129,yes,1024
94.61538462,94.61538462,617.1769231,617.1769231,black,experiment,legacy,legacy,legacy,0,uniform,1,undefined,1,right,129,129,0,0,129,129,0,0,129,129,129,129,0,129,0,Sat Oct 26 21:45:16 2019,The main experiment item,yes,Sternbergtask.osexp,/Users/Linzi/Desktop,no,mono,no,18,no,white,no,yes,768,legacy,117,11,/Users/Linzi/Desktop/LM-subject-4M26.csv,legacy,7 4 2 8 1 9,Kafkaesque Koffka,3.2.8,0,n,0,right,right shift,space,right,NA,635,112592,8842,635,NA,2,legacy,6,1024,2,48000,-16,experiment,4,even,5,936023,932460,5480,204268,933772,920124,5522,195421,938051,938693,933745,934798,118115,938051,NA,Sternberg task,123,80233,130,yes,1024
94.65648855,94.65648855,617.8015267,617.8015267,black,experiment,legacy,legacy,legacy,0,uniform,1,undefined,1,left,130,130,0,0,130,130,0,0,130,130,130,130,0,130,0,Sat Oct 26 21:45:16 2019,The main experiment item,yes,Sternbergtask.osexp,/Users/Linzi/Desktop,no,mono,no,18,no,white,no,yes,768,legacy,118,11,/Users/Linzi/Desktop/LM-subject-4M26.csv,legacy,3 2 1 4 7,Kafkaesque Koffka,3.2.8,2,y,0,left,right shift,space,left,NA,699,112592,8842,699,NA,2,legacy,5,1024,2,48000,-16,experiment,4,even,2,942288,938726,5480,204268,940035,920124,5522,195421,944316,945022,940008,941062,118115,944315,NA,Sternberg task,124,80932,131,yes,1024
94.6969697,94.6969697,617.719697,617.719697,black,experiment,legacy,legacy,legacy,0,uniform,1,undefined,1,right,131,131,0,0,131,131,0,0,131,131,131,131,0,131,0,Sat Oct 26 21:45:16 2019,The main experiment item,yes,Sternbergtask.osexp,/Users/Linzi/Desktop,no,mono,no,18,no,white,no,yes,768,legacy,119,11,/Users/Linzi/Desktop/LM-subject-4M26.csv,legacy,2 7 5,Kafkaesque Koffka,3.2.8,0,n,0,right,right shift,space,right,NA,607,112592,8842,607,NA,2,legacy,3,1024,2,48000,-16,experiment,4,even,8,948614,945054,5480,204268,946360,920124,5522,195421,950642,951256,946332,947386,118115,950642,NA,Sternberg task,125,81539,132,yes,1024
94.73684211,94.73684211,617.5488722,617.5488722,black,experiment,legacy,legacy,legacy,0,uniform,1,undefined,1,left,132,132,0,0,132,132,0,0,132,132,132,132,0,132,0,Sat Oct 26 21:45:16 2019,The main experiment item,yes,Sternbergtask.osexp,/Users/Linzi/Desktop,no,mono,no,18,no,white,no,yes,768,legacy,120,11,/Users/Linzi/Desktop/LM-subject-4M26.csv,legacy,9 3 1 2 5,Kafkaesque Koffka,3.2.8,4,y,0,left,right shift,space,left,NA,595,112592,8842,595,NA,2,legacy,5,1024,2,48000,-16,experiment,4,even,2,954850,951287,5480,204268,952596,920124,5522,195421,956877,957479,952569,953623,118115,956877,NA,Sternberg task,126,82134,133,yes,1024
94.7761194,94.7761194,617.2985075,617.2985075,black,experiment,legacy,legacy,legacy,0,uniform,1,undefined,1,right,133,133,0,0,133,133,0,0,133,133,133,133,0,133,0,Sat Oct 26 21:45:16 2019,The main experiment item,yes,Sternbergtask.osexp,/Users/Linzi/Desktop,no,mono,no,18,no,white,no,yes,768,legacy,121,11,/Users/Linzi/Desktop/LM-subject-4M26.csv,legacy,1 5 3 2 8,Kafkaesque Koffka,3.2.8,0,n,0,right,right shift,space,right,NA,584,112592,8842,584,NA,2,legacy,5,1024,2,48000,-16,experiment,4,even,4,961076,957511,5480,204268,958822,920124,5522,195421,963104,963695,958795,959848,118115,963104,NA,Sternberg task,127,82718,134,yes,1024
94.81481481,94.81481481,617.7111111,617.7111111,black,experiment,legacy,legacy,legacy,0,uniform,1,undefined,1,left,134,134,0,0,134,134,0,0,134,134,134,134,0,134,0,Sat Oct 26 21:45:16 2019,The main experiment item,yes,Sternbergtask.osexp,/Users/Linzi/Desktop,no,mono,no,18,no,white,no,yes,768,legacy,122,11,/Users/Linzi/Desktop/LM-subject-4M26.csv,legacy,3 9 7 6 4,Kafkaesque Koffka,3.2.8,3,y,0,left,right shift,space,left,NA,673,112592,8842,673,NA,2,legacy,5,1024,2,48000,-16,experiment,4,even,7,967288,963727,5480,204268,965034,920124,5522,195421,969315,969995,965007,966060,118115,969315,NA,Sternberg task,128,83391,135,yes,1024
94.85294118,94.85294118,617.9338235,617.9338235,black,experiment,legacy,legacy,legacy,0,uniform,1,undefined,1,left,135,135,0,0,135,135,0,0,135,135,135,135,0,135,0,Sat Oct 26 21:45:16 2019,The main experiment item,yes,Sternbergtask.osexp,/Users/Linzi/Desktop,no,mono,no,18,no,white,no,yes,768,legacy,123,11,/Users/Linzi/Desktop/LM-subject-4M26.csv,legacy,2 5 4 8 7,Kafkaesque Koffka,3.2.8,3,y,0,left,right shift,space,left,NA,648,112592,8842,648,NA,2,legacy,5,1024,2,48000,-16,experiment,4,even,4,973595,970027,5480,204268,971339,920124,5522,195421,975622,976277,971313,972368,118115,975622,NA,Sternberg task,129,84039,136,yes,1024
94.89051095,94.89051095,618.0437956,618.0437956,black,experiment,legacy,legacy,legacy,0,uniform,1,undefined,1,right,136,136,0,0,136,136,0,0,136,136,136,136,0,136,0,Sat Oct 26 21:45:16 2019,The main experiment item,yes,Sternbergtask.osexp,/Users/Linzi/Desktop,no,mono,no,18,no,white,no,yes,768,legacy,124,11,/Users/Linzi/Desktop/LM-subject-4M26.csv,legacy,7 8 6 1,Kafkaesque Koffka,3.2.8,0,n,0,right,right shift,space,right,NA,633,112592,8842,633,NA,2,legacy,4,1024,2,48000,-16,experiment,4,even,3,979871,976308,5480,204268,977619,920124,5522,195421,981898,982538,977591,978645,118115,981898,NA,Sternberg task,130,84672,137,yes,1024
94.92753623,94.92753623,617.2826087,617.2826087,black,experiment,legacy,legacy,legacy,0,uniform,1,undefined,1,right,137,137,0,0,137,137,0,0,137,137,137,137,0,137,0,Sat Oct 26 21:45:16 2019,The main experiment item,yes,Sternbergtask.osexp,/Users/Linzi/Desktop,no,mono,no,18,no,white,no,yes,768,legacy,125,11,/Users/Linzi/Desktop/LM-subject-4M26.csv,legacy,9 8 2 7 4,Kafkaesque Koffka,3.2.8,0,n,0,right,right shift,space,right,NA,513,112592,8842,513,NA,2,legacy,5,1024,2,48000,-16,experiment,4,even,5,986132,982570,5480,204268,983878,920124,5522,195421,988160,988680,983851,984905,118115,988159,NA,Sternberg task,131,85185,138,yes,1024