acc,accuracy,average_response_time,avg_rt,background,block,canvas_backend,clock_backend,color_backend,compensation,coordinates,correct,correct_instruction1,correct_new_keyboard_response,correct_response,count_ISI,count_correctFeedback,count_expSequence,count_experiment,count_experimentLoop,count_fixation,count_getting_started,count_incorrectFeeback,count_instruction1,count_instructions2,count_logger,count_memorySet,count_new_keyboard_response,count_practiceLoop,count_probe,count_thankYou,count_welcome,datetime,description,disable_garbage_collection,experiment_path,font_bold,font_family,font_italic,font_size,font_underline,foreground,form_clicks,fullscreen,height,keyboard_backend,live_row,live_row_practiceLoop,logfile,mouse_backend,numberSet,opensesame_codename,opensesame_version,posInSet,present,repeat_cycle,response,response_instruction1,response_instructions2,response_new_keyboard_response,response_thankYou,response_time,response_time_instruction1,response_time_instructions2,response_time_new_keyboard_response,response_time_thankYou,response_time_welcome,response_welcome,round_decimals,sampler_backend,setSize,sound_buf_size,sound_channels,sound_freq,sound_sample_size,start,subject_nr,subject_parity,target,time_ISI,time_correctFeedback,time_expSequence,time_experiment,time_experimentLoop,time_fixation,time_getting_started,time_incorrectFeeback,time_instruction1,time_instructions2,time_logger,time_memorySet,time_new_keyboard_response,time_practiceLoop,time_probe,time_thankYou,time_welcome,title,total_correct,total_response_time,total_responses,uniform_coordinates,width
100,100,764,764,black,practice,legacy,legacy,legacy,0,uniform,1,undefined,1,left,0,0,0,0,0,0,NA,0,0,0,0,0,0,0,0,0,NA,Sun Oct 20 20:45:51 2019,The main experiment item,yes,/Users/juancastaneda/Documents/Grad School /Advanced Quantitative Methods & Experimental Design/SternbergTask.osexp,no,mono,no,18,no,white,no,yes,768,legacy,0,0,/Users/juancastaneda/Documents/Grad School /Advanced Quantitative Methods & Experimental Design/Sterberg Task/JC-subject-1.csv,legacy,6,Kafkaesque Koffka,3.2.8,1,y,0,left,left,NA,left,NA,764,15927,NA,764,NA,NA,NA,2,legacy,1,1024,2,48000,-16,experiment,1,odd,6,21640,NA,19397,3054,NA,19409,NA,NA,3069,NA,24417,20423,23652,19004,23652,NA,NA,Sternberg Task,1,764,1,yes,1024
100,100,971.5,971.5,black,practice,legacy,legacy,legacy,0,uniform,1,undefined,1,right,1,1,1,0,0,1,NA,1,0,0,1,1,1,0,1,0,NA,Sun Oct 20 20:45:51 2019,The main experiment item,yes,/Users/juancastaneda/Documents/Grad School /Advanced Quantitative Methods & Experimental Design/SternbergTask.osexp,no,mono,no,18,no,white,no,yes,768,legacy,1,1,/Users/juancastaneda/Documents/Grad School /Advanced Quantitative Methods & Experimental Design/Sterberg Task/JC-subject-1.csv,legacy,5 7 8 4 1 2,Kafkaesque Koffka,3.2.8,0,n,0,right,left,NA,right,NA,1179,15927,NA,1179,NA,NA,NA,2,legacy,6,1024,2,48000,-16,experiment,1,odd,6,27813,24476,25569,3054,NA,25582,NA,NA,3069,NA,31006,26596,29826,19004,29826,NA,NA,Sternberg Task,2,1943,2,yes,1024
66.66666667,66.66666667,981.6666667,981.6666667,black,practice,legacy,legacy,legacy,0,uniform,0,undefined,0,right,2,2,2,0,0,2,NA,2,0,0,2,2,2,0,2,0,NA,Sun Oct 20 20:45:51 2019,The main experiment item,yes,/Users/juancastaneda/Documents/Grad School /Advanced Quantitative Methods & Experimental Design/SternbergTask.osexp,no,mono,no,18,no,white,no,yes,768,legacy,2,2,/Users/juancastaneda/Documents/Grad School /Advanced Quantitative Methods & Experimental Design/Sterberg Task/JC-subject-1.csv,legacy,5,Kafkaesque Koffka,3.2.8,0,n,0,left,left,NA,left,NA,1002,15927,NA,1002,NA,NA,NA,2,legacy,1,1024,2,48000,-16,experiment,1,odd,3,34344,31020,32104,3054,NA,32117,NA,NA,3069,NA,37360,33130,36357,19004,36357,NA,NA,Sternberg Task,2,2945,3,yes,1024
75,75,1080,1080,black,practice,legacy,legacy,legacy,0,uniform,1,undefined,1,left,3,3,3,0,0,3,NA,3,0,0,3,3,3,0,3,0,NA,Sun Oct 20 20:45:51 2019,The main experiment item,yes,/Users/juancastaneda/Documents/Grad School /Advanced Quantitative Methods & Experimental Design/SternbergTask.osexp,no,mono,no,18,no,white,no,yes,768,legacy,3,3,/Users/juancastaneda/Documents/Grad School /Advanced Quantitative Methods & Experimental Design/Sterberg Task/JC-subject-1.csv,legacy,1 5 2 9,Kafkaesque Koffka,3.2.8,2,y,0,left,left,NA,left,NA,1375,15927,NA,1375,NA,NA,NA,2,legacy,4,1024,2,48000,-16,experiment,1,odd,5,40699,31020,38456,3054,NA,38468,NA,37374,3069,NA,44089,39482,42713,19004,42713,NA,NA,Sternberg Task,3,4320,4,yes,1024
80,80,1090.4,1090.4,black,practice,legacy,legacy,legacy,0,uniform,1,undefined,1,right,4,4,4,0,0,4,NA,4,0,0,4,4,4,0,4,0,NA,Sun Oct 20 20:45:51 2019,The main experiment item,yes,/Users/juancastaneda/Documents/Grad School /Advanced Quantitative Methods & Experimental Design/SternbergTask.osexp,no,mono,no,18,no,white,no,yes,768,legacy,4,4,/Users/juancastaneda/Documents/Grad School /Advanced Quantitative Methods & Experimental Design/Sterberg Task/JC-subject-1.csv,legacy,2 1,Kafkaesque Koffka,3.2.8,0,n,0,right,left,NA,right,NA,1132,15927,NA,1132,NA,NA,NA,2,legacy,2,1024,2,48000,-16,experiment,1,odd,5,47426,44104,45188,3054,NA,45200,NA,37374,3069,NA,50572,46213,49439,19004,49439,NA,NA,Sternberg Task,4,5452,5,yes,1024
83.33333333,83.33333333,1047.333333,1047.333333,black,practice,legacy,legacy,legacy,0,uniform,1,undefined,1,left,5,5,5,0,0,5,NA,5,0,0,5,5,5,0,5,0,NA,Sun Oct 20 20:45:51 2019,The main experiment item,yes,/Users/juancastaneda/Documents/Grad School /Advanced Quantitative Methods & Experimental Design/SternbergTask.osexp,no,mono,no,18,no,white,no,yes,768,legacy,5,5,/Users/juancastaneda/Documents/Grad School /Advanced Quantitative Methods & Experimental Design/Sterberg Task/JC-subject-1.csv,legacy,4 8,Kafkaesque Koffka,3.2.8,1,y,0,left,left,NA,left,NA,832,15927,NA,832,NA,NA,NA,2,legacy,2,1024,2,48000,-16,experiment,1,odd,4,53918,50589,51675,3054,NA,51687,NA,37374,3069,NA,56766,52701,55932,19004,55931,NA,NA,Sternberg Task,5,6284,6,yes,1024
85.71428571,85.71428571,1168.285714,1168.285714,black,practice,legacy,legacy,legacy,0,uniform,1,undefined,1,right,6,6,6,0,0,6,NA,6,0,0,6,6,6,0,6,0,NA,Sun Oct 20 20:45:51 2019,The main experiment item,yes,/Users/juancastaneda/Documents/Grad School /Advanced Quantitative Methods & Experimental Design/SternbergTask.osexp,no,mono,no,18,no,white,no,yes,768,legacy,6,6,/Users/juancastaneda/Documents/Grad School /Advanced Quantitative Methods & Experimental Design/Sterberg Task/JC-subject-1.csv,legacy,9 6 7 4 5,Kafkaesque Koffka,3.2.8,0,n,0,right,left,NA,right,NA,1894,15927,NA,1894,NA,NA,NA,2,legacy,5,1024,2,48000,-16,experiment,1,odd,3,60111,56781,57867,3054,NA,57880,NA,37374,3069,NA,64020,58895,62125,19004,62125,NA,NA,Sternberg Task,6,8178,7,yes,1024
87.5,87.5,1153.75,1153.75,black,practice,legacy,legacy,legacy,0,uniform,1,undefined,1,left,7,7,7,0,0,7,NA,7,0,0,7,7,7,0,7,0,NA,Sun Oct 20 20:45:51 2019,The main experiment item,yes,/Users/juancastaneda/Documents/Grad School /Advanced Quantitative Methods & Experimental Design/SternbergTask.osexp,no,mono,no,18,no,white,no,yes,768,legacy,7,7,/Users/juancastaneda/Documents/Grad School /Advanced Quantitative Methods & Experimental Design/Sterberg Task/JC-subject-1.csv,legacy,4 3 1 7 9 8,Kafkaesque Koffka,3.2.8,1,y,0,left,left,NA,left,NA,1052,15927,NA,1052,NA,NA,NA,2,legacy,6,1024,2,48000,-16,experiment,1,odd,4,67368,64036,65123,3054,NA,65136,NA,37374,3069,NA,70434,66151,69381,19004,69381,NA,NA,Sternberg Task,7,9230,8,yes,1024
88.88888889,88.88888889,1118.222222,1118.222222,black,practice,legacy,legacy,legacy,0,uniform,1,undefined,1,right,8,8,8,0,0,8,NA,8,0,0,8,8,8,0,8,0,NA,Sun Oct 20 20:45:51 2019,The main experiment item,yes,/Users/juancastaneda/Documents/Grad School /Advanced Quantitative Methods & Experimental Design/SternbergTask.osexp,no,mono,no,18,no,white,no,yes,768,legacy,8,8,/Users/juancastaneda/Documents/Grad School /Advanced Quantitative Methods & Experimental Design/Sterberg Task/JC-subject-1.csv,legacy,4 1 5,Kafkaesque Koffka,3.2.8,0,n,0,right,left,NA,right,NA,834,15927,NA,834,NA,NA,NA,2,legacy,3,1024,2,48000,-16,experiment,1,odd,2,73782,70449,71536,3054,NA,71549,NA,37374,3069,NA,76630,72564,75795,19004,75795,NA,NA,Sternberg Task,8,10064,9,yes,1024
90,90,1117,1117,black,practice,legacy,legacy,legacy,0,uniform,1,undefined,1,left,9,9,9,0,0,9,NA,9,0,0,9,9,9,0,9,0,NA,Sun Oct 20 20:45:51 2019,The main experiment item,yes,/Users/juancastaneda/Documents/Grad School /Advanced Quantitative Methods & Experimental Design/SternbergTask.osexp,no,mono,no,18,no,white,no,yes,768,legacy,9,9,/Users/juancastaneda/Documents/Grad School /Advanced Quantitative Methods & Experimental Design/Sterberg Task/JC-subject-1.csv,legacy,2 9 4,Kafkaesque Koffka,3.2.8,3,y,0,left,left,NA,left,NA,1106,15927,NA,1106,NA,NA,NA,2,legacy,3,1024,2,48000,-16,experiment,1,odd,4,79982,76647,77735,3054,NA,77747,NA,37374,3069,NA,83103,78765,81996,19004,81996,NA,NA,Sternberg Task,9,11170,10,yes,1024
90.90909091,90.90909091,1133,1133,black,practice,legacy,legacy,legacy,0,uniform,1,undefined,1,right,10,10,10,0,0,10,NA,10,0,0,10,10,10,0,10,0,NA,Sun Oct 20 20:45:51 2019,The main experiment item,yes,/Users/juancastaneda/Documents/Grad School /Advanced Quantitative Methods & Experimental Design/SternbergTask.osexp,no,mono,no,18,no,white,no,yes,768,legacy,10,10,/Users/juancastaneda/Documents/Grad School /Advanced Quantitative Methods & Experimental Design/Sterberg Task/JC-subject-1.csv,legacy,3 1 9 4,Kafkaesque Koffka,3.2.8,0,n,0,right,left,NA,right,NA,1293,15927,NA,1293,NA,NA,NA,2,legacy,4,1024,2,48000,-16,experiment,1,odd,6,86451,83121,84206,3054,NA,84219,NA,37374,3069,NA,89758,85235,88464,19004,88464,NA,NA,Sternberg Task,10,12463,11,yes,1024
91.66666667,91.66666667,1128.833333,1128.833333,black,practice,legacy,legacy,legacy,0,uniform,1,undefined,1,left,11,11,11,0,0,11,NA,11,0,0,11,11,11,0,11,0,NA,Sun Oct 20 20:45:51 2019,The main experiment item,yes,/Users/juancastaneda/Documents/Grad School /Advanced Quantitative Methods & Experimental Design/SternbergTask.osexp,no,mono,no,18,no,white,no,yes,768,legacy,11,11,/Users/juancastaneda/Documents/Grad School /Advanced Quantitative Methods & Experimental Design/Sterberg Task/JC-subject-1.csv,legacy,1 7 9 8 5,Kafkaesque Koffka,3.2.8,4,y,0,left,left,NA,left,NA,1083,15927,NA,1083,NA,NA,NA,2,legacy,5,1024,2,48000,-16,experiment,1,odd,8,93104,89775,90861,3054,NA,90873,NA,37374,3069,NA,96203,91888,95119,19004,95119,NA,NA,Sternberg Task,11,13546,12,yes,1024
92.30769231,92.30769231,1150.538462,1150.538462,black,experiment,legacy,legacy,legacy,0,uniform,1,undefined,1,left,12,12,12,0,0,12,NA,12,0,0,12,12,12,0,12,0,NA,Sun Oct 20 20:45:51 2019,The main experiment item,yes,/Users/juancastaneda/Documents/Grad School /Advanced Quantitative Methods & Experimental Design/SternbergTask.osexp,no,mono,no,18,no,white,no,yes,768,legacy,0,11,/Users/juancastaneda/Documents/Grad School /Advanced Quantitative Methods & Experimental Design/Sterberg Task/JC-subject-1.csv,legacy,6 8 9 3 4 9,Kafkaesque Koffka,3.2.8,5,y,0,left,left,left,left,NA,1411,15927,41289,1411,NA,NA,NA,2,legacy,6,1024,2,48000,-16,experiment,1,odd,4,140892,96218,138647,3054,138545,138660,NA,37374,3069,97254,144318,139675,142906,19004,142906,NA,NA,Sternberg Task,12,14957,13,yes,1024
92.85714286,92.85714286,1119.785714,1119.785714,black,experiment,legacy,legacy,legacy,0,uniform,1,undefined,1,left,13,13,13,0,0,13,NA,13,0,0,13,13,13,0,13,0,NA,Sun Oct 20 20:45:51 2019,The main experiment item,yes,/Users/juancastaneda/Documents/Grad School /Advanced Quantitative Methods & Experimental Design/SternbergTask.osexp,no,mono,no,18,no,white,no,yes,768,legacy,1,11,/Users/juancastaneda/Documents/Grad School /Advanced Quantitative Methods & Experimental Design/Sterberg Task/JC-subject-1.csv,legacy,7 1 3,Kafkaesque Koffka,3.2.8,2,y,0,left,left,left,left,NA,720,15927,41289,720,NA,NA,NA,2,legacy,3,1024,2,48000,-16,experiment,1,odd,1,147666,144334,145422,3054,138545,145434,NA,37374,3069,97254,150401,146449,149680,19004,149679,NA,NA,Sternberg Task,13,15677,14,yes,1024
93.33333333,93.33333333,1104.066667,1104.066667,black,experiment,legacy,legacy,legacy,0,uniform,1,undefined,1,left,14,14,14,0,0,14,NA,14,0,0,14,14,14,0,14,0,NA,Sun Oct 20 20:45:51 2019,The main experiment item,yes,/Users/juancastaneda/Documents/Grad School /Advanced Quantitative Methods & Experimental Design/SternbergTask.osexp,no,mono,no,18,no,white,no,yes,768,legacy,2,11,/Users/juancastaneda/Documents/Grad School /Advanced Quantitative Methods & Experimental Design/Sterberg Task/JC-subject-1.csv,legacy,2 4 8 5 1 3,Kafkaesque Koffka,3.2.8,1,y,0,left,left,left,left,NA,884,15927,41289,884,NA,NA,NA,2,legacy,6,1024,2,48000,-16,experiment,1,odd,2,153748,150417,151503,3054,138545,151516,NA,37374,3069,97254,156647,152531,155762,19004,155761,NA,NA,Sternberg Task,14,16561,15,yes,1024
93.75,93.75,1110.5625,1110.5625,black,experiment,legacy,legacy,legacy,0,uniform,1,undefined,1,right,15,15,15,0,0,15,NA,15,0,0,15,15,15,0,15,0,NA,Sun Oct 20 20:45:51 2019,The main experiment item,yes,/Users/juancastaneda/Documents/Grad School /Advanced Quantitative Methods & Experimental Design/SternbergTask.osexp,no,mono,no,18,no,white,no,yes,768,legacy,3,11,/Users/juancastaneda/Documents/Grad School /Advanced Quantitative Methods & Experimental Design/Sterberg Task/JC-subject-1.csv,legacy,1 4 3 6 5,Kafkaesque Koffka,3.2.8,0,n,0,right,left,left,right,NA,1208,15927,41289,1208,NA,NA,NA,2,legacy,5,1024,2,48000,-16,experiment,1,odd,8,159997,156665,157753,3054,138545,157766,NA,37374,3069,97254,163218,158781,162009,19004,162009,NA,NA,Sternberg Task,15,17769,16,yes,1024
94.11764706,94.11764706,1108.470588,1108.470588,black,experiment,legacy,legacy,legacy,0,uniform,1,undefined,1,right,16,16,16,0,0,16,NA,16,0,0,16,16,16,0,16,0,NA,Sun Oct 20 20:45:51 2019,The main experiment item,yes,/Users/juancastaneda/Documents/Grad School /Advanced Quantitative Methods & Experimental Design/SternbergTask.osexp,no,mono,no,18,no,white,no,yes,768,legacy,4,11,/Users/juancastaneda/Documents/Grad School /Advanced Quantitative Methods & Experimental Design/Sterberg Task/JC-subject-1.csv,legacy,1 4 9 2 5,Kafkaesque Koffka,3.2.8,0,n,0,right,left,left,right,NA,1075,15927,41289,1075,NA,NA,NA,2,legacy,5,1024,2,48000,-16,experiment,1,odd,7,166563,163233,164320,3054,138545,164332,NA,37374,3069,97254,169653,165346,168577,19004,168577,NA,NA,Sternberg Task,16,18844,17,yes,1024
94.44444444,94.44444444,1083.277778,1083.277778,black,experiment,legacy,legacy,legacy,0,uniform,1,undefined,1,left,17,17,17,0,0,17,NA,17,0,0,17,17,17,0,17,0,NA,Sun Oct 20 20:45:51 2019,The main experiment item,yes,/Users/juancastaneda/Documents/Grad School /Advanced Quantitative Methods & Experimental Design/SternbergTask.osexp,no,mono,no,18,no,white,no,yes,768,legacy,5,11,/Users/juancastaneda/Documents/Grad School /Advanced Quantitative Methods & Experimental Design/Sterberg Task/JC-subject-1.csv,legacy,2 3,Kafkaesque Koffka,3.2.8,1,y,0,left,left,left,left,NA,655,15927,41289,655,NA,NA,NA,2,legacy,2,1024,2,48000,-16,experiment,1,odd,2,173000,169670,170757,3054,138545,170769,NA,37374,3069,97254,175668,171784,175012,19004,175012,NA,NA,Sternberg Task,17,19499,18,yes,1024
94.73684211,94.73684211,1074,1074,black,experiment,legacy,legacy,legacy,0,uniform,1,undefined,1,right,18,18,18,0,0,18,NA,18,0,0,18,18,18,0,18,0,NA,Sun Oct 20 20:45:51 2019,The main experiment item,yes,/Users/juancastaneda/Documents/Grad School /Advanced Quantitative Methods & Experimental Design/SternbergTask.osexp,no,mono,no,18,no,white,no,yes,768,legacy,6,11,/Users/juancastaneda/Documents/Grad School /Advanced Quantitative Methods & Experimental Design/Sterberg Task/JC-subject-1.csv,legacy,9 8 2 7 4,Kafkaesque Koffka,3.2.8,0,n,0,right,left,left,right,NA,907,15927,41289,907,NA,NA,NA,2,legacy,5,1024,2,48000,-16,experiment,1,odd,5,179014,175684,176771,3054,138545,176783,NA,37374,3069,97254,181936,177798,181028,19004,181028,NA,NA,Sternberg Task,18,20406,19,yes,1024
95,95,1067.6,1067.6,black,experiment,legacy,legacy,legacy,0,uniform,1,undefined,1,right,19,19,19,0,0,19,NA,19,0,0,19,19,19,0,19,0,NA,Sun Oct 20 20:45:51 2019,The main experiment item,yes,/Users/juancastaneda/Documents/Grad School /Advanced Quantitative Methods & Experimental Design/SternbergTask.osexp,no,mono,no,18,no,white,no,yes,768,legacy,7,11,/Users/juancastaneda/Documents/Grad School /Advanced Quantitative Methods & Experimental Design/Sterberg Task/JC-subject-1.csv,legacy,7 8 6 1,Kafkaesque Koffka,3.2.8,0,n,0,right,left,left,right,NA,946,15927,41289,946,NA,NA,NA,2,legacy,4,1024,2,48000,-16,experiment,1,odd,3,185282,181952,183038,3054,138545,183050,NA,37374,3069,97254,188243,184065,187296,19004,187295,NA,NA,Sternberg Task,19,21352,20,yes,1024
95.23809524,95.23809524,1070.238095,1070.238095,black,experiment,legacy,legacy,legacy,0,uniform,1,undefined,1,left,20,20,20,0,0,20,NA,20,0,0,20,20,20,0,20,0,NA,Sun Oct 20 20:45:51 2019,The main experiment item,yes,/Users/juancastaneda/Documents/Grad School /Advanced Quantitative Methods & Experimental Design/SternbergTask.osexp,no,mono,no,18,no,white,no,yes,768,legacy,8,11,/Users/juancastaneda/Documents/Grad School /Advanced Quantitative Methods & Experimental Design/Sterberg Task/JC-subject-1.csv,legacy,7 6,Kafkaesque Koffka,3.2.8,2,y,0,left,left,left,left,NA,1123,15927,41289,1123,NA,NA,NA,2,legacy,2,1024,2,48000,-16,experiment,1,odd,6,191589,188259,189346,3054,138545,189358,NA,37374,3069,97254,194727,190373,193603,19004,193603,NA,NA,Sternberg Task,20,22475,21,yes,1024
95.45454545,95.45454545,1058.227273,1058.227273,black,experiment,legacy,legacy,legacy,0,uniform,1,undefined,1,right,21,21,21,0,0,21,NA,21,0,0,21,21,21,0,21,0,NA,Sun Oct 20 20:45:51 2019,The main experiment item,yes,/Users/juancastaneda/Documents/Grad School /Advanced Quantitative Methods & Experimental Design/SternbergTask.osexp,no,mono,no,18,no,white,no,yes,768,legacy,9,11,/Users/juancastaneda/Documents/Grad School /Advanced Quantitative Methods & Experimental Design/Sterberg Task/JC-subject-1.csv,legacy,7 1,Kafkaesque Koffka,3.2.8,0,n,0,right,left,left,right,NA,806,15927,41289,806,NA,NA,NA,2,legacy,2,1024,2,48000,-16,experiment,1,odd,8,198073,194743,195829,3054,138545,195842,NA,37374,3069,97254,200893,196856,200086,19004,200086,NA,NA,Sternberg Task,21,23281,22,yes,1024
95.65217391,95.65217391,1049.652174,1049.652174,black,experiment,legacy,legacy,legacy,0,uniform,1,undefined,1,left,22,22,22,0,0,22,NA,22,0,0,22,22,22,0,22,0,NA,Sun Oct 20 20:45:51 2019,The main experiment item,yes,/Users/juancastaneda/Documents/Grad School /Advanced Quantitative Methods & Experimental Design/SternbergTask.osexp,no,mono,no,18,no,white,no,yes,768,legacy,10,11,/Users/juancastaneda/Documents/Grad School /Advanced Quantitative Methods & Experimental Design/Sterberg Task/JC-subject-1.csv,legacy,9 8 4,Kafkaesque Koffka,3.2.8,1,y,0,left,left,left,left,NA,861,15927,41289,861,NA,NA,NA,2,legacy,3,1024,2,48000,-16,experiment,1,odd,9,204238,200909,201994,3054,138545,202006,NA,37374,3069,97254,207114,203020,206252,19004,206251,NA,NA,Sternberg Task,22,24142,23,yes,1024
95.83333333,95.83333333,1040.333333,1040.333333,black,experiment,legacy,legacy,legacy,0,uniform,1,undefined,1,left,23,23,23,0,0,23,NA,23,0,0,23,23,23,0,23,0,NA,Sun Oct 20 20:45:51 2019,The main experiment item,yes,/Users/juancastaneda/Documents/Grad School /Advanced Quantitative Methods & Experimental Design/SternbergTask.osexp,no,mono,no,18,no,white,no,yes,768,legacy,11,11,/Users/juancastaneda/Documents/Grad School /Advanced Quantitative Methods & Experimental Design/Sterberg Task/JC-subject-1.csv,legacy,9 4 2,Kafkaesque Koffka,3.2.8,1,y,0,left,left,left,left,NA,826,15927,41289,826,NA,NA,NA,2,legacy,3,1024,2,48000,-16,experiment,1,odd,9,210460,207131,208217,3054,138545,208229,NA,37374,3069,97254,213301,209244,212473,19004,212473,NA,NA,Sternberg Task,23,24968,24,yes,1024
96,96,1041,1041,black,experiment,legacy,legacy,legacy,0,uniform,1,undefined,1,left,24,24,24,0,0,24,NA,24,0,0,24,24,24,0,24,0,NA,Sun Oct 20 20:45:51 2019,The main experiment item,yes,/Users/juancastaneda/Documents/Grad School /Advanced Quantitative Methods & Experimental Design/SternbergTask.osexp,no,mono,no,18,no,white,no,yes,768,legacy,12,11,/Users/juancastaneda/Documents/Grad School /Advanced Quantitative Methods & Experimental Design/Sterberg Task/JC-subject-1.csv,legacy,2 5 4 8 7,Kafkaesque Koffka,3.2.8,3,y,0,left,left,left,left,NA,1057,15927,41289,1057,NA,NA,NA,2,legacy,5,1024,2,48000,-16,experiment,1,odd,4,216647,213316,214403,3054,138545,214415,NA,37374,3069,97254,219719,215430,218661,19004,218661,NA,NA,Sternberg Task,24,26025,25,yes,1024
96.15384615,96.15384615,1034.615385,1034.615385,black,experiment,legacy,legacy,legacy,0,uniform,1,undefined,1,right,25,25,25,0,0,25,NA,25,0,0,25,25,25,0,25,0,NA,Sun Oct 20 20:45:51 2019,The main experiment item,yes,/Users/juancastaneda/Documents/Grad School /Advanced Quantitative Methods & Experimental Design/SternbergTask.osexp,no,mono,no,18,no,white,no,yes,768,legacy,13,11,/Users/juancastaneda/Documents/Grad School /Advanced Quantitative Methods & Experimental Design/Sterberg Task/JC-subject-1.csv,legacy,6 2 9 3 8 4,Kafkaesque Koffka,3.2.8,0,n,0,right,left,left,right,NA,875,15927,41289,875,NA,NA,NA,2,legacy,6,1024,2,48000,-16,experiment,1,odd,1,223066,219735,220822,3054,138545,220835,NA,37374,3069,97254,225955,221849,225079,19004,225079,NA,NA,Sternberg Task,25,26900,26,yes,1024
96.2962963,96.2962963,1028.037037,1028.037037,black,experiment,legacy,legacy,legacy,0,uniform,1,undefined,1,right,26,26,26,0,0,26,NA,26,0,0,26,26,26,0,26,0,NA,Sun Oct 20 20:45:51 2019,The main experiment item,yes,/Users/juancastaneda/Documents/Grad School /Advanced Quantitative Methods & Experimental Design/SternbergTask.osexp,no,mono,no,18,no,white,no,yes,768,legacy,14,11,/Users/juancastaneda/Documents/Grad School /Advanced Quantitative Methods & Experimental Design/Sterberg Task/JC-subject-1.csv,legacy,5,Kafkaesque Koffka,3.2.8,0,n,0,right,left,left,right,NA,857,15927,41289,857,NA,NA,NA,2,legacy,1,1024,2,48000,-16,experiment,1,odd,8,229300,225971,227055,3054,138545,227068,NA,37374,3069,97254,232172,228083,231314,19004,231314,NA,NA,Sternberg Task,26,27757,27,yes,1024
92.85714286,92.85714286,1036.642857,1036.642857,black,experiment,legacy,legacy,legacy,0,uniform,0,undefined,0,right,27,27,27,0,0,27,NA,27,0,0,27,27,27,0,27,0,NA,Sun Oct 20 20:45:51 2019,The main experiment item,yes,/Users/juancastaneda/Documents/Grad School /Advanced Quantitative Methods & Experimental Design/SternbergTask.osexp,no,mono,no,18,no,white,no,yes,768,legacy,15,11,/Users/juancastaneda/Documents/Grad School /Advanced Quantitative Methods & Experimental Design/Sterberg Task/JC-subject-1.csv,legacy,1 7 5 2 9,Kafkaesque Koffka,3.2.8,0,n,0,left,left,left,left,NA,1269,15927,41289,1269,NA,NA,NA,2,legacy,5,1024,2,48000,-16,experiment,1,odd,3,235520,232189,233276,3054,138545,233288,NA,37374,3069,97254,238805,234304,237534,19004,237534,NA,NA,Sternberg Task,26,29026,28,yes,1024
93.10344828,93.10344828,1048.586207,1048.586207,black,experiment,legacy,legacy,legacy,0,uniform,1,undefined,1,left,28,28,28,0,0,28,NA,28,0,0,28,28,28,0,28,0,NA,Sun Oct 20 20:45:51 2019,The main experiment item,yes,/Users/juancastaneda/Documents/Grad School /Advanced Quantitative Methods & Experimental Design/SternbergTask.osexp,no,mono,no,18,no,white,no,yes,768,legacy,16,11,/Users/juancastaneda/Documents/Grad School /Advanced Quantitative Methods & Experimental Design/Sterberg Task/JC-subject-1.csv,legacy,3 5 9 6 2 4,Kafkaesque Koffka,3.2.8,1,y,0,left,left,left,left,NA,1383,15927,41289,1383,NA,NA,NA,2,legacy,6,1024,2,48000,-16,experiment,1,odd,3,242152,232189,239907,3054,138545,239920,NA,238821,3069,97254,245551,240935,244166,19004,244166,NA,NA,Sternberg Task,27,30409,29,yes,1024
93.33333333,93.33333333,1046.7,1046.7,black,experiment,legacy,legacy,legacy,0,uniform,1,undefined,1,left,29,29,29,0,0,29,NA,29,0,0,29,29,29,0,29,0,NA,Sun Oct 20 20:45:51 2019,The main experiment item,yes,/Users/juancastaneda/Documents/Grad School /Advanced Quantitative Methods & Experimental Design/SternbergTask.osexp,no,mono,no,18,no,white,no,yes,768,legacy,17,11,/Users/juancastaneda/Documents/Grad School /Advanced Quantitative Methods & Experimental Design/Sterberg Task/JC-subject-1.csv,legacy,9 5 3 8 4,Kafkaesque Koffka,3.2.8,1,y,0,left,left,left,left,NA,992,15927,41289,992,NA,NA,NA,2,legacy,5,1024,2,48000,-16,experiment,1,odd,9,248898,245566,246653,3054,138545,246665,NA,238821,3069,97254,251904,247680,250911,19004,250911,NA,NA,Sternberg Task,28,31401,30,yes,1024
93.5483871,93.5483871,1049.612903,1049.612903,black,experiment,legacy,legacy,legacy,0,uniform,1,undefined,1,left,30,30,30,0,0,30,NA,30,0,0,30,30,30,0,30,0,NA,Sun Oct 20 20:45:51 2019,The main experiment item,yes,/Users/juancastaneda/Documents/Grad School /Advanced Quantitative Methods & Experimental Design/SternbergTask.osexp,no,mono,no,18,no,white,no,yes,768,legacy,18,11,/Users/juancastaneda/Documents/Grad School /Advanced Quantitative Methods & Experimental Design/Sterberg Task/JC-subject-1.csv,legacy,4 7 6 8 2 3,Kafkaesque Koffka,3.2.8,6,y,0,left,left,left,left,NA,1137,15927,41289,1137,NA,NA,NA,2,legacy,6,1024,2,48000,-16,experiment,1,odd,3,255250,251920,253005,3054,138545,253017,NA,238821,3069,97254,258402,254033,257264,19004,257264,NA,NA,Sternberg Task,29,32538,31,yes,1024
93.75,93.75,1044.78125,1044.78125,black,experiment,legacy,legacy,legacy,0,uniform,1,undefined,1,right,31,31,31,0,0,31,NA,31,0,0,31,31,31,0,31,0,NA,Sun Oct 20 20:45:51 2019,The main experiment item,yes,/Users/juancastaneda/Documents/Grad School /Advanced Quantitative Methods & Experimental Design/SternbergTask.osexp,no,mono,no,18,no,white,no,yes,768,legacy,19,11,/Users/juancastaneda/Documents/Grad School /Advanced Quantitative Methods & Experimental Design/Sterberg Task/JC-subject-1.csv,legacy,6 9 5,Kafkaesque Koffka,3.2.8,0,n,0,right,left,left,right,NA,895,15927,41289,895,NA,NA,NA,2,legacy,3,1024,2,48000,-16,experiment,1,odd,8,261748,258418,259504,3054,138545,259516,NA,238821,3069,97254,264659,260531,263762,19004,263761,NA,NA,Sternberg Task,30,33433,32,yes,1024
93.93939394,93.93939394,1041.333333,1041.333333,black,experiment,legacy,legacy,legacy,0,uniform,1,undefined,1,left,32,32,32,0,0,32,NA,32,0,0,32,32,32,0,32,0,NA,Sun Oct 20 20:45:51 2019,The main experiment item,yes,/Users/juancastaneda/Documents/Grad School /Advanced Quantitative Methods & Experimental Design/SternbergTask.osexp,no,mono,no,18,no,white,no,yes,768,legacy,20,11,/Users/juancastaneda/Documents/Grad School /Advanced Quantitative Methods & Experimental Design/Sterberg Task/JC-subject-1.csv,legacy,3 5 4 7,Kafkaesque Koffka,3.2.8,1,y,0,left,left,left,left,NA,931,15927,41289,931,NA,NA,NA,2,legacy,4,1024,2,48000,-16,experiment,1,odd,3,268006,264676,265763,3054,138545,265775,NA,238821,3069,97254,270952,266790,270020,19004,270020,NA,NA,Sternberg Task,31,34364,33,yes,1024
94.11764706,94.11764706,1039.941176,1039.941176,black,experiment,legacy,legacy,legacy,0,uniform,1,undefined,1,left,33,33,33,0,0,33,NA,33,0,0,33,33,33,0,33,0,NA,Sun Oct 20 20:45:51 2019,The main experiment item,yes,/Users/juancastaneda/Documents/Grad School /Advanced Quantitative Methods & Experimental Design/SternbergTask.osexp,no,mono,no,18,no,white,no,yes,768,legacy,21,11,/Users/juancastaneda/Documents/Grad School /Advanced Quantitative Methods & Experimental Design/Sterberg Task/JC-subject-1.csv,legacy,4 1 5,Kafkaesque Koffka,3.2.8,2,y,0,left,left,left,left,NA,994,15927,41289,994,NA,NA,NA,2,legacy,3,1024,2,48000,-16,experiment,1,odd,1,274299,270969,272054,3054,138545,272067,NA,238821,3069,97254,277308,273082,276312,19004,276312,NA,NA,Sternberg Task,32,35358,34,yes,1024
94.28571429,94.28571429,1045.028571,1045.028571,black,experiment,legacy,legacy,legacy,0,uniform,1,undefined,1,right,34,34,34,0,0,34,NA,34,0,0,34,34,34,0,34,0,NA,Sun Oct 20 20:45:51 2019,The main experiment item,yes,/Users/juancastaneda/Documents/Grad School /Advanced Quantitative Methods & Experimental Design/SternbergTask.osexp,no,mono,no,18,no,white,no,yes,768,legacy,22,11,/Users/juancastaneda/Documents/Grad School /Advanced Quantitative Methods & Experimental Design/Sterberg Task/JC-subject-1.csv,legacy,7 6 4 8 1 2,Kafkaesque Koffka,3.2.8,0,n,0,right,left,left,right,NA,1218,15927,41289,1218,NA,NA,NA,2,legacy,6,1024,2,48000,-16,experiment,1,odd,9,280653,277324,278410,3054,138545,278422,NA,238821,3069,97254,283888,279437,282668,19004,282667,NA,NA,Sternberg Task,33,36576,35,yes,1024
94.44444444,94.44444444,1044.527778,1044.527778,black,experiment,legacy,legacy,legacy,0,uniform,1,undefined,1,right,35,35,35,0,0,35,NA,35,0,0,35,35,35,0,35,0,NA,Sun Oct 20 20:45:51 2019,The main experiment item,yes,/Users/juancastaneda/Documents/Grad School /Advanced Quantitative Methods & Experimental Design/SternbergTask.osexp,no,mono,no,18,no,white,no,yes,768,legacy,23,11,/Users/juancastaneda/Documents/Grad School /Advanced Quantitative Methods & Experimental Design/Sterberg Task/JC-subject-1.csv,legacy,1 8 7,Kafkaesque Koffka,3.2.8,0,n,0,right,left,left,right,NA,1027,15927,41289,1027,NA,NA,NA,2,legacy,3,1024,2,48000,-16,experiment,1,odd,4,287232,283904,284990,3054,138545,285001,NA,238821,3069,97254,290273,286015,289245,19004,289245,NA,NA,Sternberg Task,34,37603,36,yes,1024
94.59459459,94.59459459,1038.567568,1038.567568,black,experiment,legacy,legacy,legacy,0,uniform,1,undefined,1,left,36,36,36,0,0,36,NA,36,0,0,36,36,36,0,36,0,NA,Sun Oct 20 20:45:51 2019,The main experiment item,yes,/Users/juancastaneda/Documents/Grad School /Advanced Quantitative Methods & Experimental Design/SternbergTask.osexp,no,mono,no,18,no,white,no,yes,768,legacy,24,11,/Users/juancastaneda/Documents/Grad School /Advanced Quantitative Methods & Experimental Design/Sterberg Task/JC-subject-1.csv,legacy,8 9 5 7 1 6,Kafkaesque Koffka,3.2.8,4,y,0,left,left,left,left,NA,824,15927,41289,824,NA,NA,NA,2,legacy,6,1024,2,48000,-16,experiment,1,odd,7,293617,290288,291373,3054,138545,291386,NA,238821,3069,97254,296457,292400,295631,19004,295630,NA,NA,Sternberg Task,35,38427,37,yes,1024
94.73684211,94.73684211,1042.421053,1042.421053,black,experiment,legacy,legacy,legacy,0,uniform,1,undefined,1,left,37,37,37,0,0,37,NA,37,0,0,37,37,37,0,37,0,NA,Sun Oct 20 20:45:51 2019,The main experiment item,yes,/Users/juancastaneda/Documents/Grad School /Advanced Quantitative Methods & Experimental Design/SternbergTask.osexp,no,mono,no,18,no,white,no,yes,768,legacy,25,11,/Users/juancastaneda/Documents/Grad School /Advanced Quantitative Methods & Experimental Design/Sterberg Task/JC-subject-1.csv,legacy,8 5 1 3 9,Kafkaesque Koffka,3.2.8,4,y,0,left,left,left,left,NA,1185,15927,41289,1185,NA,NA,NA,2,legacy,5,1024,2,48000,-16,experiment,1,odd,3,299800,296470,297557,3054,138545,297569,NA,238821,3069,97254,303000,298583,301813,19004,301813,NA,NA,Sternberg Task,36,39612,38,yes,1024
94.87179487,94.87179487,1048.102564,1048.102564,black,experiment,legacy,legacy,legacy,0,uniform,1,undefined,1,left,38,38,38,0,0,38,NA,38,0,0,38,38,38,0,38,0,NA,Sun Oct 20 20:45:51 2019,The main experiment item,yes,/Users/juancastaneda/Documents/Grad School /Advanced Quantitative Methods & Experimental Design/SternbergTask.osexp,no,mono,no,18,no,white,no,yes,768,legacy,26,11,/Users/juancastaneda/Documents/Grad School /Advanced Quantitative Methods & Experimental Design/Sterberg Task/JC-subject-1.csv,legacy,7 1 8 5 6 2,Kafkaesque Koffka,3.2.8,2,y,0,left,left,left,left,NA,1264,15927,41289,1264,NA,NA,NA,2,legacy,6,1024,2,48000,-16,experiment,1,odd,1,306346,303014,304102,3054,138545,304115,NA,238821,3069,97254,309625,305130,308360,19004,308360,NA,NA,Sternberg Task,37,40876,39,yes,1024
95,95,1046.275,1046.275,black,experiment,legacy,legacy,legacy,0,uniform,1,undefined,1,left,39,39,39,0,0,39,NA,39,0,0,39,39,39,0,39,0,NA,Sun Oct 20 20:45:51 2019,The main experiment item,yes,/Users/juancastaneda/Documents/Grad School /Advanced Quantitative Methods & Experimental Design/SternbergTask.osexp,no,mono,no,18,no,white,no,yes,768,legacy,27,11,/Users/juancastaneda/Documents/Grad School /Advanced Quantitative Methods & Experimental Design/Sterberg Task/JC-subject-1.csv,legacy,8 5 4 7 3 1,Kafkaesque Koffka,3.2.8,2,y,0,left,left,left,left,NA,975,15927,41289,975,NA,NA,NA,2,legacy,6,1024,2,48000,-16,experiment,1,odd,5,312974,309641,310729,3054,138545,310742,NA,238821,3069,97254,315963,311757,314987,19004,314987,NA,NA,Sternberg Task,38,41851,40,yes,1024
95.12195122,95.12195122,1042,1042,black,experiment,legacy,legacy,legacy,0,uniform,1,undefined,1,right,40,40,40,0,0,40,NA,40,0,0,40,40,40,0,40,0,NA,Sun Oct 20 20:45:51 2019,The main experiment item,yes,/Users/juancastaneda/Documents/Grad School /Advanced Quantitative Methods & Experimental Design/SternbergTask.osexp,no,mono,no,18,no,white,no,yes,768,legacy,28,11,/Users/juancastaneda/Documents/Grad School /Advanced Quantitative Methods & Experimental Design/Sterberg Task/JC-subject-1.csv,legacy,6 9 4 5 2,Kafkaesque Koffka,3.2.8,0,n,0,right,left,left,right,NA,871,15927,41289,871,NA,NA,NA,2,legacy,5,1024,2,48000,-16,experiment,1,odd,1,319307,315979,317064,3054,138545,317076,NA,238821,3069,97254,322192,318090,321320,19004,321320,NA,NA,Sternberg Task,39,42722,41,yes,1024
95.23809524,95.23809524,1043.833333,1043.833333,black,experiment,legacy,legacy,legacy,0,uniform,1,undefined,1,right,41,41,41,0,0,41,NA,41,0,0,41,41,41,0,41,0,NA,Sun Oct 20 20:45:51 2019,The main experiment item,yes,/Users/juancastaneda/Documents/Grad School /Advanced Quantitative Methods & Experimental Design/SternbergTask.osexp,no,mono,no,18,no,white,no,yes,768,legacy,29,11,/Users/juancastaneda/Documents/Grad School /Advanced Quantitative Methods & Experimental Design/Sterberg Task/JC-subject-1.csv,legacy,7 3 2 8,Kafkaesque Koffka,3.2.8,0,n,0,right,left,left,right,NA,1119,15927,41289,1119,NA,NA,NA,2,legacy,4,1024,2,48000,-16,experiment,1,odd,4,325537,322209,323296,3054,138545,323308,NA,238821,3069,97254,328670,324321,327550,19004,327550,NA,NA,Sternberg Task,40,43841,42,yes,1024
95.34883721,95.34883721,1039.302326,1039.302326,black,experiment,legacy,legacy,legacy,0,uniform,1,undefined,1,left,42,42,42,0,0,42,NA,42,0,0,42,42,42,0,42,0,NA,Sun Oct 20 20:45:51 2019,The main experiment item,yes,/Users/juancastaneda/Documents/Grad School /Advanced Quantitative Methods & Experimental Design/SternbergTask.osexp,no,mono,no,18,no,white,no,yes,768,legacy,30,11,/Users/juancastaneda/Documents/Grad School /Advanced Quantitative Methods & Experimental Design/Sterberg Task/JC-subject-1.csv,legacy,7 2 3,Kafkaesque Koffka,3.2.8,3,y,0,left,left,left,left,NA,849,15927,41289,849,NA,NA,NA,2,legacy,3,1024,2,48000,-16,experiment,1,odd,3,332018,328688,329775,3054,138545,329788,NA,238821,3069,97254,334881,330802,334031,19004,334031,NA,NA,Sternberg Task,41,44690,43,yes,1024
95.45454545,95.45454545,1035.568182,1035.568182,black,experiment,legacy,legacy,legacy,0,uniform,1,undefined,1,right,43,43,43,0,0,43,NA,43,0,0,43,43,43,0,43,0,NA,Sun Oct 20 20:45:51 2019,The main experiment item,yes,/Users/juancastaneda/Documents/Grad School /Advanced Quantitative Methods & Experimental Design/SternbergTask.osexp,no,mono,no,18,no,white,no,yes,768,legacy,31,11,/Users/juancastaneda/Documents/Grad School /Advanced Quantitative Methods & Experimental Design/Sterberg Task/JC-subject-1.csv,legacy,1 5 3 2 8,Kafkaesque Koffka,3.2.8,0,n,0,right,left,left,right,NA,875,15927,41289,875,NA,NA,NA,2,legacy,5,1024,2,48000,-16,experiment,1,odd,4,338224,334896,335982,3054,138545,335995,NA,238821,3069,97254,341113,337008,340237,19004,340237,NA,NA,Sternberg Task,42,45565,44,yes,1024
95.55555556,95.55555556,1037,1037,black,experiment,legacy,legacy,legacy,0,uniform,1,undefined,1,right,44,44,44,0,0,44,NA,44,0,0,44,44,44,0,44,0,NA,Sun Oct 20 20:45:51 2019,The main experiment item,yes,/Users/juancastaneda/Documents/Grad School /Advanced Quantitative Methods & Experimental Design/SternbergTask.osexp,no,mono,no,18,no,white,no,yes,768,legacy,32,11,/Users/juancastaneda/Documents/Grad School /Advanced Quantitative Methods & Experimental Design/Sterberg Task/JC-subject-1.csv,legacy,8 6 3 4 7,Kafkaesque Koffka,3.2.8,0,n,0,right,left,left,right,NA,1100,15927,41289,1100,NA,NA,NA,2,legacy,5,1024,2,48000,-16,experiment,1,odd,1,344459,341129,342215,3054,138545,342227,NA,238821,3069,97254,347575,343242,346473,19004,346473,NA,NA,Sternberg Task,43,46665,45,yes,1024
95.65217391,95.65217391,1034.673913,1034.673913,black,experiment,legacy,legacy,legacy,0,uniform,1,undefined,1,right,45,45,45,0,0,45,NA,45,0,0,45,45,45,0,45,0,NA,Sun Oct 20 20:45:51 2019,The main experiment item,yes,/Users/juancastaneda/Documents/Grad School /Advanced Quantitative Methods & Experimental Design/SternbergTask.osexp,no,mono,no,18,no,white,no,yes,768,legacy,33,11,/Users/juancastaneda/Documents/Grad School /Advanced Quantitative Methods & Experimental Design/Sterberg Task/JC-subject-1.csv,legacy,5 2,Kafkaesque Koffka,3.2.8,0,n,0,right,left,left,right,NA,930,15927,41289,930,NA,NA,NA,2,legacy,2,1024,2,48000,-16,experiment,1,odd,7,350920,347590,348675,3054,138545,348688,NA,238821,3069,97254,353865,349703,352933,19004,352933,NA,NA,Sternberg Task,44,47595,46,yes,1024
95.74468085,95.74468085,1034.170213,1034.170213,black,experiment,legacy,legacy,legacy,0,uniform,1,undefined,1,right,46,46,46,0,0,46,NA,46,0,0,46,46,46,0,46,0,NA,Sun Oct 20 20:45:51 2019,The main experiment item,yes,/Users/juancastaneda/Documents/Grad School /Advanced Quantitative Methods & Experimental Design/SternbergTask.osexp,no,mono,no,18,no,white,no,yes,768,legacy,34,11,/Users/juancastaneda/Documents/Grad School /Advanced Quantitative Methods & Experimental Design/Sterberg Task/JC-subject-1.csv,legacy,1 3 2 6 9,Kafkaesque Koffka,3.2.8,0,n,0,right,left,left,right,NA,1011,15927,41289,1011,NA,NA,NA,2,legacy,5,1024,2,48000,-16,experiment,1,odd,5,357210,353881,354968,3054,138545,354980,NA,238821,3069,97254,360235,355994,359223,19004,359223,NA,NA,Sternberg Task,45,48606,47,yes,1024
95.83333333,95.83333333,1030.645833,1030.645833,black,experiment,legacy,legacy,legacy,0,uniform,1,undefined,1,right,47,47,47,0,0,47,NA,47,0,0,47,47,47,0,47,0,NA,Sun Oct 20 20:45:51 2019,The main experiment item,yes,/Users/juancastaneda/Documents/Grad School /Advanced Quantitative Methods & Experimental Design/SternbergTask.osexp,no,mono,no,18,no,white,no,yes,768,legacy,35,11,/Users/juancastaneda/Documents/Grad School /Advanced Quantitative Methods & Experimental Design/Sterberg Task/JC-subject-1.csv,legacy,3 9 1,Kafkaesque Koffka,3.2.8,0,n,0,right,left,left,right,NA,865,15927,41289,865,NA,NA,NA,2,legacy,3,1024,2,48000,-16,experiment,1,odd,7,363578,360251,361336,3054,138545,361348,NA,238821,3069,97254,366458,362362,365592,19004,365592,NA,NA,Sternberg Task,46,49471,48,yes,1024
95.91836735,95.91836735,1032.020408,1032.020408,black,experiment,legacy,legacy,legacy,0,uniform,1,undefined,1,left,48,48,48,0,0,48,NA,48,0,0,48,48,48,0,48,0,NA,Sun Oct 20 20:45:51 2019,The main experiment item,yes,/Users/juancastaneda/Documents/Grad School /Advanced Quantitative Methods & Experimental Design/SternbergTask.osexp,no,mono,no,18,no,white,no,yes,768,legacy,36,11,/Users/juancastaneda/Documents/Grad School /Advanced Quantitative Methods & Experimental Design/Sterberg Task/JC-subject-1.csv,legacy,4 6 2 5 1,Kafkaesque Koffka,3.2.8,5,y,0,left,left,left,left,NA,1098,15927,41289,1098,NA,NA,NA,2,legacy,5,1024,2,48000,-16,experiment,1,odd,1,369804,366473,367560,3054,138545,367572,NA,238821,3069,97254,372916,368586,371817,19004,371817,NA,NA,Sternberg Task,47,50569,49,yes,1024
96,96,1030.06,1030.06,black,experiment,legacy,legacy,legacy,0,uniform,1,undefined,1,left,49,49,49,0,0,49,NA,49,0,0,49,49,49,0,49,0,NA,Sun Oct 20 20:45:51 2019,The main experiment item,yes,/Users/juancastaneda/Documents/Grad School /Advanced Quantitative Methods & Experimental Design/SternbergTask.osexp,no,mono,no,18,no,white,no,yes,768,legacy,37,11,/Users/juancastaneda/Documents/Grad School /Advanced Quantitative Methods & Experimental Design/Sterberg Task/JC-subject-1.csv,legacy,1 4 9 3 2 5,Kafkaesque Koffka,3.2.8,3,y,0,left,left,left,left,NA,934,15927,41289,934,NA,NA,NA,2,legacy,6,1024,2,48000,-16,experiment,1,odd,9,376261,372932,374018,3054,138545,374030,NA,238821,3069,97254,379210,375044,378274,19004,378274,NA,NA,Sternberg Task,48,51503,50,yes,1024
96.07843137,96.07843137,1030.019608,1030.019608,black,experiment,legacy,legacy,legacy,0,uniform,1,undefined,1,right,50,50,50,0,0,50,NA,50,0,0,50,50,50,0,50,0,NA,Sun Oct 20 20:45:51 2019,The main experiment item,yes,/Users/juancastaneda/Documents/Grad School /Advanced Quantitative Methods & Experimental Design/SternbergTask.osexp,no,mono,no,18,no,white,no,yes,768,legacy,38,11,/Users/juancastaneda/Documents/Grad School /Advanced Quantitative Methods & Experimental Design/Sterberg Task/JC-subject-1.csv,legacy,4 8 1 2,Kafkaesque Koffka,3.2.8,0,n,0,right,left,left,right,NA,1028,15927,41289,1028,NA,NA,NA,2,legacy,4,1024,2,48000,-16,experiment,1,odd,7,382555,379226,380311,3054,138545,380323,NA,238821,3069,97254,385599,381338,384569,19004,384569,NA,NA,Sternberg Task,49,52531,51,yes,1024
96.15384615,96.15384615,1033.615385,1033.615385,black,experiment,legacy,legacy,legacy,0,uniform,1,undefined,1,right,51,51,51,0,0,51,NA,51,0,0,51,51,51,0,51,0,NA,Sun Oct 20 20:45:51 2019,The main experiment item,yes,/Users/juancastaneda/Documents/Grad School /Advanced Quantitative Methods & Experimental Design/SternbergTask.osexp,no,mono,no,18,no,white,no,yes,768,legacy,39,11,/Users/juancastaneda/Documents/Grad School /Advanced Quantitative Methods & Experimental Design/Sterberg Task/JC-subject-1.csv,legacy,1 7 8 3 9,Kafkaesque Koffka,3.2.8,0,n,0,right,left,left,right,NA,1217,15927,41289,1217,NA,NA,NA,2,legacy,5,1024,2,48000,-16,experiment,1,odd,2,388944,385614,386700,3054,138545,386713,NA,238821,3069,97254,392175,387728,390957,19004,390957,NA,NA,Sternberg Task,50,53748,52,yes,1024
96.22641509,96.22641509,1037.226415,1037.226415,black,experiment,legacy,legacy,legacy,0,uniform,1,undefined,1,left,52,52,52,0,0,52,NA,52,0,0,52,52,52,0,52,0,NA,Sun Oct 20 20:45:51 2019,The main experiment item,yes,/Users/juancastaneda/Documents/Grad School /Advanced Quantitative Methods & Experimental Design/SternbergTask.osexp,no,mono,no,18,no,white,no,yes,768,legacy,40,11,/Users/juancastaneda/Documents/Grad School /Advanced Quantitative Methods & Experimental Design/Sterberg Task/JC-subject-1.csv,legacy,8 5 3 7 4 6,Kafkaesque Koffka,3.2.8,6,y,0,left,left,left,left,NA,1225,15927,41289,1225,NA,NA,NA,2,legacy,6,1024,2,48000,-16,experiment,1,odd,6,395519,392191,393277,3054,138545,393289,NA,238821,3069,97254,398758,394303,397532,19004,397532,NA,NA,Sternberg Task,51,54973,53,yes,1024
96.2962963,96.2962963,1039.222222,1039.222222,black,experiment,legacy,legacy,legacy,0,uniform,1,undefined,1,right,53,53,53,0,0,53,NA,53,0,0,53,53,53,0,53,0,NA,Sun Oct 20 20:45:51 2019,The main experiment item,yes,/Users/juancastaneda/Documents/Grad School /Advanced Quantitative Methods & Experimental Design/SternbergTask.osexp,no,mono,no,18,no,white,no,yes,768,legacy,41,11,/Users/juancastaneda/Documents/Grad School /Advanced Quantitative Methods & Experimental Design/Sterberg Task/JC-subject-1.csv,legacy,8 5 7 3 6,Kafkaesque Koffka,3.2.8,0,n,0,right,left,left,right,NA,1145,15927,41289,1145,NA,NA,NA,2,legacy,5,1024,2,48000,-16,experiment,1,odd,9,402102,398774,399859,3054,138545,399871,NA,238821,3069,97254,405261,400886,404115,19004,404115,NA,NA,Sternberg Task,52,56118,54,yes,1024
96.36363636,96.36363636,1035.090909,1035.090909,black,experiment,legacy,legacy,legacy,0,uniform,1,undefined,1,right,54,54,54,0,0,54,NA,54,0,0,54,54,54,0,54,0,NA,Sun Oct 20 20:45:51 2019,The main experiment item,yes,/Users/juancastaneda/Documents/Grad School /Advanced Quantitative Methods & Experimental Design/SternbergTask.osexp,no,mono,no,18,no,white,no,yes,768,legacy,42,11,/Users/juancastaneda/Documents/Grad School /Advanced Quantitative Methods & Experimental Design/Sterberg Task/JC-subject-1.csv,legacy,7 9,Kafkaesque Koffka,3.2.8,0,n,0,right,left,left,right,NA,812,15927,41289,812,NA,NA,NA,2,legacy,2,1024,2,48000,-16,experiment,1,odd,1,408605,405277,406361,3054,138545,406374,NA,238821,3069,97254,411432,407388,410618,19004,410618,NA,NA,Sternberg Task,53,56930,55,yes,1024
96.42857143,96.42857143,1031.392857,1031.392857,black,experiment,legacy,legacy,legacy,0,uniform,1,undefined,1,left,55,55,55,0,0,55,NA,55,0,0,55,55,55,0,55,0,NA,Sun Oct 20 20:45:51 2019,The main experiment item,yes,/Users/juancastaneda/Documents/Grad School /Advanced Quantitative Methods & Experimental Design/SternbergTask.osexp,no,mono,no,18,no,white,no,yes,768,legacy,43,11,/Users/juancastaneda/Documents/Grad School /Advanced Quantitative Methods & Experimental Design/Sterberg Task/JC-subject-1.csv,legacy,8 3,Kafkaesque Koffka,3.2.8,2,y,0,left,left,left,left,NA,828,15927,41289,828,NA,NA,NA,2,legacy,2,1024,2,48000,-16,experiment,1,odd,3,414777,411447,412532,3054,138545,412545,NA,238821,3069,97254,417619,413559,416790,19004,416790,NA,NA,Sternberg Task,54,57758,56,yes,1024
96.49122807,96.49122807,1027.298246,1027.298246,black,experiment,legacy,legacy,legacy,0,uniform,1,undefined,1,left,56,56,56,0,0,56,NA,56,0,0,56,56,56,0,56,0,NA,Sun Oct 20 20:45:51 2019,The main experiment item,yes,/Users/juancastaneda/Documents/Grad School /Advanced Quantitative Methods & Experimental Design/SternbergTask.osexp,no,mono,no,18,no,white,no,yes,768,legacy,44,11,/Users/juancastaneda/Documents/Grad School /Advanced Quantitative Methods & Experimental Design/Sterberg Task/JC-subject-1.csv,legacy,4 6 5 8,Kafkaesque Koffka,3.2.8,1,y,0,left,left,left,left,NA,798,15927,41289,798,NA,NA,NA,2,legacy,4,1024,2,48000,-16,experiment,1,odd,4,420966,417635,418722,3054,138545,418734,NA,238821,3069,97254,423779,419749,422980,19004,422980,NA,NA,Sternberg Task,55,58556,57,yes,1024
96.55172414,96.55172414,1032.655172,1032.655172,black,experiment,legacy,legacy,legacy,0,uniform,1,undefined,1,right,57,57,57,0,0,57,NA,57,0,0,57,57,57,0,57,0,NA,Sun Oct 20 20:45:51 2019,The main experiment item,yes,/Users/juancastaneda/Documents/Grad School /Advanced Quantitative Methods & Experimental Design/SternbergTask.osexp,no,mono,no,18,no,white,no,yes,768,legacy,45,11,/Users/juancastaneda/Documents/Grad School /Advanced Quantitative Methods & Experimental Design/Sterberg Task/JC-subject-1.csv,legacy,9 7 4 5 8,Kafkaesque Koffka,3.2.8,0,n,0,right,left,left,right,NA,1338,15927,41289,1338,NA,NA,NA,2,legacy,5,1024,2,48000,-16,experiment,1,odd,6,427125,423795,424882,3054,138545,424894,NA,238821,3069,97254,430477,425909,429138,19004,429138,NA,NA,Sternberg Task,56,59894,58,yes,1024
96.61016949,96.61016949,1029.050847,1029.050847,black,experiment,legacy,legacy,legacy,0,uniform,1,undefined,1,left,58,58,58,0,0,58,NA,58,0,0,58,58,58,0,58,0,NA,Sun Oct 20 20:45:51 2019,The main experiment item,yes,/Users/juancastaneda/Documents/Grad School /Advanced Quantitative Methods & Experimental Design/SternbergTask.osexp,no,mono,no,18,no,white,no,yes,768,legacy,46,11,/Users/juancastaneda/Documents/Grad School /Advanced Quantitative Methods & Experimental Design/Sterberg Task/JC-subject-1.csv,legacy,9 6 2 4 1,Kafkaesque Koffka,3.2.8,4,y,0,left,left,left,left,NA,820,15927,41289,820,NA,NA,NA,2,legacy,5,1024,2,48000,-16,experiment,1,odd,4,433823,430493,431579,3054,138545,431591,NA,238821,3069,97254,436657,432605,435836,19004,435836,NA,NA,Sternberg Task,57,60714,59,yes,1024
96.66666667,96.66666667,1031.9,1031.9,black,experiment,legacy,legacy,legacy,0,uniform,1,undefined,1,left,59,59,59,0,0,59,NA,59,0,0,59,59,59,0,59,0,NA,Sun Oct 20 20:45:51 2019,The main experiment item,yes,/Users/juancastaneda/Documents/Grad School /Advanced Quantitative Methods & Experimental Design/SternbergTask.osexp,no,mono,no,18,no,white,no,yes,768,legacy,47,11,/Users/juancastaneda/Documents/Grad School /Advanced Quantitative Methods & Experimental Design/Sterberg Task/JC-subject-1.csv,legacy,9 3 8 2 1 4,Kafkaesque Koffka,3.2.8,3,y,0,left,left,left,left,NA,1200,15927,41289,1200,NA,NA,NA,2,legacy,6,1024,2,48000,-16,experiment,1,odd,8,440001,436673,437761,3054,138545,437773,NA,238821,3069,97254,443216,438786,442014,19004,442014,NA,NA,Sternberg Task,58,61914,60,yes,1024
96.72131148,96.72131148,1035.278689,1035.278689,black,experiment,legacy,legacy,legacy,0,uniform,1,undefined,1,left,60,60,60,0,0,60,NA,60,0,0,60,60,60,0,60,0,NA,Sun Oct 20 20:45:51 2019,The main experiment item,yes,/Users/juancastaneda/Documents/Grad School /Advanced Quantitative Methods & Experimental Design/SternbergTask.osexp,no,mono,no,18,no,white,no,yes,768,legacy,48,11,/Users/juancastaneda/Documents/Grad School /Advanced Quantitative Methods & Experimental Design/Sterberg Task/JC-subject-1.csv,legacy,3 9 7 6 4,Kafkaesque Koffka,3.2.8,3,y,0,left,left,left,left,NA,1238,15927,41289,1238,NA,NA,NA,2,legacy,5,1024,2,48000,-16,experiment,1,odd,7,446560,443232,444317,3054,138545,444329,NA,238821,3069,97254,449812,445344,448573,19004,448573,NA,NA,Sternberg Task,59,63152,61,yes,1024
96.77419355,96.77419355,1035.193548,1035.193548,black,experiment,legacy,legacy,legacy,0,uniform,1,undefined,1,right,61,61,61,0,0,61,NA,61,0,0,61,61,61,0,61,0,NA,Sun Oct 20 20:45:51 2019,The main experiment item,yes,/Users/juancastaneda/Documents/Grad School /Advanced Quantitative Methods & Experimental Design/SternbergTask.osexp,no,mono,no,18,no,white,no,yes,768,legacy,49,11,/Users/juancastaneda/Documents/Grad School /Advanced Quantitative Methods & Experimental Design/Sterberg Task/JC-subject-1.csv,legacy,4 2 7 6 1 3,Kafkaesque Koffka,3.2.8,0,n,0,right,left,left,right,NA,1030,15927,41289,1030,NA,NA,NA,2,legacy,6,1024,2,48000,-16,experiment,1,odd,8,453157,449828,450914,3054,138545,450926,NA,238821,3069,97254,456202,451941,455170,19004,455170,NA,NA,Sternberg Task,60,64182,62,yes,1024
96.82539683,96.82539683,1039.079365,1039.079365,black,experiment,legacy,legacy,legacy,0,uniform,1,undefined,1,right,62,62,62,0,0,62,NA,62,0,0,62,62,62,0,62,0,NA,Sun Oct 20 20:45:51 2019,The main experiment item,yes,/Users/juancastaneda/Documents/Grad School /Advanced Quantitative Methods & Experimental Design/SternbergTask.osexp,no,mono,no,18,no,white,no,yes,768,legacy,50,11,/Users/juancastaneda/Documents/Grad School /Advanced Quantitative Methods & Experimental Design/Sterberg Task/JC-subject-1.csv,legacy,3 4 2,Kafkaesque Koffka,3.2.8,0,n,0,right,left,left,right,NA,1280,15927,41289,1280,NA,NA,NA,2,legacy,3,1024,2,48000,-16,experiment,1,odd,5,459547,456218,457303,3054,138545,457315,NA,238821,3069,97254,462843,458330,461561,19004,461561,NA,NA,Sternberg Task,61,65462,63,yes,1024
96.875,96.875,1035.703125,1035.703125,black,experiment,legacy,legacy,legacy,0,uniform,1,undefined,1,left,63,63,63,0,0,63,NA,63,0,0,63,63,63,0,63,0,NA,Sun Oct 20 20:45:51 2019,The main experiment item,yes,/Users/juancastaneda/Documents/Grad School /Advanced Quantitative Methods & Experimental Design/SternbergTask.osexp,no,mono,no,18,no,white,no,yes,768,legacy,51,11,/Users/juancastaneda/Documents/Grad School /Advanced Quantitative Methods & Experimental Design/Sterberg Task/JC-subject-1.csv,legacy,8,Kafkaesque Koffka,3.2.8,1,y,0,left,left,left,left,NA,823,15927,41289,823,NA,NA,NA,2,legacy,1,1024,2,48000,-16,experiment,1,odd,8,466186,462858,463942,3054,138545,463955,NA,238821,3069,97254,469023,464969,468199,19004,468199,NA,NA,Sternberg Task,62,66285,64,yes,1024
96.92307692,96.92307692,1037.138462,1037.138462,black,experiment,legacy,legacy,legacy,0,uniform,1,undefined,1,right,64,64,64,0,0,64,NA,64,0,0,64,64,64,0,64,0,NA,Sun Oct 20 20:45:51 2019,The main experiment item,yes,/Users/juancastaneda/Documents/Grad School /Advanced Quantitative Methods & Experimental Design/SternbergTask.osexp,no,mono,no,18,no,white,no,yes,768,legacy,52,11,/Users/juancastaneda/Documents/Grad School /Advanced Quantitative Methods & Experimental Design/Sterberg Task/JC-subject-1.csv,legacy,5 7 3,Kafkaesque Koffka,3.2.8,0,n,0,right,left,left,right,NA,1129,15927,41289,1129,NA,NA,NA,2,legacy,3,1024,2,48000,-16,experiment,1,odd,9,472367,469040,470125,3054,138545,470137,NA,238821,3069,97254,475512,471151,474381,19004,474381,NA,NA,Sternberg Task,63,67414,65,yes,1024
96.96969697,96.96969697,1037.106061,1037.106061,black,experiment,legacy,legacy,legacy,0,uniform,1,undefined,1,right,65,65,65,0,0,65,NA,65,0,0,65,65,65,0,65,0,NA,Sun Oct 20 20:45:51 2019,The main experiment item,yes,/Users/juancastaneda/Documents/Grad School /Advanced Quantitative Methods & Experimental Design/SternbergTask.osexp,no,mono,no,18,no,white,no,yes,768,legacy,53,11,/Users/juancastaneda/Documents/Grad School /Advanced Quantitative Methods & Experimental Design/Sterberg Task/JC-subject-1.csv,legacy,3 4 9 6 7 8,Kafkaesque Koffka,3.2.8,0,n,0,right,left,left,right,NA,1035,15927,41289,1035,NA,NA,NA,2,legacy,6,1024,2,48000,-16,experiment,1,odd,2,478858,475528,476614,3054,138545,476626,NA,238821,3069,97254,481908,477640,480871,19004,480871,NA,NA,Sternberg Task,64,68449,66,yes,1024
97.01492537,97.01492537,1030.895522,1030.895522,black,experiment,legacy,legacy,legacy,0,uniform,1,undefined,1,right,66,66,66,0,0,66,NA,66,0,0,66,66,66,0,66,0,NA,Sun Oct 20 20:45:51 2019,The main experiment item,yes,/Users/juancastaneda/Documents/Grad School /Advanced Quantitative Methods & Experimental Design/SternbergTask.osexp,no,mono,no,18,no,white,no,yes,768,legacy,54,11,/Users/juancastaneda/Documents/Grad School /Advanced Quantitative Methods & Experimental Design/Sterberg Task/JC-subject-1.csv,legacy,2 8 9,Kafkaesque Koffka,3.2.8,0,n,0,right,left,left,right,NA,621,15927,41289,621,NA,NA,NA,2,legacy,3,1024,2,48000,-16,experiment,1,odd,6,485249,481922,483006,3054,138545,483018,NA,238821,3069,97254,487884,484032,487262,19004,487262,NA,NA,Sternberg Task,65,69070,67,yes,1024
97.05882353,97.05882353,1028.779412,1028.779412,black,experiment,legacy,legacy,legacy,0,uniform,1,undefined,1,left,67,67,67,0,0,67,NA,67,0,0,67,67,67,0,67,0,NA,Sun Oct 20 20:45:51 2019,The main experiment item,yes,/Users/juancastaneda/Documents/Grad School /Advanced Quantitative Methods & Experimental Design/SternbergTask.osexp,no,mono,no,18,no,white,no,yes,768,legacy,55,11,/Users/juancastaneda/Documents/Grad School /Advanced Quantitative Methods & Experimental Design/Sterberg Task/JC-subject-1.csv,legacy,3 5 7 1,Kafkaesque Koffka,3.2.8,3,y,0,left,left,left,left,NA,887,15927,41289,887,NA,NA,NA,2,legacy,4,1024,2,48000,-16,experiment,1,odd,7,491229,487900,488987,3054,138545,488999,NA,238821,3069,97254,494131,490012,493242,19004,493242,NA,NA,Sternberg Task,66,69957,68,yes,1024
95.65217391,95.65217391,1032.623188,1032.623188,black,experiment,legacy,legacy,legacy,0,uniform,0,undefined,0,left,68,68,68,0,0,68,NA,68,0,0,68,68,68,0,68,0,NA,Sun Oct 20 20:45:51 2019,The main experiment item,yes,/Users/juancastaneda/Documents/Grad School /Advanced Quantitative Methods & Experimental Design/SternbergTask.osexp,no,mono,no,18,no,white,no,yes,768,legacy,56,11,/Users/juancastaneda/Documents/Grad School /Advanced Quantitative Methods & Experimental Design/Sterberg Task/JC-subject-1.csv,legacy,9 1 6 7 8,Kafkaesque Koffka,3.2.8,1,y,0,right,left,left,right,NA,1294,15927,41289,1294,NA,NA,NA,2,legacy,5,1024,2,48000,-16,experiment,1,odd,9,497475,494146,495232,3054,138545,495244,NA,238821,3069,97254,500785,496258,499489,19004,499489,NA,NA,Sternberg Task,66,71251,69,yes,1024
95.71428571,95.71428571,1031.714286,1031.714286,black,experiment,legacy,legacy,legacy,0,uniform,1,undefined,1,left,69,69,69,0,0,69,NA,69,0,0,69,69,69,0,69,0,NA,Sun Oct 20 20:45:51 2019,The main experiment item,yes,/Users/juancastaneda/Documents/Grad School /Advanced Quantitative Methods & Experimental Design/SternbergTask.osexp,no,mono,no,18,no,white,no,yes,768,legacy,57,11,/Users/juancastaneda/Documents/Grad School /Advanced Quantitative Methods & Experimental Design/Sterberg Task/JC-subject-1.csv,legacy,9 5 8 1,Kafkaesque Koffka,3.2.8,2,y,0,left,left,left,left,NA,969,15927,41289,969,NA,NA,NA,2,legacy,4,1024,2,48000,-16,experiment,1,odd,5,504131,494146,501887,3054,138545,501899,NA,500801,3069,97254,507118,502914,506144,19004,506144,NA,NA,Sternberg Task,67,72220,70,yes,1024
95.77464789,95.77464789,1032.957746,1032.957746,black,experiment,legacy,legacy,legacy,0,uniform,1,undefined,1,right,70,70,70,0,0,70,NA,70,0,0,70,70,70,0,70,0,NA,Sun Oct 20 20:45:51 2019,The main experiment item,yes,/Users/juancastaneda/Documents/Grad School /Advanced Quantitative Methods & Experimental Design/SternbergTask.osexp,no,mono,no,18,no,white,no,yes,768,legacy,58,11,/Users/juancastaneda/Documents/Grad School /Advanced Quantitative Methods & Experimental Design/Sterberg Task/JC-subject-1.csv,legacy,3 9 8 1 6 4,Kafkaesque Koffka,3.2.8,0,n,0,right,left,left,right,NA,1120,15927,41289,1120,NA,NA,NA,2,legacy,6,1024,2,48000,-16,experiment,1,odd,7,510462,507133,508219,3054,138545,508232,NA,500801,3069,97254,513597,509246,512476,19004,512476,NA,NA,Sternberg Task,68,73340,71,yes,1024
94.44444444,94.44444444,1030.791667,1030.791667,black,experiment,legacy,legacy,legacy,0,uniform,0,undefined,0,left,71,71,71,0,0,71,NA,71,0,0,71,71,71,0,71,0,NA,Sun Oct 20 20:45:51 2019,The main experiment item,yes,/Users/juancastaneda/Documents/Grad School /Advanced Quantitative Methods & Experimental Design/SternbergTask.osexp,no,mono,no,18,no,white,no,yes,768,legacy,59,11,/Users/juancastaneda/Documents/Grad School /Advanced Quantitative Methods & Experimental Design/Sterberg Task/JC-subject-1.csv,legacy,4 3 2 5 8,Kafkaesque Koffka,3.2.8,2,y,0,right,left,left,right,NA,877,15927,41289,877,NA,NA,NA,2,legacy,5,1024,2,48000,-16,experiment,1,odd,3,516943,513613,514699,3054,138545,514712,NA,500801,3069,97254,519835,515726,518956,19004,518956,NA,NA,Sternberg Task,68,74217,72,yes,1024
94.52054795,94.52054795,1035.479452,1035.479452,black,experiment,legacy,legacy,legacy,0,uniform,1,undefined,1,right,72,72,72,0,0,72,NA,72,0,0,72,72,72,0,72,0,NA,Sun Oct 20 20:45:51 2019,The main experiment item,yes,/Users/juancastaneda/Documents/Grad School /Advanced Quantitative Methods & Experimental Design/SternbergTask.osexp,no,mono,no,18,no,white,no,yes,768,legacy,60,11,/Users/juancastaneda/Documents/Grad School /Advanced Quantitative Methods & Experimental Design/Sterberg Task/JC-subject-1.csv,legacy,4 1,Kafkaesque Koffka,3.2.8,0,n,0,right,left,left,right,NA,1373,15927,41289,1373,NA,NA,NA,2,legacy,2,1024,2,48000,-16,experiment,1,odd,6,523178,513613,520935,3054,138545,520947,NA,519850,3069,97254,526566,521961,525192,19004,525191,NA,NA,Sternberg Task,69,75590,73,yes,1024
94.59459459,94.59459459,1045.067568,1045.067568,black,experiment,legacy,legacy,legacy,0,uniform,1,undefined,1,right,73,73,73,0,0,73,NA,73,0,0,73,73,73,0,73,0,NA,Sun Oct 20 20:45:51 2019,The main experiment item,yes,/Users/juancastaneda/Documents/Grad School /Advanced Quantitative Methods & Experimental Design/SternbergTask.osexp,no,mono,no,18,no,white,no,yes,768,legacy,61,11,/Users/juancastaneda/Documents/Grad School /Advanced Quantitative Methods & Experimental Design/Sterberg Task/JC-subject-1.csv,legacy,5 3 2 6 9 8,Kafkaesque Koffka,3.2.8,0,n,0,right,left,left,right,NA,1745,15927,41289,1745,NA,NA,NA,2,legacy,6,1024,2,48000,-16,experiment,1,odd,4,529913,526582,527669,3054,138545,527681,NA,519850,3069,97254,533672,528695,531926,19004,531926,NA,NA,Sternberg Task,70,77335,74,yes,1024
94.66666667,94.66666667,1044.08,1044.08,black,experiment,legacy,legacy,legacy,0,uniform,1,undefined,1,left,74,74,74,0,0,74,NA,74,0,0,74,74,74,0,74,0,NA,Sun Oct 20 20:45:51 2019,The main experiment item,yes,/Users/juancastaneda/Documents/Grad School /Advanced Quantitative Methods & Experimental Design/SternbergTask.osexp,no,mono,no,18,no,white,no,yes,768,legacy,62,11,/Users/juancastaneda/Documents/Grad School /Advanced Quantitative Methods & Experimental Design/Sterberg Task/JC-subject-1.csv,legacy,6 2,Kafkaesque Koffka,3.2.8,1,y,0,left,left,left,left,NA,971,15927,41289,971,NA,NA,NA,2,legacy,2,1024,2,48000,-16,experiment,1,odd,6,537017,533689,534774,3054,138545,534787,NA,519850,3069,97254,540004,535801,539031,19004,539030,NA,NA,Sternberg Task,71,78306,75,yes,1024
94.73684211,94.73684211,1044.473684,1044.473684,black,experiment,legacy,legacy,legacy,0,uniform,1,undefined,1,left,75,75,75,0,0,75,NA,75,0,0,75,75,75,0,75,0,NA,Sun Oct 20 20:45:51 2019,The main experiment item,yes,/Users/juancastaneda/Documents/Grad School /Advanced Quantitative Methods & Experimental Design/SternbergTask.osexp,no,mono,no,18,no,white,no,yes,768,legacy,63,11,/Users/juancastaneda/Documents/Grad School /Advanced Quantitative Methods & Experimental Design/Sterberg Task/JC-subject-1.csv,legacy,5 2 9 6 1 7,Kafkaesque Koffka,3.2.8,3,y,0,left,left,left,left,NA,1074,15927,41289,1074,NA,NA,NA,2,legacy,6,1024,2,48000,-16,experiment,1,odd,9,543349,540019,541105,3054,138545,541117,NA,519850,3069,97254,546438,542132,545362,19004,545362,NA,NA,Sternberg Task,72,79380,76,yes,1024
94.80519481,94.80519481,1044.220779,1044.220779,black,experiment,legacy,legacy,legacy,0,uniform,1,undefined,1,left,76,76,76,0,0,76,NA,76,0,0,76,76,76,0,76,0,NA,Sun Oct 20 20:45:51 2019,The main experiment item,yes,/Users/juancastaneda/Documents/Grad School /Advanced Quantitative Methods & Experimental Design/SternbergTask.osexp,no,mono,no,18,no,white,no,yes,768,legacy,64,11,/Users/juancastaneda/Documents/Grad School /Advanced Quantitative Methods & Experimental Design/Sterberg Task/JC-subject-1.csv,legacy,6 9 3 1,Kafkaesque Koffka,3.2.8,4,y,0,left,left,left,left,NA,1025,15927,41289,1025,NA,NA,NA,2,legacy,4,1024,2,48000,-16,experiment,1,odd,1,549782,546453,547538,3054,138545,547550,NA,519850,3069,97254,552822,548565,551795,19004,551795,NA,NA,Sternberg Task,73,80405,77,yes,1024
94.87179487,94.87179487,1039.410256,1039.410256,black,experiment,legacy,legacy,legacy,0,uniform,1,undefined,1,left,77,77,77,0,0,77,NA,77,0,0,77,77,77,0,77,0,NA,Sun Oct 20 20:45:51 2019,The main experiment item,yes,/Users/juancastaneda/Documents/Grad School /Advanced Quantitative Methods & Experimental Design/SternbergTask.osexp,no,mono,no,18,no,white,no,yes,768,legacy,65,11,/Users/juancastaneda/Documents/Grad School /Advanced Quantitative Methods & Experimental Design/Sterberg Task/JC-subject-1.csv,legacy,2 8 5 1,Kafkaesque Koffka,3.2.8,4,y,0,left,left,left,left,NA,669,15927,41289,669,NA,NA,NA,2,legacy,4,1024,2,48000,-16,experiment,1,odd,1,556165,552837,553923,3054,138545,553935,NA,519850,3069,97254,558849,554949,558178,19004,558178,NA,NA,Sternberg Task,74,81074,78,yes,1024
94.93670886,94.93670886,1035.78481,1035.78481,black,experiment,legacy,legacy,legacy,0,uniform,1,undefined,1,right,78,78,78,0,0,78,NA,78,0,0,78,78,78,0,78,0,NA,Sun Oct 20 20:45:51 2019,The main experiment item,yes,/Users/juancastaneda/Documents/Grad School /Advanced Quantitative Methods & Experimental Design/SternbergTask.osexp,no,mono,no,18,no,white,no,yes,768,legacy,66,11,/Users/juancastaneda/Documents/Grad School /Advanced Quantitative Methods & Experimental Design/Sterberg Task/JC-subject-1.csv,legacy,8 9,Kafkaesque Koffka,3.2.8,0,n,0,right,left,left,right,NA,753,15927,41289,753,NA,NA,NA,2,legacy,2,1024,2,48000,-16,experiment,1,odd,5,562194,558867,559952,3054,138545,559964,NA,519850,3069,97254,564962,560979,564207,19004,564207,NA,NA,Sternberg Task,75,81827,79,yes,1024
95,95,1037.775,1037.775,black,experiment,legacy,legacy,legacy,0,uniform,1,undefined,1,left,79,79,79,0,0,79,NA,79,0,0,79,79,79,0,79,0,NA,Sun Oct 20 20:45:51 2019,The main experiment item,yes,/Users/juancastaneda/Documents/Grad School /Advanced Quantitative Methods & Experimental Design/SternbergTask.osexp,no,mono,no,18,no,white,no,yes,768,legacy,67,11,/Users/juancastaneda/Documents/Grad School /Advanced Quantitative Methods & Experimental Design/Sterberg Task/JC-subject-1.csv,legacy,3 2 1 4 7,Kafkaesque Koffka,3.2.8,2,y,0,left,left,left,left,NA,1195,15927,41289,1195,NA,NA,NA,2,legacy,5,1024,2,48000,-16,experiment,1,odd,2,568307,564978,566063,3054,138545,566076,NA,519850,3069,97254,571518,567091,570321,19004,570320,NA,NA,Sternberg Task,76,83022,80,yes,1024
95.0617284,95.0617284,1034.197531,1034.197531,black,experiment,legacy,legacy,legacy,0,uniform,1,undefined,1,left,80,80,80,0,0,80,NA,80,0,0,80,80,80,0,80,0,NA,Sun Oct 20 20:45:51 2019,The main experiment item,yes,/Users/juancastaneda/Documents/Grad School /Advanced Quantitative Methods & Experimental Design/SternbergTask.osexp,no,mono,no,18,no,white,no,yes,768,legacy,68,11,/Users/juancastaneda/Documents/Grad School /Advanced Quantitative Methods & Experimental Design/Sterberg Task/JC-subject-1.csv,legacy,6 5,Kafkaesque Koffka,3.2.8,2,y,0,left,left,left,left,NA,748,15927,41289,748,NA,NA,NA,2,legacy,2,1024,2,48000,-16,experiment,1,odd,5,574863,571534,572619,3054,138545,572631,NA,519850,3069,97254,577626,573646,576876,19004,576876,NA,NA,Sternberg Task,77,83770,81,yes,1024
95.12195122,95.12195122,1032.182927,1032.182927,black,experiment,legacy,legacy,legacy,0,uniform,1,undefined,1,left,81,81,81,0,0,81,NA,81,0,0,81,81,81,0,81,0,NA,Sun Oct 20 20:45:51 2019,The main experiment item,yes,/Users/juancastaneda/Documents/Grad School /Advanced Quantitative Methods & Experimental Design/SternbergTask.osexp,no,mono,no,18,no,white,no,yes,768,legacy,69,11,/Users/juancastaneda/Documents/Grad School /Advanced Quantitative Methods & Experimental Design/Sterberg Task/JC-subject-1.csv,legacy,4 9 7 8 5 3,Kafkaesque Koffka,3.2.8,4,y,0,left,left,left,left,NA,869,15927,41289,869,NA,NA,NA,2,legacy,6,1024,2,48000,-16,experiment,1,odd,8,580973,577642,578729,3054,138545,578742,NA,519850,3069,97254,583857,579757,582986,19004,582986,NA,NA,Sternberg Task,78,84639,82,yes,1024
95.18072289,95.18072289,1030.638554,1030.638554,black,experiment,legacy,legacy,legacy,0,uniform,1,undefined,1,right,82,82,82,0,0,82,NA,82,0,0,82,82,82,0,82,0,NA,Sun Oct 20 20:45:51 2019,The main experiment item,yes,/Users/juancastaneda/Documents/Grad School /Advanced Quantitative Methods & Experimental Design/SternbergTask.osexp,no,mono,no,18,no,white,no,yes,768,legacy,70,11,/Users/juancastaneda/Documents/Grad School /Advanced Quantitative Methods & Experimental Design/Sterberg Task/JC-subject-1.csv,legacy,6 8,Kafkaesque Koffka,3.2.8,0,n,0,right,left,left,right,NA,904,15927,41289,904,NA,NA,NA,2,legacy,2,1024,2,48000,-16,experiment,1,odd,9,587199,583873,584957,3054,138545,584969,NA,519850,3069,97254,590119,585984,589213,19004,589213,NA,NA,Sternberg Task,79,85543,83,yes,1024
95.23809524,95.23809524,1027.130952,1027.130952,black,experiment,legacy,legacy,legacy,0,uniform,1,undefined,1,left,83,83,83,0,0,83,NA,83,0,0,83,83,83,0,83,0,NA,Sun Oct 20 20:45:51 2019,The main experiment item,yes,/Users/juancastaneda/Documents/Grad School /Advanced Quantitative Methods & Experimental Design/SternbergTask.osexp,no,mono,no,18,no,white,no,yes,768,legacy,71,11,/Users/juancastaneda/Documents/Grad School /Advanced Quantitative Methods & Experimental Design/Sterberg Task/JC-subject-1.csv,legacy,7 8 6 3 1,Kafkaesque Koffka,3.2.8,5,y,0,left,left,left,left,NA,736,15927,41289,736,NA,NA,NA,2,legacy,5,1024,2,48000,-16,experiment,1,odd,1,593462,590134,591219,3054,138545,591231,NA,519850,3069,97254,596213,592246,595476,19004,595475,NA,NA,Sternberg Task,80,86279,84,yes,1024
95.29411765,95.29411765,1027.752941,1027.752941,black,experiment,legacy,legacy,legacy,0,uniform,1,undefined,1,right,84,84,84,0,0,84,NA,84,0,0,84,84,84,0,84,0,NA,Sun Oct 20 20:45:51 2019,The main experiment item,yes,/Users/juancastaneda/Documents/Grad School /Advanced Quantitative Methods & Experimental Design/SternbergTask.osexp,no,mono,no,18,no,white,no,yes,768,legacy,72,11,/Users/juancastaneda/Documents/Grad School /Advanced Quantitative Methods & Experimental Design/Sterberg Task/JC-subject-1.csv,legacy,9 5 3 2 8 6,Kafkaesque Koffka,3.2.8,0,n,0,right,left,left,right,NA,1080,15927,41289,1080,NA,NA,NA,2,legacy,6,1024,2,48000,-16,experiment,1,odd,7,599558,596229,597315,3054,138545,597327,NA,519850,3069,97254,602653,598341,601571,19004,601571,NA,NA,Sternberg Task,81,87359,85,yes,1024
95.34883721,95.34883721,1026.232558,1026.232558,black,experiment,legacy,legacy,legacy,0,uniform,1,undefined,1,right,85,85,85,0,0,85,NA,85,0,0,85,85,85,0,85,0,NA,Sun Oct 20 20:45:51 2019,The main experiment item,yes,/Users/juancastaneda/Documents/Grad School /Advanced Quantitative Methods & Experimental Design/SternbergTask.osexp,no,mono,no,18,no,white,no,yes,768,legacy,73,11,/Users/juancastaneda/Documents/Grad School /Advanced Quantitative Methods & Experimental Design/Sterberg Task/JC-subject-1.csv,legacy,1 7 5 2,Kafkaesque Koffka,3.2.8,0,n,0,right,left,left,right,NA,897,15927,41289,897,NA,NA,NA,2,legacy,4,1024,2,48000,-16,experiment,1,odd,3,605997,602668,603756,3054,138545,603768,NA,519850,3069,97254,608908,604783,608009,19004,608009,NA,NA,Sternberg Task,82,88256,86,yes,1024
95.40229885,95.40229885,1023.034483,1023.034483,black,experiment,legacy,legacy,legacy,0,uniform,1,undefined,1,left,86,86,86,0,0,86,NA,86,0,0,86,86,86,0,86,0,NA,Sun Oct 20 20:45:51 2019,The main experiment item,yes,/Users/juancastaneda/Documents/Grad School /Advanced Quantitative Methods & Experimental Design/SternbergTask.osexp,no,mono,no,18,no,white,no,yes,768,legacy,74,11,/Users/juancastaneda/Documents/Grad School /Advanced Quantitative Methods & Experimental Design/Sterberg Task/JC-subject-1.csv,legacy,5 7 3 6 2,Kafkaesque Koffka,3.2.8,5,y,0,left,left,left,left,NA,748,15927,41289,748,NA,NA,NA,2,legacy,5,1024,2,48000,-16,experiment,1,odd,2,612253,608924,610009,3054,138545,610021,NA,519850,3069,97254,615015,611037,614266,19004,614266,NA,NA,Sternberg Task,83,89004,87,yes,1024
95.45454545,95.45454545,1021.420455,1021.420455,black,experiment,legacy,legacy,legacy,0,uniform,1,undefined,1,right,87,87,87,0,0,87,NA,87,0,0,87,87,87,0,87,0,NA,Sun Oct 20 20:45:51 2019,The main experiment item,yes,/Users/juancastaneda/Documents/Grad School /Advanced Quantitative Methods & Experimental Design/SternbergTask.osexp,no,mono,no,18,no,white,no,yes,768,legacy,75,11,/Users/juancastaneda/Documents/Grad School /Advanced Quantitative Methods & Experimental Design/Sterberg Task/JC-subject-1.csv,legacy,2 3 8 5 6 7,Kafkaesque Koffka,3.2.8,0,n,0,right,left,left,right,NA,881,15927,41289,881,NA,NA,NA,2,legacy,6,1024,2,48000,-16,experiment,1,odd,1,618362,615031,616118,3054,138545,616131,NA,519850,3069,97254,621258,617145,620375,19004,620375,NA,NA,Sternberg Task,84,89885,88,yes,1024
95.50561798,95.50561798,1019.41573,1019.41573,black,experiment,legacy,legacy,legacy,0,uniform,1,undefined,1,left,88,88,88,0,0,88,NA,88,0,0,88,88,88,0,88,0,NA,Sun Oct 20 20:45:51 2019,The main experiment item,yes,/Users/juancastaneda/Documents/Grad School /Advanced Quantitative Methods & Experimental Design/SternbergTask.osexp,no,mono,no,18,no,white,no,yes,768,legacy,76,11,/Users/juancastaneda/Documents/Grad School /Advanced Quantitative Methods & Experimental Design/Sterberg Task/JC-subject-1.csv,legacy,5 2 6,Kafkaesque Koffka,3.2.8,2,y,0,left,left,left,left,NA,843,15927,41289,843,NA,NA,NA,2,legacy,3,1024,2,48000,-16,experiment,1,odd,2,624602,621275,622360,3054,138545,622372,NA,519850,3069,97254,627460,623386,626615,19004,626615,NA,NA,Sternberg Task,85,90728,89,yes,1024
95.55555556,95.55555556,1017.655556,1017.655556,black,experiment,legacy,legacy,legacy,0,uniform,1,undefined,1,left,89,89,89,0,0,89,NA,89,0,0,89,89,89,0,89,0,NA,Sun Oct 20 20:45:51 2019,The main experiment item,yes,/Users/juancastaneda/Documents/Grad School /Advanced Quantitative Methods & Experimental Design/SternbergTask.osexp,no,mono,no,18,no,white,no,yes,768,legacy,77,11,/Users/juancastaneda/Documents/Grad School /Advanced Quantitative Methods & Experimental Design/Sterberg Task/JC-subject-1.csv,legacy,8 7 3,Kafkaesque Koffka,3.2.8,1,y,0,left,left,left,left,NA,861,15927,41289,861,NA,NA,NA,2,legacy,3,1024,2,48000,-16,experiment,1,odd,8,630805,627476,628561,3054,138545,628573,NA,519850,3069,97254,633681,629588,632818,19004,632818,NA,NA,Sternberg Task,86,91589,90,yes,1024
95.6043956,95.6043956,1021.010989,1021.010989,black,experiment,legacy,legacy,legacy,0,uniform,1,undefined,1,left,90,90,90,0,0,90,NA,90,0,0,90,90,90,0,90,0,NA,Sun Oct 20 20:45:51 2019,The main experiment item,yes,/Users/juancastaneda/Documents/Grad School /Advanced Quantitative Methods & Experimental Design/SternbergTask.osexp,no,mono,no,18,no,white,no,yes,768,legacy,78,11,/Users/juancastaneda/Documents/Grad School /Advanced Quantitative Methods & Experimental Design/Sterberg Task/JC-subject-1.csv,legacy,2 6 1 7 4,Kafkaesque Koffka,3.2.8,2,y,0,left,left,left,left,NA,1323,15927,41289,1323,NA,NA,NA,2,legacy,5,1024,2,48000,-16,experiment,1,odd,6,637024,633696,634782,3054,138545,634794,NA,519850,3069,97254,640362,635808,639037,19004,639037,NA,NA,Sternberg Task,87,92912,91,yes,1024
95.65217391,95.65217391,1022.597826,1022.597826,black,experiment,legacy,legacy,legacy,0,uniform,1,undefined,1,right,91,91,91,0,0,91,NA,91,0,0,91,91,91,0,91,0,NA,Sun Oct 20 20:45:51 2019,The main experiment item,yes,/Users/juancastaneda/Documents/Grad School /Advanced Quantitative Methods & Experimental Design/SternbergTask.osexp,no,mono,no,18,no,white,no,yes,768,legacy,79,11,/Users/juancastaneda/Documents/Grad School /Advanced Quantitative Methods & Experimental Design/Sterberg Task/JC-subject-1.csv,legacy,6 9 4 5 3 2,Kafkaesque Koffka,3.2.8,0,n,0,right,left,left,right,NA,1167,15927,41289,1167,NA,NA,NA,2,legacy,6,1024,2,48000,-16,experiment,1,odd,8,643708,640377,641463,3054,138545,641475,NA,519850,3069,97254,646890,642490,645721,19004,645721,NA,NA,Sternberg Task,88,94079,92,yes,1024
95.69892473,95.69892473,1021.677419,1021.677419,black,experiment,legacy,legacy,legacy,0,uniform,1,undefined,1,right,92,92,92,0,0,92,NA,92,0,0,92,92,92,0,92,0,NA,Sun Oct 20 20:45:51 2019,The main experiment item,yes,/Users/juancastaneda/Documents/Grad School /Advanced Quantitative Methods & Experimental Design/SternbergTask.osexp,no,mono,no,18,no,white,no,yes,768,legacy,80,11,/Users/juancastaneda/Documents/Grad School /Advanced Quantitative Methods & Experimental Design/Sterberg Task/JC-subject-1.csv,legacy,6 9 7 3 8 2,Kafkaesque Koffka,3.2.8,0,n,0,right,left,left,right,NA,937,15927,41289,937,NA,NA,NA,2,legacy,6,1024,2,48000,-16,experiment,1,odd,5,650234,646906,647991,3054,138545,648003,NA,519850,3069,97254,653186,649017,652247,19004,652247,NA,NA,Sternberg Task,89,95016,93,yes,1024
94.68085106,94.68085106,1018.648936,1018.648936,black,experiment,legacy,legacy,legacy,0,uniform,0,undefined,0,left,93,93,93,0,0,93,NA,93,0,0,93,93,93,0,93,0,NA,Sun Oct 20 20:45:51 2019,The main experiment item,yes,/Users/juancastaneda/Documents/Grad School /Advanced Quantitative Methods & Experimental Design/SternbergTask.osexp,no,mono,no,18,no,white,no,yes,768,legacy,81,11,/Users/juancastaneda/Documents/Grad School /Advanced Quantitative Methods & Experimental Design/Sterberg Task/JC-subject-1.csv,legacy,2 4 6 9,Kafkaesque Koffka,3.2.8,3,y,0,right,left,left,right,NA,737,15927,41289,737,NA,NA,NA,2,legacy,4,1024,2,48000,-16,experiment,1,odd,6,656531,653201,654287,3054,138545,654300,NA,519850,3069,97254,659284,655315,658545,19004,658545,NA,NA,Sternberg Task,89,95753,94,yes,1024
94.73684211,94.73684211,1012.263158,1012.263158,black,experiment,legacy,legacy,legacy,0,uniform,1,undefined,1,left,94,94,94,0,0,94,NA,94,0,0,94,94,94,0,94,0,NA,Sun Oct 20 20:45:51 2019,The main experiment item,yes,/Users/juancastaneda/Documents/Grad School /Advanced Quantitative Methods & Experimental Design/SternbergTask.osexp,no,mono,no,18,no,white,no,yes,768,legacy,82,11,/Users/juancastaneda/Documents/Grad School /Advanced Quantitative Methods & Experimental Design/Sterberg Task/JC-subject-1.csv,legacy,7,Kafkaesque Koffka,3.2.8,1,y,0,left,left,left,left,NA,412,15927,41289,412,NA,NA,NA,2,legacy,1,1024,2,48000,-16,experiment,1,odd,7,662627,653201,660383,3054,138545,660396,NA,659298,3069,97254,665054,661410,664640,19004,664640,NA,NA,Sternberg Task,90,96165,95,yes,1024
94.79166667,94.79166667,1010.552083,1010.552083,black,experiment,legacy,legacy,legacy,0,uniform,1,undefined,1,left,95,95,95,0,0,95,NA,95,0,0,95,95,95,0,95,0,NA,Sun Oct 20 20:45:51 2019,The main experiment item,yes,/Users/juancastaneda/Documents/Grad School /Advanced Quantitative Methods & Experimental Design/SternbergTask.osexp,no,mono,no,18,no,white,no,yes,768,legacy,83,11,/Users/juancastaneda/Documents/Grad School /Advanced Quantitative Methods & Experimental Design/Sterberg Task/JC-subject-1.csv,legacy,8 9 5 6 7,Kafkaesque Koffka,3.2.8,1,y,0,left,left,left,left,NA,848,15927,41289,848,NA,NA,NA,2,legacy,5,1024,2,48000,-16,experiment,1,odd,8,668398,665070,666156,3054,138545,666168,NA,659298,3069,97254,671260,667182,670411,19004,670411,NA,NA,Sternberg Task,91,97013,96,yes,1024
94.84536082,94.84536082,1011.257732,1011.257732,black,experiment,legacy,legacy,legacy,0,uniform,1,undefined,1,left,96,96,96,0,0,96,NA,96,0,0,96,96,96,0,96,0,NA,Sun Oct 20 20:45:51 2019,The main experiment item,yes,/Users/juancastaneda/Documents/Grad School /Advanced Quantitative Methods & Experimental Design/SternbergTask.osexp,no,mono,no,18,no,white,no,yes,768,legacy,84,11,/Users/juancastaneda/Documents/Grad School /Advanced Quantitative Methods & Experimental Design/Sterberg Task/JC-subject-1.csv,legacy,9 1 7 2,Kafkaesque Koffka,3.2.8,2,y,0,left,left,left,left,NA,1079,15927,41289,1079,NA,NA,NA,2,legacy,4,1024,2,48000,-16,experiment,1,odd,1,674603,671276,672361,3054,138545,672373,NA,659298,3069,97254,677698,673387,676617,19004,676617,NA,NA,Sternberg Task,92,98092,97,yes,1024
94.89795918,94.89795918,1007.755102,1007.755102,black,experiment,legacy,legacy,legacy,0,uniform,1,undefined,1,left,97,97,97,0,0,97,NA,97,0,0,97,97,97,0,97,0,NA,Sun Oct 20 20:45:51 2019,The main experiment item,yes,/Users/juancastaneda/Documents/Grad School /Advanced Quantitative Methods & Experimental Design/SternbergTask.osexp,no,mono,no,18,no,white,no,yes,768,legacy,85,11,/Users/juancastaneda/Documents/Grad School /Advanced Quantitative Methods & Experimental Design/Sterberg Task/JC-subject-1.csv,legacy,5 7 8 2 3 8,Kafkaesque Koffka,3.2.8,5,y,0,left,left,left,left,NA,668,15927,41289,668,NA,NA,NA,2,legacy,6,1024,2,48000,-16,experiment,1,odd,3,681050,677717,678808,3054,138545,678820,NA,659298,3069,97254,683733,679834,683063,19004,683063,NA,NA,Sternberg Task,93,98760,98,yes,1024
94.94949495,94.94949495,1009.626263,1009.626263,black,experiment,legacy,legacy,legacy,0,uniform,1,undefined,1,right,98,98,98,0,0,98,NA,98,0,0,98,98,98,0,98,0,NA,Sun Oct 20 20:45:51 2019,The main experiment item,yes,/Users/juancastaneda/Documents/Grad School /Advanced Quantitative Methods & Experimental Design/SternbergTask.osexp,no,mono,no,18,no,white,no,yes,768,legacy,86,11,/Users/juancastaneda/Documents/Grad School /Advanced Quantitative Methods & Experimental Design/Sterberg Task/JC-subject-1.csv,legacy,8 2 1 4 5 9,Kafkaesque Koffka,3.2.8,0,n,0,right,left,left,right,NA,1193,15927,41289,1193,NA,NA,NA,2,legacy,6,1024,2,48000,-16,experiment,1,odd,7,687077,683749,684834,3054,138545,684846,NA,659298,3069,97254,690285,685861,689090,19004,689090,NA,NA,Sternberg Task,94,99953,99,yes,1024
95,95,1008.11,1008.11,black,experiment,legacy,legacy,legacy,0,uniform,1,undefined,1,right,99,99,99,0,0,99,NA,99,0,0,99,99,99,0,99,0,NA,Sun Oct 20 20:45:51 2019,The main experiment item,yes,/Users/juancastaneda/Documents/Grad School /Advanced Quantitative Methods & Experimental Design/SternbergTask.osexp,no,mono,no,18,no,white,no,yes,768,legacy,87,11,/Users/juancastaneda/Documents/Grad School /Advanced Quantitative Methods & Experimental Design/Sterberg Task/JC-subject-1.csv,legacy,9,Kafkaesque Koffka,3.2.8,0,n,0,right,left,left,right,NA,858,15927,41289,858,NA,NA,NA,2,legacy,1,1024,2,48000,-16,experiment,1,odd,6,693629,690301,691385,3054,138545,691398,NA,659298,3069,97254,696503,692412,695643,19004,695642,NA,NA,Sternberg Task,95,100811,100,yes,1024
95.04950495,95.04950495,1008.069307,1008.069307,black,experiment,legacy,legacy,legacy,0,uniform,1,undefined,1,right,100,100,100,0,0,100,NA,100,0,0,100,100,100,0,100,0,NA,Sun Oct 20 20:45:51 2019,The main experiment item,yes,/Users/juancastaneda/Documents/Grad School /Advanced Quantitative Methods & Experimental Design/SternbergTask.osexp,no,mono,no,18,no,white,no,yes,768,legacy,88,11,/Users/juancastaneda/Documents/Grad School /Advanced Quantitative Methods & Experimental Design/Sterberg Task/JC-subject-1.csv,legacy,2 5 1 4,Kafkaesque Koffka,3.2.8,0,n,0,right,left,left,right,NA,1004,15927,41289,1004,NA,NA,NA,2,legacy,4,1024,2,48000,-16,experiment,1,odd,6,699847,696517,697602,3054,138545,697614,NA,659298,3069,97254,702870,698629,701864,19004,701863,NA,NA,Sternberg Task,96,101815,101,yes,1024
95.09803922,95.09803922,1010.95098,1010.95098,black,experiment,legacy,legacy,legacy,0,uniform,1,undefined,1,right,101,101,101,0,0,101,NA,101,0,0,101,101,101,0,101,0,NA,Sun Oct 20 20:45:51 2019,The main experiment item,yes,/Users/juancastaneda/Documents/Grad School /Advanced Quantitative Methods & Experimental Design/SternbergTask.osexp,no,mono,no,18,no,white,no,yes,768,legacy,89,11,/Users/juancastaneda/Documents/Grad School /Advanced Quantitative Methods & Experimental Design/Sterberg Task/JC-subject-1.csv,legacy,8 4 3 9,Kafkaesque Koffka,3.2.8,0,n,0,right,left,left,right,NA,1302,15927,41289,1302,NA,NA,NA,2,legacy,4,1024,2,48000,-16,experiment,1,odd,5,706215,702886,703972,3054,138545,703985,NA,659298,3069,97254,709533,704999,708229,19004,708228,NA,NA,Sternberg Task,97,103117,102,yes,1024
95.14563107,95.14563107,1006.330097,1006.330097,black,experiment,legacy,legacy,legacy,0,uniform,1,undefined,1,right,102,102,102,0,0,102,NA,102,0,0,102,102,102,0,102,0,NA,Sun Oct 20 20:45:51 2019,The main experiment item,yes,/Users/juancastaneda/Documents/Grad School /Advanced Quantitative Methods & Experimental Design/SternbergTask.osexp,no,mono,no,18,no,white,no,yes,768,legacy,90,11,/Users/juancastaneda/Documents/Grad School /Advanced Quantitative Methods & Experimental Design/Sterberg Task/JC-subject-1.csv,legacy,1,Kafkaesque Koffka,3.2.8,0,n,0,right,left,left,right,NA,535,15927,41289,535,NA,NA,NA,2,legacy,1,1024,2,48000,-16,experiment,1,odd,7,712878,709550,710634,3054,138545,710646,NA,659298,3069,97254,715428,711661,714891,19004,714891,NA,NA,Sternberg Task,98,103652,103,yes,1024
95.19230769,95.19230769,1006.201923,1006.201923,black,experiment,legacy,legacy,legacy,0,uniform,1,undefined,1,right,103,103,103,0,0,103,NA,103,0,0,103,103,103,0,103,0,NA,Sun Oct 20 20:45:51 2019,The main experiment item,yes,/Users/juancastaneda/Documents/Grad School /Advanced Quantitative Methods & Experimental Design/SternbergTask.osexp,no,mono,no,18,no,white,no,yes,768,legacy,91,11,/Users/juancastaneda/Documents/Grad School /Advanced Quantitative Methods & Experimental Design/Sterberg Task/JC-subject-1.csv,legacy,7 4 2 8 1 9,Kafkaesque Koffka,3.2.8,0,n,0,right,left,left,right,NA,993,15927,41289,993,NA,NA,NA,2,legacy,6,1024,2,48000,-16,experiment,1,odd,5,718775,715443,716531,3054,138545,716543,NA,659298,3069,97254,721784,717557,720789,19004,720788,NA,NA,Sternberg Task,99,104645,104,yes,1024
95.23809524,95.23809524,1004.104762,1004.104762,black,experiment,legacy,legacy,legacy,0,uniform,1,undefined,1,right,104,104,104,0,0,104,NA,104,0,0,104,104,104,0,104,0,NA,Sun Oct 20 20:45:51 2019,The main experiment item,yes,/Users/juancastaneda/Documents/Grad School /Advanced Quantitative Methods & Experimental Design/SternbergTask.osexp,no,mono,no,18,no,white,no,yes,768,legacy,92,11,/Users/juancastaneda/Documents/Grad School /Advanced Quantitative Methods & Experimental Design/Sterberg Task/JC-subject-1.csv,legacy,8 4 3 5,Kafkaesque Koffka,3.2.8,0,n,0,right,left,left,right,NA,786,15927,41289,786,NA,NA,NA,2,legacy,4,1024,2,48000,-16,experiment,1,odd,6,725127,721800,722884,3054,138545,722896,NA,659298,3069,97254,727928,723911,727140,19004,727140,NA,NA,Sternberg Task,100,105431,105,yes,1024
95.28301887,95.28301887,1008.169811,1008.169811,black,experiment,legacy,legacy,legacy,0,uniform,1,undefined,1,right,105,105,105,0,0,105,NA,105,0,0,105,105,105,0,105,0,NA,Sun Oct 20 20:45:51 2019,The main experiment item,yes,/Users/juancastaneda/Documents/Grad School /Advanced Quantitative Methods & Experimental Design/SternbergTask.osexp,no,mono,no,18,no,white,no,yes,768,legacy,93,11,/Users/juancastaneda/Documents/Grad School /Advanced Quantitative Methods & Experimental Design/Sterberg Task/JC-subject-1.csv,legacy,6 3 1 7 9 8,Kafkaesque Koffka,3.2.8,0,n,0,right,left,left,right,NA,1435,15927,41289,1435,NA,NA,NA,2,legacy,6,1024,2,48000,-16,experiment,1,odd,4,731275,727944,729030,3054,138545,729043,NA,659298,3069,97254,734726,730057,733289,19004,733289,NA,NA,Sternberg Task,101,106866,106,yes,1024
95.3271028,95.3271028,1007.233645,1007.233645,black,experiment,legacy,legacy,legacy,0,uniform,1,undefined,1,right,106,106,106,0,0,106,NA,106,0,0,106,106,106,0,106,0,NA,Sun Oct 20 20:45:51 2019,The main experiment item,yes,/Users/juancastaneda/Documents/Grad School /Advanced Quantitative Methods & Experimental Design/SternbergTask.osexp,no,mono,no,18,no,white,no,yes,768,legacy,94,11,/Users/juancastaneda/Documents/Grad School /Advanced Quantitative Methods & Experimental Design/Sterberg Task/JC-subject-1.csv,legacy,1 4 9 3,Kafkaesque Koffka,3.2.8,0,n,0,right,left,left,right,NA,908,15927,41289,908,NA,NA,NA,2,legacy,4,1024,2,48000,-16,experiment,1,odd,5,738070,734742,735827,3054,138545,735839,NA,659298,3069,97254,740993,736854,740083,19004,740083,NA,NA,Sternberg Task,102,107774,107,yes,1024
95.37037037,95.37037037,1001.972222,1001.972222,black,experiment,legacy,legacy,legacy,0,uniform,1,undefined,1,left,107,107,107,0,0,107,NA,107,0,0,107,107,107,0,107,0,NA,Sun Oct 20 20:45:51 2019,The main experiment item,yes,/Users/juancastaneda/Documents/Grad School /Advanced Quantitative Methods & Experimental Design/SternbergTask.osexp,no,mono,no,18,no,white,no,yes,768,legacy,95,11,/Users/juancastaneda/Documents/Grad School /Advanced Quantitative Methods & Experimental Design/Sterberg Task/JC-subject-1.csv,legacy,4,Kafkaesque Koffka,3.2.8,1,y,0,left,left,left,left,NA,439,15927,41289,439,NA,NA,NA,2,legacy,1,1024,2,48000,-16,experiment,1,odd,4,744338,741009,742095,3054,138545,742107,NA,659298,3069,97254,746793,743121,746351,19004,746351,NA,NA,Sternberg Task,103,108213,108,yes,1024
95.41284404,95.41284404,1002.678899,1002.678899,black,experiment,legacy,legacy,legacy,0,uniform,1,undefined,1,right,108,108,108,0,0,108,NA,108,0,0,108,108,108,0,108,0,NA,Sun Oct 20 20:45:51 2019,The main experiment item,yes,/Users/juancastaneda/Documents/Grad School /Advanced Quantitative Methods & Experimental Design/SternbergTask.osexp,no,mono,no,18,no,white,no,yes,768,legacy,96,11,/Users/juancastaneda/Documents/Grad School /Advanced Quantitative Methods & Experimental Design/Sterberg Task/JC-subject-1.csv,legacy,7 1 8 4 9 3,Kafkaesque Koffka,3.2.8,0,n,0,right,left,left,right,NA,1079,15927,41289,1079,NA,NA,NA,2,legacy,6,1024,2,48000,-16,experiment,1,odd,6,750134,746806,747891,3054,138545,747903,NA,659298,3069,97254,753227,748918,752147,19004,752147,NA,NA,Sternberg Task,104,109292,109,yes,1024
94.54545455,94.54545455,1000.081818,1000.081818,black,experiment,legacy,legacy,legacy,0,uniform,0,undefined,0,left,109,109,109,0,0,109,NA,109,0,0,109,109,109,0,109,0,NA,Sun Oct 20 20:45:51 2019,The main experiment item,yes,/Users/juancastaneda/Documents/Grad School /Advanced Quantitative Methods & Experimental Design/SternbergTask.osexp,no,mono,no,18,no,white,no,yes,768,legacy,97,11,/Users/juancastaneda/Documents/Grad School /Advanced Quantitative Methods & Experimental Design/Sterberg Task/JC-subject-1.csv,legacy,6 9 7 4 5 1,Kafkaesque Koffka,3.2.8,2,y,0,right,left,left,right,NA,717,15927,41289,717,NA,NA,NA,2,legacy,6,1024,2,48000,-16,experiment,1,odd,9,756572,753244,754330,3054,138545,754342,NA,659298,3069,97254,759305,755356,758585,19004,758585,NA,NA,Sternberg Task,104,110009,110,yes,1024
94.59459459,94.59459459,999.8378378,999.8378378,black,experiment,legacy,legacy,legacy,0,uniform,1,undefined,1,right,110,110,110,0,0,110,NA,110,0,0,110,110,110,0,110,0,NA,Sun Oct 20 20:45:51 2019,The main experiment item,yes,/Users/juancastaneda/Documents/Grad School /Advanced Quantitative Methods & Experimental Design/SternbergTask.osexp,no,mono,no,18,no,white,no,yes,768,legacy,98,11,/Users/juancastaneda/Documents/Grad School /Advanced Quantitative Methods & Experimental Design/Sterberg Task/JC-subject-1.csv,legacy,7 1 5 6 3,Kafkaesque Koffka,3.2.8,0,n,0,right,left,left,right,NA,973,15927,41289,973,NA,NA,NA,2,legacy,5,1024,2,48000,-16,experiment,1,odd,8,762648,753244,760405,3054,138545,760418,NA,759320,3069,97254,765637,761432,764662,19004,764661,NA,NA,Sternberg Task,105,110982,111,yes,1024
94.64285714,94.64285714,1003.321429,1003.321429,black,experiment,legacy,legacy,legacy,0,uniform,1,undefined,1,right,111,111,111,0,0,111,NA,111,0,0,111,111,111,0,111,0,NA,Sun Oct 20 20:45:51 2019,The main experiment item,yes,/Users/juancastaneda/Documents/Grad School /Advanced Quantitative Methods & Experimental Design/SternbergTask.osexp,no,mono,no,18,no,white,no,yes,768,legacy,99,11,/Users/juancastaneda/Documents/Grad School /Advanced Quantitative Methods & Experimental Design/Sterberg Task/JC-subject-1.csv,legacy,6 7 5 9,Kafkaesque Koffka,3.2.8,0,n,0,right,left,left,right,NA,1390,15927,41289,1390,NA,NA,NA,2,legacy,4,1024,2,48000,-16,experiment,1,odd,2,768984,765653,766740,3054,138545,766752,NA,759320,3069,97254,772389,767767,770997,19004,770997,NA,NA,Sternberg Task,106,112372,112,yes,1024
94.69026549,94.69026549,999.3628319,999.3628319,black,experiment,legacy,legacy,legacy,0,uniform,1,undefined,1,left,112,112,112,0,0,112,NA,112,0,0,112,112,112,0,112,0,NA,Sun Oct 20 20:45:51 2019,The main experiment item,yes,/Users/juancastaneda/Documents/Grad School /Advanced Quantitative Methods & Experimental Design/SternbergTask.osexp,no,mono,no,18,no,white,no,yes,768,legacy,100,11,/Users/juancastaneda/Documents/Grad School /Advanced Quantitative Methods & Experimental Design/Sterberg Task/JC-subject-1.csv,legacy,3 4,Kafkaesque Koffka,3.2.8,1,y,0,left,left,left,left,NA,556,15927,41289,556,NA,NA,NA,2,legacy,2,1024,2,48000,-16,experiment,1,odd,3,775735,772406,773490,3054,138545,773503,NA,759320,3069,97254,778306,774517,777748,19004,777748,NA,NA,Sternberg Task,107,112928,113,yes,1024
94.73684211,94.73684211,997.2017544,997.2017544,black,experiment,legacy,legacy,legacy,0,uniform,1,undefined,1,left,113,113,113,0,0,113,NA,113,0,0,113,113,113,0,113,0,NA,Sun Oct 20 20:45:51 2019,The main experiment item,yes,/Users/juancastaneda/Documents/Grad School /Advanced Quantitative Methods & Experimental Design/SternbergTask.osexp,no,mono,no,18,no,white,no,yes,768,legacy,101,11,/Users/juancastaneda/Documents/Grad School /Advanced Quantitative Methods & Experimental Design/Sterberg Task/JC-subject-1.csv,legacy,6 7 9 3 1 2,Kafkaesque Koffka,3.2.8,1,y,0,left,left,left,left,NA,753,15927,41289,753,NA,NA,NA,2,legacy,6,1024,2,48000,-16,experiment,1,odd,6,781654,778325,779412,3054,138545,779424,NA,759320,3069,97254,784423,780438,783667,19004,783667,NA,NA,Sternberg Task,108,113681,114,yes,1024
94.7826087,94.7826087,998.3217391,998.3217391,black,experiment,legacy,legacy,legacy,0,uniform,1,undefined,1,right,114,114,114,0,0,114,NA,114,0,0,114,114,114,0,114,0,NA,Sun Oct 20 20:45:51 2019,The main experiment item,yes,/Users/juancastaneda/Documents/Grad School /Advanced Quantitative Methods & Experimental Design/SternbergTask.osexp,no,mono,no,18,no,white,no,yes,768,legacy,102,11,/Users/juancastaneda/Documents/Grad School /Advanced Quantitative Methods & Experimental Design/Sterberg Task/JC-subject-1.csv,legacy,4 2 6 9,Kafkaesque Koffka,3.2.8,0,n,0,right,left,left,right,NA,1126,15927,41289,1126,NA,NA,NA,2,legacy,4,1024,2,48000,-16,experiment,1,odd,7,787768,784438,785524,3054,138545,785536,NA,759320,3069,97254,790909,786550,789781,19004,789781,NA,NA,Sternberg Task,109,114807,115,yes,1024
94.82758621,94.82758621,999.0431034,999.0431034,black,experiment,legacy,legacy,legacy,0,uniform,1,undefined,1,right,115,115,115,0,0,115,NA,115,0,0,115,115,115,0,115,0,NA,Sun Oct 20 20:45:51 2019,The main experiment item,yes,/Users/juancastaneda/Documents/Grad School /Advanced Quantitative Methods & Experimental Design/SternbergTask.osexp,no,mono,no,18,no,white,no,yes,768,legacy,103,11,/Users/juancastaneda/Documents/Grad School /Advanced Quantitative Methods & Experimental Design/Sterberg Task/JC-subject-1.csv,legacy,1 6 4 3 9 7,Kafkaesque Koffka,3.2.8,0,n,0,right,left,left,right,NA,1082,15927,41289,1082,NA,NA,NA,2,legacy,6,1024,2,48000,-16,experiment,1,odd,8,794253,790925,792010,3054,138545,792022,NA,759320,3069,97254,797351,793037,796267,19004,796266,NA,NA,Sternberg Task,110,115889,116,yes,1024
94.87179487,94.87179487,998.7606838,998.7606838,black,experiment,legacy,legacy,legacy,0,uniform,1,undefined,1,right,116,116,116,0,0,116,NA,116,0,0,116,116,116,0,116,0,NA,Sun Oct 20 20:45:51 2019,The main experiment item,yes,/Users/juancastaneda/Documents/Grad School /Advanced Quantitative Methods & Experimental Design/SternbergTask.osexp,no,mono,no,18,no,white,no,yes,768,legacy,104,11,/Users/juancastaneda/Documents/Grad School /Advanced Quantitative Methods & Experimental Design/Sterberg Task/JC-subject-1.csv,legacy,5 3 8 7 2 4,Kafkaesque Koffka,3.2.8,0,n,0,right,left,left,right,NA,966,15927,41289,966,NA,NA,NA,2,legacy,6,1024,2,48000,-16,experiment,1,odd,9,800690,797365,798447,3054,138545,798459,NA,759320,3069,97254,803671,799473,802703,19004,802703,NA,NA,Sternberg Task,111,116855,117,yes,1024
94.91525424,94.91525424,998.6694915,998.6694915,black,experiment,legacy,legacy,legacy,0,uniform,1,undefined,1,right,117,117,117,0,0,117,NA,117,0,0,117,117,117,0,117,0,NA,Sun Oct 20 20:45:51 2019,The main experiment item,yes,/Users/juancastaneda/Documents/Grad School /Advanced Quantitative Methods & Experimental Design/SternbergTask.osexp,no,mono,no,18,no,white,no,yes,768,legacy,105,11,/Users/juancastaneda/Documents/Grad School /Advanced Quantitative Methods & Experimental Design/Sterberg Task/JC-subject-1.csv,legacy,2 8 7 9 5 3,Kafkaesque Koffka,3.2.8,0,n,0,right,left,left,right,NA,988,15927,41289,988,NA,NA,NA,2,legacy,6,1024,2,48000,-16,experiment,1,odd,6,807016,803689,804773,3054,138545,804785,NA,759320,3069,97254,810020,805799,809029,19004,809029,NA,NA,Sternberg Task,112,117843,118,yes,1024
94.95798319,94.95798319,1004.638655,1004.638655,black,experiment,legacy,legacy,legacy,0,uniform,1,undefined,1,right,118,118,118,0,0,118,NA,118,0,0,118,118,118,0,118,0,NA,Sun Oct 20 20:45:51 2019,The main experiment item,yes,/Users/juancastaneda/Documents/Grad School /Advanced Quantitative Methods & Experimental Design/SternbergTask.osexp,no,mono,no,18,no,white,no,yes,768,legacy,106,11,/Users/juancastaneda/Documents/Grad School /Advanced Quantitative Methods & Experimental Design/Sterberg Task/JC-subject-1.csv,legacy,8 5 4 2 9 6,Kafkaesque Koffka,3.2.8,0,n,0,right,left,left,right,NA,1709,15927,41289,1709,NA,NA,NA,2,legacy,6,1024,2,48000,-16,experiment,1,odd,3,813361,810035,811118,3054,138545,811130,NA,759320,3069,97254,817086,812145,815375,19004,815375,NA,NA,Sternberg Task,113,119552,119,yes,1024
95,95,1003.75,1003.75,black,experiment,legacy,legacy,legacy,0,uniform,1,undefined,1,left,119,119,119,0,0,119,NA,119,0,0,119,119,119,0,119,0,NA,Sun Oct 20 20:45:51 2019,The main experiment item,yes,/Users/juancastaneda/Documents/Grad School /Advanced Quantitative Methods & Experimental Design/SternbergTask.osexp,no,mono,no,18,no,white,no,yes,768,legacy,107,11,/Users/juancastaneda/Documents/Grad School /Advanced Quantitative Methods & Experimental Design/Sterberg Task/JC-subject-1.csv,legacy,6 7 8 5,Kafkaesque Koffka,3.2.8,3,y,0,left,left,left,left,NA,898,15927,41289,898,NA,NA,NA,2,legacy,4,1024,2,48000,-16,experiment,1,odd,8,820431,817102,818188,3054,138545,818200,NA,759320,3069,97254,823344,819214,822444,19004,822444,NA,NA,Sternberg Task,114,120450,120,yes,1024
95.04132231,95.04132231,1003.578512,1003.578512,black,experiment,legacy,legacy,legacy,0,uniform,1,undefined,1,right,120,120,120,0,0,120,NA,120,0,0,120,120,120,0,120,0,NA,Sun Oct 20 20:45:51 2019,The main experiment item,yes,/Users/juancastaneda/Documents/Grad School /Advanced Quantitative Methods & Experimental Design/SternbergTask.osexp,no,mono,no,18,no,white,no,yes,768,legacy,108,11,/Users/juancastaneda/Documents/Grad School /Advanced Quantitative Methods & Experimental Design/Sterberg Task/JC-subject-1.csv,legacy,7 9 1 6,Kafkaesque Koffka,3.2.8,0,n,0,right,left,left,right,NA,983,15927,41289,983,NA,NA,NA,2,legacy,4,1024,2,48000,-16,experiment,1,odd,4,826688,823359,824445,3054,138545,824457,NA,759320,3069,97254,829686,825472,828701,19004,828701,NA,NA,Sternberg Task,115,121433,121,yes,1024
95.08196721,95.08196721,1003.02459,1003.02459,black,experiment,legacy,legacy,legacy,0,uniform,1,undefined,1,left,121,121,121,0,0,121,NA,121,0,0,121,121,121,0,121,0,NA,Sun Oct 20 20:45:51 2019,The main experiment item,yes,/Users/juancastaneda/Documents/Grad School /Advanced Quantitative Methods & Experimental Design/SternbergTask.osexp,no,mono,no,18,no,white,no,yes,768,legacy,109,11,/Users/juancastaneda/Documents/Grad School /Advanced Quantitative Methods & Experimental Design/Sterberg Task/JC-subject-1.csv,legacy,9 3 1 2 5,Kafkaesque Koffka,3.2.8,4,y,0,left,left,left,left,NA,936,15927,41289,936,NA,NA,NA,2,legacy,5,1024,2,48000,-16,experiment,1,odd,2,833035,829705,830791,3054,138545,830804,NA,759320,3069,97254,835986,831819,835048,19004,835048,NA,NA,Sternberg Task,116,122369,122,yes,1024
95.12195122,95.12195122,1003.918699,1003.918699,black,experiment,legacy,legacy,legacy,0,uniform,1,undefined,1,right,122,122,122,0,0,122,NA,122,0,0,122,122,122,0,122,0,NA,Sun Oct 20 20:45:51 2019,The main experiment item,yes,/Users/juancastaneda/Documents/Grad School /Advanced Quantitative Methods & Experimental Design/SternbergTask.osexp,no,mono,no,18,no,white,no,yes,768,legacy,110,11,/Users/juancastaneda/Documents/Grad School /Advanced Quantitative Methods & Experimental Design/Sterberg Task/JC-subject-1.csv,legacy,5 9 2 3,Kafkaesque Koffka,3.2.8,0,n,0,right,left,left,right,NA,1113,15927,41289,1113,NA,NA,NA,2,legacy,4,1024,2,48000,-16,experiment,1,odd,8,839329,836000,837085,3054,138545,837098,NA,759320,3069,97254,842459,838112,841343,19004,841343,NA,NA,Sternberg Task,117,123482,123,yes,1024
95.16129032,95.16129032,1001.266129,1001.266129,black,experiment,legacy,legacy,legacy,0,uniform,1,undefined,1,right,123,123,123,0,0,123,NA,123,0,0,123,123,123,0,123,0,NA,Sun Oct 20 20:45:51 2019,The main experiment item,yes,/Users/juancastaneda/Documents/Grad School /Advanced Quantitative Methods & Experimental Design/SternbergTask.osexp,no,mono,no,18,no,white,no,yes,768,legacy,111,11,/Users/juancastaneda/Documents/Grad School /Advanced Quantitative Methods & Experimental Design/Sterberg Task/JC-subject-1.csv,legacy,2 6 4 3 9,Kafkaesque Koffka,3.2.8,0,n,0,right,left,left,right,NA,675,15927,41289,675,NA,NA,NA,2,legacy,5,1024,2,48000,-16,experiment,1,odd,1,845807,842475,843562,3054,138545,843575,NA,759320,3069,97254,848498,844589,847820,19004,847820,NA,NA,Sternberg Task,118,124157,124,yes,1024
95.2,95.2,998.4,998.4,black,experiment,legacy,legacy,legacy,0,uniform,1,undefined,1,right,124,124,124,0,0,124,NA,124,0,0,124,124,124,0,124,0,NA,Sun Oct 20 20:45:51 2019,The main experiment item,yes,/Users/juancastaneda/Documents/Grad School /Advanced Quantitative Methods & Experimental Design/SternbergTask.osexp,no,mono,no,18,no,white,no,yes,768,legacy,112,11,/Users/juancastaneda/Documents/Grad School /Advanced Quantitative Methods & Experimental Design/Sterberg Task/JC-subject-1.csv,legacy,1 6 4,Kafkaesque Koffka,3.2.8,0,n,0,right,left,left,right,NA,643,15927,41289,643,NA,NA,NA,2,legacy,3,1024,2,48000,-16,experiment,1,odd,7,851849,848511,849604,3054,138545,849616,NA,759320,3069,97254,854508,850632,853863,19004,853862,NA,NA,Sternberg Task,119,124800,125,yes,1024
