"acc","accuracy","average_response_time","avg_rt","background","block","canvas_backend","clock_backend","color_backend","compensation","coordinates","correct","correct_instruction1","correct_keyboard_response","correct_response","count_ISI","count_correctFeedback","count_expSequence","count_experiment","count_experimentLoop","count_fixation","count_incorrectFeedback","count_instruction1","count_instructions2","count_keyboard_response","count_logger","count_memorySet","count_practiceLoop","count_probe","count_thankYou","datetime","description","disable_garbage_collection","experiment_file","experiment_path","font_bold","font_family","font_italic","font_size","font_underline","foreground","form_clicks","fullscreen","height","keyboard_backend","live_row","live_row_practiceLoop","logfile","mouse_backend","numberSet","opensesame_codename","opensesame_version","posInSet","present","repeat_cycle","response","response_instruction1","response_instructions2","response_keyboard_response","response_thankYou","response_time","response_time_instruction1","response_time_instructions2","response_time_keyboard_response","response_time_thankYou","round_decimals","sampler_backend","setSize","sound_buf_size","sound_channels","sound_freq","sound_sample_size","start","subject_nr","subject_parity","target","time_ISI","time_correctFeedback","time_expSequence","time_experiment","time_experimentLoop","time_fixation","time_incorrectFeedback","time_instruction1","time_instructions2","time_keyboard_response","time_logger","time_memorySet","time_practiceLoop","time_probe","time_thankYou","title","total_correct","total_response_time","total_responses","uniform_coordinates","width"
"100","100","670","670","black","practice","legacy","legacy","legacy","0","uniform","1","undefined","1","left","0","0","0","0","0","0","0","0","0","0","0","0","0","0","0","Sun Oct 24 16:42:53 2021","The main experiment item","yes","Sternbergtask.osexp","/Users/samonemarks/Desktop","no","mono","no","18","no","white","no","yes","768","legacy","0","0","/Users/samonemarks/Desktop/SM-subject-3.csv","legacy","6","Lentiform Loewenfeld","3.3.9","1","y","0","left","left","NA","left","NA","670","1527","NA","670","NA","2","legacy","1","1024","2","48000","-16","experiment","3","odd","6","10392","NA","8182","6242","NA","8185","NA","6291","NA","12394","13068","9187","7853","12394","NA","Sternberg task","1","670","1","yes","1024"
"100","100","836","836","black","practice","legacy","legacy","legacy","0","uniform","1","undefined","1","right","1","1","1","0","0","1","1","0","0","1","1","1","0","1","0","Sun Oct 24 16:42:53 2021","The main experiment item","yes","Sternbergtask.osexp","/Users/samonemarks/Desktop","no","mono","no","18","no","white","no","yes","768","legacy","1","1","/Users/samonemarks/Desktop/SM-subject-3.csv","legacy","5 7 8 4 1 2","Lentiform Loewenfeld","3.3.9","0","n","0","right","left","NA","right","NA","1002","1527","NA","1002","NA","2","legacy","6","1024","2","48000","-16","experiment","3","odd","6","16382","13102","14175","6242","NA","14177","NA","6291","NA","18386","19389","15179","7853","18386","NA","Sternberg task","2","1672","2","yes","1024"
"100","100","774","774","black","practice","legacy","legacy","legacy","0","uniform","1","undefined","1","right","2","2","2","0","0","2","2","0","0","2","2","2","0","2","0","Sun Oct 24 16:42:53 2021","The main experiment item","yes","Sternbergtask.osexp","/Users/samonemarks/Desktop","no","mono","no","18","no","white","no","yes","768","legacy","2","2","/Users/samonemarks/Desktop/SM-subject-3.csv","legacy","3 1 9 4","Lentiform Loewenfeld","3.3.9","0","n","0","right","left","NA","right","NA","650","1527","NA","650","NA","2","legacy","4","1024","2","48000","-16","experiment","3","odd","6","22654","19394","20446","6242","NA","20448","NA","6291","NA","24656","25307","21451","7853","24656","NA","Sternberg task","3","2322","3","yes","1024"
"100","100","778.5","778.5","black","practice","legacy","legacy","legacy","0","uniform","1","undefined","1","left","3","3","3","0","0","3","3","0","0","3","3","3","0","3","0","Sun Oct 24 16:42:53 2021","The main experiment item","yes","Sternbergtask.osexp","/Users/samonemarks/Desktop","no","mono","no","18","no","white","no","yes","768","legacy","3","3","/Users/samonemarks/Desktop/SM-subject-3.csv","legacy","1 7 9 8 5","Lentiform Loewenfeld","3.3.9","4","y","0","left","left","NA","left","NA","792","1527","NA","792","NA","2","legacy","5","1024","2","48000","-16","experiment","3","odd","8","28571","25311","26363","6242","NA","26365","NA","6291","NA","30575","31367","27368","7853","30574","NA","Sternberg task","4","3114","4","yes","1024"
"100","100","732.4","732.4","black","practice","legacy","legacy","legacy","0","uniform","1","undefined","1","right","4","4","4","0","0","4","4","0","0","4","4","4","0","4","0","Sun Oct 24 16:42:53 2021","The main experiment item","yes","Sternbergtask.osexp","/Users/samonemarks/Desktop","no","mono","no","18","no","white","no","yes","768","legacy","4","4","/Users/samonemarks/Desktop/SM-subject-3.csv","legacy","4 1 5","Lentiform Loewenfeld","3.3.9","0","n","0","right","left","NA","right","NA","548","1527","NA","548","NA","2","legacy","3","1024","2","48000","-16","experiment","3","odd","2","34638","31371","32428","6242","NA","32432","NA","6291","NA","36641","37190","33435","7853","36640","NA","Sternberg task","5","3662","5","yes","1024"
"100","100","705.8333333333334","705.8333333333334","black","practice","legacy","legacy","legacy","0","uniform","1","undefined","1","left","5","5","5","0","0","5","5","0","0","5","5","5","0","5","0","Sun Oct 24 16:42:53 2021","The main experiment item","yes","Sternbergtask.osexp","/Users/samonemarks/Desktop","no","mono","no","18","no","white","no","yes","768","legacy","5","5","/Users/samonemarks/Desktop/SM-subject-3.csv","legacy","4 8","Lentiform Loewenfeld","3.3.9","1","y","0","left","left","NA","left","NA","573","1527","NA","573","NA","2","legacy","2","1024","2","48000","-16","experiment","3","odd","4","40454","37195","38246","6242","NA","38248","NA","6291","NA","42456","43030","39250","7853","42456","NA","Sternberg task","6","4235","6","yes","1024"
"100","100","689.4285714285714","689.4285714285714","black","practice","legacy","legacy","legacy","0","uniform","1","undefined","1","right","6","6","6","0","0","6","6","0","0","6","6","6","0","6","0","Sun Oct 24 16:42:53 2021","The main experiment item","yes","Sternbergtask.osexp","/Users/samonemarks/Desktop","no","mono","no","18","no","white","no","yes","768","legacy","6","6","/Users/samonemarks/Desktop/SM-subject-3.csv","legacy","9 6 7 4 5","Lentiform Loewenfeld","3.3.9","0","n","0","right","left","NA","right","NA","591","1527","NA","591","NA","2","legacy","5","1024","2","48000","-16","experiment","3","odd","3","46295","43034","44087","6242","NA","44089","NA","6291","NA","48298","48890","45091","7853","48298","NA","Sternberg task","7","4826","7","yes","1024"
"100","100","670.375","670.375","black","practice","legacy","legacy","legacy","0","uniform","1","undefined","1","left","7","7","7","0","0","7","7","0","0","7","7","7","0","7","0","Sun Oct 24 16:42:53 2021","The main experiment item","yes","Sternbergtask.osexp","/Users/samonemarks/Desktop","no","mono","no","18","no","white","no","yes","768","legacy","7","7","/Users/samonemarks/Desktop/SM-subject-3.csv","legacy","4 3 1 7 9 8","Lentiform Loewenfeld","3.3.9","1","y","0","left","left","NA","left","NA","537","1527","NA","537","NA","2","legacy","6","1024","2","48000","-16","experiment","3","odd","4","52153","48894","49946","6242","NA","49948","NA","6291","NA","54155","54692","50950","7853","54155","NA","Sternberg task","8","5363","8","yes","1024"
"100","100","659.8888888888889","659.8888888888889","black","practice","legacy","legacy","legacy","0","uniform","1","undefined","1","left","8","8","8","0","0","8","8","0","0","8","8","8","0","8","0","Sun Oct 24 16:42:53 2021","The main experiment item","yes","Sternbergtask.osexp","/Users/samonemarks/Desktop","no","mono","no","18","no","white","no","yes","768","legacy","8","8","/Users/samonemarks/Desktop/SM-subject-3.csv","legacy","2 9 4","Lentiform Loewenfeld","3.3.9","3","y","0","left","left","NA","left","NA","576","1527","NA","576","NA","2","legacy","3","1024","2","48000","-16","experiment","3","odd","4","57956","54697","55749","6242","NA","55751","NA","6291","NA","59959","60536","56753","7853","59959","NA","Sternberg task","9","5939","9","yes","1024"
"100","100","653.2","653.2","black","practice","legacy","legacy","legacy","0","uniform","1","undefined","1","left","9","9","9","0","0","9","9","0","0","9","9","9","0","9","0","Sun Oct 24 16:42:53 2021","The main experiment item","yes","Sternbergtask.osexp","/Users/samonemarks/Desktop","no","mono","no","18","no","white","no","yes","768","legacy","9","9","/Users/samonemarks/Desktop/SM-subject-3.csv","legacy","1 5 2 9","Lentiform Loewenfeld","3.3.9","2","y","0","left","left","NA","left","NA","593","1527","NA","593","NA","2","legacy","4","1024","2","48000","-16","experiment","3","odd","5","63802","60541","61593","6242","NA","61595","NA","6291","NA","65805","66399","62598","7853","65804","NA","Sternberg task","10","6532","10","yes","1024"
"100","100","641.5454545454545","641.5454545454545","black","practice","legacy","legacy","legacy","0","uniform","1","undefined","1","right","10","10","10","0","0","10","10","0","0","10","10","10","0","10","0","Sun Oct 24 16:42:53 2021","The main experiment item","yes","Sternbergtask.osexp","/Users/samonemarks/Desktop","no","mono","no","18","no","white","no","yes","768","legacy","10","10","/Users/samonemarks/Desktop/SM-subject-3.csv","legacy","5","Lentiform Loewenfeld","3.3.9","0","n","0","right","left","NA","right","NA","525","1527","NA","525","NA","2","legacy","1","1024","2","48000","-16","experiment","3","odd","3","69662","66403","67455","6242","NA","67457","NA","6291","NA","71665","72190","68459","7853","71665","NA","Sternberg task","11","7057","11","yes","1024"
"100","100","634.5","634.5","black","practice","legacy","legacy","legacy","0","uniform","1","undefined","1","right","11","11","11","0","0","11","11","0","0","11","11","11","0","11","0","Sun Oct 24 16:42:53 2021","The main experiment item","yes","Sternbergtask.osexp","/Users/samonemarks/Desktop","no","mono","no","18","no","white","no","yes","768","legacy","11","11","/Users/samonemarks/Desktop/SM-subject-3.csv","legacy","2 1","Lentiform Loewenfeld","3.3.9","0","n","0","right","left","NA","right","NA","557","1527","NA","557","NA","2","legacy","2","1024","2","48000","-16","experiment","3","odd","5","75455","72195","73247","6242","NA","73249","NA","6291","NA","77457","78014","74251","7853","77457","NA","Sternberg task","12","7614","12","yes","1024"
"100","100","634.0769230769231","634.0769230769231","black","experiment","legacy","legacy","legacy","0","uniform","1","undefined","1","left","12","12","12","0","0","12","12","0","0","12","12","12","0","12","0","Sun Oct 24 16:42:53 2021","The main experiment item","yes","Sternbergtask.osexp","/Users/samonemarks/Desktop","no","mono","no","18","no","white","no","yes","768","legacy","0","11","/Users/samonemarks/Desktop/SM-subject-3.csv","legacy","3 2 1 4 7","Lentiform Loewenfeld","3.3.9","2","y","0","left","left","left","left","NA","629","1527","39110","629","NA","2","legacy","5","1024","2","48000","-16","experiment","3","odd","2","120421","78019","118208","6242","118157","118213","NA","6291","79046","122423","123053","119217","7853","122423","NA","Sternberg task","13","8243","13","yes","1024"
"100","100","627.7142857142857","627.7142857142857","black","experiment","legacy","legacy","legacy","0","uniform","1","undefined","1","right","13","13","13","0","0","13","13","0","0","13","13","13","0","13","0","Sun Oct 24 16:42:53 2021","The main experiment item","yes","Sternbergtask.osexp","/Users/samonemarks/Desktop","no","mono","no","18","no","white","no","yes","768","legacy","1","11","/Users/samonemarks/Desktop/SM-subject-3.csv","legacy","8 4 3 5","Lentiform Loewenfeld","3.3.9","0","n","0","right","left","left","right","NA","545","1527","39110","545","NA","2","legacy","4","1024","2","48000","-16","experiment","3","odd","6","126320","123058","124111","6242","118157","124114","NA","6291","79046","128323","128868","125117","7853","128323","NA","Sternberg task","14","8788","14","yes","1024"
"100","100","644.5333333333333","644.5333333333333","black","experiment","legacy","legacy","legacy","0","uniform","1","undefined","1","right","14","14","14","0","0","14","14","0","0","14","14","14","0","14","0","Sun Oct 24 16:42:53 2021","The main experiment item","yes","Sternbergtask.osexp","/Users/samonemarks/Desktop","no","mono","no","18","no","white","no","yes","768","legacy","2","11","/Users/samonemarks/Desktop/SM-subject-3.csv","legacy","5 3 2 6 9 8","Lentiform Loewenfeld","3.3.9","0","n","0","right","left","left","right","NA","880","1527","39110","880","NA","2","legacy","6","1024","2","48000","-16","experiment","3","odd","4","132134","128873","129926","6242","118157","129928","NA","6291","79046","134136","135017","130930","7853","134136","NA","Sternberg task","15","9668","15","yes","1024"
"100","100","640.25","640.25","black","experiment","legacy","legacy","legacy","0","uniform","1","undefined","1","left","15","15","15","0","0","15","15","0","0","15","15","15","0","15","0","Sun Oct 24 16:42:53 2021","The main experiment item","yes","Sternbergtask.osexp","/Users/samonemarks/Desktop","no","mono","no","18","no","white","no","yes","768","legacy","3","11","/Users/samonemarks/Desktop/SM-subject-3.csv","legacy","7 1 3","Lentiform Loewenfeld","3.3.9","2","y","0","left","left","left","left","NA","576","1527","39110","576","NA","2","legacy","3","1024","2","48000","-16","experiment","3","odd","1","138280","135021","136073","6242","118157","136075","NA","6291","79046","140282","140859","137077","7853","140282","NA","Sternberg task","16","10244","16","yes","1024"
"100","100","645.1764705882352","645.1764705882352","black","experiment","legacy","legacy","legacy","0","uniform","1","undefined","1","left","16","16","16","0","0","16","16","0","0","16","16","16","0","16","0","Sun Oct 24 16:42:53 2021","The main experiment item","yes","Sternbergtask.osexp","/Users/samonemarks/Desktop","no","mono","no","18","no","white","no","yes","768","legacy","4","11","/Users/samonemarks/Desktop/SM-subject-3.csv","legacy","9 3 1 2 5","Lentiform Loewenfeld","3.3.9","4","y","0","left","left","left","left","NA","724","1527","39110","724","NA","2","legacy","5","1024","2","48000","-16","experiment","3","odd","2","144124","140864","141916","6242","118157","141918","NA","6291","79046","146127","146851","142920","7853","146127","NA","Sternberg task","17","10968","17","yes","1024"
"100","100","654.9444444444445","654.9444444444445","black","experiment","legacy","legacy","legacy","0","uniform","1","undefined","1","left","17","17","17","0","0","17","17","0","0","17","17","17","0","17","0","Sun Oct 24 16:42:53 2021","The main experiment item","yes","Sternbergtask.osexp","/Users/samonemarks/Desktop","no","mono","no","18","no","white","no","yes","768","legacy","5","11","/Users/samonemarks/Desktop/SM-subject-3.csv","legacy","3 5 4 7","Lentiform Loewenfeld","3.3.9","1","y","0","left","left","left","left","NA","821","1527","39110","821","NA","2","legacy","4","1024","2","48000","-16","experiment","3","odd","3","150114","146856","147907","6242","118157","147909","NA","6291","79046","152117","152938","148911","7853","152117","NA","Sternberg task","18","11789","18","yes","1024"
"100","100","647.8947368421053","647.8947368421053","black","experiment","legacy","legacy","legacy","0","uniform","1","undefined","1","left","18","18","18","0","0","18","18","0","0","18","18","18","0","18","0","Sun Oct 24 16:42:53 2021","The main experiment item","yes","Sternbergtask.osexp","/Users/samonemarks/Desktop","no","mono","no","18","no","white","no","yes","768","legacy","6","11","/Users/samonemarks/Desktop/SM-subject-3.csv","legacy","7 8 4 6 9 5","Lentiform Loewenfeld","3.3.9","4","y","0","left","left","left","left","NA","521","1527","39110","521","NA","2","legacy","6","1024","2","48000","-16","experiment","3","odd","6","156203","152943","153995","6242","118157","153997","NA","6291","79046","158205","158727","154999","7853","158205","NA","Sternberg task","19","12310","19","yes","1024"
"100","100","653.05","653.05","black","experiment","legacy","legacy","legacy","0","uniform","1","undefined","1","right","19","19","19","0","0","19","19","0","0","19","19","19","0","19","0","Sun Oct 24 16:42:53 2021","The main experiment item","yes","Sternbergtask.osexp","/Users/samonemarks/Desktop","no","mono","no","18","no","white","no","yes","768","legacy","7","11","/Users/samonemarks/Desktop/SM-subject-3.csv","legacy","1 8 7","Lentiform Loewenfeld","3.3.9","0","n","0","right","left","left","right","NA","751","1527","39110","751","NA","2","legacy","3","1024","2","48000","-16","experiment","3","odd","4","161990","158731","159782","6242","118157","159785","NA","6291","79046","163993","164745","160787","7853","163993","NA","Sternberg task","20","13061","20","yes","1024"
"100","100","649.952380952381","649.952380952381","black","experiment","legacy","legacy","legacy","0","uniform","1","undefined","1","left","20","20","20","0","0","20","20","0","0","20","20","20","0","20","0","Sun Oct 24 16:42:53 2021","The main experiment item","yes","Sternbergtask.osexp","/Users/samonemarks/Desktop","no","mono","no","18","no","white","no","yes","768","legacy","8","11","/Users/samonemarks/Desktop/SM-subject-3.csv","legacy","6 2","Lentiform Loewenfeld","3.3.9","1","y","0","left","left","left","left","NA","588","1527","39110","588","NA","2","legacy","2","1024","2","48000","-16","experiment","3","odd","6","168009","164750","165801","6242","118157","165803","NA","6291","79046","170011","170599","166805","7853","170011","NA","Sternberg task","21","13649","21","yes","1024"
"100","100","653.2272727272727","653.2272727272727","black","experiment","legacy","legacy","legacy","0","uniform","1","undefined","1","right","21","21","21","0","0","21","21","0","0","21","21","21","0","21","0","Sun Oct 24 16:42:53 2021","The main experiment item","yes","Sternbergtask.osexp","/Users/samonemarks/Desktop","no","mono","no","18","no","white","no","yes","768","legacy","9","11","/Users/samonemarks/Desktop/SM-subject-3.csv","legacy","2 5 1 4","Lentiform Loewenfeld","3.3.9","0","n","0","right","left","left","right","NA","722","1527","39110","722","NA","2","legacy","4","1024","2","48000","-16","experiment","3","odd","6","173864","170604","171657","6242","118157","171659","NA","6291","79046","175867","176590","172661","7853","175867","NA","Sternberg task","22","14371","22","yes","1024"
"95.65217391304348","95.65217391304348","663.5652173913044","663.5652173913044","black","experiment","legacy","legacy","legacy","0","uniform","0","undefined","0","right","22","22","22","0","0","22","22","0","0","22","22","22","0","22","0","Sun Oct 24 16:42:53 2021","The main experiment item","yes","Sternbergtask.osexp","/Users/samonemarks/Desktop","no","mono","no","18","no","white","no","yes","768","legacy","10","11","/Users/samonemarks/Desktop/SM-subject-3.csv","legacy","6 9 7 3 8 2","Lentiform Loewenfeld","3.3.9","0","n","0","left","left","left","left","NA","891","1527","39110","891","NA","2","legacy","6","1024","2","48000","-16","experiment","3","odd","5","179855","176595","177648","6242","118157","177650","NA","6291","79046","181858","182749","178652","7853","181858","NA","Sternberg task","22","15262","23","yes","1024"
"95.83333333333333","95.83333333333333","662.4583333333334","662.4583333333334","black","experiment","legacy","legacy","legacy","0","uniform","1","undefined","1","left","23","23","23","0","0","23","23","0","0","23","23","23","0","23","0","Sun Oct 24 16:42:53 2021","The main experiment item","yes","Sternbergtask.osexp","/Users/samonemarks/Desktop","no","mono","no","18","no","white","no","yes","768","legacy","11","11","/Users/samonemarks/Desktop/SM-subject-3.csv","legacy","8 9 5 7 1 6","Lentiform Loewenfeld","3.3.9","4","y","0","left","left","left","left","NA","637","1527","39110","637","NA","2","legacy","6","1024","2","48000","-16","experiment","3","odd","7","186014","176595","183805","6242","118157","183808","182754","6291","79046","188017","188655","184811","7853","188017","NA","Sternberg task","23","15899","24","yes","1024"
"96","96","659.48","659.48","black","experiment","legacy","legacy","legacy","0","uniform","1","undefined","1","right","24","24","24","0","0","24","24","0","0","24","24","24","0","24","0","Sun Oct 24 16:42:53 2021","The main experiment item","yes","Sternbergtask.osexp","/Users/samonemarks/Desktop","no","mono","no","18","no","white","no","yes","768","legacy","12","11","/Users/samonemarks/Desktop/SM-subject-3.csv","legacy","7 1","Lentiform Loewenfeld","3.3.9","0","n","0","right","left","left","right","NA","588","1527","39110","588","NA","2","legacy","2","1024","2","48000","-16","experiment","3","odd","8","191919","188659","189711","6242","118157","189713","182754","6291","79046","193921","194509","190715","7853","193921","NA","Sternberg task","24","16487","25","yes","1024"
"96.15384615384616","96.15384615384616","659.3846153846154","659.3846153846154","black","experiment","legacy","legacy","legacy","0","uniform","1","undefined","1","right","25","25","25","0","0","25","25","0","0","25","25","25","0","25","0","Sun Oct 24 16:42:53 2021","The main experiment item","yes","Sternbergtask.osexp","/Users/samonemarks/Desktop","no","mono","no","18","no","white","no","yes","768","legacy","13","11","/Users/samonemarks/Desktop/SM-subject-3.csv","legacy","6 2 9 3 8 4","Lentiform Loewenfeld","3.3.9","0","n","0","right","left","left","right","NA","657","1527","39110","657","NA","2","legacy","6","1024","2","48000","-16","experiment","3","odd","1","197775","194514","195566","6242","118157","195569","182754","6291","79046","199778","200436","196571","7853","199777","NA","Sternberg task","25","17144","26","yes","1024"
"92.5925925925926","92.5925925925926","667.5555555555555","667.5555555555555","black","experiment","legacy","legacy","legacy","0","uniform","0","undefined","0","left","26","26","26","0","0","26","26","0","0","26","26","26","0","26","0","Sun Oct 24 16:42:53 2021","The main experiment item","yes","Sternbergtask.osexp","/Users/samonemarks/Desktop","no","mono","no","18","no","white","no","yes","768","legacy","14","11","/Users/samonemarks/Desktop/SM-subject-3.csv","legacy","5 2 9 6 1 7","Lentiform Loewenfeld","3.3.9","3","y","0","right","left","left","right","NA","880","1527","39110","880","NA","2","legacy","6","1024","2","48000","-16","experiment","3","odd","9","203700","200441","201491","6242","118157","201494","182754","6291","79046","205702","206582","202496","7853","205702","NA","Sternberg task","25","18024","27","yes","1024"
"92.85714285714286","92.85714285714286","670.8928571428571","670.8928571428571","black","experiment","legacy","legacy","legacy","0","uniform","1","undefined","1","left","27","27","27","0","0","27","27","0","0","27","27","27","0","27","0","Sun Oct 24 16:42:53 2021","The main experiment item","yes","Sternbergtask.osexp","/Users/samonemarks/Desktop","no","mono","no","18","no","white","no","yes","768","legacy","15","11","/Users/samonemarks/Desktop/SM-subject-3.csv","legacy","7 8 6 3 1","Lentiform Loewenfeld","3.3.9","5","y","0","left","left","left","left","NA","761","1527","39110","761","NA","2","legacy","5","1024","2","48000","-16","experiment","3","odd","1","209846","200441","207638","6242","118157","207641","206587","6291","79046","211849","212611","208643","7853","211849","NA","Sternberg task","26","18785","28","yes","1024"
"93.10344827586206","93.10344827586206","673.1724137931035","673.1724137931035","black","experiment","legacy","legacy","legacy","0","uniform","1","undefined","1","right","28","28","28","0","0","28","28","0","0","28","28","28","0","28","0","Sun Oct 24 16:42:53 2021","The main experiment item","yes","Sternbergtask.osexp","/Users/samonemarks/Desktop","no","mono","no","18","no","white","no","yes","768","legacy","16","11","/Users/samonemarks/Desktop/SM-subject-3.csv","legacy","1 4 9 2 5","Lentiform Loewenfeld","3.3.9","0","n","0","right","left","left","right","NA","737","1527","39110","737","NA","2","legacy","5","1024","2","48000","-16","experiment","3","odd","7","215875","212615","213668","6242","118157","213671","206587","6291","79046","217877","218615","214673","7853","217877","NA","Sternberg task","27","19522","29","yes","1024"
"93.33333333333333","93.33333333333333","671.8666666666667","671.8666666666667","black","experiment","legacy","legacy","legacy","0","uniform","1","undefined","1","left","29","29","29","0","0","29","29","0","0","29","29","29","0","29","0","Sun Oct 24 16:42:53 2021","The main experiment item","yes","Sternbergtask.osexp","/Users/samonemarks/Desktop","no","mono","no","18","no","white","no","yes","768","legacy","17","11","/Users/samonemarks/Desktop/SM-subject-3.csv","legacy","4 1 5","Lentiform Loewenfeld","3.3.9","2","y","0","left","left","left","left","NA","634","1527","39110","634","NA","2","legacy","3","1024","2","48000","-16","experiment","3","odd","1","221879","218619","219670","6242","118157","219673","206587","6291","79046","223882","224517","220675","7853","223882","NA","Sternberg task","28","20156","30","yes","1024"
"93.54838709677419","93.54838709677419","668.9354838709677","668.9354838709677","black","experiment","legacy","legacy","legacy","0","uniform","1","undefined","1","right","30","30","30","0","0","30","30","0","0","30","30","30","0","30","0","Sun Oct 24 16:42:53 2021","The main experiment item","yes","Sternbergtask.osexp","/Users/samonemarks/Desktop","no","mono","no","18","no","white","no","yes","768","legacy","18","11","/Users/samonemarks/Desktop/SM-subject-3.csv","legacy","7 9 1 6","Lentiform Loewenfeld","3.3.9","0","n","0","right","left","left","right","NA","581","1527","39110","581","NA","2","legacy","4","1024","2","48000","-16","experiment","3","odd","4","227782","224522","225574","6242","118157","225576","206587","6291","79046","229784","230366","226578","7853","229784","NA","Sternberg task","29","20737","31","yes","1024"
"90.625","90.625","680.625","680.625","black","experiment","legacy","legacy","legacy","0","uniform","0","undefined","0","right","31","31","31","0","0","31","31","0","0","31","31","31","0","31","0","Sun Oct 24 16:42:53 2021","The main experiment item","yes","Sternbergtask.osexp","/Users/samonemarks/Desktop","no","mono","no","18","no","white","no","yes","768","legacy","19","11","/Users/samonemarks/Desktop/SM-subject-3.csv","legacy","3 9 8 1 6 4","Lentiform Loewenfeld","3.3.9","0","n","0","left","left","left","left","NA","1043","1527","39110","1043","NA","2","legacy","6","1024","2","48000","-16","experiment","3","odd","7","233630","230371","231422","6242","118157","231425","206587","6291","79046","235633","236677","232427","7853","235633","NA","Sternberg task","29","21780","32","yes","1024"
"90.9090909090909","90.9090909090909","679.060606060606","679.060606060606","black","experiment","legacy","legacy","legacy","0","uniform","1","undefined","1","right","32","32","32","0","0","32","32","0","0","32","32","32","0","32","0","Sun Oct 24 16:42:53 2021","The main experiment item","yes","Sternbergtask.osexp","/Users/samonemarks/Desktop","no","mono","no","18","no","white","no","yes","768","legacy","20","11","/Users/samonemarks/Desktop/SM-subject-3.csv","legacy","4 8 1 2","Lentiform Loewenfeld","3.3.9","0","n","0","right","left","left","right","NA","629","1527","39110","629","NA","2","legacy","4","1024","2","48000","-16","experiment","3","odd","7","239942","230371","237733","6242","118157","237736","236681","6291","79046","241944","242574","238738","7853","241944","NA","Sternberg task","30","22409","33","yes","1024"
"91.17647058823529","91.17647058823529","674.2941176470588","674.2941176470588","black","experiment","legacy","legacy","legacy","0","uniform","1","undefined","1","left","33","33","33","0","0","33","33","0","0","33","33","33","0","33","0","Sun Oct 24 16:42:53 2021","The main experiment item","yes","Sternbergtask.osexp","/Users/samonemarks/Desktop","no","mono","no","18","no","white","no","yes","768","legacy","21","11","/Users/samonemarks/Desktop/SM-subject-3.csv","legacy","4 6 5 8","Lentiform Loewenfeld","3.3.9","1","y","0","left","left","left","left","NA","517","1527","39110","517","NA","2","legacy","4","1024","2","48000","-16","experiment","3","odd","4","245837","242578","243630","6242","118157","243632","236681","6291","79046","247840","248358","244634","7853","247840","NA","Sternberg task","31","22926","34","yes","1024"
"91.42857142857143","91.42857142857143","670.4","670.4","black","experiment","legacy","legacy","legacy","0","uniform","1","undefined","1","right","34","34","34","0","0","34","34","0","0","34","34","34","0","34","0","Sun Oct 24 16:42:53 2021","The main experiment item","yes","Sternbergtask.osexp","/Users/samonemarks/Desktop","no","mono","no","18","no","white","no","yes","768","legacy","22","11","/Users/samonemarks/Desktop/SM-subject-3.csv","legacy","2 3 8 5 6 7","Lentiform Loewenfeld","3.3.9","0","n","0","right","left","left","right","NA","538","1527","39110","538","NA","2","legacy","6","1024","2","48000","-16","experiment","3","odd","1","251625","248361","249416","6242","118157","249419","236681","6291","79046","253627","254166","250421","7853","253627","NA","Sternberg task","32","23464","35","yes","1024"
"91.66666666666667","91.66666666666667","674.1944444444445","674.1944444444445","black","experiment","legacy","legacy","legacy","0","uniform","1","undefined","1","left","35","35","35","0","0","35","35","0","0","35","35","35","0","35","0","Sun Oct 24 16:42:53 2021","The main experiment item","yes","Sternbergtask.osexp","/Users/samonemarks/Desktop","no","mono","no","18","no","white","no","yes","768","legacy","23","11","/Users/samonemarks/Desktop/SM-subject-3.csv","legacy","8 9 6 1","Lentiform Loewenfeld","3.3.9","2","y","0","left","left","left","left","NA","807","1527","39110","807","NA","2","legacy","4","1024","2","48000","-16","experiment","3","odd","9","257430","254170","255222","6242","118157","255225","236681","6291","79046","259433","260241","256227","7853","259433","NA","Sternberg task","33","24271","36","yes","1024"
"91.89189189189189","91.89189189189189","679.6216216216217","679.6216216216217","black","experiment","legacy","legacy","legacy","0","uniform","1","undefined","1","left","36","36","36","0","0","36","36","0","0","36","36","36","0","36","0","Sun Oct 24 16:42:53 2021","The main experiment item","yes","Sternbergtask.osexp","/Users/samonemarks/Desktop","no","mono","no","18","no","white","no","yes","768","legacy","24","11","/Users/samonemarks/Desktop/SM-subject-3.csv","legacy","2 5 4 8 7","Lentiform Loewenfeld","3.3.9","3","y","0","left","left","left","left","NA","875","1527","39110","875","NA","2","legacy","5","1024","2","48000","-16","experiment","3","odd","4","263506","260246","261298","6242","118157","261300","236681","6291","79046","265508","266384","262302","7853","265508","NA","Sternberg task","34","25146","37","yes","1024"
"92.10526315789474","92.10526315789474","678.5263157894736","678.5263157894736","black","experiment","legacy","legacy","legacy","0","uniform","1","undefined","1","right","37","37","37","0","0","37","37","0","0","37","37","37","0","37","0","Sun Oct 24 16:42:53 2021","The main experiment item","yes","Sternbergtask.osexp","/Users/samonemarks/Desktop","no","mono","no","18","no","white","no","yes","768","legacy","25","11","/Users/samonemarks/Desktop/SM-subject-3.csv","legacy","1","Lentiform Loewenfeld","3.3.9","0","n","0","right","left","left","right","NA","638","1527","39110","638","NA","2","legacy","1","1024","2","48000","-16","experiment","3","odd","7","269646","266388","267439","6242","118157","267441","236681","6291","79046","271649","272288","268443","7853","271649","NA","Sternberg task","35","25784","38","yes","1024"
"92.3076923076923","92.3076923076923","674.8717948717949","674.8717948717949","black","experiment","legacy","legacy","legacy","0","uniform","1","undefined","1","left","38","38","38","0","0","38","38","0","0","38","38","38","0","38","0","Sun Oct 24 16:42:53 2021","The main experiment item","yes","Sternbergtask.osexp","/Users/samonemarks/Desktop","no","mono","no","18","no","white","no","yes","768","legacy","26","11","/Users/samonemarks/Desktop/SM-subject-3.csv","legacy","3 4","Lentiform Loewenfeld","3.3.9","1","y","0","left","left","left","left","NA","536","1527","39110","536","NA","2","legacy","2","1024","2","48000","-16","experiment","3","odd","3","275553","272292","273345","6242","118157","273347","236681","6291","79046","277555","278092","274349","7853","277555","NA","Sternberg task","36","26320","39","yes","1024"
"92.5","92.5","671.625","671.625","black","experiment","legacy","legacy","legacy","0","uniform","1","undefined","1","left","39","39","39","0","0","39","39","0","0","39","39","39","0","39","0","Sun Oct 24 16:42:53 2021","The main experiment item","yes","Sternbergtask.osexp","/Users/samonemarks/Desktop","no","mono","no","18","no","white","no","yes","768","legacy","27","11","/Users/samonemarks/Desktop/SM-subject-3.csv","legacy","6 7 9 3 1 2","Lentiform Loewenfeld","3.3.9","1","y","0","left","left","left","left","NA","545","1527","39110","545","NA","2","legacy","6","1024","2","48000","-16","experiment","3","odd","6","281356","278096","279148","6242","118157","279151","236681","6291","79046","283359","283905","280153","7853","283359","NA","Sternberg task","37","26865","40","yes","1024"
"92.6829268292683","92.6829268292683","672.219512195122","672.219512195122","black","experiment","legacy","legacy","legacy","0","uniform","1","undefined","1","left","40","40","40","0","0","40","40","0","0","40","40","40","0","40","0","Sun Oct 24 16:42:53 2021","The main experiment item","yes","Sternbergtask.osexp","/Users/samonemarks/Desktop","no","mono","no","18","no","white","no","yes","768","legacy","28","11","/Users/samonemarks/Desktop/SM-subject-3.csv","legacy","7 2 3","Lentiform Loewenfeld","3.3.9","3","y","0","left","left","left","left","NA","696","1527","39110","696","NA","2","legacy","3","1024","2","48000","-16","experiment","3","odd","3","287169","283909","284960","6242","118157","284962","236681","6291","79046","289172","289869","285966","7853","289172","NA","Sternberg task","38","27561","41","yes","1024"
"90.47619047619048","90.47619047619048","675.0714285714286","675.0714285714286","black","experiment","legacy","legacy","legacy","0","uniform","0","undefined","0","left","41","41","41","0","0","41","41","0","0","41","41","41","0","41","0","Sun Oct 24 16:42:53 2021","The main experiment item","yes","Sternbergtask.osexp","/Users/samonemarks/Desktop","no","mono","no","18","no","white","no","yes","768","legacy","29","11","/Users/samonemarks/Desktop/SM-subject-3.csv","legacy","8 7 3","Lentiform Loewenfeld","3.3.9","1","y","0","right","left","left","right","NA","792","1527","39110","792","NA","2","legacy","3","1024","2","48000","-16","experiment","3","odd","8","293133","289874","290926","6242","118157","290928","236681","6291","79046","295136","295929","291930","7853","295135","NA","Sternberg task","38","28353","42","yes","1024"
"90.69767441860465","90.69767441860465","671.6976744186046","671.6976744186046","black","experiment","legacy","legacy","legacy","0","uniform","1","undefined","1","left","42","42","42","0","0","42","42","0","0","42","42","42","0","42","0","Sun Oct 24 16:42:53 2021","The main experiment item","yes","Sternbergtask.osexp","/Users/samonemarks/Desktop","no","mono","no","18","no","white","no","yes","768","legacy","30","11","/Users/samonemarks/Desktop/SM-subject-3.csv","legacy","8 5 1 3 9","Lentiform Loewenfeld","3.3.9","4","y","0","left","left","left","left","NA","530","1527","39110","530","NA","2","legacy","5","1024","2","48000","-16","experiment","3","odd","3","299193","289874","296987","6242","118157","296989","295933","6291","79046","301195","301726","297991","7853","301195","NA","Sternberg task","39","28883","43","yes","1024"
"88.63636363636364","88.63636363636364","674.4545454545455","674.4545454545455","black","experiment","legacy","legacy","legacy","0","uniform","0","undefined","0","right","43","43","43","0","0","43","43","0","0","43","43","43","0","43","0","Sun Oct 24 16:42:53 2021","The main experiment item","yes","Sternbergtask.osexp","/Users/samonemarks/Desktop","no","mono","no","18","no","white","no","yes","768","legacy","31","11","/Users/samonemarks/Desktop/SM-subject-3.csv","legacy","2 8 9","Lentiform Loewenfeld","3.3.9","0","n","0","left","left","left","left","NA","793","1527","39110","793","NA","2","legacy","3","1024","2","48000","-16","experiment","3","odd","6","304991","301730","302783","6242","118157","302786","295933","6291","79046","306994","307788","303788","7853","306994","NA","Sternberg task","39","29676","44","yes","1024"
"88.88888888888889","88.88888888888889","670.8222222222222","670.8222222222222","black","experiment","legacy","legacy","legacy","0","uniform","1","undefined","1","right","44","44","44","0","0","44","44","0","0","44","44","44","0","44","0","Sun Oct 24 16:42:53 2021","The main experiment item","yes","Sternbergtask.osexp","/Users/samonemarks/Desktop","no","mono","no","18","no","white","no","yes","768","legacy","32","11","/Users/samonemarks/Desktop/SM-subject-3.csv","legacy","9 5 3 2 8 6","Lentiform Loewenfeld","3.3.9","0","n","0","right","left","left","right","NA","511","1527","39110","511","NA","2","legacy","6","1024","2","48000","-16","experiment","3","odd","7","311053","301730","308845","6242","118157","308847","307793","6291","79046","313055","313567","309849","7853","313055","NA","Sternberg task","40","30187","45","yes","1024"
"89.1304347826087","89.1304347826087","668.2608695652174","668.2608695652174","black","experiment","legacy","legacy","legacy","0","uniform","1","undefined","1","left","45","45","45","0","0","45","45","0","0","45","45","45","0","45","0","Sun Oct 24 16:42:53 2021","The main experiment item","yes","Sternbergtask.osexp","/Users/samonemarks/Desktop","no","mono","no","18","no","white","no","yes","768","legacy","33","11","/Users/samonemarks/Desktop/SM-subject-3.csv","legacy","9 6 2 4 1","Lentiform Loewenfeld","3.3.9","4","y","0","left","left","left","left","NA","553","1527","39110","553","NA","2","legacy","5","1024","2","48000","-16","experiment","3","odd","4","316829","313571","314622","6242","118157","314624","307793","6291","79046","318832","319386","315626","7853","318831","NA","Sternberg task","41","30740","46","yes","1024"
"89.36170212765957","89.36170212765957","665.6170212765958","665.6170212765958","black","experiment","legacy","legacy","legacy","0","uniform","1","undefined","1","left","46","46","46","0","0","46","46","0","0","46","46","46","0","46","0","Sun Oct 24 16:42:53 2021","The main experiment item","yes","Sternbergtask.osexp","/Users/samonemarks/Desktop","no","mono","no","18","no","white","no","yes","768","legacy","34","11","/Users/samonemarks/Desktop/SM-subject-3.csv","legacy","4","Lentiform Loewenfeld","3.3.9","1","y","0","left","left","left","left","NA","544","1527","39110","544","NA","2","legacy","1","1024","2","48000","-16","experiment","3","odd","4","322650","319391","320442","6242","118157","320444","307793","6291","79046","324653","325198","321446","7853","324652","NA","Sternberg task","42","31284","47","yes","1024"
"89.58333333333333","89.58333333333333","662.6875","662.6875","black","experiment","legacy","legacy","legacy","0","uniform","1","undefined","1","right","47","47","47","0","0","47","47","0","0","47","47","47","0","47","0","Sun Oct 24 16:42:53 2021","The main experiment item","yes","Sternbergtask.osexp","/Users/samonemarks/Desktop","no","mono","no","18","no","white","no","yes","768","legacy","35","11","/Users/samonemarks/Desktop/SM-subject-3.csv","legacy","6 3 1 7 9 8","Lentiform Loewenfeld","3.3.9","0","n","0","right","left","left","right","NA","525","1527","39110","525","NA","2","legacy","6","1024","2","48000","-16","experiment","3","odd","4","328461","325202","326253","6242","118157","326256","307793","6291","79046","330464","330990","327258","7853","330463","NA","Sternberg task","43","31809","48","yes","1024"
"89.79591836734694","89.79591836734694","660.7755102040817","660.7755102040817","black","experiment","legacy","legacy","legacy","0","uniform","1","undefined","1","left","48","48","48","0","0","48","48","0","0","48","48","48","0","48","0","Sun Oct 24 16:42:53 2021","The main experiment item","yes","Sternbergtask.osexp","/Users/samonemarks/Desktop","no","mono","no","18","no","white","no","yes","768","legacy","36","11","/Users/samonemarks/Desktop/SM-subject-3.csv","legacy","2 8 5 1","Lentiform Loewenfeld","3.3.9","4","y","0","left","left","left","left","NA","569","1527","39110","569","NA","2","legacy","4","1024","2","48000","-16","experiment","3","odd","1","334255","330995","332047","6242","118157","332049","307793","6291","79046","336257","336827","333051","7853","336257","NA","Sternberg task","44","32378","49","yes","1024"
"90","90","659.36","659.36","black","experiment","legacy","legacy","legacy","0","uniform","1","undefined","1","right","49","49","49","0","0","49","49","0","0","49","49","49","0","49","0","Sun Oct 24 16:42:53 2021","The main experiment item","yes","Sternbergtask.osexp","/Users/samonemarks/Desktop","no","mono","no","18","no","white","no","yes","768","legacy","37","11","/Users/samonemarks/Desktop/SM-subject-3.csv","legacy","2 6 4 3 9","Lentiform Loewenfeld","3.3.9","0","n","0","right","left","left","right","NA","590","1527","39110","590","NA","2","legacy","5","1024","2","48000","-16","experiment","3","odd","1","340090","336832","337883","6242","118157","337885","307793","6291","79046","342093","342684","338887","7853","342092","NA","Sternberg task","45","32968","50","yes","1024"
"90.19607843137256","90.19607843137256","659.7843137254902","659.7843137254902","black","experiment","legacy","legacy","legacy","0","uniform","1","undefined","1","right","50","50","50","0","0","50","50","0","0","50","50","50","0","50","0","Sun Oct 24 16:42:53 2021","The main experiment item","yes","Sternbergtask.osexp","/Users/samonemarks/Desktop","no","mono","no","18","no","white","no","yes","768","legacy","38","11","/Users/samonemarks/Desktop/SM-subject-3.csv","legacy","7 4 2 8 1 9","Lentiform Loewenfeld","3.3.9","0","n","0","right","left","left","right","NA","681","1527","39110","681","NA","2","legacy","6","1024","2","48000","-16","experiment","3","odd","5","345948","342689","343740","6242","118157","343743","307793","6291","79046","347950","348632","344745","7853","347950","NA","Sternberg task","46","33649","51","yes","1024"
"90.38461538461539","90.38461538461539","660.1153846153846","660.1153846153846","black","experiment","legacy","legacy","legacy","0","uniform","1","undefined","1","right","51","51","51","0","0","51","51","0","0","51","51","51","0","51","0","Sun Oct 24 16:42:53 2021","The main experiment item","yes","Sternbergtask.osexp","/Users/samonemarks/Desktop","no","mono","no","18","no","white","no","yes","768","legacy","39","11","/Users/samonemarks/Desktop/SM-subject-3.csv","legacy","6 8 4","Lentiform Loewenfeld","3.3.9","0","n","0","right","left","left","right","NA","677","1527","39110","677","NA","2","legacy","3","1024","2","48000","-16","experiment","3","odd","1","351895","348636","349687","6242","118157","349690","307793","6291","79046","353898","354576","350692","7853","353897","NA","Sternberg task","47","34326","52","yes","1024"
"90.56603773584905","90.56603773584905","658.8867924528302","658.8867924528302","black","experiment","legacy","legacy","legacy","0","uniform","1","undefined","1","right","52","52","52","0","0","52","52","0","0","52","52","52","0","52","0","Sun Oct 24 16:42:53 2021","The main experiment item","yes","Sternbergtask.osexp","/Users/samonemarks/Desktop","no","mono","no","18","no","white","no","yes","768","legacy","40","11","/Users/samonemarks/Desktop/SM-subject-3.csv","legacy","5","Lentiform Loewenfeld","3.3.9","0","n","0","right","left","left","right","NA","595","1527","39110","595","NA","2","legacy","1","1024","2","48000","-16","experiment","3","odd","8","357841","354581","355633","6242","118157","355635","307793","6291","79046","359844","360440","356637","7853","359844","NA","Sternberg task","48","34921","53","yes","1024"
"90.74074074074075","90.74074074074075","660.1481481481482","660.1481481481482","black","experiment","legacy","legacy","legacy","0","uniform","1","undefined","1","right","53","53","53","0","0","53","53","0","0","53","53","53","0","53","0","Sun Oct 24 16:42:53 2021","The main experiment item","yes","Sternbergtask.osexp","/Users/samonemarks/Desktop","no","mono","no","18","no","white","no","yes","768","legacy","41","11","/Users/samonemarks/Desktop/SM-subject-3.csv","legacy","8 5 4 2 9 6","Lentiform Loewenfeld","3.3.9","0","n","0","right","left","left","right","NA","727","1527","39110","727","NA","2","legacy","6","1024","2","48000","-16","experiment","3","odd","3","363705","360444","361498","6242","118157","361500","307793","6291","79046","365708","366436","362502","7853","365707","NA","Sternberg task","49","35648","54","yes","1024"
"90.9090909090909","90.9090909090909","657.9818181818182","657.9818181818182","black","experiment","legacy","legacy","legacy","0","uniform","1","undefined","1","right","54","54","54","0","0","54","54","0","0","54","54","54","0","54","0","Sun Oct 24 16:42:53 2021","The main experiment item","yes","Sternbergtask.osexp","/Users/samonemarks/Desktop","no","mono","no","18","no","white","no","yes","768","legacy","42","11","/Users/samonemarks/Desktop/SM-subject-3.csv","legacy","1 4 3 6 5","Lentiform Loewenfeld","3.3.9","0","n","0","right","left","left","right","NA","541","1527","39110","541","NA","2","legacy","5","1024","2","48000","-16","experiment","3","odd","8","369701","366441","367493","6242","118157","367495","307793","6291","79046","371703","372245","368497","7853","371703","NA","Sternberg task","50","36189","55","yes","1024"
"91.07142857142857","91.07142857142857","657.0178571428571","657.0178571428571","black","experiment","legacy","legacy","legacy","0","uniform","1","undefined","1","right","55","55","55","0","0","55","55","0","0","55","55","55","0","55","0","Sun Oct 24 16:42:53 2021","The main experiment item","yes","Sternbergtask.osexp","/Users/samonemarks/Desktop","no","mono","no","18","no","white","no","yes","768","legacy","43","11","/Users/samonemarks/Desktop/SM-subject-3.csv","legacy","7 8 6 1","Lentiform Loewenfeld","3.3.9","0","n","0","right","left","left","right","NA","604","1527","39110","604","NA","2","legacy","4","1024","2","48000","-16","experiment","3","odd","3","375509","372250","373302","6242","118157","373304","307793","6291","79046","377512","378116","374306","7853","377511","NA","Sternberg task","51","36793","56","yes","1024"
"91.2280701754386","91.2280701754386","656.0877192982456","656.0877192982456","black","experiment","legacy","legacy","legacy","0","uniform","1","undefined","1","right","56","56","56","0","0","56","56","0","0","56","56","56","0","56","0","Sun Oct 24 16:42:53 2021","The main experiment item","yes","Sternbergtask.osexp","/Users/samonemarks/Desktop","no","mono","no","18","no","white","no","yes","768","legacy","44","11","/Users/samonemarks/Desktop/SM-subject-3.csv","legacy","1 6 4 3 9 7","Lentiform Loewenfeld","3.3.9","0","n","0","right","left","left","right","NA","604","1527","39110","604","NA","2","legacy","6","1024","2","48000","-16","experiment","3","odd","8","381382","378121","379174","6242","118157","379176","307793","6291","79046","383384","383989","380178","7853","383384","NA","Sternberg task","52","37397","57","yes","1024"
"89.65517241379311","89.65517241379311","655.5","655.5","black","experiment","legacy","legacy","legacy","0","uniform","0","undefined","0","left","57","57","57","0","0","57","57","0","0","57","57","57","0","57","0","Sun Oct 24 16:42:53 2021","The main experiment item","yes","Sternbergtask.osexp","/Users/samonemarks/Desktop","no","mono","no","18","no","white","no","yes","768","legacy","45","11","/Users/samonemarks/Desktop/SM-subject-3.csv","legacy","8 5 4 7 3 1","Lentiform Loewenfeld","3.3.9","2","y","0","right","left","left","right","NA","622","1527","39110","622","NA","2","legacy","6","1024","2","48000","-16","experiment","3","odd","5","387254","383994","385046","6242","118157","385049","307793","6291","79046","389257","389879","386051","7853","389257","NA","Sternberg task","52","38019","58","yes","1024"
"88.13559322033899","88.13559322033899","655.728813559322","655.728813559322","black","experiment","legacy","legacy","legacy","0","uniform","0","undefined","0","right","58","58","58","0","0","58","58","0","0","58","58","58","0","58","0","Sun Oct 24 16:42:53 2021","The main experiment item","yes","Sternbergtask.osexp","/Users/samonemarks/Desktop","no","mono","no","18","no","white","no","yes","768","legacy","46","11","/Users/samonemarks/Desktop/SM-subject-3.csv","legacy","4 2 6 9","Lentiform Loewenfeld","3.3.9","0","n","0","left","left","left","left","NA","669","1527","39110","669","NA","2","legacy","4","1024","2","48000","-16","experiment","3","odd","7","393143","383994","390936","6242","118157","390938","389884","6291","79046","395145","395814","391940","7853","395144","NA","Sternberg task","52","38688","59","yes","1024"
"88.33333333333333","88.33333333333333","658.7333333333333","658.7333333333333","black","experiment","legacy","legacy","legacy","0","uniform","1","undefined","1","right","59","59","59","0","0","59","59","0","0","59","59","59","0","59","0","Sun Oct 24 16:42:53 2021","The main experiment item","yes","Sternbergtask.osexp","/Users/samonemarks/Desktop","no","mono","no","18","no","white","no","yes","768","legacy","47","11","/Users/samonemarks/Desktop/SM-subject-3.csv","legacy","8 9","Lentiform Loewenfeld","3.3.9","0","n","0","right","left","left","right","NA","836","1527","39110","836","NA","2","legacy","2","1024","2","48000","-16","experiment","3","odd","5","399077","383994","396870","6242","118157","396872","395819","6291","79046","401080","401917","397874","7853","401080","NA","Sternberg task","53","39524","60","yes","1024"
"86.88524590163935","86.88524590163935","661.2295081967213","661.2295081967213","black","experiment","legacy","legacy","legacy","0","uniform","0","undefined","0","right","60","60","60","0","0","60","60","0","0","60","60","60","0","60","0","Sun Oct 24 16:42:53 2021","The main experiment item","yes","Sternbergtask.osexp","/Users/samonemarks/Desktop","no","mono","no","18","no","white","no","yes","768","legacy","48","11","/Users/samonemarks/Desktop/SM-subject-3.csv","legacy","9 7 4 5 8","Lentiform Loewenfeld","3.3.9","0","n","0","left","left","left","left","NA","811","1527","39110","811","NA","2","legacy","5","1024","2","48000","-16","experiment","3","odd","6","405180","401921","402972","6242","118157","402974","395819","6291","79046","407182","407994","403976","7853","407182","NA","Sternberg task","53","40335","61","yes","1024"
"87.09677419354838","87.09677419354838","664.5","664.5","black","experiment","legacy","legacy","legacy","0","uniform","1","undefined","1","left","61","61","61","0","0","61","61","0","0","61","61","61","0","61","0","Sun Oct 24 16:42:53 2021","The main experiment item","yes","Sternbergtask.osexp","/Users/samonemarks/Desktop","no","mono","no","18","no","white","no","yes","768","legacy","49","11","/Users/samonemarks/Desktop/SM-subject-3.csv","legacy","3 9 6 2","Lentiform Loewenfeld","3.3.9","4","y","0","left","left","left","left","NA","864","1527","39110","864","NA","2","legacy","4","1024","2","48000","-16","experiment","3","odd","2","411257","401921","409050","6242","118157","409052","407998","6291","79046","413261","414126","410054","7853","413260","NA","Sternberg task","54","41199","62","yes","1024"
"87.3015873015873","87.3015873015873","661.8253968253969","661.8253968253969","black","experiment","legacy","legacy","legacy","0","uniform","1","undefined","1","left","62","62","62","0","0","62","62","0","0","62","62","62","0","62","0","Sun Oct 24 16:42:53 2021","The main experiment item","yes","Sternbergtask.osexp","/Users/samonemarks/Desktop","no","mono","no","18","no","white","no","yes","768","legacy","50","11","/Users/samonemarks/Desktop/SM-subject-3.csv","legacy","3 5 7 1","Lentiform Loewenfeld","3.3.9","3","y","0","left","left","left","left","NA","496","1527","39110","496","NA","2","legacy","4","1024","2","48000","-16","experiment","3","odd","7","417390","414131","415183","6242","118157","415185","407998","6291","79046","419393","419890","416187","7853","419393","NA","Sternberg task","55","41695","63","yes","1024"
"87.5","87.5","662.109375","662.109375","black","experiment","legacy","legacy","legacy","0","uniform","1","undefined","1","left","63","63","63","0","0","63","63","0","0","63","63","63","0","63","0","Sun Oct 24 16:42:53 2021","The main experiment item","yes","Sternbergtask.osexp","/Users/samonemarks/Desktop","no","mono","no","18","no","white","no","yes","768","legacy","51","11","/Users/samonemarks/Desktop/SM-subject-3.csv","legacy","9 5 3 8 4","Lentiform Loewenfeld","3.3.9","1","y","0","left","left","left","left","NA","680","1527","39110","680","NA","2","legacy","5","1024","2","48000","-16","experiment","3","odd","9","423155","419895","420947","6242","118157","420950","407998","6291","79046","425158","425839","421952","7853","425158","NA","Sternberg task","56","42375","64","yes","1024"
"87.6923076923077","87.6923076923077","663.8461538461538","663.8461538461538","black","experiment","legacy","legacy","legacy","0","uniform","1","undefined","1","left","64","64","64","0","0","64","64","0","0","64","64","64","0","64","0","Sun Oct 24 16:42:53 2021","The main experiment item","yes","Sternbergtask.osexp","/Users/samonemarks/Desktop","no","mono","no","18","no","white","no","yes","768","legacy","52","11","/Users/samonemarks/Desktop/SM-subject-3.csv","legacy","6 8 9 3 4 9","Lentiform Loewenfeld","3.3.9","5","y","0","left","left","left","left","NA","775","1527","39110","775","NA","2","legacy","6","1024","2","48000","-16","experiment","3","odd","4","429104","425844","426896","6242","118157","426898","407998","6291","79046","431106","431882","427900","7853","431106","NA","Sternberg task","57","43150","65","yes","1024"
"87.87878787878788","87.87878787878788","662.3484848484849","662.3484848484849","black","experiment","legacy","legacy","legacy","0","uniform","1","undefined","1","right","65","65","65","0","0","65","65","0","0","65","65","65","0","65","0","Sun Oct 24 16:42:53 2021","The main experiment item","yes","Sternbergtask.osexp","/Users/samonemarks/Desktop","no","mono","no","18","no","white","no","yes","768","legacy","53","11","/Users/samonemarks/Desktop/SM-subject-3.csv","legacy","3 4 2","Lentiform Loewenfeld","3.3.9","0","n","0","right","left","left","right","NA","565","1527","39110","565","NA","2","legacy","3","1024","2","48000","-16","experiment","3","odd","5","435146","431887","432939","6242","118157","432941","407998","6291","79046","437149","437715","433943","7853","437149","NA","Sternberg task","58","43715","66","yes","1024"
"88.05970149253731","88.05970149253731","661.6716417910447","661.6716417910447","black","experiment","legacy","legacy","legacy","0","uniform","1","undefined","1","left","66","66","66","0","0","66","66","0","0","66","66","66","0","66","0","Sun Oct 24 16:42:53 2021","The main experiment item","yes","Sternbergtask.osexp","/Users/samonemarks/Desktop","no","mono","no","18","no","white","no","yes","768","legacy","54","11","/Users/samonemarks/Desktop/SM-subject-3.csv","legacy","6 7 8 5","Lentiform Loewenfeld","3.3.9","3","y","0","left","left","left","left","NA","617","1527","39110","617","NA","2","legacy","4","1024","2","48000","-16","experiment","3","odd","8","440980","437720","438772","6242","118157","438774","407998","6291","79046","442982","443600","439776","7853","442982","NA","Sternberg task","59","44332","67","yes","1024"
"86.76470588235294","86.76470588235294","664.6323529411765","664.6323529411765","black","experiment","legacy","legacy","legacy","0","uniform","0","undefined","0","right","67","67","67","0","0","67","67","0","0","67","67","67","0","67","0","Sun Oct 24 16:42:53 2021","The main experiment item","yes","Sternbergtask.osexp","/Users/samonemarks/Desktop","no","mono","no","18","no","white","no","yes","768","legacy","55","11","/Users/samonemarks/Desktop/SM-subject-3.csv","legacy","5 9 2 3","Lentiform Loewenfeld","3.3.9","0","n","0","left","left","left","left","NA","863","1527","39110","863","NA","2","legacy","4","1024","2","48000","-16","experiment","3","odd","8","446864","443605","444657","6242","118157","444659","407998","6291","79046","448867","449731","445661","7853","448867","NA","Sternberg task","59","45195","68","yes","1024"
"86.95652173913044","86.95652173913044","666.8260869565217","666.8260869565217","black","experiment","legacy","legacy","legacy","0","uniform","1","undefined","1","left","68","68","68","0","0","68","68","0","0","68","68","68","0","68","0","Sun Oct 24 16:42:53 2021","The main experiment item","yes","Sternbergtask.osexp","/Users/samonemarks/Desktop","no","mono","no","18","no","white","no","yes","768","legacy","56","11","/Users/samonemarks/Desktop/SM-subject-3.csv","legacy","9 1 7 2","Lentiform Loewenfeld","3.3.9","2","y","0","left","left","left","left","NA","816","1527","39110","816","NA","2","legacy","4","1024","2","48000","-16","experiment","3","odd","1","452997","443605","450787","6242","118157","450790","449736","6291","79046","454999","455815","451792","7853","454999","NA","Sternberg task","60","46011","69","yes","1024"
"87.14285714285714","87.14285714285714","663.1142857142858","663.1142857142858","black","experiment","legacy","legacy","legacy","0","uniform","1","undefined","1","left","69","69","69","0","0","69","69","0","0","69","69","69","0","69","0","Sun Oct 24 16:42:53 2021","The main experiment item","yes","Sternbergtask.osexp","/Users/samonemarks/Desktop","no","mono","no","18","no","white","no","yes","768","legacy","57","11","/Users/samonemarks/Desktop/SM-subject-3.csv","legacy","5 2 6","Lentiform Loewenfeld","3.3.9","2","y","0","left","left","left","left","NA","407","1527","39110","407","NA","2","legacy","3","1024","2","48000","-16","experiment","3","odd","2","459080","455820","456872","6242","118157","456874","449736","6291","79046","461083","461491","457877","7853","461083","NA","Sternberg task","61","46418","70","yes","1024"
"87.32394366197182","87.32394366197182","663.8450704225352","663.8450704225352","black","experiment","legacy","legacy","legacy","0","uniform","1","undefined","1","right","70","70","70","0","0","70","70","0","0","70","70","70","0","70","0","Sun Oct 24 16:42:53 2021","The main experiment item","yes","Sternbergtask.osexp","/Users/samonemarks/Desktop","no","mono","no","18","no","white","no","yes","768","legacy","58","11","/Users/samonemarks/Desktop/SM-subject-3.csv","legacy","6 7 5 9","Lentiform Loewenfeld","3.3.9","0","n","0","right","left","left","right","NA","715","1527","39110","715","NA","2","legacy","4","1024","2","48000","-16","experiment","3","odd","2","464755","461496","462547","6242","118157","462550","449736","6291","79046","466758","467473","463552","7853","466757","NA","Sternberg task","62","47133","71","yes","1024"
"87.5","87.5","660.0972222222222","660.0972222222222","black","experiment","legacy","legacy","legacy","0","uniform","1","undefined","1","left","71","71","71","0","0","71","71","0","0","71","71","71","0","71","0","Sun Oct 24 16:42:53 2021","The main experiment item","yes","Sternbergtask.osexp","/Users/samonemarks/Desktop","no","mono","no","18","no","white","no","yes","768","legacy","59","11","/Users/samonemarks/Desktop/SM-subject-3.csv","legacy","2 3","Lentiform Loewenfeld","3.3.9","1","y","0","left","left","left","left","NA","394","1527","39110","394","NA","2","legacy","2","1024","2","48000","-16","experiment","3","odd","2","470736","467478","468528","6242","118157","468531","449736","6291","79046","472739","473134","469533","7853","472739","NA","Sternberg task","63","47527","72","yes","1024"
"87.67123287671232","87.67123287671232","660.7534246575342","660.7534246575342","black","experiment","legacy","legacy","legacy","0","uniform","1","undefined","1","left","72","72","72","0","0","72","72","0","0","72","72","72","0","72","0","Sun Oct 24 16:42:53 2021","The main experiment item","yes","Sternbergtask.osexp","/Users/samonemarks/Desktop","no","mono","no","18","no","white","no","yes","768","legacy","60","11","/Users/samonemarks/Desktop/SM-subject-3.csv","legacy","7 6","Lentiform Loewenfeld","3.3.9","2","y","0","left","left","left","left","NA","708","1527","39110","708","NA","2","legacy","2","1024","2","48000","-16","experiment","3","odd","6","476398","473139","474190","6242","118157","474192","449736","6291","79046","478400","479109","475194","7853","478400","NA","Sternberg task","64","48235","73","yes","1024"
"86.48648648648648","86.48648648648648","659.6081081081081","659.6081081081081","black","experiment","legacy","legacy","legacy","0","uniform","0","undefined","0","right","73","73","73","0","0","73","73","0","0","73","73","73","0","73","0","Sun Oct 24 16:42:53 2021","The main experiment item","yes","Sternbergtask.osexp","/Users/samonemarks/Desktop","no","mono","no","18","no","white","no","yes","768","legacy","61","11","/Users/samonemarks/Desktop/SM-subject-3.csv","legacy","7 1 8 4 9 3","Lentiform Loewenfeld","3.3.9","0","n","0","left","left","left","left","NA","576","1527","39110","576","NA","2","legacy","6","1024","2","48000","-16","experiment","3","odd","6","482372","479113","480165","6242","118157","480167","449736","6291","79046","484375","484952","481169","7853","484375","NA","Sternberg task","64","48811","74","yes","1024"
"86.66666666666667","86.66666666666667","659.0666666666667","659.0666666666667","black","experiment","legacy","legacy","legacy","0","uniform","1","undefined","1","right","74","74","74","0","0","74","74","0","0","74","74","74","0","74","0","Sun Oct 24 16:42:53 2021","The main experiment item","yes","Sternbergtask.osexp","/Users/samonemarks/Desktop","no","mono","no","18","no","white","no","yes","768","legacy","62","11","/Users/samonemarks/Desktop/SM-subject-3.csv","legacy","7 6 4 8 1 2","Lentiform Loewenfeld","3.3.9","0","n","0","right","left","left","right","NA","619","1527","39110","619","NA","2","legacy","6","1024","2","48000","-16","experiment","3","odd","9","488215","479113","486009","6242","118157","486011","484957","6291","79046","490218","490839","487013","7853","490218","NA","Sternberg task","65","49430","75","yes","1024"
"86.84210526315789","86.84210526315789","660.0131578947369","660.0131578947369","black","experiment","legacy","legacy","legacy","0","uniform","1","undefined","1","left","75","75","75","0","0","75","75","0","0","75","75","75","0","75","0","Sun Oct 24 16:42:53 2021","The main experiment item","yes","Sternbergtask.osexp","/Users/samonemarks/Desktop","no","mono","no","18","no","white","no","yes","768","legacy","63","11","/Users/samonemarks/Desktop/SM-subject-3.csv","legacy","4 6 2 5 1","Lentiform Loewenfeld","3.3.9","5","y","0","left","left","left","left","NA","731","1527","39110","731","NA","2","legacy","5","1024","2","48000","-16","experiment","3","odd","1","494104","490843","491896","6242","118157","491898","484957","6291","79046","496107","496839","492901","7853","496107","NA","Sternberg task","66","50161","76","yes","1024"
"87.01298701298701","87.01298701298701","655.1948051948052","655.1948051948052","black","experiment","legacy","legacy","legacy","0","uniform","1","undefined","1","right","76","76","76","0","0","76","76","0","0","76","76","76","0","76","0","Sun Oct 24 16:42:53 2021","The main experiment item","yes","Sternbergtask.osexp","/Users/samonemarks/Desktop","no","mono","no","18","no","white","no","yes","768","legacy","64","11","/Users/samonemarks/Desktop/SM-subject-3.csv","legacy","5 3 8 7 2 4","Lentiform Loewenfeld","3.3.9","0","n","0","right","left","left","right","NA","289","1527","39110","289","NA","2","legacy","6","1024","2","48000","-16","experiment","3","odd","9","500102","496842","497894","6242","118157","497896","484957","6291","79046","502104","502394","498898","7853","502104","NA","Sternberg task","67","50450","77","yes","1024"
"87.17948717948718","87.17948717948718","654.6153846153846","654.6153846153846","black","experiment","legacy","legacy","legacy","0","uniform","1","undefined","1","left","77","77","77","0","0","77","77","0","0","77","77","77","0","77","0","Sun Oct 24 16:42:53 2021","The main experiment item","yes","Sternbergtask.osexp","/Users/samonemarks/Desktop","no","mono","no","18","no","white","no","yes","768","legacy","65","11","/Users/samonemarks/Desktop/SM-subject-3.csv","legacy","6 1 2","Lentiform Loewenfeld","3.3.9","3","y","0","left","left","left","left","NA","610","1527","39110","610","NA","2","legacy","3","1024","2","48000","-16","experiment","3","odd","2","505658","502399","503450","6242","118157","503453","484957","6291","79046","507661","508272","504455","7853","507661","NA","Sternberg task","68","51060","78","yes","1024"
"86.07594936708861","86.07594936708861","655.493670886076","655.493670886076","black","experiment","legacy","legacy","legacy","0","uniform","0","undefined","0","left","78","78","78","0","0","78","78","0","0","78","78","78","0","78","0","Sun Oct 24 16:42:53 2021","The main experiment item","yes","Sternbergtask.osexp","/Users/samonemarks/Desktop","no","mono","no","18","no","white","no","yes","768","legacy","66","11","/Users/samonemarks/Desktop/SM-subject-3.csv","legacy","9 3 8 2 1 4","Lentiform Loewenfeld","3.3.9","3","y","0","right","left","left","right","NA","724","1527","39110","724","NA","2","legacy","6","1024","2","48000","-16","experiment","3","odd","8","511537","508277","509329","6242","118157","509331","484957","6291","79046","513539","514264","510333","7853","513539","NA","Sternberg task","68","51784","79","yes","1024"
"85","85","653.5625","653.5625","black","experiment","legacy","legacy","legacy","0","uniform","0","undefined","0","right","79","79","79","0","0","79","79","0","0","79","79","79","0","79","0","Sun Oct 24 16:42:53 2021","The main experiment item","yes","Sternbergtask.osexp","/Users/samonemarks/Desktop","no","mono","no","18","no","white","no","yes","768","legacy","67","11","/Users/samonemarks/Desktop/SM-subject-3.csv","legacy","8 5 7 3 6","Lentiform Loewenfeld","3.3.9","0","n","0","left","left","left","left","NA","501","1527","39110","501","NA","2","legacy","5","1024","2","48000","-16","experiment","3","odd","9","517530","508277","515321","6242","118157","515324","514270","6291","79046","519533","520035","516326","7853","519533","NA","Sternberg task","68","52285","80","yes","1024"
"83.95061728395062","83.95061728395062","655.2469135802469","655.2469135802469","black","experiment","legacy","legacy","legacy","0","uniform","0","undefined","0","left","80","80","80","0","0","80","80","0","0","80","80","80","0","80","0","Sun Oct 24 16:42:53 2021","The main experiment item","yes","Sternbergtask.osexp","/Users/samonemarks/Desktop","no","mono","no","18","no","white","no","yes","768","legacy","68","11","/Users/samonemarks/Desktop/SM-subject-3.csv","legacy","8 9 5 6 7","Lentiform Loewenfeld","3.3.9","1","y","0","right","left","left","right","NA","790","1527","39110","790","NA","2","legacy","5","1024","2","48000","-16","experiment","3","odd","8","523298","508277","521090","6242","118157","521093","520039","6291","79046","525300","526091","522095","7853","525300","NA","Sternberg task","68","53075","81","yes","1024"
"84.14634146341463","84.14634146341463","653.6585365853658","653.6585365853658","black","experiment","legacy","legacy","legacy","0","uniform","1","undefined","1","left","81","81","81","0","0","81","81","0","0","81","81","81","0","81","0","Sun Oct 24 16:42:53 2021","The main experiment item","yes","Sternbergtask.osexp","/Users/samonemarks/Desktop","no","mono","no","18","no","white","no","yes","768","legacy","69","11","/Users/samonemarks/Desktop/SM-subject-3.csv","legacy","8 1 6","Lentiform Loewenfeld","3.3.9","3","y","0","left","left","left","left","NA","525","1527","39110","525","NA","2","legacy","3","1024","2","48000","-16","experiment","3","odd","6","529354","508277","527147","6242","118157","527149","526095","6291","79046","531357","531883","528151","7853","531357","NA","Sternberg task","69","53600","82","yes","1024"
"84.33734939759036","84.33734939759036","654.5060240963855","654.5060240963855","black","experiment","legacy","legacy","legacy","0","uniform","1","undefined","1","right","82","82","82","0","0","82","82","0","0","82","82","82","0","82","0","Sun Oct 24 16:42:53 2021","The main experiment item","yes","Sternbergtask.osexp","/Users/samonemarks/Desktop","no","mono","no","18","no","white","no","yes","768","legacy","70","11","/Users/samonemarks/Desktop/SM-subject-3.csv","legacy","2 8 6 3 1","Lentiform Loewenfeld","3.3.9","0","n","0","right","left","left","right","NA","724","1527","39110","724","NA","2","legacy","5","1024","2","48000","-16","experiment","3","odd","7","535149","531887","532940","6242","118157","532942","526095","6291","79046","537151","537876","533945","7853","537151","NA","Sternberg task","70","54324","83","yes","1024"
"84.52380952380952","84.52380952380952","652.1666666666666","652.1666666666666","black","experiment","legacy","legacy","legacy","0","uniform","1","undefined","1","left","83","83","83","0","0","83","83","0","0","83","83","83","0","83","0","Sun Oct 24 16:42:53 2021","The main experiment item","yes","Sternbergtask.osexp","/Users/samonemarks/Desktop","no","mono","no","18","no","white","no","yes","768","legacy","71","11","/Users/samonemarks/Desktop/SM-subject-3.csv","legacy","2 6 1 7 4","Lentiform Loewenfeld","3.3.9","2","y","0","left","left","left","left","NA","458","1527","39110","458","NA","2","legacy","5","1024","2","48000","-16","experiment","3","odd","6","541140","537881","538933","6242","118157","538935","526095","6291","79046","543143","543603","539937","7853","543143","NA","Sternberg task","71","54782","84","yes","1024"
"84.70588235294117","84.70588235294117","651.7411764705882","651.7411764705882","black","experiment","legacy","legacy","legacy","0","uniform","1","undefined","1","left","84","84","84","0","0","84","84","0","0","84","84","84","0","84","0","Sun Oct 24 16:42:53 2021","The main experiment item","yes","Sternbergtask.osexp","/Users/samonemarks/Desktop","no","mono","no","18","no","white","no","yes","768","legacy","72","11","/Users/samonemarks/Desktop/SM-subject-3.csv","legacy","5 7 8 2 3 8","Lentiform Loewenfeld","3.3.9","5","y","0","left","left","left","left","NA","616","1527","39110","616","NA","2","legacy","6","1024","2","48000","-16","experiment","3","odd","3","546867","543607","544659","6242","118157","544661","526095","6291","79046","548869","549486","545663","7853","548869","NA","Sternberg task","72","55398","85","yes","1024"
"84.88372093023256","84.88372093023256","649.8139534883721","649.8139534883721","black","experiment","legacy","legacy","legacy","0","uniform","1","undefined","1","left","85","85","85","0","0","85","85","0","0","85","85","85","0","85","0","Sun Oct 24 16:42:53 2021","The main experiment item","yes","Sternbergtask.osexp","/Users/samonemarks/Desktop","no","mono","no","18","no","white","no","yes","768","legacy","73","11","/Users/samonemarks/Desktop/SM-subject-3.csv","legacy","1 4 9 3 2 5","Lentiform Loewenfeld","3.3.9","3","y","0","left","left","left","left","NA","486","1527","39110","486","NA","2","legacy","6","1024","2","48000","-16","experiment","3","odd","9","552750","549491","550543","6242","118157","550545","526095","6291","79046","554753","555240","551547","7853","554753","NA","Sternberg task","73","55884","86","yes","1024"
"85.05747126436782","85.05747126436782","648.919540229885","648.919540229885","black","experiment","legacy","legacy","legacy","0","uniform","1","undefined","1","right","86","86","86","0","0","86","86","0","0","86","86","86","0","86","0","Sun Oct 24 16:42:53 2021","The main experiment item","yes","Sternbergtask.osexp","/Users/samonemarks/Desktop","no","mono","no","18","no","white","no","yes","768","legacy","74","11","/Users/samonemarks/Desktop/SM-subject-3.csv","legacy","7 1 5 6 3","Lentiform Loewenfeld","3.3.9","0","n","0","right","left","left","right","NA","572","1527","39110","572","NA","2","legacy","5","1024","2","48000","-16","experiment","3","odd","8","558504","555245","556297","6242","118157","556299","526095","6291","79046","560506","561079","557301","7853","560506","NA","Sternberg task","74","56456","87","yes","1024"
"85.22727272727273","85.22727272727273","650.3636363636364","650.3636363636364","black","experiment","legacy","legacy","legacy","0","uniform","1","undefined","1","right","87","87","87","0","0","87","87","0","0","87","87","87","0","87","0","Sun Oct 24 16:42:53 2021","The main experiment item","yes","Sternbergtask.osexp","/Users/samonemarks/Desktop","no","mono","no","18","no","white","no","yes","768","legacy","75","11","/Users/samonemarks/Desktop/SM-subject-3.csv","legacy","1 5 3 2 8","Lentiform Loewenfeld","3.3.9","0","n","0","right","left","left","right","NA","776","1527","39110","776","NA","2","legacy","5","1024","2","48000","-16","experiment","3","odd","4","564342","561083","562135","6242","118157","562137","526095","6291","79046","566345","567123","563139","7853","566345","NA","Sternberg task","75","57232","88","yes","1024"
"85.3932584269663","85.3932584269663","648.2022471910112","648.2022471910112","black","experiment","legacy","legacy","legacy","0","uniform","1","undefined","1","left","88","88","88","0","0","88","88","0","0","88","88","88","0","88","0","Sun Oct 24 16:42:53 2021","The main experiment item","yes","Sternbergtask.osexp","/Users/samonemarks/Desktop","no","mono","no","18","no","white","no","yes","768","legacy","76","11","/Users/samonemarks/Desktop/SM-subject-3.csv","legacy","8 5 3 7 4 6","Lentiform Loewenfeld","3.3.9","6","y","0","left","left","left","left","NA","458","1527","39110","458","NA","2","legacy","6","1024","2","48000","-16","experiment","3","odd","6","570386","567127","568179","6242","118157","568181","526095","6291","79046","572389","572848","569183","7853","572388","NA","Sternberg task","76","57690","89","yes","1024"
"85.55555555555556","85.55555555555556","647","647","black","experiment","legacy","legacy","legacy","0","uniform","1","undefined","1","right","89","89","89","0","0","89","89","0","0","89","89","89","0","89","0","Sun Oct 24 16:42:53 2021","The main experiment item","yes","Sternbergtask.osexp","/Users/samonemarks/Desktop","no","mono","no","18","no","white","no","yes","768","legacy","77","11","/Users/samonemarks/Desktop/SM-subject-3.csv","legacy","7 9","Lentiform Loewenfeld","3.3.9","0","n","0","right","left","left","right","NA","540","1527","39110","540","NA","2","legacy","2","1024","2","48000","-16","experiment","3","odd","1","576111","572852","573903","6242","118157","573906","526095","6291","79046","578114","578655","574908","7853","578114","NA","Sternberg task","77","58230","90","yes","1024"
"85.71428571428571","85.71428571428571","644.934065934066","644.934065934066","black","experiment","legacy","legacy","legacy","0","uniform","1","undefined","1","left","90","90","90","0","0","90","90","0","0","90","90","90","0","90","0","Sun Oct 24 16:42:53 2021","The main experiment item","yes","Sternbergtask.osexp","/Users/samonemarks/Desktop","no","mono","no","18","no","white","no","yes","768","legacy","78","11","/Users/samonemarks/Desktop/SM-subject-3.csv","legacy","5 7 3 6 2","Lentiform Loewenfeld","3.3.9","5","y","0","left","left","left","left","NA","459","1527","39110","459","NA","2","legacy","5","1024","2","48000","-16","experiment","3","odd","2","581919","578659","579711","6242","118157","579714","526095","6291","79046","583921","584381","580716","7853","583921","NA","Sternberg task","78","58689","91","yes","1024"
"85.8695652173913","85.8695652173913","645.1630434782609","645.1630434782609","black","experiment","legacy","legacy","legacy","0","uniform","1","undefined","1","right","91","91","91","0","0","91","91","0","0","91","91","91","0","91","0","Sun Oct 24 16:42:53 2021","The main experiment item","yes","Sternbergtask.osexp","/Users/samonemarks/Desktop","no","mono","no","18","no","white","no","yes","768","legacy","79","11","/Users/samonemarks/Desktop/SM-subject-3.csv","legacy","1 3 2 6 9","Lentiform Loewenfeld","3.3.9","0","n","0","right","left","left","right","NA","666","1527","39110","666","NA","2","legacy","5","1024","2","48000","-16","experiment","3","odd","5","587645","584386","585437","6242","118157","585440","526095","6291","79046","589648","590315","586442","7853","589647","NA","Sternberg task","79","59355","92","yes","1024"
"86.02150537634408","86.02150537634408","644.258064516129","644.258064516129","black","experiment","legacy","legacy","legacy","0","uniform","1","undefined","1","right","92","92","92","0","0","92","92","0","0","92","92","92","0","92","0","Sun Oct 24 16:42:53 2021","The main experiment item","yes","Sternbergtask.osexp","/Users/samonemarks/Desktop","no","mono","no","18","no","white","no","yes","768","legacy","80","11","/Users/samonemarks/Desktop/SM-subject-3.csv","legacy","5 2","Lentiform Loewenfeld","3.3.9","0","n","0","right","left","left","right","NA","561","1527","39110","561","NA","2","legacy","2","1024","2","48000","-16","experiment","3","odd","7","593577","590320","591371","6242","118157","591373","526095","6291","79046","595580","596142","592375","7853","595580","NA","Sternberg task","80","59916","93","yes","1024"
"86.17021276595744","86.17021276595744","644.3510638297872","644.3510638297872","black","experiment","legacy","legacy","legacy","0","uniform","1","undefined","1","left","93","93","93","0","0","93","93","0","0","93","93","93","0","93","0","Sun Oct 24 16:42:53 2021","The main experiment item","yes","Sternbergtask.osexp","/Users/samonemarks/Desktop","no","mono","no","18","no","white","no","yes","768","legacy","81","11","/Users/samonemarks/Desktop/SM-subject-3.csv","legacy","3 9 7 6 4","Lentiform Loewenfeld","3.3.9","3","y","0","left","left","left","left","NA","653","1527","39110","653","NA","2","legacy","5","1024","2","48000","-16","experiment","3","odd","7","599405","596147","597198","6242","118157","597200","526095","6291","79046","601409","602063","598203","7853","601409","NA","Sternberg task","81","60569","94","yes","1024"
"86.3157894736842","86.3157894736842","644.021052631579","644.021052631579","black","experiment","legacy","legacy","legacy","0","uniform","1","undefined","1","right","94","94","94","0","0","94","94","0","0","94","94","94","0","94","0","Sun Oct 24 16:42:53 2021","The main experiment item","yes","Sternbergtask.osexp","/Users/samonemarks/Desktop","no","mono","no","18","no","white","no","yes","768","legacy","82","11","/Users/samonemarks/Desktop/SM-subject-3.csv","legacy","6 9 4 5 3 2","Lentiform Loewenfeld","3.3.9","0","n","0","right","left","left","right","NA","613","1527","39110","613","NA","2","legacy","6","1024","2","48000","-16","experiment","3","odd","8","605327","602067","603119","6242","118157","603122","526095","6291","79046","607330","607944","604124","7853","607330","NA","Sternberg task","82","61182","95","yes","1024"
"86.45833333333333","86.45833333333333","643.125","643.125","black","experiment","legacy","legacy","legacy","0","uniform","1","undefined","1","left","95","95","95","0","0","95","95","0","0","95","95","95","0","95","0","Sun Oct 24 16:42:53 2021","The main experiment item","yes","Sternbergtask.osexp","/Users/samonemarks/Desktop","no","mono","no","18","no","white","no","yes","768","legacy","83","11","/Users/samonemarks/Desktop/SM-subject-3.csv","legacy","9 1 6 7 8","Lentiform Loewenfeld","3.3.9","1","y","0","left","left","left","left","NA","558","1527","39110","558","NA","2","legacy","5","1024","2","48000","-16","experiment","3","odd","9","611207","607948","608999","6242","118157","609002","526095","6291","79046","613210","613769","610004","7853","613210","NA","Sternberg task","83","61740","96","yes","1024"
"86.5979381443299","86.5979381443299","641.7628865979382","641.7628865979382","black","experiment","legacy","legacy","legacy","0","uniform","1","undefined","1","left","96","96","96","0","0","96","96","0","0","96","96","96","0","96","0","Sun Oct 24 16:42:53 2021","The main experiment item","yes","Sternbergtask.osexp","/Users/samonemarks/Desktop","no","mono","no","18","no","white","no","yes","768","legacy","84","11","/Users/samonemarks/Desktop/SM-subject-3.csv","legacy","2 3 7 4","Lentiform Loewenfeld","3.3.9","1","y","0","left","left","left","left","NA","511","1527","39110","511","NA","2","legacy","4","1024","2","48000","-16","experiment","3","odd","2","617032","613773","614824","6242","118157","614826","526095","6291","79046","619034","619546","615828","7853","619034","NA","Sternberg task","84","62251","97","yes","1024"
"86.73469387755102","86.73469387755102","640.5612244897959","640.5612244897959","black","experiment","legacy","legacy","legacy","0","uniform","1","undefined","1","left","97","97","97","0","0","97","97","0","0","97","97","97","0","97","0","Sun Oct 24 16:42:53 2021","The main experiment item","yes","Sternbergtask.osexp","/Users/samonemarks/Desktop","no","mono","no","18","no","white","no","yes","768","legacy","85","11","/Users/samonemarks/Desktop/SM-subject-3.csv","legacy","9 8 4","Lentiform Loewenfeld","3.3.9","1","y","0","left","left","left","left","NA","524","1527","39110","524","NA","2","legacy","3","1024","2","48000","-16","experiment","3","odd","9","622812","619551","620604","6242","118157","620606","526095","6291","79046","624815","625340","621608","7853","624815","NA","Sternberg task","85","62775","98","yes","1024"
"86.86868686868686","86.86868686868686","638.5757575757576","638.5757575757576","black","experiment","legacy","legacy","legacy","0","uniform","1","undefined","1","right","98","98","98","0","0","98","98","0","0","98","98","98","0","98","0","Sun Oct 24 16:42:53 2021","The main experiment item","yes","Sternbergtask.osexp","/Users/samonemarks/Desktop","no","mono","no","18","no","white","no","yes","768","legacy","86","11","/Users/samonemarks/Desktop/SM-subject-3.csv","legacy","4 1","Lentiform Loewenfeld","3.3.9","0","n","0","right","left","left","right","NA","444","1527","39110","444","NA","2","legacy","2","1024","2","48000","-16","experiment","3","odd","6","628605","625344","626396","6242","118157","626398","526095","6291","79046","630607","631052","627401","7853","630607","NA","Sternberg task","86","63219","99","yes","1024"
"86","86","638.3","638.3","black","experiment","legacy","legacy","legacy","0","uniform","0","undefined","0","left","99","99","99","0","0","99","99","0","0","99","99","99","0","99","0","Sun Oct 24 16:42:53 2021","The main experiment item","yes","Sternbergtask.osexp","/Users/samonemarks/Desktop","no","mono","no","18","no","white","no","yes","768","legacy","87","11","/Users/samonemarks/Desktop/SM-subject-3.csv","legacy","7 1 8 5 6 2","Lentiform Loewenfeld","3.3.9","2","y","0","right","left","left","right","NA","611","1527","39110","611","NA","2","legacy","6","1024","2","48000","-16","experiment","3","odd","1","634317","631057","632109","6242","118157","632112","526095","6291","79046","636320","636932","633114","7853","636320","NA","Sternberg task","86","63830","100","yes","1024"
"86.13861386138613","86.13861386138613","638.5544554455446","638.5544554455446","black","experiment","legacy","legacy","legacy","0","uniform","1","undefined","1","right","100","100","100","0","0","100","100","0","0","100","100","100","0","100","0","Sun Oct 24 16:42:53 2021","The main experiment item","yes","Sternbergtask.osexp","/Users/samonemarks/Desktop","no","mono","no","18","no","white","no","yes","768","legacy","88","11","/Users/samonemarks/Desktop/SM-subject-3.csv","legacy","1 7 5 2 9","Lentiform Loewenfeld","3.3.9","0","n","0","right","left","left","right","NA","664","1527","39110","664","NA","2","legacy","5","1024","2","48000","-16","experiment","3","odd","3","640195","631057","637988","6242","118157","637990","636936","6291","79046","642197","642862","638992","7853","642197","NA","Sternberg task","87","64494","101","yes","1024"
"86.27450980392157","86.27450980392157","636.5980392156863","636.5980392156863","black","experiment","legacy","legacy","legacy","0","uniform","1","undefined","1","left","101","101","101","0","0","101","101","0","0","101","101","101","0","101","0","Sun Oct 24 16:42:53 2021","The main experiment item","yes","Sternbergtask.osexp","/Users/samonemarks/Desktop","no","mono","no","18","no","white","no","yes","768","legacy","89","11","/Users/samonemarks/Desktop/SM-subject-3.csv","legacy","4 3 2 5 8","Lentiform Loewenfeld","3.3.9","2","y","0","left","left","left","left","NA","439","1527","39110","439","NA","2","legacy","5","1024","2","48000","-16","experiment","3","odd","3","646124","642865","643917","6242","118157","643919","636936","6291","79046","648128","648568","644921","7853","648127","NA","Sternberg task","88","64933","102","yes","1024"
"86.40776699029126","86.40776699029126","636.2621359223301","636.2621359223301","black","experiment","legacy","legacy","legacy","0","uniform","1","undefined","1","right","102","102","102","0","0","102","102","0","0","102","102","102","0","102","0","Sun Oct 24 16:42:53 2021","The main experiment item","yes","Sternbergtask.osexp","/Users/samonemarks/Desktop","no","mono","no","18","no","white","no","yes","768","legacy","90","11","/Users/samonemarks/Desktop/SM-subject-3.csv","legacy","1 4 9 3","Lentiform Loewenfeld","3.3.9","0","n","0","right","left","left","right","NA","602","1527","39110","602","NA","2","legacy","4","1024","2","48000","-16","experiment","3","odd","5","651852","648571","649643","6242","118157","649646","636936","6291","79046","653855","654459","650648","7853","653854","NA","Sternberg task","89","65535","103","yes","1024"
"86.53846153846153","86.53846153846153","635.8076923076923","635.8076923076923","black","experiment","legacy","legacy","legacy","0","uniform","1","undefined","1","right","103","103","103","0","0","103","103","0","0","103","103","103","0","103","0","Sun Oct 24 16:42:53 2021","The main experiment item","yes","Sternbergtask.osexp","/Users/samonemarks/Desktop","no","mono","no","18","no","white","no","yes","768","legacy","91","11","/Users/samonemarks/Desktop/SM-subject-3.csv","legacy","8 6 3 4 7","Lentiform Loewenfeld","3.3.9","0","n","0","right","left","left","right","NA","589","1527","39110","589","NA","2","legacy","5","1024","2","48000","-16","experiment","3","odd","1","657722","654463","655515","6242","118157","655517","636936","6291","79046","659725","660315","656519","7853","659725","NA","Sternberg task","90","66124","104","yes","1024"
"85.71428571428571","85.71428571428571","635.0666666666667","635.0666666666667","black","experiment","legacy","legacy","legacy","0","uniform","0","undefined","0","left","104","104","104","0","0","104","104","0","0","104","104","104","0","104","0","Sun Oct 24 16:42:53 2021","The main experiment item","yes","Sternbergtask.osexp","/Users/samonemarks/Desktop","no","mono","no","18","no","white","no","yes","768","legacy","92","11","/Users/samonemarks/Desktop/SM-subject-3.csv","legacy","6 5","Lentiform Loewenfeld","3.3.9","2","y","0","right","left","left","right","NA","558","1527","39110","558","NA","2","legacy","2","1024","2","48000","-16","experiment","3","odd","5","663579","660319","661371","6242","118157","661373","636936","6291","79046","665581","666140","662375","7853","665581","NA","Sternberg task","90","66682","105","yes","1024"
"85.84905660377359","85.84905660377359","635.2547169811321","635.2547169811321","black","experiment","legacy","legacy","legacy","0","uniform","1","undefined","1","left","105","105","105","0","0","105","105","0","0","105","105","105","0","105","0","Sun Oct 24 16:42:53 2021","The main experiment item","yes","Sternbergtask.osexp","/Users/samonemarks/Desktop","no","mono","no","18","no","white","no","yes","768","legacy","93","11","/Users/samonemarks/Desktop/SM-subject-3.csv","legacy","9 5 8 1","Lentiform Loewenfeld","3.3.9","2","y","0","left","left","left","left","NA","655","1527","39110","655","NA","2","legacy","4","1024","2","48000","-16","experiment","3","odd","5","669405","660319","667197","6242","118157","667200","666145","6291","79046","671408","672064","668203","7853","671408","NA","Sternberg task","91","67337","106","yes","1024"
"85.98130841121495","85.98130841121495","634.9532710280374","634.9532710280374","black","experiment","legacy","legacy","legacy","0","uniform","1","undefined","1","left","106","106","106","0","0","106","106","0","0","106","106","106","0","106","0","Sun Oct 24 16:42:53 2021","The main experiment item","yes","Sternbergtask.osexp","/Users/samonemarks/Desktop","no","mono","no","18","no","white","no","yes","768","legacy","94","11","/Users/samonemarks/Desktop/SM-subject-3.csv","legacy","7 4 2 6 3 5","Lentiform Loewenfeld","3.3.9","6","y","0","left","left","left","left","NA","603","1527","39110","603","NA","2","legacy","6","1024","2","48000","-16","experiment","3","odd","5","675338","672067","673132","6242","118157","673134","666145","6291","79046","677341","677946","674136","7853","677341","NA","Sternberg task","92","67940","107","yes","1024"
"86.11111111111111","86.11111111111111","634.4074074074074","634.4074074074074","black","experiment","legacy","legacy","legacy","0","uniform","1","undefined","1","right","107","107","107","0","0","107","107","0","0","107","107","107","0","107","0","Sun Oct 24 16:42:53 2021","The main experiment item","yes","Sternbergtask.osexp","/Users/samonemarks/Desktop","no","mono","no","18","no","white","no","yes","768","legacy","95","11","/Users/samonemarks/Desktop/SM-subject-3.csv","legacy","6 9 5","Lentiform Loewenfeld","3.3.9","0","n","0","right","left","left","right","NA","576","1527","39110","576","NA","2","legacy","3","1024","2","48000","-16","experiment","3","odd","8","681211","677951","679002","6242","118157","679005","666145","6291","79046","683214","683791","680007","7853","683214","NA","Sternberg task","93","68516","108","yes","1024"
"86.23853211009174","86.23853211009174","633.183486238532","633.183486238532","black","experiment","legacy","legacy","legacy","0","uniform","1","undefined","1","left","108","108","108","0","0","108","108","0","0","108","108","108","0","108","0","Sun Oct 24 16:42:53 2021","The main experiment item","yes","Sternbergtask.osexp","/Users/samonemarks/Desktop","no","mono","no","18","no","white","no","yes","768","legacy","96","11","/Users/samonemarks/Desktop/SM-subject-3.csv","legacy","4 7 6 8 2 3","Lentiform Loewenfeld","3.3.9","6","y","0","left","left","left","left","NA","501","1527","39110","501","NA","2","legacy","6","1024","2","48000","-16","experiment","3","odd","3","687057","683796","684848","6242","118157","684850","666145","6291","79046","689059","689561","685852","7853","689059","NA","Sternberg task","94","69017","109","yes","1024"
"86.36363636363636","86.36363636363636","634.2","634.2","black","experiment","legacy","legacy","legacy","0","uniform","1","undefined","1","right","109","109","109","0","0","109","109","0","0","109","109","109","0","109","0","Sun Oct 24 16:42:53 2021","The main experiment item","yes","Sternbergtask.osexp","/Users/samonemarks/Desktop","no","mono","no","18","no","white","no","yes","768","legacy","97","11","/Users/samonemarks/Desktop/SM-subject-3.csv","legacy","7 3 2 8","Lentiform Loewenfeld","3.3.9","0","n","0","right","left","left","right","NA","745","1527","39110","745","NA","2","legacy","4","1024","2","48000","-16","experiment","3","odd","4","692824","689565","690617","6242","118157","690619","666145","6291","79046","694827","695574","691621","7853","694827","NA","Sternberg task","95","69762","110","yes","1024"
"85.58558558558559","85.58558558558559","635.2882882882883","635.2882882882883","black","experiment","legacy","legacy","legacy","0","uniform","0","undefined","0","right","110","110","110","0","0","110","110","0","0","110","110","110","0","110","0","Sun Oct 24 16:42:53 2021","The main experiment item","yes","Sternbergtask.osexp","/Users/samonemarks/Desktop","no","mono","no","18","no","white","no","yes","768","legacy","98","11","/Users/samonemarks/Desktop/SM-subject-3.csv","legacy","5 7 3","Lentiform Loewenfeld","3.3.9","0","n","0","left","left","left","left","NA","755","1527","39110","755","NA","2","legacy","3","1024","2","48000","-16","experiment","3","odd","9","698838","695579","696631","6242","118157","696633","666145","6291","79046","700841","701597","697635","7853","700841","NA","Sternberg task","95","70517","111","yes","1024"
"85.71428571428571","85.71428571428571","637.5625","637.5625","black","experiment","legacy","legacy","legacy","0","uniform","1","undefined","1","right","111","111","111","0","0","111","111","0","0","111","111","111","0","111","0","Sun Oct 24 16:42:53 2021","The main experiment item","yes","Sternbergtask.osexp","/Users/samonemarks/Desktop","no","mono","no","18","no","white","no","yes","768","legacy","99","11","/Users/samonemarks/Desktop/SM-subject-3.csv","legacy","3 9 1","Lentiform Loewenfeld","3.3.9","0","n","0","right","left","left","right","NA","890","1527","39110","890","NA","2","legacy","3","1024","2","48000","-16","experiment","3","odd","7","704860","695579","702653","6242","118157","702656","701602","6291","79046","706863","707755","703658","7853","706863","NA","Sternberg task","96","71407","112","yes","1024"
"85.84070796460178","85.84070796460178","639.5221238938053","639.5221238938053","black","experiment","legacy","legacy","legacy","0","uniform","1","undefined","1","left","112","112","112","0","0","112","112","0","0","112","112","112","0","112","0","Sun Oct 24 16:42:53 2021","The main experiment item","yes","Sternbergtask.osexp","/Users/samonemarks/Desktop","no","mono","no","18","no","white","no","yes","768","legacy","100","11","/Users/samonemarks/Desktop/SM-subject-3.csv","legacy","8 3","Lentiform Loewenfeld","3.3.9","2","y","0","left","left","left","left","NA","859","1527","39110","859","NA","2","legacy","2","1024","2","48000","-16","experiment","3","odd","3","711019","707759","708810","6242","118157","708813","701602","6291","79046","713021","713881","709815","7853","713021","NA","Sternberg task","97","72266","113","yes","1024"
"85.96491228070175","85.96491228070175","639.8421052631579","639.8421052631579","black","experiment","legacy","legacy","legacy","0","uniform","1","undefined","1","right","113","113","113","0","0","113","113","0","0","113","113","113","0","113","0","Sun Oct 24 16:42:53 2021","The main experiment item","yes","Sternbergtask.osexp","/Users/samonemarks/Desktop","no","mono","no","18","no","white","no","yes","768","legacy","101","11","/Users/samonemarks/Desktop/SM-subject-3.csv","legacy","6 8","Lentiform Loewenfeld","3.3.9","0","n","0","right","left","left","right","NA","676","1527","39110","676","NA","2","legacy","2","1024","2","48000","-16","experiment","3","odd","9","717145","713886","714938","6242","118157","714940","701602","6291","79046","719148","719825","715942","7853","719148","NA","Sternberg task","98","72942","114","yes","1024"
"85.21739130434783","85.21739130434783","641.1391304347826","641.1391304347826","black","experiment","legacy","legacy","legacy","0","uniform","0","undefined","0","right","114","114","114","0","0","114","114","0","0","114","114","114","0","114","0","Sun Oct 24 16:42:53 2021","The main experiment item","yes","Sternbergtask.osexp","/Users/samonemarks/Desktop","no","mono","no","18","no","white","no","yes","768","legacy","102","11","/Users/samonemarks/Desktop/SM-subject-3.csv","legacy","2 8 7 9 5 3","Lentiform Loewenfeld","3.3.9","0","n","0","left","left","left","left","NA","789","1527","39110","789","NA","2","legacy","6","1024","2","48000","-16","experiment","3","odd","6","723091","719830","720882","6242","118157","720885","701602","6291","79046","725093","725883","721887","7853","725093","NA","Sternberg task","98","73731","115","yes","1024"
"85.34482758620689","85.34482758620689","639.0603448275862","639.0603448275862","black","experiment","legacy","legacy","legacy","0","uniform","1","undefined","1","left","115","115","115","0","0","115","115","0","0","115","115","115","0","115","0","Sun Oct 24 16:42:53 2021","The main experiment item","yes","Sternbergtask.osexp","/Users/samonemarks/Desktop","no","mono","no","18","no","white","no","yes","768","legacy","103","11","/Users/samonemarks/Desktop/SM-subject-3.csv","legacy","3 5 9 6 2 4","Lentiform Loewenfeld","3.3.9","1","y","0","left","left","left","left","NA","400","1527","39110","400","NA","2","legacy","6","1024","2","48000","-16","experiment","3","odd","3","729146","719830","726939","6242","118157","726941","725887","6291","79046","731149","731550","727943","7853","731149","NA","Sternberg task","99","74131","116","yes","1024"
"85.47008547008546","85.47008547008546","638.4615384615385","638.4615384615385","black","experiment","legacy","legacy","legacy","0","uniform","1","undefined","1","right","116","116","116","0","0","116","116","0","0","116","116","116","0","116","0","Sun Oct 24 16:42:53 2021","The main experiment item","yes","Sternbergtask.osexp","/Users/samonemarks/Desktop","no","mono","no","18","no","white","no","yes","768","legacy","104","11","/Users/samonemarks/Desktop/SM-subject-3.csv","legacy","1 7 8 3 9","Lentiform Loewenfeld","3.3.9","0","n","0","right","left","left","right","NA","569","1527","39110","569","NA","2","legacy","5","1024","2","48000","-16","experiment","3","odd","2","734812","731555","732606","6242","118157","732608","725887","6291","79046","736814","737384","733610","7853","736814","NA","Sternberg task","100","74700","117","yes","1024"
"85.59322033898304","85.59322033898304","637.4322033898305","637.4322033898305","black","experiment","legacy","legacy","legacy","0","uniform","1","undefined","1","left","117","117","117","0","0","117","117","0","0","117","117","117","0","117","0","Sun Oct 24 16:42:53 2021","The main experiment item","yes","Sternbergtask.osexp","/Users/samonemarks/Desktop","no","mono","no","18","no","white","no","yes","768","legacy","105","11","/Users/samonemarks/Desktop/SM-subject-3.csv","legacy","7","Lentiform Loewenfeld","3.3.9","1","y","0","left","left","left","left","NA","517","1527","39110","517","NA","2","legacy","1","1024","2","48000","-16","experiment","3","odd","7","740647","737388","738439","6242","118157","738442","725887","6291","79046","742650","743168","739444","7853","742649","NA","Sternberg task","101","75217","118","yes","1024"
"85.71428571428571","85.71428571428571","636.6050420168067","636.6050420168067","black","experiment","legacy","legacy","legacy","0","uniform","1","undefined","1","right","118","118","118","0","0","118","118","0","0","118","118","118","0","118","0","Sun Oct 24 16:42:53 2021","The main experiment item","yes","Sternbergtask.osexp","/Users/samonemarks/Desktop","no","mono","no","18","no","white","no","yes","768","legacy","106","11","/Users/samonemarks/Desktop/SM-subject-3.csv","legacy","2 8 9 4 1","Lentiform Loewenfeld","3.3.9","0","n","0","right","left","left","right","NA","539","1527","39110","539","NA","2","legacy","5","1024","2","48000","-16","experiment","3","odd","5","746432","743172","744223","6242","118157","744226","725887","6291","79046","748434","748975","745228","7853","748434","NA","Sternberg task","102","75756","119","yes","1024"
