"acc","accuracy","average_response_time","avg_rt","background","block","canvas_backend","clock_backend","color_backend","correct","correct_instuctions1","correct_keyboard_response","correct_response","count_Exp_sequence","count_Fixation","count_ISI","count_MemorySet","count_correctFeedback","count_experiment","count_experiment_loop","count_incorrectFeeback","count_instructions2","count_instuctions1","count_keyboard_response","count_logger","count_practice_loop","count_probe","count_thankyou","datetime","description","disable_garbage_collection","experiment_file","experiment_path","font_bold","font_family","font_italic","font_size","font_underline","foreground","form_clicks","fullscreen","height","keyboard_backend","live_row","live_row_practice_loop","logfile","mouse_backend","numberSet","opensesame_codename","opensesame_version","posInSet","present","repeat_cycle","response","response_instructions2","response_instuctions1","response_keyboard_response","response_thankyou","response_time","response_time_instructions2","response_time_instuctions1","response_time_keyboard_response","response_time_thankyou","round_decimals","sampler_backend","setSize","sound_buf_size","sound_channels","sound_freq","sound_sample_size","start","subject_nr","subject_parity","target","time_Exp_sequence","time_Fixation","time_ISI","time_MemorySet","time_correctFeedback","time_experiment","time_experiment_loop","time_incorrectFeeback","time_instructions2","time_instuctions1","time_keyboard_response","time_logger","time_practice_loop","time_probe","time_thankyou","title","total_correct","total_response_time","total_responses","width"
"100","100","515","515","#3d3846","practice","legacy","legacy","legacy","1","undefined","1","left","0","0","0","0","0","0","0","0","0","0","0","0","0","0","0","Thu Oct 19 12:47:04 2023","The main experiment item","True","SternbergTask.osexp","/Users/RMILLER1/Library/CloudStorage/OneDrive-tarleton.edu(NTNET)/TSU Online Classes/Graduate Class/ Adv Quant Methods and Design","False","mono","False","18","no","white","no","no","768","legacy","0","0","/Users/RMILLER1/Library/CloudStorage/OneDrive-tarleton.edu(NTNET)/TSU Online Classes/Graduate Class/ Adv Quant Methods and Design/Sternberg/RM-subject-3.csv","legacy","2 9 4","Melodramatic Milgram","4.0.5","3","y","0","left","NA","right","left","NA","515.0","NA","2736","515","NA","2","legacy","3","1024","2","48000","-16","experiment","3","odd","4","16487","16492","18702","17498","NA","13444","NA","NA","NA","13557","20706","21221","16324","20706","NA","SternbergTask","1","515.0","1","1024"
"50","50","527","527","#3d3846","practice","legacy","legacy","legacy","0","undefined","0","right","1","1","1","1","1","0","0","1","0","0","1","1","0","1","0","Thu Oct 19 12:47:04 2023","The main experiment item","True","SternbergTask.osexp","/Users/RMILLER1/Library/CloudStorage/OneDrive-tarleton.edu(NTNET)/TSU Online Classes/Graduate Class/ Adv Quant Methods and Design","False","mono","False","18","no","white","no","no","768","legacy","1","1","/Users/RMILLER1/Library/CloudStorage/OneDrive-tarleton.edu(NTNET)/TSU Online Classes/Graduate Class/ Adv Quant Methods and Design/Sternberg/RM-subject-3.csv","legacy","5","Melodramatic Milgram","4.0.5","0","n","0","left","NA","right","left","NA","540.0","NA","2736","540","NA","2","legacy","1","1024","2","48000","-16","experiment","3","odd","3","22291","22294","24508","23297","21252","13444","NA","NA","NA","13557","26515","27056","16324","26515","NA","SternbergTask","1","1055.0","2","1024"
"33","33","493","493","#3d3846","practice","legacy","legacy","legacy","0","undefined","0","right","2","2","2","2","2","0","0","2","0","0","2","2","0","2","0","Thu Oct 19 12:47:04 2023","The main experiment item","True","SternbergTask.osexp","/Users/RMILLER1/Library/CloudStorage/OneDrive-tarleton.edu(NTNET)/TSU Online Classes/Graduate Class/ Adv Quant Methods and Design","False","mono","False","18","no","white","no","no","768","legacy","2","2","/Users/RMILLER1/Library/CloudStorage/OneDrive-tarleton.edu(NTNET)/TSU Online Classes/Graduate Class/ Adv Quant Methods and Design/Sternberg/RM-subject-3.csv","legacy","4 1 5","Melodramatic Milgram","4.0.5","0","n","0","left","NA","right","left","NA","425.0","NA","2736","425","NA","2","legacy","3","1024","2","48000","-16","experiment","3","odd","2","28101","28104","30313","29107","21252","13444","NA","27062","NA","13557","32316","32747","16324","32316","NA","SternbergTask","1","1480.0","3","1024"
"25","25","450","450","#3d3846","practice","legacy","legacy","legacy","0","undefined","0","right","3","3","3","3","3","0","0","3","0","0","3","3","0","3","0","Thu Oct 19 12:47:04 2023","The main experiment item","True","SternbergTask.osexp","/Users/RMILLER1/Library/CloudStorage/OneDrive-tarleton.edu(NTNET)/TSU Online Classes/Graduate Class/ Adv Quant Methods and Design","False","mono","False","18","no","white","no","no","768","legacy","3","3","/Users/RMILLER1/Library/CloudStorage/OneDrive-tarleton.edu(NTNET)/TSU Online Classes/Graduate Class/ Adv Quant Methods and Design/Sternberg/RM-subject-3.csv","legacy","5 7 8 4 1 2","Melodramatic Milgram","4.0.5","0","n","0","left","NA","right","left","NA","320.0","NA","2736","320","NA","2","legacy","6","1024","2","48000","-16","experiment","3","odd","6","33787","33790","35998","34792","21252","13444","NA","32751","NA","13557","38001","38322","16324","38001","NA","SternbergTask","1","1800.0","4","1024"
"20","20","760","760","#3d3846","practice","legacy","legacy","legacy","0","undefined","0","left","4","4","4","4","4","0","0","4","0","0","4","4","0","4","0","Thu Oct 19 12:47:04 2023","The main experiment item","True","SternbergTask.osexp","/Users/RMILLER1/Library/CloudStorage/OneDrive-tarleton.edu(NTNET)/TSU Online Classes/Graduate Class/ Adv Quant Methods and Design","False","mono","False","18","no","white","no","no","768","legacy","4","4","/Users/RMILLER1/Library/CloudStorage/OneDrive-tarleton.edu(NTNET)/TSU Online Classes/Graduate Class/ Adv Quant Methods and Design/Sternberg/RM-subject-3.csv","legacy","1 5 2 9","Melodramatic Milgram","4.0.5","2","y","0","None","NA","right","None","NA","2000.0","NA","2736","2000","NA","2","legacy","4","1024","2","48000","-16","experiment","3","odd","5","39359","39364","41573","40368","21252","13444","NA","38324","NA","13557","43578","45578","16324","43578","NA","SternbergTask","1","3800.0","5","1024"
"33","33","717","717","#3d3846","practice","legacy","legacy","legacy","1","undefined","1","right","5","5","5","5","5","0","0","5","0","0","5","5","0","5","0","Thu Oct 19 12:47:04 2023","The main experiment item","True","SternbergTask.osexp","/Users/RMILLER1/Library/CloudStorage/OneDrive-tarleton.edu(NTNET)/TSU Online Classes/Graduate Class/ Adv Quant Methods and Design","False","mono","False","18","no","white","no","no","768","legacy","5","5","/Users/RMILLER1/Library/CloudStorage/OneDrive-tarleton.edu(NTNET)/TSU Online Classes/Graduate Class/ Adv Quant Methods and Design/Sternberg/RM-subject-3.csv","legacy","3 1 9 4","Melodramatic Milgram","4.0.5","0","n","0","right","NA","right","right","NA","507.0","NA","2736","507","NA","2","legacy","4","1024","2","48000","-16","experiment","3","odd","6","46610","46613","48819","47616","21252","13444","NA","45582","NA","13557","50822","51330","16324","50822","NA","SternbergTask","2","4307.0","6","1024"
"28","28","683","683","#3d3846","practice","legacy","legacy","legacy","0","undefined","0","right","6","6","6","6","6","0","0","6","0","0","6","6","0","6","0","Thu Oct 19 12:47:04 2023","The main experiment item","True","SternbergTask.osexp","/Users/RMILLER1/Library/CloudStorage/OneDrive-tarleton.edu(NTNET)/TSU Online Classes/Graduate Class/ Adv Quant Methods and Design","False","mono","False","18","no","white","no","no","768","legacy","6","6","/Users/RMILLER1/Library/CloudStorage/OneDrive-tarleton.edu(NTNET)/TSU Online Classes/Graduate Class/ Adv Quant Methods and Design/Sternberg/RM-subject-3.csv","legacy","2 1","Melodramatic Milgram","4.0.5","0","n","0","left","NA","right","left","NA","479.0","NA","2736","479","NA","2","legacy","2","1024","2","48000","-16","experiment","3","odd","5","52368","52371","54585","53374","51332","13444","NA","45582","NA","13557","56588","57068","16324","56588","NA","SternbergTask","2","4786.0","7","1024"
"25","25","848","848","#3d3846","practice","legacy","legacy","legacy","0","undefined","0","left","7","7","7","7","7","0","0","7","0","0","7","7","0","7","0","Thu Oct 19 12:47:04 2023","The main experiment item","True","SternbergTask.osexp","/Users/RMILLER1/Library/CloudStorage/OneDrive-tarleton.edu(NTNET)/TSU Online Classes/Graduate Class/ Adv Quant Methods and Design","False","mono","False","18","no","white","no","no","768","legacy","7","7","/Users/RMILLER1/Library/CloudStorage/OneDrive-tarleton.edu(NTNET)/TSU Online Classes/Graduate Class/ Adv Quant Methods and Design/Sternberg/RM-subject-3.csv","legacy","4 8","Melodramatic Milgram","4.0.5","1","y","0","None","NA","right","None","NA","2000.0","NA","2736","2000","NA","2","legacy","2","1024","2","48000","-16","experiment","3","odd","4","58103","58105","60311","59108","51332","13444","NA","57070","NA","13557","62315","64315","16324","62314","NA","SternbergTask","2","6786.0","8","1024"
"22","22","823","823","#3d3846","practice","legacy","legacy","legacy","0","undefined","0","left","8","8","8","8","8","0","0","8","0","0","8","8","0","8","0","Thu Oct 19 12:47:04 2023","The main experiment item","True","SternbergTask.osexp","/Users/RMILLER1/Library/CloudStorage/OneDrive-tarleton.edu(NTNET)/TSU Online Classes/Graduate Class/ Adv Quant Methods and Design","False","mono","False","18","no","white","no","no","768","legacy","8","8","/Users/RMILLER1/Library/CloudStorage/OneDrive-tarleton.edu(NTNET)/TSU Online Classes/Graduate Class/ Adv Quant Methods and Design/Sternberg/RM-subject-3.csv","legacy","1 7 9 8 5","Melodramatic Milgram","4.0.5","4","y","0","right","NA","right","right","NA","621.0","NA","2736","621","NA","2","legacy","5","1024","2","48000","-16","experiment","3","odd","8","65362","65368","67578","66372","51332","13444","NA","64318","NA","13557","69583","70205","16324","69583","NA","SternbergTask","2","7407.0","9","1024"
"20","20","820","820","#3d3846","practice","legacy","legacy","legacy","0","undefined","0","right","9","9","9","9","9","0","0","9","0","0","9","9","0","9","0","Thu Oct 19 12:47:04 2023","The main experiment item","True","SternbergTask.osexp","/Users/RMILLER1/Library/CloudStorage/OneDrive-tarleton.edu(NTNET)/TSU Online Classes/Graduate Class/ Adv Quant Methods and Design","False","mono","False","18","no","white","no","no","768","legacy","9","9","/Users/RMILLER1/Library/CloudStorage/OneDrive-tarleton.edu(NTNET)/TSU Online Classes/Graduate Class/ Adv Quant Methods and Design/Sternberg/RM-subject-3.csv","legacy","9 6 7 4 5","Melodramatic Milgram","4.0.5","0","n","0","left","NA","right","left","NA","799.0","NA","2736","799","NA","2","legacy","5","1024","2","48000","-16","experiment","3","odd","3","71243","71245","73453","72250","51332","13444","NA","70208","NA","13557","75457","76257","16324","75456","NA","SternbergTask","2","8206.0","10","1024"
"27","27","843","843","#3d3846","practice","legacy","legacy","legacy","1","undefined","1","left","10","10","10","10","10","0","0","10","0","0","10","10","0","10","0","Thu Oct 19 12:47:04 2023","The main experiment item","True","SternbergTask.osexp","/Users/RMILLER1/Library/CloudStorage/OneDrive-tarleton.edu(NTNET)/TSU Online Classes/Graduate Class/ Adv Quant Methods and Design","False","mono","False","18","no","white","no","no","768","legacy","10","10","/Users/RMILLER1/Library/CloudStorage/OneDrive-tarleton.edu(NTNET)/TSU Online Classes/Graduate Class/ Adv Quant Methods and Design/Sternberg/RM-subject-3.csv","legacy","4 3 1 7 9 8","Melodramatic Milgram","4.0.5","1","y","0","left","NA","right","left","NA","1068.0","NA","2736","1068","NA","2","legacy","6","1024","2","48000","-16","experiment","3","odd","4","77294","77296","79504","78299","51332","13444","NA","76260","NA","13557","81512","82581","16324","81512","NA","SternbergTask","3","9274.0","11","1024"
"33","33","799","799","#3d3846","practice","legacy","legacy","legacy","1","undefined","1","left","11","11","11","11","11","0","0","11","0","0","11","11","0","11","0","Thu Oct 19 12:47:04 2023","The main experiment item","True","SternbergTask.osexp","/Users/RMILLER1/Library/CloudStorage/OneDrive-tarleton.edu(NTNET)/TSU Online Classes/Graduate Class/ Adv Quant Methods and Design","False","mono","False","18","no","white","no","no","768","legacy","11","11","/Users/RMILLER1/Library/CloudStorage/OneDrive-tarleton.edu(NTNET)/TSU Online Classes/Graduate Class/ Adv Quant Methods and Design/Sternberg/RM-subject-3.csv","legacy","6","Melodramatic Milgram","4.0.5","1","y","0","left","NA","right","left","NA","320.0","NA","2736","320","NA","2","legacy","1","1024","2","48000","-16","experiment","3","odd","6","83623","83628","85836","84631","82584","13444","NA","76260","NA","13557","87840","88160","16324","87840","NA","SternbergTask","4","9594.0","12","1024"
"30","30","769","769","#3d3846","experiment","legacy","legacy","legacy","0","undefined","0","right","12","12","12","12","12","0","0","12","0","0","12","12","0","12","0","Thu Oct 19 12:47:04 2023","The main experiment item","True","SternbergTask.osexp","/Users/RMILLER1/Library/CloudStorage/OneDrive-tarleton.edu(NTNET)/TSU Online Classes/Graduate Class/ Adv Quant Methods and Design","False","mono","False","18","no","white","no","no","768","legacy","0","11","/Users/RMILLER1/Library/CloudStorage/OneDrive-tarleton.edu(NTNET)/TSU Online Classes/Graduate Class/ Adv Quant Methods and Design/Sternberg/RM-subject-3.csv","legacy","6 7 5 9","Melodramatic Milgram","4.0.5","0","n","0","left","left","right","left","NA","403.0","5228","2736","403","NA","2","legacy","4","1024","2","48000","-16","experiment","3","odd","2","94449","94453","96662","95455","88165","13444","94396","76260","89167","13557","98669","99072","16324","98669","NA","SternbergTask","4","9997.0","13","1024"
"35","35","760","760","#3d3846","experiment","legacy","legacy","legacy","1","undefined","1","right","13","13","13","13","13","0","0","13","0","0","13","13","0","13","0","Thu Oct 19 12:47:04 2023","The main experiment item","True","SternbergTask.osexp","/Users/RMILLER1/Library/CloudStorage/OneDrive-tarleton.edu(NTNET)/TSU Online Classes/Graduate Class/ Adv Quant Methods and Design","False","mono","False","18","no","white","no","no","768","legacy","1","11","/Users/RMILLER1/Library/CloudStorage/OneDrive-tarleton.edu(NTNET)/TSU Online Classes/Graduate Class/ Adv Quant Methods and Design/Sternberg/RM-subject-3.csv","legacy","5","Melodramatic Milgram","4.0.5","0","n","0","right","left","right","right","NA","655.0","5228","2736","655","NA","2","legacy","1","1024","2","48000","-16","experiment","3","odd","8","100096","100098","102306","101101","88165","13444","94396","99077","89167","13557","104311","104967","16324","104311","NA","SternbergTask","5","10652.0","14","1024"
"33","33","753","753","#3d3846","experiment","legacy","legacy","legacy","0","undefined","0","right","14","14","14","14","14","0","0","14","0","0","14","14","0","14","0","Thu Oct 19 12:47:04 2023","The main experiment item","True","SternbergTask.osexp","/Users/RMILLER1/Library/CloudStorage/OneDrive-tarleton.edu(NTNET)/TSU Online Classes/Graduate Class/ Adv Quant Methods and Design","False","mono","False","18","no","white","no","no","768","legacy","2","11","/Users/RMILLER1/Library/CloudStorage/OneDrive-tarleton.edu(NTNET)/TSU Online Classes/Graduate Class/ Adv Quant Methods and Design/Sternberg/RM-subject-3.csv","legacy","8 5 4 2 9 6","Melodramatic Milgram","4.0.5","0","n","0","left","left","right","left","NA","647.0","5228","2736","647","NA","2","legacy","6","1024","2","48000","-16","experiment","3","odd","3","106001","106004","108219","107006","104972","13444","94396","99077","89167","13557","110222","110869","16324","110222","NA","SternbergTask","5","11299.0","15","1024"
"37","37","744","744","#3d3846","experiment","legacy","legacy","legacy","1","undefined","1","right","15","15","15","15","15","0","0","15","0","0","15","15","0","15","0","Thu Oct 19 12:47:04 2023","The main experiment item","True","SternbergTask.osexp","/Users/RMILLER1/Library/CloudStorage/OneDrive-tarleton.edu(NTNET)/TSU Online Classes/Graduate Class/ Adv Quant Methods and Design","False","mono","False","18","no","white","no","no","768","legacy","3","11","/Users/RMILLER1/Library/CloudStorage/OneDrive-tarleton.edu(NTNET)/TSU Online Classes/Graduate Class/ Adv Quant Methods and Design/Sternberg/RM-subject-3.csv","legacy","3 9 8 1 6 4","Melodramatic Milgram","4.0.5","0","n","0","right","left","right","right","NA","615.0","5228","2736","615","NA","2","legacy","6","1024","2","48000","-16","experiment","3","odd","7","111909","111913","114121","112915","104972","13444","94396","110877","89167","13557","116124","116739","16324","116124","NA","SternbergTask","6","11914.0","16","1024"
"35","35","726","726","#3d3846","experiment","legacy","legacy","legacy","0","undefined","0","right","16","16","16","16","16","0","0","16","0","0","16","16","0","16","0","Thu Oct 19 12:47:04 2023","The main experiment item","True","SternbergTask.osexp","/Users/RMILLER1/Library/CloudStorage/OneDrive-tarleton.edu(NTNET)/TSU Online Classes/Graduate Class/ Adv Quant Methods and Design","False","mono","False","18","no","white","no","no","768","legacy","4","11","/Users/RMILLER1/Library/CloudStorage/OneDrive-tarleton.edu(NTNET)/TSU Online Classes/Graduate Class/ Adv Quant Methods and Design/Sternberg/RM-subject-3.csv","legacy","7 4 2 8 1 9","Melodramatic Milgram","4.0.5","0","n","0","left","left","right","left","NA","437.0","5228","2736","437","NA","2","legacy","6","1024","2","48000","-16","experiment","3","odd","5","117778","117782","119991","118785","116744","13444","94396","110877","89167","13557","121995","122433","16324","121995","NA","SternbergTask","6","12351.0","17","1024"
"33","33","713","713","#3d3846","experiment","legacy","legacy","legacy","0","undefined","0","right","17","17","17","17","17","0","0","17","0","0","17","17","0","17","0","Thu Oct 19 12:47:04 2023","The main experiment item","True","SternbergTask.osexp","/Users/RMILLER1/Library/CloudStorage/OneDrive-tarleton.edu(NTNET)/TSU Online Classes/Graduate Class/ Adv Quant Methods and Design","False","mono","False","18","no","white","no","no","768","legacy","5","11","/Users/RMILLER1/Library/CloudStorage/OneDrive-tarleton.edu(NTNET)/TSU Online Classes/Graduate Class/ Adv Quant Methods and Design/Sternberg/RM-subject-3.csv","legacy","6 2 9 3 8 4","Melodramatic Milgram","4.0.5","0","n","0","left","left","right","left","NA","490.0","5228","2736","490","NA","2","legacy","6","1024","2","48000","-16","experiment","3","odd","1","123466","123469","125677","124472","116744","13444","94396","122436","89167","13557","127680","128171","16324","127680","NA","SternbergTask","6","12841.0","18","1024"
"36","36","699","699","#3d3846","experiment","legacy","legacy","legacy","1","undefined","1","right","18","18","18","18","18","0","0","18","0","0","18","18","0","18","0","Thu Oct 19 12:47:04 2023","The main experiment item","True","SternbergTask.osexp","/Users/RMILLER1/Library/CloudStorage/OneDrive-tarleton.edu(NTNET)/TSU Online Classes/Graduate Class/ Adv Quant Methods and Design","False","mono","False","18","no","white","no","no","768","legacy","6","11","/Users/RMILLER1/Library/CloudStorage/OneDrive-tarleton.edu(NTNET)/TSU Online Classes/Graduate Class/ Adv Quant Methods and Design/Sternberg/RM-subject-3.csv","legacy","5 3 8 7 2 4","Melodramatic Milgram","4.0.5","0","n","0","right","left","right","right","NA","455.0","5228","2736","455","NA","2","legacy","6","1024","2","48000","-16","experiment","3","odd","9","129210","129213","131420","130218","116744","13444","94396","128178","89167","13557","133424","133879","16324","133424","NA","SternbergTask","7","13296.0","19","1024"
"35","35","692","692","#3d3846","experiment","legacy","legacy","legacy","0","undefined","0","left","19","19","19","19","19","0","0","19","0","0","19","19","0","19","0","Thu Oct 19 12:47:04 2023","The main experiment item","True","SternbergTask.osexp","/Users/RMILLER1/Library/CloudStorage/OneDrive-tarleton.edu(NTNET)/TSU Online Classes/Graduate Class/ Adv Quant Methods and Design","False","mono","False","18","no","white","no","no","768","legacy","7","11","/Users/RMILLER1/Library/CloudStorage/OneDrive-tarleton.edu(NTNET)/TSU Online Classes/Graduate Class/ Adv Quant Methods and Design/Sternberg/RM-subject-3.csv","legacy","3 4","Melodramatic Milgram","4.0.5","1","y","0","right","left","right","right","NA","551.0","5228","2736","551","NA","2","legacy","2","1024","2","48000","-16","experiment","3","odd","3","134916","134919","137129","135923","133882","13444","94396","128178","89167","13557","139133","139685","16324","139133","NA","SternbergTask","7","13847.0","20","1024"
"33","33","683","683","#3d3846","experiment","legacy","legacy","legacy","0","undefined","0","right","20","20","20","20","20","0","0","20","0","0","20","20","0","20","0","Thu Oct 19 12:47:04 2023","The main experiment item","True","SternbergTask.osexp","/Users/RMILLER1/Library/CloudStorage/OneDrive-tarleton.edu(NTNET)/TSU Online Classes/Graduate Class/ Adv Quant Methods and Design","False","mono","False","18","no","white","no","no","768","legacy","8","11","/Users/RMILLER1/Library/CloudStorage/OneDrive-tarleton.edu(NTNET)/TSU Online Classes/Graduate Class/ Adv Quant Methods and Design/Sternberg/RM-subject-3.csv","legacy","8 4 3 5","Melodramatic Milgram","4.0.5","0","n","0","left","left","right","left","NA","504.0","5228","2736","504","NA","2","legacy","4","1024","2","48000","-16","experiment","3","odd","6","140722","140725","142938","141727","133882","13444","94396","139687","89167","13557","144941","145446","16324","144941","NA","SternbergTask","7","14351.0","21","1024"
"36","36","692","692","#3d3846","experiment","legacy","legacy","legacy","1","undefined","1","right","21","21","21","21","21","0","0","21","0","0","21","21","0","21","0","Thu Oct 19 12:47:04 2023","The main experiment item","True","SternbergTask.osexp","/Users/RMILLER1/Library/CloudStorage/OneDrive-tarleton.edu(NTNET)/TSU Online Classes/Graduate Class/ Adv Quant Methods and Design","False","mono","False","18","no","white","no","no","768","legacy","9","11","/Users/RMILLER1/Library/CloudStorage/OneDrive-tarleton.edu(NTNET)/TSU Online Classes/Graduate Class/ Adv Quant Methods and Design/Sternberg/RM-subject-3.csv","legacy","1 4 3 6 5","Melodramatic Milgram","4.0.5","0","n","0","right","left","right","right","NA","891.0","5228","2736","891","NA","2","legacy","5","1024","2","48000","-16","experiment","3","odd","8","146477","146483","148691","147486","133882","13444","94396","145451","89167","13557","150695","151589","16324","150695","NA","SternbergTask","8","15242.0","22","1024"
"39","39","705","705","#3d3846","experiment","legacy","legacy","legacy","1","undefined","1","left","22","22","22","22","22","0","0","22","0","0","22","22","0","22","0","Thu Oct 19 12:47:04 2023","The main experiment item","True","SternbergTask.osexp","/Users/RMILLER1/Library/CloudStorage/OneDrive-tarleton.edu(NTNET)/TSU Online Classes/Graduate Class/ Adv Quant Methods and Design","False","mono","False","18","no","white","no","no","768","legacy","10","11","/Users/RMILLER1/Library/CloudStorage/OneDrive-tarleton.edu(NTNET)/TSU Online Classes/Graduate Class/ Adv Quant Methods and Design/Sternberg/RM-subject-3.csv","legacy","8 9 5 6 7","Melodramatic Milgram","4.0.5","1","y","0","left","left","right","left","NA","978.0","5228","2736","978","NA","2","legacy","5","1024","2","48000","-16","experiment","3","odd","8","152630","152633","154839","153636","151597","13444","94396","145451","89167","13557","156843","157822","16324","156843","NA","SternbergTask","9","16220.0","23","1024"
"41","41","698","698","#3d3846","experiment","legacy","legacy","legacy","1","undefined","1","left","23","23","23","23","23","0","0","23","0","0","23","23","0","23","0","Thu Oct 19 12:47:04 2023","The main experiment item","True","SternbergTask.osexp","/Users/RMILLER1/Library/CloudStorage/OneDrive-tarleton.edu(NTNET)/TSU Online Classes/Graduate Class/ Adv Quant Methods and Design","False","mono","False","18","no","white","no","no","768","legacy","11","11","/Users/RMILLER1/Library/CloudStorage/OneDrive-tarleton.edu(NTNET)/TSU Online Classes/Graduate Class/ Adv Quant Methods and Design/Sternberg/RM-subject-3.csv","legacy","3 5 9 6 2 4","Melodramatic Milgram","4.0.5","1","y","0","left","left","right","left","NA","538.0","5228","2736","538","NA","2","legacy","6","1024","2","48000","-16","experiment","3","odd","3","158852","158854","161063","159857","157825","13444","94396","145451","89167","13557","163067","163606","16324","163067","NA","SternbergTask","10","16758.0","24","1024"
"44","44","704","704","#3d3846","experiment","legacy","legacy","legacy","1","undefined","1","left","24","24","24","24","24","0","0","24","0","0","24","24","0","24","0","Thu Oct 19 12:47:04 2023","The main experiment item","True","SternbergTask.osexp","/Users/RMILLER1/Library/CloudStorage/OneDrive-tarleton.edu(NTNET)/TSU Online Classes/Graduate Class/ Adv Quant Methods and Design","False","mono","False","18","no","white","no","no","768","legacy","12","11","/Users/RMILLER1/Library/CloudStorage/OneDrive-tarleton.edu(NTNET)/TSU Online Classes/Graduate Class/ Adv Quant Methods and Design/Sternberg/RM-subject-3.csv","legacy","3 4 9 6 2 9","Melodramatic Milgram","4.0.5","5","y","0","left","left","right","left","NA","853.0","5228","2736","853","NA","2","legacy","6","1024","2","48000","-16","experiment","3","odd","2","164647","164650","166861","165655","163612","13444","94396","145451","89167","13557","168869","169723","16324","168869","NA","SternbergTask","11","17611.0","25","1024"
"42","42","707","707","#3d3846","experiment","legacy","legacy","legacy","0","undefined","0","left","25","25","25","25","25","0","0","25","0","0","25","25","0","25","0","Thu Oct 19 12:47:04 2023","The main experiment item","True","SternbergTask.osexp","/Users/RMILLER1/Library/CloudStorage/OneDrive-tarleton.edu(NTNET)/TSU Online Classes/Graduate Class/ Adv Quant Methods and Design","False","mono","False","18","no","white","no","no","768","legacy","13","11","/Users/RMILLER1/Library/CloudStorage/OneDrive-tarleton.edu(NTNET)/TSU Online Classes/Graduate Class/ Adv Quant Methods and Design/Sternberg/RM-subject-3.csv","legacy","9 4 2","Melodramatic Milgram","4.0.5","1","y","0","right","left","right","right","NA","776.0","5228","2736","776","NA","2","legacy","3","1024","2","48000","-16","experiment","3","odd","9","170760","170764","172973","171767","169727","13444","94396","145451","89167","13557","174978","175754","16324","174978","NA","SternbergTask","11","18387.0","26","1024"
"40","40","700","700","#3d3846","experiment","legacy","legacy","legacy","0","undefined","0","right","26","26","26","26","26","0","0","26","0","0","26","26","0","26","0","Thu Oct 19 12:47:04 2023","The main experiment item","True","SternbergTask.osexp","/Users/RMILLER1/Library/CloudStorage/OneDrive-tarleton.edu(NTNET)/TSU Online Classes/Graduate Class/ Adv Quant Methods and Design","False","mono","False","18","no","white","no","no","768","legacy","14","11","/Users/RMILLER1/Library/CloudStorage/OneDrive-tarleton.edu(NTNET)/TSU Online Classes/Graduate Class/ Adv Quant Methods and Design/Sternberg/RM-subject-3.csv","legacy","1 8 7","Melodramatic Milgram","4.0.5","0","n","0","left","left","right","left","NA","532.0","5228","2736","532","NA","2","legacy","3","1024","2","48000","-16","experiment","3","odd","4","176792","176794","179003","177797","169727","13444","94396","175761","89167","13557","181005","181538","16324","181005","NA","SternbergTask","11","18919.0","27","1024"
"42","42","687","687","#3d3846","experiment","legacy","legacy","legacy","1","undefined","1","left","27","27","27","27","27","0","0","27","0","0","27","27","0","27","0","Thu Oct 19 12:47:04 2023","The main experiment item","True","SternbergTask.osexp","/Users/RMILLER1/Library/CloudStorage/OneDrive-tarleton.edu(NTNET)/TSU Online Classes/Graduate Class/ Adv Quant Methods and Design","False","mono","False","18","no","white","no","no","768","legacy","15","11","/Users/RMILLER1/Library/CloudStorage/OneDrive-tarleton.edu(NTNET)/TSU Online Classes/Graduate Class/ Adv Quant Methods and Design/Sternberg/RM-subject-3.csv","legacy","4 6 5 8","Melodramatic Milgram","4.0.5","1","y","0","left","left","right","left","NA","343.0","5228","2736","343","NA","2","legacy","4","1024","2","48000","-16","experiment","3","odd","4","182575","182581","184791","183586","169727","13444","94396","181542","89167","13557","186796","187140","16324","186795","NA","SternbergTask","12","19262.0","28","1024"
"44","44","679","679","#3d3846","experiment","legacy","legacy","legacy","1","undefined","1","left","28","28","28","28","28","0","0","28","0","0","28","28","0","28","0","Thu Oct 19 12:47:04 2023","The main experiment item","True","SternbergTask.osexp","/Users/RMILLER1/Library/CloudStorage/OneDrive-tarleton.edu(NTNET)/TSU Online Classes/Graduate Class/ Adv Quant Methods and Design","False","mono","False","18","no","white","no","no","768","legacy","16","11","/Users/RMILLER1/Library/CloudStorage/OneDrive-tarleton.edu(NTNET)/TSU Online Classes/Graduate Class/ Adv Quant Methods and Design/Sternberg/RM-subject-3.csv","legacy","6 1 2","Melodramatic Milgram","4.0.5","3","y","0","left","left","right","left","NA","433.0","5228","2736","433","NA","2","legacy","3","1024","2","48000","-16","experiment","3","odd","2","188182","188185","190392","189187","187147","13444","94396","181542","89167","13557","192398","192833","16324","192398","NA","SternbergTask","13","19695.0","29","1024"
"46","46","671","671","#3d3846","experiment","legacy","legacy","legacy","1","undefined","1","left","29","29","29","29","29","0","0","29","0","0","29","29","0","29","0","Thu Oct 19 12:47:04 2023","The main experiment item","True","SternbergTask.osexp","/Users/RMILLER1/Library/CloudStorage/OneDrive-tarleton.edu(NTNET)/TSU Online Classes/Graduate Class/ Adv Quant Methods and Design","False","mono","False","18","no","white","no","no","768","legacy","17","11","/Users/RMILLER1/Library/CloudStorage/OneDrive-tarleton.edu(NTNET)/TSU Online Classes/Graduate Class/ Adv Quant Methods and Design/Sternberg/RM-subject-3.csv","legacy","2 5 4 8 7","Melodramatic Milgram","4.0.5","3","y","0","left","left","right","left","NA","462.0","5228","2736","462","NA","2","legacy","5","1024","2","48000","-16","experiment","3","odd","4","193872","193874","196080","194877","192838","13444","94396","181542","89167","13557","198084","198546","16324","198084","NA","SternbergTask","14","20157.0","30","1024"
"45","45","667","667","#3d3846","experiment","legacy","legacy","legacy","0","undefined","0","right","30","30","30","30","30","0","0","30","0","0","30","30","0","30","0","Thu Oct 19 12:47:04 2023","The main experiment item","True","SternbergTask.osexp","/Users/RMILLER1/Library/CloudStorage/OneDrive-tarleton.edu(NTNET)/TSU Online Classes/Graduate Class/ Adv Quant Methods and Design","False","mono","False","18","no","white","no","no","768","legacy","18","11","/Users/RMILLER1/Library/CloudStorage/OneDrive-tarleton.edu(NTNET)/TSU Online Classes/Graduate Class/ Adv Quant Methods and Design/Sternberg/RM-subject-3.csv","legacy","2 8 7 9 5 3","Melodramatic Milgram","4.0.5","0","n","0","left","left","right","left","NA","528.0","5228","2736","528","NA","2","legacy","6","1024","2","48000","-16","experiment","3","odd","6","199585","199588","201795","200589","198550","13444","94396","181542","89167","13557","203800","204329","16324","203800","NA","SternbergTask","14","20685.0","31","1024"
"46","46","677","677","#3d3846","experiment","legacy","legacy","legacy","1","undefined","1","left","31","31","31","31","31","0","0","31","0","0","31","31","0","31","0","Thu Oct 19 12:47:04 2023","The main experiment item","True","SternbergTask.osexp","/Users/RMILLER1/Library/CloudStorage/OneDrive-tarleton.edu(NTNET)/TSU Online Classes/Graduate Class/ Adv Quant Methods and Design","False","mono","False","18","no","white","no","no","768","legacy","19","11","/Users/RMILLER1/Library/CloudStorage/OneDrive-tarleton.edu(NTNET)/TSU Online Classes/Graduate Class/ Adv Quant Methods and Design/Sternberg/RM-subject-3.csv","legacy","9 1 6 7 8","Melodramatic Milgram","4.0.5","1","y","0","left","left","right","left","NA","996.0","5228","2736","996","NA","2","legacy","5","1024","2","48000","-16","experiment","3","odd","9","205370","205372","207583","206377","198550","13444","94396","204336","89167","13557","209586","210582","16324","209586","NA","SternbergTask","15","21681.0","32","1024"
"45","45","675","675","#3d3846","experiment","legacy","legacy","legacy","0","undefined","0","right","32","32","32","32","32","0","0","32","0","0","32","32","0","32","0","Thu Oct 19 12:47:04 2023","The main experiment item","True","SternbergTask.osexp","/Users/RMILLER1/Library/CloudStorage/OneDrive-tarleton.edu(NTNET)/TSU Online Classes/Graduate Class/ Adv Quant Methods and Design","False","mono","False","18","no","white","no","no","768","legacy","20","11","/Users/RMILLER1/Library/CloudStorage/OneDrive-tarleton.edu(NTNET)/TSU Online Classes/Graduate Class/ Adv Quant Methods and Design/Sternberg/RM-subject-3.csv","legacy","2 6 4 3 9","Melodramatic Milgram","4.0.5","0","n","0","left","left","right","left","NA","600.0","5228","2736","600","NA","2","legacy","5","1024","2","48000","-16","experiment","3","odd","1","211619","211621","213829","212623","210585","13444","94396","204336","89167","13557","215832","216432","16324","215832","NA","SternbergTask","15","22281.0","33","1024"
"47","47","680","680","#3d3846","experiment","legacy","legacy","legacy","1","undefined","1","right","33","33","33","33","33","0","0","33","0","0","33","33","0","33","0","Thu Oct 19 12:47:04 2023","The main experiment item","True","SternbergTask.osexp","/Users/RMILLER1/Library/CloudStorage/OneDrive-tarleton.edu(NTNET)/TSU Online Classes/Graduate Class/ Adv Quant Methods and Design","False","mono","False","18","no","white","no","no","768","legacy","21","11","/Users/RMILLER1/Library/CloudStorage/OneDrive-tarleton.edu(NTNET)/TSU Online Classes/Graduate Class/ Adv Quant Methods and Design/Sternberg/RM-subject-3.csv","legacy","1 7 8 3 9","Melodramatic Milgram","4.0.5","0","n","0","right","left","right","right","NA","857.0","5228","2736","857","NA","2","legacy","5","1024","2","48000","-16","experiment","3","odd","2","217473","217482","219691","218484","210585","13444","94396","216437","89167","13557","221695","222553","16324","221695","NA","SternbergTask","16","23138.0","34","1024"
"48","48","678","678","#3d3846","experiment","legacy","legacy","legacy","1","undefined","1","left","34","34","34","34","34","0","0","34","0","0","34","34","0","34","0","Thu Oct 19 12:47:04 2023","The main experiment item","True","SternbergTask.osexp","/Users/RMILLER1/Library/CloudStorage/OneDrive-tarleton.edu(NTNET)/TSU Online Classes/Graduate Class/ Adv Quant Methods and Design","False","mono","False","18","no","white","no","no","768","legacy","22","11","/Users/RMILLER1/Library/CloudStorage/OneDrive-tarleton.edu(NTNET)/TSU Online Classes/Graduate Class/ Adv Quant Methods and Design/Sternberg/RM-subject-3.csv","legacy","3 5 4 7","Melodramatic Milgram","4.0.5","1","y","0","left","left","right","left","NA","609.0","5228","2736","609","NA","2","legacy","4","1024","2","48000","-16","experiment","3","odd","3","223583","223585","225790","224588","222556","13444","94396","216437","89167","13557","227796","228405","16324","227796","NA","SternbergTask","17","23747.0","35","1024"
"50","50","674","674","#3d3846","experiment","legacy","legacy","legacy","1","undefined","1","left","35","35","35","35","35","0","0","35","0","0","35","35","0","35","0","Thu Oct 19 12:47:04 2023","The main experiment item","True","SternbergTask.osexp","/Users/RMILLER1/Library/CloudStorage/OneDrive-tarleton.edu(NTNET)/TSU Online Classes/Graduate Class/ Adv Quant Methods and Design","False","mono","False","18","no","white","no","no","768","legacy","23","11","/Users/RMILLER1/Library/CloudStorage/OneDrive-tarleton.edu(NTNET)/TSU Online Classes/Graduate Class/ Adv Quant Methods and Design/Sternberg/RM-subject-3.csv","legacy","2 8 5 1","Melodramatic Milgram","4.0.5","4","y","0","left","left","right","left","NA","530.0","5228","2736","530","NA","2","legacy","4","1024","2","48000","-16","experiment","3","odd","1","229441","229446","231654","230451","228409","13444","94396","216437","89167","13557","233656","234188","16324","233656","NA","SternbergTask","18","24277.0","36","1024"
"51","51","670","670","#3d3846","experiment","legacy","legacy","legacy","1","undefined","1","left","36","36","36","36","36","0","0","36","0","0","36","36","0","36","0","Thu Oct 19 12:47:04 2023","The main experiment item","True","SternbergTask.osexp","/Users/RMILLER1/Library/CloudStorage/OneDrive-tarleton.edu(NTNET)/TSU Online Classes/Graduate Class/ Adv Quant Methods and Design","False","mono","False","18","no","white","no","no","768","legacy","24","11","/Users/RMILLER1/Library/CloudStorage/OneDrive-tarleton.edu(NTNET)/TSU Online Classes/Graduate Class/ Adv Quant Methods and Design/Sternberg/RM-subject-3.csv","legacy","5 7 3 6 2","Melodramatic Milgram","4.0.5","5","y","0","left","left","right","left","NA","546.0","5228","2736","546","NA","2","legacy","5","1024","2","48000","-16","experiment","3","odd","2","235228","235232","237439","236236","234193","13444","94396","216437","89167","13557","239443","239989","16324","239443","NA","SternbergTask","19","24823.0","37","1024"
"52","52","664","664","#3d3846","experiment","legacy","legacy","legacy","1","undefined","1","left","37","37","37","37","37","0","0","37","0","0","37","37","0","37","0","Thu Oct 19 12:47:04 2023","The main experiment item","True","SternbergTask.osexp","/Users/RMILLER1/Library/CloudStorage/OneDrive-tarleton.edu(NTNET)/TSU Online Classes/Graduate Class/ Adv Quant Methods and Design","False","mono","False","18","no","white","no","no","768","legacy","25","11","/Users/RMILLER1/Library/CloudStorage/OneDrive-tarleton.edu(NTNET)/TSU Online Classes/Graduate Class/ Adv Quant Methods and Design/Sternberg/RM-subject-3.csv","legacy","8","Melodramatic Milgram","4.0.5","1","y","0","left","left","right","left","NA","419.0","5228","2736","419","NA","2","legacy","1","1024","2","48000","-16","experiment","3","odd","8","241027","241029","243238","242032","239996","13444","94396","216437","89167","13557","245242","245662","16324","245241","NA","SternbergTask","20","25242.0","38","1024"
"53","53","666","666","#3d3846","experiment","legacy","legacy","legacy","1","undefined","1","right","38","38","38","38","38","0","0","38","0","0","38","38","0","38","0","Thu Oct 19 12:47:04 2023","The main experiment item","True","SternbergTask.osexp","/Users/RMILLER1/Library/CloudStorage/OneDrive-tarleton.edu(NTNET)/TSU Online Classes/Graduate Class/ Adv Quant Methods and Design","False","mono","False","18","no","white","no","no","768","legacy","26","11","/Users/RMILLER1/Library/CloudStorage/OneDrive-tarleton.edu(NTNET)/TSU Online Classes/Graduate Class/ Adv Quant Methods and Design/Sternberg/RM-subject-3.csv","legacy","6 9 5","Melodramatic Milgram","4.0.5","0","n","0","right","left","right","right","NA","758.0","5228","2736","758","NA","2","legacy","3","1024","2","48000","-16","experiment","3","odd","8","246698","246701","248905","247703","245668","13444","94396","216437","89167","13557","250911","251669","16324","250910","NA","SternbergTask","21","26000.0","39","1024"
"52","52","666","666","#3d3846","experiment","legacy","legacy","legacy","0","undefined","0","right","39","39","39","39","39","0","0","39","0","0","39","39","0","39","0","Thu Oct 19 12:47:04 2023","The main experiment item","True","SternbergTask.osexp","/Users/RMILLER1/Library/CloudStorage/OneDrive-tarleton.edu(NTNET)/TSU Online Classes/Graduate Class/ Adv Quant Methods and Design","False","mono","False","18","no","white","no","no","768","legacy","27","11","/Users/RMILLER1/Library/CloudStorage/OneDrive-tarleton.edu(NTNET)/TSU Online Classes/Graduate Class/ Adv Quant Methods and Design/Sternberg/RM-subject-3.csv","legacy","6 9 7 3 8 2","Melodramatic Milgram","4.0.5","0","n","0","left","left","right","left","NA","668.0","5228","2736","668","NA","2","legacy","6","1024","2","48000","-16","experiment","3","odd","5","252702","252705","254913","253708","251672","13444","94396","216437","89167","13557","256917","257586","16324","256917","NA","SternbergTask","21","26668.0","40","1024"
"53","53","663","663","#3d3846","experiment","legacy","legacy","legacy","1","undefined","1","left","40","40","40","40","40","0","0","40","0","0","40","40","0","40","0","Thu Oct 19 12:47:04 2023","The main experiment item","True","SternbergTask.osexp","/Users/RMILLER1/Library/CloudStorage/OneDrive-tarleton.edu(NTNET)/TSU Online Classes/Graduate Class/ Adv Quant Methods and Design","False","mono","False","18","no","white","no","no","768","legacy","28","11","/Users/RMILLER1/Library/CloudStorage/OneDrive-tarleton.edu(NTNET)/TSU Online Classes/Graduate Class/ Adv Quant Methods and Design/Sternberg/RM-subject-3.csv","legacy","6 9 7 4 5 1","Melodramatic Milgram","4.0.5","2","y","0","left","left","right","left","NA","552.0","5228","2736","552","NA","2","legacy","6","1024","2","48000","-16","experiment","3","odd","9","258621","258624","260834","259626","251672","13444","94396","257588","89167","13557","262838","263391","16324","262838","NA","SternbergTask","22","27220.0","41","1024"
"54","54","662","662","#3d3846","experiment","legacy","legacy","legacy","1","undefined","1","left","41","41","41","41","41","0","0","41","0","0","41","41","0","41","0","Thu Oct 19 12:47:04 2023","The main experiment item","True","SternbergTask.osexp","/Users/RMILLER1/Library/CloudStorage/OneDrive-tarleton.edu(NTNET)/TSU Online Classes/Graduate Class/ Adv Quant Methods and Design","False","mono","False","18","no","white","no","no","768","legacy","29","11","/Users/RMILLER1/Library/CloudStorage/OneDrive-tarleton.edu(NTNET)/TSU Online Classes/Graduate Class/ Adv Quant Methods and Design/Sternberg/RM-subject-3.csv","legacy","2 3","Melodramatic Milgram","4.0.5","1","y","0","left","left","right","left","NA","590.0","5228","2736","590","NA","2","legacy","2","1024","2","48000","-16","experiment","3","odd","2","264428","264434","266642","265439","263395","13444","94396","257588","89167","13557","268649","269240","16324","268649","NA","SternbergTask","23","27810.0","42","1024"
"55","55","660","660","#3d3846","experiment","legacy","legacy","legacy","1","undefined","1","left","42","42","42","42","42","0","0","42","0","0","42","42","0","42","0","Thu Oct 19 12:47:04 2023","The main experiment item","True","SternbergTask.osexp","/Users/RMILLER1/Library/CloudStorage/OneDrive-tarleton.edu(NTNET)/TSU Online Classes/Graduate Class/ Adv Quant Methods and Design","False","mono","False","18","no","white","no","no","768","legacy","30","11","/Users/RMILLER1/Library/CloudStorage/OneDrive-tarleton.edu(NTNET)/TSU Online Classes/Graduate Class/ Adv Quant Methods and Design/Sternberg/RM-subject-3.csv","legacy","3 9 7 6 4","Melodramatic Milgram","4.0.5","3","y","0","left","left","right","left","NA","574.0","5228","2736","574","NA","2","legacy","5","1024","2","48000","-16","experiment","3","odd","7","270279","270281","272494","271285","269247","13444","94396","257588","89167","13557","274497","275071","16324","274497","NA","SternbergTask","24","28384.0","43","1024"
"56","56","657","657","#3d3846","experiment","legacy","legacy","legacy","1","undefined","1","left","43","43","43","43","43","0","0","43","0","0","43","43","0","43","0","Thu Oct 19 12:47:04 2023","The main experiment item","True","SternbergTask.osexp","/Users/RMILLER1/Library/CloudStorage/OneDrive-tarleton.edu(NTNET)/TSU Online Classes/Graduate Class/ Adv Quant Methods and Design","False","mono","False","18","no","white","no","no","768","legacy","31","11","/Users/RMILLER1/Library/CloudStorage/OneDrive-tarleton.edu(NTNET)/TSU Online Classes/Graduate Class/ Adv Quant Methods and Design/Sternberg/RM-subject-3.csv","legacy","7 6","Melodramatic Milgram","4.0.5","2","y","0","left","left","right","left","NA","529.0","5228","2736","529","NA","2","legacy","2","1024","2","48000","-16","experiment","3","odd","6","276110","276114","278321","277117","275077","13444","94396","257588","89167","13557","280323","280853","16324","280323","NA","SternbergTask","25","28913.0","44","1024"
"55","55","662","662","#3d3846","experiment","legacy","legacy","legacy","0","undefined","0","right","44","44","44","44","44","0","0","44","0","0","44","44","0","44","0","Thu Oct 19 12:47:04 2023","The main experiment item","True","SternbergTask.osexp","/Users/RMILLER1/Library/CloudStorage/OneDrive-tarleton.edu(NTNET)/TSU Online Classes/Graduate Class/ Adv Quant Methods and Design","False","mono","False","18","no","white","no","no","768","legacy","32","11","/Users/RMILLER1/Library/CloudStorage/OneDrive-tarleton.edu(NTNET)/TSU Online Classes/Graduate Class/ Adv Quant Methods and Design/Sternberg/RM-subject-3.csv","legacy","6 8","Melodramatic Milgram","4.0.5","0","n","0","left","left","right","left","NA","889.0","5228","2736","889","NA","2","legacy","2","1024","2","48000","-16","experiment","3","odd","9","281889","281895","284101","282897","280859","13444","94396","257588","89167","13557","286106","286995","16324","286106","NA","SternbergTask","25","29802.0","45","1024"
"54","54","657","657","#3d3846","experiment","legacy","legacy","legacy","0","undefined","0","right","45","45","45","45","45","0","0","45","0","0","45","45","0","45","0","Thu Oct 19 12:47:04 2023","The main experiment item","True","SternbergTask.osexp","/Users/RMILLER1/Library/CloudStorage/OneDrive-tarleton.edu(NTNET)/TSU Online Classes/Graduate Class/ Adv Quant Methods and Design","False","mono","False","18","no","white","no","no","768","legacy","33","11","/Users/RMILLER1/Library/CloudStorage/OneDrive-tarleton.edu(NTNET)/TSU Online Classes/Graduate Class/ Adv Quant Methods and Design/Sternberg/RM-subject-3.csv","legacy","2 8 9","Melodramatic Milgram","4.0.5","0","n","0","left","left","right","left","NA","464.0","5228","2736","464","NA","2","legacy","3","1024","2","48000","-16","experiment","3","odd","6","288033","288036","290246","289040","280859","13444","94396","287000","89167","13557","292251","292716","16324","292251","NA","SternbergTask","25","30266.0","46","1024"
"55","55","654","654","#3d3846","experiment","legacy","legacy","legacy","1","undefined","1","left","46","46","46","46","46","0","0","46","0","0","46","46","0","46","0","Thu Oct 19 12:47:04 2023","The main experiment item","True","SternbergTask.osexp","/Users/RMILLER1/Library/CloudStorage/OneDrive-tarleton.edu(NTNET)/TSU Online Classes/Graduate Class/ Adv Quant Methods and Design","False","mono","False","18","no","white","no","no","768","legacy","34","11","/Users/RMILLER1/Library/CloudStorage/OneDrive-tarleton.edu(NTNET)/TSU Online Classes/Graduate Class/ Adv Quant Methods and Design/Sternberg/RM-subject-3.csv","legacy","4 6 2 5 1","Melodramatic Milgram","4.0.5","5","y","0","left","left","right","left","NA","503.0","5228","2736","503","NA","2","legacy","5","1024","2","48000","-16","experiment","3","odd","1","293751","293754","295962","294756","280859","13444","94396","292719","89167","13557","297966","298469","16324","297966","NA","SternbergTask","26","30769.0","47","1024"
"56","56","651","651","#3d3846","experiment","legacy","legacy","legacy","1","undefined","1","right","47","47","47","47","47","0","0","47","0","0","47","47","0","47","0","Thu Oct 19 12:47:04 2023","The main experiment item","True","SternbergTask.osexp","/Users/RMILLER1/Library/CloudStorage/OneDrive-tarleton.edu(NTNET)/TSU Online Classes/Graduate Class/ Adv Quant Methods and Design","False","mono","False","18","no","white","no","no","768","legacy","35","11","/Users/RMILLER1/Library/CloudStorage/OneDrive-tarleton.edu(NTNET)/TSU Online Classes/Graduate Class/ Adv Quant Methods and Design/Sternberg/RM-subject-3.csv","legacy","9","Melodramatic Milgram","4.0.5","0","n","0","right","left","right","right","NA","500.0","5228","2736","500","NA","2","legacy","1","1024","2","48000","-16","experiment","3","odd","6","299507","299513","301720","300515","298477","13444","94396","292719","89167","13557","303728","304228","16324","303728","NA","SternbergTask","27","31269.0","48","1024"
"55","55","678","678","#3d3846","experiment","legacy","legacy","legacy","0","undefined","0","left","48","48","48","48","48","0","0","48","0","0","48","48","0","48","0","Thu Oct 19 12:47:04 2023","The main experiment item","True","SternbergTask.osexp","/Users/RMILLER1/Library/CloudStorage/OneDrive-tarleton.edu(NTNET)/TSU Online Classes/Graduate Class/ Adv Quant Methods and Design","False","mono","False","18","no","white","no","no","768","legacy","36","11","/Users/RMILLER1/Library/CloudStorage/OneDrive-tarleton.edu(NTNET)/TSU Online Classes/Graduate Class/ Adv Quant Methods and Design/Sternberg/RM-subject-3.csv","legacy","8 5 4 7 3 1","Melodramatic Milgram","4.0.5","2","y","0","None","left","right","None","NA","2000.0","5228","2736","2000","NA","2","legacy","6","1024","2","48000","-16","experiment","3","odd","5","305266","305268","307480","306271","304232","13444","94396","292719","89167","13557","309483","311483","16324","309483","NA","SternbergTask","27","33269.0","49","1024"
"54","54","705","705","#3d3846","experiment","legacy","legacy","legacy","0","undefined","0","right","49","49","49","49","49","0","0","49","0","0","49","49","0","49","0","Thu Oct 19 12:47:04 2023","The main experiment item","True","SternbergTask.osexp","/Users/RMILLER1/Library/CloudStorage/OneDrive-tarleton.edu(NTNET)/TSU Online Classes/Graduate Class/ Adv Quant Methods and Design","False","mono","False","18","no","white","no","no","768","legacy","37","11","/Users/RMILLER1/Library/CloudStorage/OneDrive-tarleton.edu(NTNET)/TSU Online Classes/Graduate Class/ Adv Quant Methods and Design/Sternberg/RM-subject-3.csv","legacy","1 5 3 2 8","Melodramatic Milgram","4.0.5","0","n","0","None","left","right","None","NA","2000.0","5228","2736","2000","NA","2","legacy","5","1024","2","48000","-16","experiment","3","odd","4","312522","312524","314738","313533","304232","13444","94396","311486","89167","13557","316744","318744","16324","316744","NA","SternbergTask","27","35269.0","50","1024"
"54","54","703","703","#3d3846","experiment","legacy","legacy","legacy","1","undefined","1","left","50","50","50","50","50","0","0","50","0","0","50","50","0","50","0","Thu Oct 19 12:47:04 2023","The main experiment item","True","SternbergTask.osexp","/Users/RMILLER1/Library/CloudStorage/OneDrive-tarleton.edu(NTNET)/TSU Online Classes/Graduate Class/ Adv Quant Methods and Design","False","mono","False","18","no","white","no","no","768","legacy","38","11","/Users/RMILLER1/Library/CloudStorage/OneDrive-tarleton.edu(NTNET)/TSU Online Classes/Graduate Class/ Adv Quant Methods and Design/Sternberg/RM-subject-3.csv","legacy","7 8 6 3 1","Melodramatic Milgram","4.0.5","5","y","0","left","left","right","left","NA","593.0","5228","2736","593","NA","2","legacy","5","1024","2","48000","-16","experiment","3","odd","1","319798","319802","322007","320804","304232","13444","94396","318749","89167","13557","324011","324605","16324","324011","NA","SternbergTask","28","35862.0","51","1024"
"53","53","697","697","#3d3846","experiment","legacy","legacy","legacy","0","undefined","0","right","51","51","51","51","51","0","0","51","0","0","51","51","0","51","0","Thu Oct 19 12:47:04 2023","The main experiment item","True","SternbergTask.osexp","/Users/RMILLER1/Library/CloudStorage/OneDrive-tarleton.edu(NTNET)/TSU Online Classes/Graduate Class/ Adv Quant Methods and Design","False","mono","False","18","no","white","no","no","768","legacy","39","11","/Users/RMILLER1/Library/CloudStorage/OneDrive-tarleton.edu(NTNET)/TSU Online Classes/Graduate Class/ Adv Quant Methods and Design/Sternberg/RM-subject-3.csv","legacy","6 8 4","Melodramatic Milgram","4.0.5","0","n","0","left","left","right","left","NA","424.0","5228","2736","424","NA","2","legacy","3","1024","2","48000","-16","experiment","3","odd","1","325640","325643","327852","326647","324607","13444","94396","318749","89167","13557","329859","330284","16324","329859","NA","SternbergTask","28","36286.0","52","1024"
"54","54","702","702","#3d3846","experiment","legacy","legacy","legacy","1","undefined","1","left","52","52","52","52","52","0","0","52","0","0","52","52","0","52","0","Thu Oct 19 12:47:04 2023","The main experiment item","True","SternbergTask.osexp","/Users/RMILLER1/Library/CloudStorage/OneDrive-tarleton.edu(NTNET)/TSU Online Classes/Graduate Class/ Adv Quant Methods and Design","False","mono","False","18","no","white","no","no","768","legacy","40","11","/Users/RMILLER1/Library/CloudStorage/OneDrive-tarleton.edu(NTNET)/TSU Online Classes/Graduate Class/ Adv Quant Methods and Design/Sternberg/RM-subject-3.csv","legacy","9 3 8 2 1 4","Melodramatic Milgram","4.0.5","3","y","0","left","left","right","left","NA","932.0","5228","2736","932","NA","2","legacy","6","1024","2","48000","-16","experiment","3","odd","8","331320","331326","333537","332331","324607","13444","94396","330288","89167","13557","335540","336473","16324","335540","NA","SternbergTask","29","37218.0","53","1024"
"55","55","698","698","#3d3846","experiment","legacy","legacy","legacy","1","undefined","1","left","53","53","53","53","53","0","0","53","0","0","53","53","0","53","0","Thu Oct 19 12:47:04 2023","The main experiment item","True","SternbergTask.osexp","/Users/RMILLER1/Library/CloudStorage/OneDrive-tarleton.edu(NTNET)/TSU Online Classes/Graduate Class/ Adv Quant Methods and Design","False","mono","False","18","no","white","no","no","768","legacy","41","11","/Users/RMILLER1/Library/CloudStorage/OneDrive-tarleton.edu(NTNET)/TSU Online Classes/Graduate Class/ Adv Quant Methods and Design/Sternberg/RM-subject-3.csv","legacy","2 4 8 5 1 3","Melodramatic Milgram","4.0.5","1","y","0","left","left","right","left","NA","486.0","5228","2736","486","NA","2","legacy","6","1024","2","48000","-16","experiment","3","odd","2","337509","337512","339720","338515","336477","13444","94396","330288","89167","13557","341724","342211","16324","341724","NA","SternbergTask","30","37704.0","54","1024"
"56","56","703","703","#3d3846","experiment","legacy","legacy","legacy","1","undefined","1","left","54","54","54","54","54","0","0","54","0","0","54","54","0","54","0","Thu Oct 19 12:47:04 2023","The main experiment item","True","SternbergTask.osexp","/Users/RMILLER1/Library/CloudStorage/OneDrive-tarleton.edu(NTNET)/TSU Online Classes/Graduate Class/ Adv Quant Methods and Design","False","mono","False","18","no","white","no","no","768","legacy","42","11","/Users/RMILLER1/Library/CloudStorage/OneDrive-tarleton.edu(NTNET)/TSU Online Classes/Graduate Class/ Adv Quant Methods and Design/Sternberg/RM-subject-3.csv","legacy","6 7 9 3 1 2","Melodramatic Milgram","4.0.5","1","y","0","left","left","right","left","NA","1002.0","5228","2736","1002","NA","2","legacy","6","1024","2","48000","-16","experiment","3","odd","6","343248","343251","345462","344254","342215","13444","94396","330288","89167","13557","347465","348468","16324","347464","NA","SternbergTask","31","38706.0","55","1024"
"55","55","701","701","#3d3846","experiment","legacy","legacy","legacy","0","undefined","0","right","55","55","55","55","55","0","0","55","0","0","55","55","0","55","0","Thu Oct 19 12:47:04 2023","The main experiment item","True","SternbergTask.osexp","/Users/RMILLER1/Library/CloudStorage/OneDrive-tarleton.edu(NTNET)/TSU Online Classes/Graduate Class/ Adv Quant Methods and Design","False","mono","False","18","no","white","no","no","768","legacy","43","11","/Users/RMILLER1/Library/CloudStorage/OneDrive-tarleton.edu(NTNET)/TSU Online Classes/Graduate Class/ Adv Quant Methods and Design/Sternberg/RM-subject-3.csv","legacy","5 2","Melodramatic Milgram","4.0.5","0","n","0","left","left","right","left","NA","551.0","5228","2736","551","NA","2","legacy","2","1024","2","48000","-16","experiment","3","odd","7","349503","349505","351716","350508","348471","13444","94396","330288","89167","13557","353720","354271","16324","353720","NA","SternbergTask","31","39257.0","56","1024"
"54","54","699","699","#3d3846","experiment","legacy","legacy","legacy","0","undefined","0","right","56","56","56","56","56","0","0","56","0","0","56","56","0","56","0","Thu Oct 19 12:47:04 2023","The main experiment item","True","SternbergTask.osexp","/Users/RMILLER1/Library/CloudStorage/OneDrive-tarleton.edu(NTNET)/TSU Online Classes/Graduate Class/ Adv Quant Methods and Design","False","mono","False","18","no","white","no","no","768","legacy","44","11","/Users/RMILLER1/Library/CloudStorage/OneDrive-tarleton.edu(NTNET)/TSU Online Classes/Graduate Class/ Adv Quant Methods and Design/Sternberg/RM-subject-3.csv","legacy","1 6 4","Melodramatic Milgram","4.0.5","0","n","0","left","left","right","left","NA","639.0","5228","2736","639","NA","2","legacy","3","1024","2","48000","-16","experiment","3","odd","7","355310","355314","357521","356317","348471","13444","94396","354278","89167","13557","359524","360164","16324","359524","NA","SternbergTask","31","39896.0","57","1024"
"55","55","705","705","#3d3846","experiment","legacy","legacy","legacy","1","undefined","1","left","57","57","57","57","57","0","0","57","0","0","57","57","0","57","0","Thu Oct 19 12:47:04 2023","The main experiment item","True","SternbergTask.osexp","/Users/RMILLER1/Library/CloudStorage/OneDrive-tarleton.edu(NTNET)/TSU Online Classes/Graduate Class/ Adv Quant Methods and Design","False","mono","False","18","no","white","no","no","768","legacy","45","11","/Users/RMILLER1/Library/CloudStorage/OneDrive-tarleton.edu(NTNET)/TSU Online Classes/Graduate Class/ Adv Quant Methods and Design/Sternberg/RM-subject-3.csv","legacy","1 4 9 3 2 5","Melodramatic Milgram","4.0.5","3","y","0","left","left","right","left","NA","1002.0","5228","2736","1002","NA","2","legacy","6","1024","2","48000","-16","experiment","3","odd","9","361208","361210","363414","362212","348471","13444","94396","360173","89167","13557","365417","366420","16324","365417","NA","SternbergTask","32","40898.0","58","1024"
"55","55","703","703","#3d3846","experiment","legacy","legacy","legacy","1","undefined","1","left","58","58","58","58","58","0","0","58","0","0","58","58","0","58","0","Thu Oct 19 12:47:04 2023","The main experiment item","True","SternbergTask.osexp","/Users/RMILLER1/Library/CloudStorage/OneDrive-tarleton.edu(NTNET)/TSU Online Classes/Graduate Class/ Adv Quant Methods and Design","False","mono","False","18","no","white","no","no","768","legacy","46","11","/Users/RMILLER1/Library/CloudStorage/OneDrive-tarleton.edu(NTNET)/TSU Online Classes/Graduate Class/ Adv Quant Methods and Design/Sternberg/RM-subject-3.csv","legacy","8 5 3 7 4 6","Melodramatic Milgram","4.0.5","6","y","0","left","left","right","left","NA","631.0","5228","2736","631","NA","2","legacy","6","1024","2","48000","-16","experiment","3","odd","6","367446","367450","369659","368453","366423","13444","94396","360173","89167","13557","371663","372295","16324","371662","NA","SternbergTask","33","41529.0","59","1024"
"56","56","698","698","#3d3846","experiment","legacy","legacy","legacy","1","undefined","1","left","59","59","59","59","59","0","0","59","0","0","59","59","0","59","0","Thu Oct 19 12:47:04 2023","The main experiment item","True","SternbergTask.osexp","/Users/RMILLER1/Library/CloudStorage/OneDrive-tarleton.edu(NTNET)/TSU Online Classes/Graduate Class/ Adv Quant Methods and Design","False","mono","False","18","no","white","no","no","768","legacy","47","11","/Users/RMILLER1/Library/CloudStorage/OneDrive-tarleton.edu(NTNET)/TSU Online Classes/Graduate Class/ Adv Quant Methods and Design/Sternberg/RM-subject-3.csv","legacy","6 2","Melodramatic Milgram","4.0.5","1","y","0","left","left","right","left","NA","395.0","5228","2736","395","NA","2","legacy","2","1024","2","48000","-16","experiment","3","odd","6","373331","373334","375544","374337","372298","13444","94396","360173","89167","13557","377548","377944","16324","377548","NA","SternbergTask","34","41924.0","60","1024"
"57","57","697","697","#3d3846","experiment","legacy","legacy","legacy","1","undefined","1","right","60","60","60","60","60","0","0","60","0","0","60","60","0","60","0","Thu Oct 19 12:47:04 2023","The main experiment item","True","SternbergTask.osexp","/Users/RMILLER1/Library/CloudStorage/OneDrive-tarleton.edu(NTNET)/TSU Online Classes/Graduate Class/ Adv Quant Methods and Design","False","mono","False","18","no","white","no","no","768","legacy","48","11","/Users/RMILLER1/Library/CloudStorage/OneDrive-tarleton.edu(NTNET)/TSU Online Classes/Graduate Class/ Adv Quant Methods and Design/Sternberg/RM-subject-3.csv","legacy","7 1","Melodramatic Milgram","4.0.5","0","n","0","right","left","right","right","NA","611.0","5228","2736","611","NA","2","legacy","2","1024","2","48000","-16","experiment","3","odd","8","378984","378988","381195","379990","377949","13444","94396","360173","89167","13557","383200","383811","16324","383199","NA","SternbergTask","35","42535.0","61","1024"
"56","56","698","698","#3d3846","experiment","legacy","legacy","legacy","0","undefined","0","right","61","61","61","61","61","0","0","61","0","0","61","61","0","61","0","Thu Oct 19 12:47:04 2023","The main experiment item","True","SternbergTask.osexp","/Users/RMILLER1/Library/CloudStorage/OneDrive-tarleton.edu(NTNET)/TSU Online Classes/Graduate Class/ Adv Quant Methods and Design","False","mono","False","18","no","white","no","no","768","legacy","49","11","/Users/RMILLER1/Library/CloudStorage/OneDrive-tarleton.edu(NTNET)/TSU Online Classes/Graduate Class/ Adv Quant Methods and Design/Sternberg/RM-subject-3.csv","legacy","1 4 9 3","Melodramatic Milgram","4.0.5","0","n","0","left","left","right","left","NA","753.0","5228","2736","753","NA","2","legacy","4","1024","2","48000","-16","experiment","3","odd","5","384848","384850","387058","385853","383816","13444","94396","360173","89167","13557","389066","389820","16324","389066","NA","SternbergTask","35","43288.0","62","1024"
"57","57","698","698","#3d3846","experiment","legacy","legacy","legacy","1","undefined","1","right","62","62","62","62","62","0","0","62","0","0","62","62","0","62","0","Thu Oct 19 12:47:04 2023","The main experiment item","True","SternbergTask.osexp","/Users/RMILLER1/Library/CloudStorage/OneDrive-tarleton.edu(NTNET)/TSU Online Classes/Graduate Class/ Adv Quant Methods and Design","False","mono","False","18","no","white","no","no","768","legacy","50","11","/Users/RMILLER1/Library/CloudStorage/OneDrive-tarleton.edu(NTNET)/TSU Online Classes/Graduate Class/ Adv Quant Methods and Design/Sternberg/RM-subject-3.csv","legacy","9 7 4 5 8","Melodramatic Milgram","4.0.5","0","n","0","right","left","right","right","NA","726.0","5228","2736","726","NA","2","legacy","5","1024","2","48000","-16","experiment","3","odd","6","390863","390867","393076","391870","383816","13444","94396","389828","89167","13557","395079","395805","16324","395079","NA","SternbergTask","36","44014.0","63","1024"
"57","57","694","694","#3d3846","experiment","legacy","legacy","legacy","1","undefined","1","left","63","63","63","63","63","0","0","63","0","0","63","63","0","63","0","Thu Oct 19 12:47:04 2023","The main experiment item","True","SternbergTask.osexp","/Users/RMILLER1/Library/CloudStorage/OneDrive-tarleton.edu(NTNET)/TSU Online Classes/Graduate Class/ Adv Quant Methods and Design","False","mono","False","18","no","white","no","no","768","legacy","51","11","/Users/RMILLER1/Library/CloudStorage/OneDrive-tarleton.edu(NTNET)/TSU Online Classes/Graduate Class/ Adv Quant Methods and Design/Sternberg/RM-subject-3.csv","legacy","4","Melodramatic Milgram","4.0.5","1","y","0","left","left","right","left","NA","404.0","5228","2736","404","NA","2","legacy","1","1024","2","48000","-16","experiment","3","odd","4","396834","396836","399044","397839","395808","13444","94396","389828","89167","13557","401048","401452","16324","401047","NA","SternbergTask","37","44418.0","64","1024"
"56","56","714","714","#3d3846","experiment","legacy","legacy","legacy","0","undefined","0","right","64","64","64","64","64","0","0","64","0","0","64","64","0","64","0","Thu Oct 19 12:47:04 2023","The main experiment item","True","SternbergTask.osexp","/Users/RMILLER1/Library/CloudStorage/OneDrive-tarleton.edu(NTNET)/TSU Online Classes/Graduate Class/ Adv Quant Methods and Design","False","mono","False","18","no","white","no","no","768","legacy","52","11","/Users/RMILLER1/Library/CloudStorage/OneDrive-tarleton.edu(NTNET)/TSU Online Classes/Graduate Class/ Adv Quant Methods and Design/Sternberg/RM-subject-3.csv","legacy","1 7 5 2 9","Melodramatic Milgram","4.0.5","0","n","0","None","left","right","None","NA","2000.0","5228","2736","2000","NA","2","legacy","5","1024","2","48000","-16","experiment","3","odd","3","402490","402496","404706","403499","401461","13444","94396","389828","89167","13557","406710","408710","16324","406710","NA","SternbergTask","37","46418.0","65","1024"
"57","57","710","710","#3d3846","experiment","legacy","legacy","legacy","1","undefined","1","left","65","65","65","65","65","0","0","65","0","0","65","65","0","65","0","Thu Oct 19 12:47:04 2023","The main experiment item","True","SternbergTask.osexp","/Users/RMILLER1/Library/CloudStorage/OneDrive-tarleton.edu(NTNET)/TSU Online Classes/Graduate Class/ Adv Quant Methods and Design","False","mono","False","18","no","white","no","no","768","legacy","53","11","/Users/RMILLER1/Library/CloudStorage/OneDrive-tarleton.edu(NTNET)/TSU Online Classes/Graduate Class/ Adv Quant Methods and Design/Sternberg/RM-subject-3.csv","legacy","4 1 5","Melodramatic Milgram","4.0.5","2","y","0","left","left","right","left","NA","473.0","5228","2736","473","NA","2","legacy","3","1024","2","48000","-16","experiment","3","odd","1","409750","409753","411958","410756","401461","13444","94396","408717","89167","13557","413961","414435","16324","413961","NA","SternbergTask","38","46891.0","66","1024"
"56","56","710","710","#3d3846","experiment","legacy","legacy","legacy","0","undefined","0","right","66","66","66","66","66","0","0","66","0","0","66","66","0","66","0","Thu Oct 19 12:47:04 2023","The main experiment item","True","SternbergTask.osexp","/Users/RMILLER1/Library/CloudStorage/OneDrive-tarleton.edu(NTNET)/TSU Online Classes/Graduate Class/ Adv Quant Methods and Design","False","mono","False","18","no","white","no","no","768","legacy","54","11","/Users/RMILLER1/Library/CloudStorage/OneDrive-tarleton.edu(NTNET)/TSU Online Classes/Graduate Class/ Adv Quant Methods and Design/Sternberg/RM-subject-3.csv","legacy","8 2 1 4 5 9","Melodramatic Milgram","4.0.5","0","n","0","left","left","right","left","NA","734.0","5228","2736","734","NA","2","legacy","6","1024","2","48000","-16","experiment","3","odd","7","415465","415469","417676","416471","414437","13444","94396","408717","89167","13557","419684","420419","16324","419683","NA","SternbergTask","38","47625.0","67","1024"
"57","57","709","709","#3d3846","experiment","legacy","legacy","legacy","1","undefined","1","right","67","67","67","67","67","0","0","67","0","0","67","67","0","67","0","Thu Oct 19 12:47:04 2023","The main experiment item","True","SternbergTask.osexp","/Users/RMILLER1/Library/CloudStorage/OneDrive-tarleton.edu(NTNET)/TSU Online Classes/Graduate Class/ Adv Quant Methods and Design","False","mono","False","18","no","white","no","no","768","legacy","55","11","/Users/RMILLER1/Library/CloudStorage/OneDrive-tarleton.edu(NTNET)/TSU Online Classes/Graduate Class/ Adv Quant Methods and Design/Sternberg/RM-subject-3.csv","legacy","6 9 4 5 2","Melodramatic Milgram","4.0.5","0","n","0","right","left","right","right","NA","641.0","5228","2736","641","NA","2","legacy","5","1024","2","48000","-16","experiment","3","odd","1","421455","421462","423669","422465","414437","13444","94396","420421","89167","13557","425675","426317","16324","425675","NA","SternbergTask","39","48266.0","68","1024"
"57","57","719","719","#3d3846","experiment","legacy","legacy","legacy","1","undefined","1","right","68","68","68","68","68","0","0","68","0","0","68","68","0","68","0","Thu Oct 19 12:47:04 2023","The main experiment item","True","SternbergTask.osexp","/Users/RMILLER1/Library/CloudStorage/OneDrive-tarleton.edu(NTNET)/TSU Online Classes/Graduate Class/ Adv Quant Methods and Design","False","mono","False","18","no","white","no","no","768","legacy","56","11","/Users/RMILLER1/Library/CloudStorage/OneDrive-tarleton.edu(NTNET)/TSU Online Classes/Graduate Class/ Adv Quant Methods and Design/Sternberg/RM-subject-3.csv","legacy","3 4 2","Melodramatic Milgram","4.0.5","0","n","0","right","left","right","right","NA","1387.0","5228","2736","1387","NA","2","legacy","3","1024","2","48000","-16","experiment","3","odd","5","427354","427357","429564","428360","426321","13444","94396","420421","89167","13557","431567","432954","16324","431567","NA","SternbergTask","40","49653.0","69","1024"
"58","58","722","722","#3d3846","experiment","legacy","legacy","legacy","1","undefined","1","right","69","69","69","69","69","0","0","69","0","0","69","69","0","69","0","Thu Oct 19 12:47:04 2023","The main experiment item","True","SternbergTask.osexp","/Users/RMILLER1/Library/CloudStorage/OneDrive-tarleton.edu(NTNET)/TSU Online Classes/Graduate Class/ Adv Quant Methods and Design","False","mono","False","18","no","white","no","no","768","legacy","57","11","/Users/RMILLER1/Library/CloudStorage/OneDrive-tarleton.edu(NTNET)/TSU Online Classes/Graduate Class/ Adv Quant Methods and Design/Sternberg/RM-subject-3.csv","legacy","7 9 1 6","Melodramatic Milgram","4.0.5","0","n","0","right","left","right","right","NA","921.0","5228","2736","921","NA","2","legacy","4","1024","2","48000","-16","experiment","3","odd","4","434002","434009","436215","435011","432959","13444","94396","420421","89167","13557","438219","439140","16324","438219","NA","SternbergTask","41","50574.0","70","1024"
"57","57","732","732","#3d3846","experiment","legacy","legacy","legacy","0","undefined","0","left","70","70","70","70","70","0","0","70","0","0","70","70","0","70","0","Thu Oct 19 12:47:04 2023","The main experiment item","True","SternbergTask.osexp","/Users/RMILLER1/Library/CloudStorage/OneDrive-tarleton.edu(NTNET)/TSU Online Classes/Graduate Class/ Adv Quant Methods and Design","False","mono","False","18","no","white","no","no","768","legacy","58","11","/Users/RMILLER1/Library/CloudStorage/OneDrive-tarleton.edu(NTNET)/TSU Online Classes/Graduate Class/ Adv Quant Methods and Design/Sternberg/RM-subject-3.csv","legacy","5 2 6","Melodramatic Milgram","4.0.5","2","y","0","right","left","right","right","NA","1423.0","5228","2736","1423","NA","2","legacy","3","1024","2","48000","-16","experiment","3","odd","2","440183","440188","442438","441192","439148","13444","94396","420421","89167","13557","444443","445866","16324","444443","NA","SternbergTask","41","51997.0","71","1024"
"58","58","736","736","#3d3846","experiment","legacy","legacy","legacy","1","undefined","1","left","71","71","71","71","71","0","0","71","0","0","71","71","0","71","0","Thu Oct 19 12:47:04 2023","The main experiment item","True","SternbergTask.osexp","/Users/RMILLER1/Library/CloudStorage/OneDrive-tarleton.edu(NTNET)/TSU Online Classes/Graduate Class/ Adv Quant Methods and Design","False","mono","False","18","no","white","no","no","768","legacy","59","11","/Users/RMILLER1/Library/CloudStorage/OneDrive-tarleton.edu(NTNET)/TSU Online Classes/Graduate Class/ Adv Quant Methods and Design/Sternberg/RM-subject-3.csv","legacy","9 5 3 8 4","Melodramatic Milgram","4.0.5","1","y","0","left","left","right","left","NA","1023.0","5228","2736","1023","NA","2","legacy","5","1024","2","48000","-16","experiment","3","odd","9","446918","446925","449141","447936","439148","13444","94396","445873","89167","13557","451145","452169","16324","451145","NA","SternbergTask","42","53020.0","72","1024"
"58","58","742","742","#3d3846","experiment","legacy","legacy","legacy","1","undefined","1","right","72","72","72","72","72","0","0","72","0","0","72","72","0","72","0","Thu Oct 19 12:47:04 2023","The main experiment item","True","SternbergTask.osexp","/Users/RMILLER1/Library/CloudStorage/OneDrive-tarleton.edu(NTNET)/TSU Online Classes/Graduate Class/ Adv Quant Methods and Design","False","mono","False","18","no","white","no","no","768","legacy","60","11","/Users/RMILLER1/Library/CloudStorage/OneDrive-tarleton.edu(NTNET)/TSU Online Classes/Graduate Class/ Adv Quant Methods and Design/Sternberg/RM-subject-3.csv","legacy","3 9 1","Melodramatic Milgram","4.0.5","0","n","0","right","left","right","right","NA","1148.0","5228","2736","1148","NA","2","legacy","3","1024","2","48000","-16","experiment","3","odd","7","453210","453214","455424","454218","452176","13444","94396","445873","89167","13557","457433","458582","16324","457432","NA","SternbergTask","43","54168.0","73","1024"
"59","59","739","739","#3d3846","experiment","legacy","legacy","legacy","1","undefined","1","left","73","73","73","73","73","0","0","73","0","0","73","73","0","73","0","Thu Oct 19 12:47:04 2023","The main experiment item","True","SternbergTask.osexp","/Users/RMILLER1/Library/CloudStorage/OneDrive-tarleton.edu(NTNET)/TSU Online Classes/Graduate Class/ Adv Quant Methods and Design","False","mono","False","18","no","white","no","no","768","legacy","61","11","/Users/RMILLER1/Library/CloudStorage/OneDrive-tarleton.edu(NTNET)/TSU Online Classes/Graduate Class/ Adv Quant Methods and Design/Sternberg/RM-subject-3.csv","legacy","7 1 3","Melodramatic Milgram","4.0.5","2","y","0","left","left","right","left","NA","539.0","5228","2736","539","NA","2","legacy","3","1024","2","48000","-16","experiment","3","odd","1","459629","459633","461842","460635","458589","13444","94396","445873","89167","13557","463845","464385","16324","463845","NA","SternbergTask","44","54707.0","74","1024"
"60","60","736","736","#3d3846","experiment","legacy","legacy","legacy","1","undefined","1","left","74","74","74","74","74","0","0","74","0","0","74","74","0","74","0","Thu Oct 19 12:47:04 2023","The main experiment item","True","SternbergTask.osexp","/Users/RMILLER1/Library/CloudStorage/OneDrive-tarleton.edu(NTNET)/TSU Online Classes/Graduate Class/ Adv Quant Methods and Design","False","mono","False","18","no","white","no","no","768","legacy","62","11","/Users/RMILLER1/Library/CloudStorage/OneDrive-tarleton.edu(NTNET)/TSU Online Classes/Graduate Class/ Adv Quant Methods and Design/Sternberg/RM-subject-3.csv","legacy","7 8 4 6 9 5","Melodramatic Milgram","4.0.5","4","y","0","left","left","right","left","NA","548.0","5228","2736","548","NA","2","legacy","6","1024","2","48000","-16","experiment","3","odd","6","465424","465430","467638","466432","464389","13444","94396","445873","89167","13557","469642","470191","16324","469642","NA","SternbergTask","45","55255.0","75","1024"
"60","60","736","736","#3d3846","experiment","legacy","legacy","legacy","1","undefined","1","left","75","75","75","75","75","0","0","75","0","0","75","75","0","75","0","Thu Oct 19 12:47:04 2023","The main experiment item","True","SternbergTask.osexp","/Users/RMILLER1/Library/CloudStorage/OneDrive-tarleton.edu(NTNET)/TSU Online Classes/Graduate Class/ Adv Quant Methods and Design","False","mono","False","18","no","white","no","no","768","legacy","63","11","/Users/RMILLER1/Library/CloudStorage/OneDrive-tarleton.edu(NTNET)/TSU Online Classes/Graduate Class/ Adv Quant Methods and Design/Sternberg/RM-subject-3.csv","legacy","9 1 7 2","Melodramatic Milgram","4.0.5","2","y","0","left","left","right","left","NA","704.0","5228","2736","704","NA","2","legacy","4","1024","2","48000","-16","experiment","3","odd","1","471235","471238","473444","472240","470200","13444","94396","445873","89167","13557","475448","476152","16324","475448","NA","SternbergTask","46","55959.0","76","1024"
"61","61","733","733","#3d3846","experiment","legacy","legacy","legacy","1","undefined","1","left","76","76","76","76","76","0","0","76","0","0","76","76","0","76","0","Thu Oct 19 12:47:04 2023","The main experiment item","True","SternbergTask.osexp","/Users/RMILLER1/Library/CloudStorage/OneDrive-tarleton.edu(NTNET)/TSU Online Classes/Graduate Class/ Adv Quant Methods and Design","False","mono","False","18","no","white","no","no","768","legacy","64","11","/Users/RMILLER1/Library/CloudStorage/OneDrive-tarleton.edu(NTNET)/TSU Online Classes/Graduate Class/ Adv Quant Methods and Design/Sternberg/RM-subject-3.csv","legacy","3 2 1 4 7","Melodramatic Milgram","4.0.5","2","y","0","left","left","right","left","NA","525.0","5228","2736","525","NA","2","legacy","5","1024","2","48000","-16","experiment","3","odd","2","477189","477194","479404","478199","476158","13444","94396","445873","89167","13557","481409","481935","16324","481409","NA","SternbergTask","47","56484.0","77","1024"
"60","60","749","749","#3d3846","experiment","legacy","legacy","legacy","0","undefined","0","left","77","77","77","77","77","0","0","77","0","0","77","77","0","77","0","Thu Oct 19 12:47:04 2023","The main experiment item","True","SternbergTask.osexp","/Users/RMILLER1/Library/CloudStorage/OneDrive-tarleton.edu(NTNET)/TSU Online Classes/Graduate Class/ Adv Quant Methods and Design","False","mono","False","18","no","white","no","no","768","legacy","65","11","/Users/RMILLER1/Library/CloudStorage/OneDrive-tarleton.edu(NTNET)/TSU Online Classes/Graduate Class/ Adv Quant Methods and Design/Sternberg/RM-subject-3.csv","legacy","9 5 8 1","Melodramatic Milgram","4.0.5","2","y","0","None","left","right","None","NA","2000.0","5228","2736","2000","NA","2","legacy","4","1024","2","48000","-16","experiment","3","odd","5","482972","482978","485192","483980","481938","13444","94396","445873","89167","13557","487197","489197","16324","487197","NA","SternbergTask","47","58484.0","78","1024"
"59","59","765","765","#3d3846","experiment","legacy","legacy","legacy","0","undefined","0","left","78","78","78","78","78","0","0","78","0","0","78","78","0","78","0","Thu Oct 19 12:47:04 2023","The main experiment item","True","SternbergTask.osexp","/Users/RMILLER1/Library/CloudStorage/OneDrive-tarleton.edu(NTNET)/TSU Online Classes/Graduate Class/ Adv Quant Methods and Design","False","mono","False","18","no","white","no","no","768","legacy","66","11","/Users/RMILLER1/Library/CloudStorage/OneDrive-tarleton.edu(NTNET)/TSU Online Classes/Graduate Class/ Adv Quant Methods and Design/Sternberg/RM-subject-3.csv","legacy","7 4 2 6 3 5","Melodramatic Milgram","4.0.5","6","y","0","None","left","right","None","NA","2000.0","5228","2736","2000","NA","2","legacy","6","1024","2","48000","-16","experiment","3","odd","5","490234","490237","492452","491246","481938","13444","94396","489200","89167","13557","494457","496457","16324","494457","NA","SternbergTask","47","60484.0","79","1024"
"58","58","781","781","#3d3846","experiment","legacy","legacy","legacy","0","undefined","0","left","79","79","79","79","79","0","0","79","0","0","79","79","0","79","0","Thu Oct 19 12:47:04 2023","The main experiment item","True","SternbergTask.osexp","/Users/RMILLER1/Library/CloudStorage/OneDrive-tarleton.edu(NTNET)/TSU Online Classes/Graduate Class/ Adv Quant Methods and Design","False","mono","False","18","no","white","no","no","768","legacy","67","11","/Users/RMILLER1/Library/CloudStorage/OneDrive-tarleton.edu(NTNET)/TSU Online Classes/Graduate Class/ Adv Quant Methods and Design/Sternberg/RM-subject-3.csv","legacy","7 1 8 5 6 2","Melodramatic Milgram","4.0.5","2","y","0","None","left","right","None","NA","2000.0","5228","2736","2000","NA","2","legacy","6","1024","2","48000","-16","experiment","3","odd","1","497506","497512","499734","498516","481938","13444","94396","496462","89167","13557","501740","503740","16324","501740","NA","SternbergTask","47","62484.0","80","1024"
"58","58","796","796","#3d3846","experiment","legacy","legacy","legacy","0","undefined","0","left","80","80","80","80","80","0","0","80","0","0","80","80","0","80","0","Thu Oct 19 12:47:04 2023","The main experiment item","True","SternbergTask.osexp","/Users/RMILLER1/Library/CloudStorage/OneDrive-tarleton.edu(NTNET)/TSU Online Classes/Graduate Class/ Adv Quant Methods and Design","False","mono","False","18","no","white","no","no","768","legacy","68","11","/Users/RMILLER1/Library/CloudStorage/OneDrive-tarleton.edu(NTNET)/TSU Online Classes/Graduate Class/ Adv Quant Methods and Design/Sternberg/RM-subject-3.csv","legacy","9 6 2 4 1","Melodramatic Milgram","4.0.5","4","y","0","None","left","right","None","NA","2000.0","5228","2736","2000","NA","2","legacy","5","1024","2","48000","-16","experiment","3","odd","4","504772","504779","506986","505780","481938","13444","94396","503749","89167","13557","508989","510989","16324","508989","NA","SternbergTask","47","64484.0","81","1024"
"57","57","810","810","#3d3846","experiment","legacy","legacy","legacy","0","undefined","0","left","81","81","81","81","81","0","0","81","0","0","81","81","0","81","0","Thu Oct 19 12:47:04 2023","The main experiment item","True","SternbergTask.osexp","/Users/RMILLER1/Library/CloudStorage/OneDrive-tarleton.edu(NTNET)/TSU Online Classes/Graduate Class/ Adv Quant Methods and Design","False","mono","False","18","no","white","no","no","768","legacy","69","11","/Users/RMILLER1/Library/CloudStorage/OneDrive-tarleton.edu(NTNET)/TSU Online Classes/Graduate Class/ Adv Quant Methods and Design/Sternberg/RM-subject-3.csv","legacy","8 7 3","Melodramatic Milgram","4.0.5","1","y","0","None","left","right","None","NA","2000.0","5228","2736","2000","NA","2","legacy","3","1024","2","48000","-16","experiment","3","odd","8","512021","512027","514238","513036","481938","13444","94396","510993","89167","13557","516241","518241","16324","516241","NA","SternbergTask","47","66484.0","82","1024"
"57","57","807","807","#3d3846","experiment","legacy","legacy","legacy","1","undefined","1","left","82","82","82","82","82","0","0","82","0","0","82","82","0","82","0","Thu Oct 19 12:47:04 2023","The main experiment item","True","SternbergTask.osexp","/Users/RMILLER1/Library/CloudStorage/OneDrive-tarleton.edu(NTNET)/TSU Online Classes/Graduate Class/ Adv Quant Methods and Design","False","mono","False","18","no","white","no","no","768","legacy","70","11","/Users/RMILLER1/Library/CloudStorage/OneDrive-tarleton.edu(NTNET)/TSU Online Classes/Graduate Class/ Adv Quant Methods and Design/Sternberg/RM-subject-3.csv","legacy","2 3 7 4","Melodramatic Milgram","4.0.5","1","y","0","left","left","right","left","NA","531.0","5228","2736","531","NA","2","legacy","4","1024","2","48000","-16","experiment","3","odd","2","519292","519296","521517","520312","481938","13444","94396","518247","89167","13557","523524","524055","16324","523524","NA","SternbergTask","48","67015.0","83","1024"
"57","57","819","819","#3d3846","experiment","legacy","legacy","legacy","0","undefined","0","right","83","83","83","83","83","0","0","83","0","0","83","83","0","83","0","Thu Oct 19 12:47:04 2023","The main experiment item","True","SternbergTask.osexp","/Users/RMILLER1/Library/CloudStorage/OneDrive-tarleton.edu(NTNET)/TSU Online Classes/Graduate Class/ Adv Quant Methods and Design","False","mono","False","18","no","white","no","no","768","legacy","71","11","/Users/RMILLER1/Library/CloudStorage/OneDrive-tarleton.edu(NTNET)/TSU Online Classes/Graduate Class/ Adv Quant Methods and Design/Sternberg/RM-subject-3.csv","legacy","1 7 5 2","Melodramatic Milgram","4.0.5","0","n","0","left","left","right","left","NA","1797.0","5228","2736","1797","NA","2","legacy","4","1024","2","48000","-16","experiment","3","odd","3","525126","525131","527345","526139","524094","13444","94396","518247","89167","13557","529350","531148","16324","529350","NA","SternbergTask","48","68812.0","84","1024"
"57","57","817","817","#3d3846","experiment","legacy","legacy","legacy","1","undefined","1","right","84","84","84","84","84","0","0","84","0","0","84","84","0","84","0","Thu Oct 19 12:47:04 2023","The main experiment item","True","SternbergTask.osexp","/Users/RMILLER1/Library/CloudStorage/OneDrive-tarleton.edu(NTNET)/TSU Online Classes/Graduate Class/ Adv Quant Methods and Design","False","mono","False","18","no","white","no","no","768","legacy","72","11","/Users/RMILLER1/Library/CloudStorage/OneDrive-tarleton.edu(NTNET)/TSU Online Classes/Graduate Class/ Adv Quant Methods and Design/Sternberg/RM-subject-3.csv","legacy","8 4 3 9","Melodramatic Milgram","4.0.5","0","n","0","right","left","right","right","NA","674.0","5228","2736","674","NA","2","legacy","4","1024","2","48000","-16","experiment","3","odd","5","532176","532180","534387","533184","524094","13444","94396","531152","89167","13557","536394","537069","16324","536394","NA","SternbergTask","49","69486.0","85","1024"
"56","56","815","815","#3d3846","experiment","legacy","legacy","legacy","0","undefined","0","right","85","85","85","85","85","0","0","85","0","0","85","85","0","85","0","Thu Oct 19 12:47:04 2023","The main experiment item","True","SternbergTask.osexp","/Users/RMILLER1/Library/CloudStorage/OneDrive-tarleton.edu(NTNET)/TSU Online Classes/Graduate Class/ Adv Quant Methods and Design","False","mono","False","18","no","white","no","no","768","legacy","73","11","/Users/RMILLER1/Library/CloudStorage/OneDrive-tarleton.edu(NTNET)/TSU Online Classes/Graduate Class/ Adv Quant Methods and Design/Sternberg/RM-subject-3.csv","legacy","1 4 9 2 5","Melodramatic Milgram","4.0.5","0","n","0","left","left","right","left","NA","670.0","5228","2736","670","NA","2","legacy","5","1024","2","48000","-16","experiment","3","odd","7","538107","538110","540320","539113","537072","13444","94396","531152","89167","13557","542330","543001","16324","542329","NA","SternbergTask","49","70156.0","86","1024"
"57","57","816","816","#3d3846","experiment","legacy","legacy","legacy","1","undefined","1","left","86","86","86","86","86","0","0","86","0","0","86","86","0","86","0","Thu Oct 19 12:47:04 2023","The main experiment item","True","SternbergTask.osexp","/Users/RMILLER1/Library/CloudStorage/OneDrive-tarleton.edu(NTNET)/TSU Online Classes/Graduate Class/ Adv Quant Methods and Design","False","mono","False","18","no","white","no","no","768","legacy","74","11","/Users/RMILLER1/Library/CloudStorage/OneDrive-tarleton.edu(NTNET)/TSU Online Classes/Graduate Class/ Adv Quant Methods and Design/Sternberg/RM-subject-3.csv","legacy","6 9 3 1","Melodramatic Milgram","4.0.5","4","y","0","left","left","right","left","NA","849.0","5228","2736","849","NA","2","legacy","4","1024","2","48000","-16","experiment","3","odd","1","544037","544039","546251","545044","537072","13444","94396","543004","89167","13557","548254","549104","16324","548253","NA","SternbergTask","50","71005.0","87","1024"
"56","56","819","819","#3d3846","experiment","legacy","legacy","legacy","0","undefined","0","right","87","87","87","87","87","0","0","87","0","0","87","87","0","87","0","Thu Oct 19 12:47:04 2023","The main experiment item","True","SternbergTask.osexp","/Users/RMILLER1/Library/CloudStorage/OneDrive-tarleton.edu(NTNET)/TSU Online Classes/Graduate Class/ Adv Quant Methods and Design","False","mono","False","18","no","white","no","no","768","legacy","75","11","/Users/RMILLER1/Library/CloudStorage/OneDrive-tarleton.edu(NTNET)/TSU Online Classes/Graduate Class/ Adv Quant Methods and Design/Sternberg/RM-subject-3.csv","legacy","2 3 8 5 6 7","Melodramatic Milgram","4.0.5","0","n","0","left","left","right","left","NA","1117.0","5228","2736","1117","NA","2","legacy","6","1024","2","48000","-16","experiment","3","odd","1","550131","550134","552345","551140","549107","13444","94396","543004","89167","13557","554349","555467","16324","554349","NA","SternbergTask","50","72122.0","88","1024"
"57","57","822","822","#3d3846","experiment","legacy","legacy","legacy","1","undefined","1","right","88","88","88","88","88","0","0","88","0","0","88","88","0","88","0","Thu Oct 19 12:47:04 2023","The main experiment item","True","SternbergTask.osexp","/Users/RMILLER1/Library/CloudStorage/OneDrive-tarleton.edu(NTNET)/TSU Online Classes/Graduate Class/ Adv Quant Methods and Design","False","mono","False","18","no","white","no","no","768","legacy","76","11","/Users/RMILLER1/Library/CloudStorage/OneDrive-tarleton.edu(NTNET)/TSU Online Classes/Graduate Class/ Adv Quant Methods and Design/Sternberg/RM-subject-3.csv","legacy","1","Melodramatic Milgram","4.0.5","0","n","0","right","left","right","right","NA","1067.0","5228","2736","1067","NA","2","legacy","1","1024","2","48000","-16","experiment","3","odd","7","556500","556502","558719","557509","549107","13444","94396","555469","89167","13557","560722","561789","16324","560722","NA","SternbergTask","51","73189.0","89","1024"
"57","57","824","824","#3d3846","experiment","legacy","legacy","legacy","1","undefined","1","left","89","89","89","89","89","0","0","89","0","0","89","89","0","89","0","Thu Oct 19 12:47:04 2023","The main experiment item","True","SternbergTask.osexp","/Users/RMILLER1/Library/CloudStorage/OneDrive-tarleton.edu(NTNET)/TSU Online Classes/Graduate Class/ Adv Quant Methods and Design","False","mono","False","18","no","white","no","no","768","legacy","77","11","/Users/RMILLER1/Library/CloudStorage/OneDrive-tarleton.edu(NTNET)/TSU Online Classes/Graduate Class/ Adv Quant Methods and Design/Sternberg/RM-subject-3.csv","legacy","9 8 4","Melodramatic Milgram","4.0.5","1","y","0","left","left","right","left","NA","994.0","5228","2736","994","NA","2","legacy","3","1024","2","48000","-16","experiment","3","odd","9","562828","562830","565046","563836","561794","13444","94396","555469","89167","13557","567049","568044","16324","567049","NA","SternbergTask","52","74183.0","90","1024"
"58","58","820","820","#3d3846","experiment","legacy","legacy","legacy","1","undefined","1","left","90","90","90","90","90","0","0","90","0","0","90","90","0","90","0","Thu Oct 19 12:47:04 2023","The main experiment item","True","SternbergTask.osexp","/Users/RMILLER1/Library/CloudStorage/OneDrive-tarleton.edu(NTNET)/TSU Online Classes/Graduate Class/ Adv Quant Methods and Design","False","mono","False","18","no","white","no","no","768","legacy","78","11","/Users/RMILLER1/Library/CloudStorage/OneDrive-tarleton.edu(NTNET)/TSU Online Classes/Graduate Class/ Adv Quant Methods and Design/Sternberg/RM-subject-3.csv","legacy","8 9 5 7 1 6","Melodramatic Milgram","4.0.5","4","y","0","left","left","right","left","NA","479.0","5228","2736","479","NA","2","legacy","6","1024","2","48000","-16","experiment","3","odd","7","569083","569090","571299","570092","568051","13444","94396","555469","89167","13557","573302","573782","16324","573302","NA","SternbergTask","53","74662.0","91","1024"
"58","58","820","820","#3d3846","experiment","legacy","legacy","legacy","1","undefined","1","left","91","91","91","91","91","0","0","91","0","0","91","91","0","91","0","Thu Oct 19 12:47:04 2023","The main experiment item","True","SternbergTask.osexp","/Users/RMILLER1/Library/CloudStorage/OneDrive-tarleton.edu(NTNET)/TSU Online Classes/Graduate Class/ Adv Quant Methods and Design","False","mono","False","18","no","white","no","no","768","legacy","79","11","/Users/RMILLER1/Library/CloudStorage/OneDrive-tarleton.edu(NTNET)/TSU Online Classes/Graduate Class/ Adv Quant Methods and Design/Sternberg/RM-subject-3.csv","legacy","2 4 6 9","Melodramatic Milgram","4.0.5","3","y","0","left","left","right","left","NA","860.0","5228","2736","860","NA","2","legacy","4","1024","2","48000","-16","experiment","3","odd","6","574818","574825","577039","575832","573786","13444","94396","555469","89167","13557","579042","579903","16324","579042","NA","SternbergTask","54","75522.0","92","1024"
"59","59","819","819","#3d3846","experiment","legacy","legacy","legacy","1","undefined","1","right","92","92","92","92","92","0","0","92","0","0","92","92","0","92","0","Thu Oct 19 12:47:04 2023","The main experiment item","True","SternbergTask.osexp","/Users/RMILLER1/Library/CloudStorage/OneDrive-tarleton.edu(NTNET)/TSU Online Classes/Graduate Class/ Adv Quant Methods and Design","False","mono","False","18","no","white","no","no","768","legacy","80","11","/Users/RMILLER1/Library/CloudStorage/OneDrive-tarleton.edu(NTNET)/TSU Online Classes/Graduate Class/ Adv Quant Methods and Design/Sternberg/RM-subject-3.csv","legacy","4 2 7 6 1 3","Melodramatic Milgram","4.0.5","0","n","0","right","left","right","right","NA","666.0","5228","2736","666","NA","2","legacy","6","1024","2","48000","-16","experiment","3","odd","8","580939","580942","583153","581948","579906","13444","94396","555469","89167","13557","585157","585824","16324","585157","NA","SternbergTask","55","76188.0","93","1024"
"59","59","816","816","#3d3846","experiment","legacy","legacy","legacy","1","undefined","1","left","93","93","93","93","93","0","0","93","0","0","93","93","0","93","0","Thu Oct 19 12:47:04 2023","The main experiment item","True","SternbergTask.osexp","/Users/RMILLER1/Library/CloudStorage/OneDrive-tarleton.edu(NTNET)/TSU Online Classes/Graduate Class/ Adv Quant Methods and Design","False","mono","False","18","no","white","no","no","768","legacy","81","11","/Users/RMILLER1/Library/CloudStorage/OneDrive-tarleton.edu(NTNET)/TSU Online Classes/Graduate Class/ Adv Quant Methods and Design/Sternberg/RM-subject-3.csv","legacy","3 5 7 1","Melodramatic Milgram","4.0.5","3","y","0","left","left","right","left","NA","549.0","5228","2736","549","NA","2","legacy","4","1024","2","48000","-16","experiment","3","odd","7","586859","586864","589073","587868","585828","13444","94396","555469","89167","13557","591077","591627","16324","591077","NA","SternbergTask","56","76737.0","94","1024"
"60","60","814","814","#3d3846","experiment","legacy","legacy","legacy","1","undefined","1","left","94","94","94","94","94","0","0","94","0","0","94","94","0","94","0","Thu Oct 19 12:47:04 2023","The main experiment item","True","SternbergTask.osexp","/Users/RMILLER1/Library/CloudStorage/OneDrive-tarleton.edu(NTNET)/TSU Online Classes/Graduate Class/ Adv Quant Methods and Design","False","mono","False","18","no","white","no","no","768","legacy","82","11","/Users/RMILLER1/Library/CloudStorage/OneDrive-tarleton.edu(NTNET)/TSU Online Classes/Graduate Class/ Adv Quant Methods and Design/Sternberg/RM-subject-3.csv","legacy","7 2 3","Melodramatic Milgram","4.0.5","3","y","0","left","left","right","left","NA","668.0","5228","2736","668","NA","2","legacy","3","1024","2","48000","-16","experiment","3","odd","3","592657","592659","594868","593660","591632","13444","94396","555469","89167","13557","596871","597540","16324","596871","NA","SternbergTask","57","77405.0","95","1024"
"59","59","815","815","#3d3846","experiment","legacy","legacy","legacy","0","undefined","0","right","95","95","95","95","95","0","0","95","0","0","95","95","0","95","0","Thu Oct 19 12:47:04 2023","The main experiment item","True","SternbergTask.osexp","/Users/RMILLER1/Library/CloudStorage/OneDrive-tarleton.edu(NTNET)/TSU Online Classes/Graduate Class/ Adv Quant Methods and Design","False","mono","False","18","no","white","no","no","768","legacy","83","11","/Users/RMILLER1/Library/CloudStorage/OneDrive-tarleton.edu(NTNET)/TSU Online Classes/Graduate Class/ Adv Quant Methods and Design/Sternberg/RM-subject-3.csv","legacy","5 7 3","Melodramatic Milgram","4.0.5","0","n","0","left","left","right","left","NA","878.0","5228","2736","878","NA","2","legacy","3","1024","2","48000","-16","experiment","3","odd","9","598574","598578","600785","599582","597542","13444","94396","555469","89167","13557","602788","603667","16324","602788","NA","SternbergTask","57","78283.0","96","1024"
"58","58","817","817","#3d3846","experiment","legacy","legacy","legacy","0","undefined","0","right","96","96","96","96","96","0","0","96","0","0","96","96","0","96","0","Thu Oct 19 12:47:04 2023","The main experiment item","True","SternbergTask.osexp","/Users/RMILLER1/Library/CloudStorage/OneDrive-tarleton.edu(NTNET)/TSU Online Classes/Graduate Class/ Adv Quant Methods and Design","False","mono","False","18","no","white","no","no","768","legacy","84","11","/Users/RMILLER1/Library/CloudStorage/OneDrive-tarleton.edu(NTNET)/TSU Online Classes/Graduate Class/ Adv Quant Methods and Design/Sternberg/RM-subject-3.csv","legacy","6 9 4 5 3 2","Melodramatic Milgram","4.0.5","0","n","0","left","left","right","left","NA","1033.0","5228","2736","1033","NA","2","legacy","6","1024","2","48000","-16","experiment","3","odd","8","604703","604709","606925","605712","597542","13444","94396","603671","89167","13557","608931","609965","16324","608931","NA","SternbergTask","57","79316.0","97","1024"
"58","58","819","819","#3d3846","experiment","legacy","legacy","legacy","0","undefined","0","right","97","97","97","97","97","0","0","97","0","0","97","97","0","97","0","Thu Oct 19 12:47:04 2023","The main experiment item","True","SternbergTask.osexp","/Users/RMILLER1/Library/CloudStorage/OneDrive-tarleton.edu(NTNET)/TSU Online Classes/Graduate Class/ Adv Quant Methods and Design","False","mono","False","18","no","white","no","no","768","legacy","85","11","/Users/RMILLER1/Library/CloudStorage/OneDrive-tarleton.edu(NTNET)/TSU Online Classes/Graduate Class/ Adv Quant Methods and Design/Sternberg/RM-subject-3.csv","legacy","7 6 4 8 1 2","Melodramatic Milgram","4.0.5","0","n","0","left","left","right","left","NA","979.0","5228","2736","979","NA","2","legacy","6","1024","2","48000","-16","experiment","3","odd","9","611006","611010","613226","612013","597542","13444","94396","609970","89167","13557","615236","616215","16324","615235","NA","SternbergTask","57","80295.0","98","1024"
"57","57","817","817","#3d3846","experiment","legacy","legacy","legacy","0","undefined","0","right","98","98","98","98","98","0","0","98","0","0","98","98","0","98","0","Thu Oct 19 12:47:04 2023","The main experiment item","True","SternbergTask.osexp","/Users/RMILLER1/Library/CloudStorage/OneDrive-tarleton.edu(NTNET)/TSU Online Classes/Graduate Class/ Adv Quant Methods and Design","False","mono","False","18","no","white","no","no","768","legacy","86","11","/Users/RMILLER1/Library/CloudStorage/OneDrive-tarleton.edu(NTNET)/TSU Online Classes/Graduate Class/ Adv Quant Methods and Design/Sternberg/RM-subject-3.csv","legacy","7 9","Melodramatic Milgram","4.0.5","0","n","0","left","left","right","left","NA","642.0","5228","2736","642","NA","2","legacy","2","1024","2","48000","-16","experiment","3","odd","1","617295","617297","619507","618302","597542","13444","94396","616221","89167","13557","621512","622154","16324","621511","NA","SternbergTask","57","80937.0","99","1024"
"58","58","818","818","#3d3846","experiment","legacy","legacy","legacy","1","undefined","1","right","99","99","99","99","99","0","0","99","0","0","99","99","0","99","0","Thu Oct 19 12:47:04 2023","The main experiment item","True","SternbergTask.osexp","/Users/RMILLER1/Library/CloudStorage/OneDrive-tarleton.edu(NTNET)/TSU Online Classes/Graduate Class/ Adv Quant Methods and Design","False","mono","False","18","no","white","no","no","768","legacy","87","11","/Users/RMILLER1/Library/CloudStorage/OneDrive-tarleton.edu(NTNET)/TSU Online Classes/Graduate Class/ Adv Quant Methods and Design/Sternberg/RM-subject-3.csv","legacy","5 3 2 6 9 8","Melodramatic Milgram","4.0.5","0","n","0","right","left","right","right","NA","873.0","5228","2736","873","NA","2","legacy","6","1024","2","48000","-16","experiment","3","odd","4","623188","623190","625399","624193","597542","13444","94396","622157","89167","13557","627403","628277","16324","627402","NA","SternbergTask","58","81810.0","100","1024"
