"acc","accuracy","average_response_time","avg_rt","background","block","canvas_backend","clock_backend","color_backend","compensation","coordinates","correct","correct_instuction1","correct_keyboard_response","correct_response","count_ISI","count_correctFeedback","count_expSequence","count_experiment","count_experimentLoop","count_fixation","count_getting_started","count_incorrectFeedback","count_instruction2","count_instuction1","count_keyboard_response","count_logger","count_memorySet","count_practiceLoop","count_prode","count_thankYou","count_welcome","datetime","description","disable_garbage_collection","experiment_file","experiment_path","font_bold","font_family","font_italic","font_size","font_underline","foreground","form_clicks","fullscreen","height","keyboard_backend","live_row","live_row_practiceLoop","logfile","mouse_backend","numberSet","opensesame_codename","opensesame_version","posInSet","present","repeat_cycle","response","response_instruction2","response_instuction1","response_keyboard_response","response_thankYou","response_time","response_time_instruction2","response_time_instuction1","response_time_keyboard_response","response_time_thankYou","response_time_welcome","response_welcome","round_decimals","sampler_backend","setSize","sound_buf_size","sound_channels","sound_freq","sound_sample_size","start","subject_nr","subject_parity","target","time_ISI","time_correctFeedback","time_expSequence","time_experiment","time_experimentLoop","time_fixation","time_getting_started","time_incorrectFeedback","time_instruction2","time_instuction1","time_keyboard_response","time_logger","time_memorySet","time_practiceLoop","time_prode","time_thankYou","time_welcome","title","total_correct","total_response_time","total_responses","uniform_coordinates","width"
"100","100","877","877","black","practice","legacy","legacy","legacy","0","uniform","1","undefined","1","right","0","0","0","0","0","0","NA","0","0","0","0","0","0","0","0","0","NA","Sun Oct 18 08:11:40 2020","The main experiment item","yes","SternbergTask.osexp","/Users/Arianna/Desktop","no","mono","no","18","no","white","no","yes","768","legacy","0","0","/Users/Arianna/Downloads/AG-subject-1.csv","legacy","2 1","Lentiform Loewenfeld","3.3.3","0","n","0","right","NA","left","right","NA","877","NA","25108","877","NA","NA","NA","2","legacy","2","1024","2","48000","-16","experiment","1","odd","5","32222","NA","29978","4461","NA","29991","NA","NA","NA","4476","34235","35113","31005","29608","34235","NA","NA","Sternberg Task","1","877","1","yes","1024"
"100","100","910","910","black","practice","legacy","legacy","legacy","0","uniform","1","undefined","1","right","1","1","1","0","0","1","NA","1","0","0","1","1","1","0","1","0","NA","Sun Oct 18 08:11:40 2020","The main experiment item","yes","SternbergTask.osexp","/Users/Arianna/Desktop","no","mono","no","18","no","white","no","yes","768","legacy","1","1","/Users/Arianna/Downloads/AG-subject-1.csv","legacy","3 1 9 4","Lentiform Loewenfeld","3.3.3","0","n","0","right","NA","left","right","NA","943","NA","25108","943","NA","NA","NA","2","legacy","4","1024","2","48000","-16","experiment","1","odd","6","38537","35175","36290","4461","NA","36304","NA","NA","NA","4476","40551","41495","37320","29608","40551","NA","NA","Sternberg Task","2","1820","2","yes","1024"
"100","100","847","847","black","practice","legacy","legacy","legacy","0","uniform","1","undefined","1","right","2","2","2","0","0","2","NA","2","0","0","2","2","2","0","2","0","NA","Sun Oct 18 08:11:40 2020","The main experiment item","yes","SternbergTask.osexp","/Users/Arianna/Desktop","no","mono","no","18","no","white","no","yes","768","legacy","2","2","/Users/Arianna/Downloads/AG-subject-1.csv","legacy","5 7 8 4 1 2","Lentiform Loewenfeld","3.3.3","0","n","0","right","NA","left","right","NA","721","NA","25108","721","NA","NA","NA","2","legacy","6","1024","2","48000","-16","experiment","1","odd","6","44842","41509","42596","4461","NA","42609","NA","NA","NA","4476","46856","47578","43624","29608","46856","NA","NA","Sternberg Task","3","2541","3","yes","1024"
"100","100","777.75","777.75","black","practice","legacy","legacy","legacy","0","uniform","1","undefined","1","left","3","3","3","0","0","3","NA","3","0","0","3","3","3","0","3","0","NA","Sun Oct 18 08:11:40 2020","The main experiment item","yes","SternbergTask.osexp","/Users/Arianna/Desktop","no","mono","no","18","no","white","no","yes","768","legacy","3","3","/Users/Arianna/Downloads/AG-subject-1.csv","legacy","4 3 1 7 9 8","Lentiform Loewenfeld","3.3.3","1","y","0","left","NA","left","left","NA","570","NA","25108","570","NA","NA","NA","2","legacy","6","1024","2","48000","-16","experiment","1","odd","4","50941","47605","48696","4461","NA","48709","NA","NA","NA","4476","52955","53526","49724","29608","52955","NA","NA","Sternberg Task","4","3111","4","yes","1024"
"100","100","747.4","747.4","black","practice","legacy","legacy","legacy","0","uniform","1","undefined","1","left","4","4","4","0","0","4","NA","4","0","0","4","4","4","0","4","0","NA","Sun Oct 18 08:11:40 2020","The main experiment item","yes","SternbergTask.osexp","/Users/Arianna/Desktop","no","mono","no","18","no","white","no","yes","768","legacy","4","4","/Users/Arianna/Downloads/AG-subject-1.csv","legacy","1 5 2 9","Lentiform Loewenfeld","3.3.3","2","y","0","left","NA","left","left","NA","626","NA","25108","626","NA","NA","NA","2","legacy","4","1024","2","48000","-16","experiment","1","odd","5","56885","53553","54639","4461","NA","54652","NA","NA","NA","4476","58898","59525","55667","29608","58898","NA","NA","Sternberg Task","5","3737","5","yes","1024"
"100","100","702.5","702.5","black","practice","legacy","legacy","legacy","0","uniform","1","undefined","1","left","5","5","5","0","0","5","NA","5","0","0","5","5","5","0","5","0","NA","Sun Oct 18 08:11:40 2020","The main experiment item","yes","SternbergTask.osexp","/Users/Arianna/Desktop","no","mono","no","18","no","white","no","yes","768","legacy","5","5","/Users/Arianna/Downloads/AG-subject-1.csv","legacy","4 8","Lentiform Loewenfeld","3.3.3","1","y","0","left","NA","left","left","NA","478","NA","25108","478","NA","NA","NA","2","legacy","2","1024","2","48000","-16","experiment","1","odd","4","62883","59552","60638","4461","NA","60651","NA","NA","NA","4476","64897","65376","61666","29608","64897","NA","NA","Sternberg Task","6","4215","6","yes","1024"
"100","100","690.7142857142857","690.7142857142857","black","practice","legacy","legacy","legacy","0","uniform","1","undefined","1","right","6","6","6","0","0","6","NA","6","0","0","6","6","6","0","6","0","NA","Sun Oct 18 08:11:40 2020","The main experiment item","yes","SternbergTask.osexp","/Users/Arianna/Desktop","no","mono","no","18","no","white","no","yes","768","legacy","6","6","/Users/Arianna/Downloads/AG-subject-1.csv","legacy","9 6 7 4 5","Lentiform Loewenfeld","3.3.3","0","n","0","right","NA","left","right","NA","620","NA","25108","620","NA","NA","NA","2","legacy","5","1024","2","48000","-16","experiment","1","odd","3","68733","65402","66487","4461","NA","66500","NA","NA","NA","4476","70747","71368","67516","29608","70747","NA","NA","Sternberg Task","7","4835","7","yes","1024"
"100","100","673.875","673.875","black","practice","legacy","legacy","legacy","0","uniform","1","undefined","1","left","7","7","7","0","0","7","NA","7","0","0","7","7","7","0","7","0","NA","Sun Oct 18 08:11:40 2020","The main experiment item","yes","SternbergTask.osexp","/Users/Arianna/Desktop","no","mono","no","18","no","white","no","yes","768","legacy","7","7","/Users/Arianna/Downloads/AG-subject-1.csv","legacy","2 9 4","Lentiform Loewenfeld","3.3.3","3","y","0","left","NA","left","left","NA","556","NA","25108","556","NA","NA","NA","2","legacy","3","1024","2","48000","-16","experiment","1","odd","4","74722","71394","72480","4461","NA","72492","NA","NA","NA","4476","76736","77293","73508","29608","76736","NA","NA","Sternberg Task","8","5391","8","yes","1024"
"100","100","670.2222222222222","670.2222222222222","black","practice","legacy","legacy","legacy","0","uniform","1","undefined","1","right","8","8","8","0","0","8","NA","8","0","0","8","8","8","0","8","0","NA","Sun Oct 18 08:11:40 2020","The main experiment item","yes","SternbergTask.osexp","/Users/Arianna/Desktop","no","mono","no","18","no","white","no","yes","768","legacy","8","8","/Users/Arianna/Downloads/AG-subject-1.csv","legacy","4 1 5","Lentiform Loewenfeld","3.3.3","0","n","0","right","NA","left","right","NA","641","NA","25108","641","NA","NA","NA","2","legacy","3","1024","2","48000","-16","experiment","1","odd","2","80652","77320","78406","4461","NA","78419","NA","NA","NA","4476","82666","83307","79434","29608","82666","NA","NA","Sternberg Task","9","6032","9","yes","1024"
"100","100","644.6","644.6","black","practice","legacy","legacy","legacy","0","uniform","1","undefined","1","left","9","9","9","0","0","9","NA","9","0","0","9","9","9","0","9","0","NA","Sun Oct 18 08:11:40 2020","The main experiment item","yes","SternbergTask.osexp","/Users/Arianna/Desktop","no","mono","no","18","no","white","no","yes","768","legacy","9","9","/Users/Arianna/Downloads/AG-subject-1.csv","legacy","6","Lentiform Loewenfeld","3.3.3","1","y","0","left","NA","left","left","NA","414","NA","25108","414","NA","NA","NA","2","legacy","1","1024","2","48000","-16","experiment","1","odd","6","86672","83337","84425","4461","NA","84439","NA","NA","NA","4476","88687","89101","85454","29608","88686","NA","NA","Sternberg Task","10","6446","10","yes","1024"
"100","100","635.5454545454545","635.5454545454545","black","practice","legacy","legacy","legacy","0","uniform","1","undefined","1","left","10","10","10","0","0","10","NA","10","0","0","10","10","10","0","10","0","NA","Sun Oct 18 08:11:40 2020","The main experiment item","yes","SternbergTask.osexp","/Users/Arianna/Desktop","no","mono","no","18","no","white","no","yes","768","legacy","10","10","/Users/Arianna/Downloads/AG-subject-1.csv","legacy","1 7 9 8 5","Lentiform Loewenfeld","3.3.3","4","y","0","left","NA","left","left","NA","545","NA","25108","545","NA","NA","NA","2","legacy","5","1024","2","48000","-16","experiment","1","odd","8","92463","89128","90217","4461","NA","90230","NA","NA","NA","4476","94478","95024","91245","29608","94477","NA","NA","Sternberg Task","11","6991","11","yes","1024"
"100","100","623.5833333333334","623.5833333333334","black","practice","legacy","legacy","legacy","0","uniform","1","undefined","1","right","11","11","11","0","0","11","NA","11","0","0","11","11","11","0","11","0","NA","Sun Oct 18 08:11:40 2020","The main experiment item","yes","SternbergTask.osexp","/Users/Arianna/Desktop","no","mono","no","18","no","white","no","yes","768","legacy","11","11","/Users/Arianna/Downloads/AG-subject-1.csv","legacy","5","Lentiform Loewenfeld","3.3.3","0","n","0","right","NA","left","right","NA","492","NA","25108","492","NA","NA","NA","2","legacy","1","1024","2","48000","-16","experiment","1","odd","3","98384","95051","96138","4461","NA","96152","NA","NA","NA","4476","100398","100891","97167","29608","100398","NA","NA","Sternberg Task","12","7483","12","yes","1024"
"100","100","620.8461538461538","620.8461538461538","black","experiment","legacy","legacy","legacy","0","uniform","1","undefined","1","left","12","12","12","0","0","12","NA","12","0","0","12","12","12","0","12","0","NA","Sun Oct 18 08:11:40 2020","The main experiment item","yes","SternbergTask.osexp","/Users/Arianna/Desktop","no","mono","no","18","no","white","no","yes","768","legacy","0","11","/Users/Arianna/Downloads/AG-subject-1.csv","legacy","7 1 3","Lentiform Loewenfeld","3.3.3","2","y","0","left","left","left","left","NA","588","11259","25108","588","NA","NA","NA","2","legacy","3","1024","2","48000","-16","experiment","1","odd","1","115556","100905","113307","4461","113221","113322","NA","NA","101961","4476","117570","118159","114337","29608","117570","NA","NA","Sternberg Task","13","8071","13","yes","1024"
"100","100","620.2857142857143","620.2857142857143","black","experiment","legacy","legacy","legacy","0","uniform","1","undefined","1","right","13","13","13","0","0","13","NA","13","0","0","13","13","13","0","13","0","NA","Sun Oct 18 08:11:40 2020","The main experiment item","yes","SternbergTask.osexp","/Users/Arianna/Desktop","no","mono","no","18","no","white","no","yes","768","legacy","1","11","/Users/Arianna/Downloads/AG-subject-1.csv","legacy","7 8 6 1","Lentiform Loewenfeld","3.3.3","0","n","0","right","left","left","right","NA","613","11259","25108","613","NA","NA","NA","2","legacy","4","1024","2","48000","-16","experiment","1","odd","3","121520","118186","119274","4461","113221","119287","NA","NA","101961","4476","123536","124150","120302","29608","123536","NA","NA","Sternberg Task","14","8684","14","yes","1024"
"100","100","622.0666666666667","622.0666666666667","black","experiment","legacy","legacy","legacy","0","uniform","1","undefined","1","right","14","14","14","0","0","14","NA","14","0","0","14","14","14","0","14","0","NA","Sun Oct 18 08:11:40 2020","The main experiment item","yes","SternbergTask.osexp","/Users/Arianna/Desktop","no","mono","no","18","no","white","no","yes","768","legacy","2","11","/Users/Arianna/Downloads/AG-subject-1.csv","legacy","6 3 1 7 9 8","Lentiform Loewenfeld","3.3.3","0","n","0","right","left","left","right","NA","647","11259","25108","647","NA","NA","NA","2","legacy","6","1024","2","48000","-16","experiment","1","odd","4","127509","124177","125263","4461","113221","125276","NA","NA","101961","4476","129522","130170","126291","29608","129522","NA","NA","Sternberg Task","15","9331","15","yes","1024"
"100","100","620.6875","620.6875","black","experiment","legacy","legacy","legacy","0","uniform","1","undefined","1","right","15","15","15","0","0","15","NA","15","0","0","15","15","15","0","15","0","NA","Sun Oct 18 08:11:40 2020","The main experiment item","yes","SternbergTask.osexp","/Users/Arianna/Desktop","no","mono","no","18","no","white","no","yes","768","legacy","3","11","/Users/Arianna/Downloads/AG-subject-1.csv","legacy","7 3 2 8","Lentiform Loewenfeld","3.3.3","0","n","0","right","left","left","right","NA","600","11259","25108","600","NA","NA","NA","2","legacy","4","1024","2","48000","-16","experiment","1","odd","4","133530","130198","131283","4461","113221","131296","NA","NA","101961","4476","135544","136145","132313","29608","135544","NA","NA","Sternberg Task","16","9931","16","yes","1024"
"94.11764705882354","94.11764705882354","621.2352941176471","621.2352941176471","black","experiment","legacy","legacy","legacy","0","uniform","0","undefined","0","left","16","16","16","0","0","16","NA","16","0","0","16","16","16","0","16","0","NA","Sun Oct 18 08:11:40 2020","The main experiment item","yes","SternbergTask.osexp","/Users/Arianna/Desktop","no","mono","no","18","no","white","no","yes","768","legacy","4","11","/Users/Arianna/Downloads/AG-subject-1.csv","legacy","8 5 3 7 4 6","Lentiform Loewenfeld","3.3.3","6","y","0","right","left","left","right","NA","630","11259","25108","630","NA","NA","NA","2","legacy","6","1024","2","48000","-16","experiment","1","odd","6","139504","136173","137259","4461","113221","137272","NA","NA","101961","4476","141517","142148","138286","29608","141516","NA","NA","Sternberg Task","16","10561","17","yes","1024"
"94.44444444444444","94.44444444444444","625.2222222222222","625.2222222222222","black","experiment","legacy","legacy","legacy","0","uniform","1","undefined","1","left","17","17","17","0","0","17","NA","17","0","0","17","17","17","0","17","0","NA","Sun Oct 18 08:11:40 2020","The main experiment item","yes","SternbergTask.osexp","/Users/Arianna/Desktop","no","mono","no","18","no","white","no","yes","768","legacy","5","11","/Users/Arianna/Downloads/AG-subject-1.csv","legacy","4 1 8 7 5","Lentiform Loewenfeld","3.3.3","3","y","0","left","left","left","left","NA","693","11259","25108","693","NA","NA","NA","2","legacy","5","1024","2","48000","-16","experiment","1","odd","8","145510","136173","143264","4461","113221","143277","NA","142175","101961","4476","147525","148219","144293","29608","147525","NA","NA","Sternberg Task","17","11254","18","yes","1024"
"94.73684210526316","94.73684210526316","628.421052631579","628.421052631579","black","experiment","legacy","legacy","legacy","0","uniform","1","undefined","1","left","18","18","18","0","0","18","NA","18","0","0","18","18","18","0","18","0","NA","Sun Oct 18 08:11:40 2020","The main experiment item","yes","SternbergTask.osexp","/Users/Arianna/Desktop","no","mono","no","18","no","white","no","yes","768","legacy","6","11","/Users/Arianna/Downloads/AG-subject-1.csv","legacy","8 7 3","Lentiform Loewenfeld","3.3.3","1","y","0","left","left","left","left","NA","686","11259","25108","686","NA","NA","NA","2","legacy","3","1024","2","48000","-16","experiment","1","odd","8","151576","148243","149329","4461","113221","149342","NA","142175","101961","4476","153590","154277","150358","29608","153589","NA","NA","Sternberg Task","18","11940","19","yes","1024"
"95","95","629.25","629.25","black","experiment","legacy","legacy","legacy","0","uniform","1","undefined","1","right","19","19","19","0","0","19","NA","19","0","0","19","19","19","0","19","0","NA","Sun Oct 18 08:11:40 2020","The main experiment item","yes","SternbergTask.osexp","/Users/Arianna/Desktop","no","mono","no","18","no","white","no","yes","768","legacy","7","11","/Users/Arianna/Downloads/AG-subject-1.csv","legacy","6 9 4 5 3 2","Lentiform Loewenfeld","3.3.3","0","n","0","right","left","left","right","NA","645","11259","25108","645","NA","NA","NA","2","legacy","6","1024","2","48000","-16","experiment","1","odd","8","157636","154304","155391","4461","113221","155404","NA","142175","101961","4476","159651","160297","156419","29608","159651","NA","NA","Sternberg Task","19","12585","20","yes","1024"
"95.23809523809524","95.23809523809524","624.1428571428571","624.1428571428571","black","experiment","legacy","legacy","legacy","0","uniform","1","undefined","1","left","20","20","20","0","0","20","NA","20","0","0","20","20","20","0","20","0","NA","Sun Oct 18 08:11:40 2020","The main experiment item","yes","SternbergTask.osexp","/Users/Arianna/Desktop","no","mono","no","18","no","white","no","yes","768","legacy","8","11","/Users/Arianna/Downloads/AG-subject-1.csv","legacy","2 3 7 4","Lentiform Loewenfeld","3.3.3","1","y","0","left","left","left","left","NA","522","11259","25108","522","NA","NA","NA","2","legacy","4","1024","2","48000","-16","experiment","1","odd","2","163662","160326","161416","4461","113221","161429","NA","142175","101961","4476","165676","166199","162444","29608","165676","NA","NA","Sternberg Task","20","13107","21","yes","1024"
"95.45454545454545","95.45454545454545","618.5","618.5","black","experiment","legacy","legacy","legacy","0","uniform","1","undefined","1","right","21","21","21","0","0","21","NA","21","0","0","21","21","21","0","21","0","NA","Sun Oct 18 08:11:40 2020","The main experiment item","yes","SternbergTask.osexp","/Users/Arianna/Desktop","no","mono","no","18","no","white","no","yes","768","legacy","9","11","/Users/Arianna/Downloads/AG-subject-1.csv","legacy","9","Lentiform Loewenfeld","3.3.3","0","n","0","right","left","left","right","NA","500","11259","25108","500","NA","NA","NA","2","legacy","1","1024","2","48000","-16","experiment","1","odd","6","169563","166226","167317","4461","113221","167330","NA","142175","101961","4476","171577","172078","168346","29608","171576","NA","NA","Sternberg Task","21","13607","22","yes","1024"
"95.65217391304348","95.65217391304348","621.0434782608696","621.0434782608696","black","experiment","legacy","legacy","legacy","0","uniform","1","undefined","1","left","22","22","22","0","0","22","NA","22","0","0","22","22","22","0","22","0","NA","Sun Oct 18 08:11:40 2020","The main experiment item","yes","SternbergTask.osexp","/Users/Arianna/Desktop","no","mono","no","18","no","white","no","yes","768","legacy","10","11","/Users/Arianna/Downloads/AG-subject-1.csv","legacy","2 3","Lentiform Loewenfeld","3.3.3","1","y","0","left","left","left","left","NA","677","11259","25108","677","NA","NA","NA","2","legacy","2","1024","2","48000","-16","experiment","1","odd","2","175437","172105","173190","4461","113221","173203","NA","142175","101961","4476","177451","178130","174219","29608","177451","NA","NA","Sternberg Task","22","14284","23","yes","1024"
"95.83333333333333","95.83333333333333","633.2916666666666","633.2916666666666","black","experiment","legacy","legacy","legacy","0","uniform","1","undefined","1","left","23","23","23","0","0","23","NA","23","0","0","23","23","23","0","23","0","NA","Sun Oct 18 08:11:40 2020","The main experiment item","yes","SternbergTask.osexp","/Users/Arianna/Desktop","no","mono","no","18","no","white","no","yes","768","legacy","11","11","/Users/Arianna/Downloads/AG-subject-1.csv","legacy","7 8 4 6 9 5","Lentiform Loewenfeld","3.3.3","4","y","0","left","left","left","left","NA","915","11259","25108","915","NA","NA","NA","2","legacy","6","1024","2","48000","-16","experiment","1","odd","6","181489","178155","179242","4461","113221","179255","NA","142175","101961","4476","183503","184419","180270","29608","183503","NA","NA","Sternberg Task","23","15199","24","yes","1024"
"96","96","634.88","634.88","black","experiment","legacy","legacy","legacy","0","uniform","1","undefined","1","right","24","24","24","0","0","24","NA","24","0","0","24","24","24","0","24","0","NA","Sun Oct 18 08:11:40 2020","The main experiment item","yes","SternbergTask.osexp","/Users/Arianna/Desktop","no","mono","no","18","no","white","no","yes","768","legacy","12","11","/Users/Arianna/Downloads/AG-subject-1.csv","legacy","1 4 9 2 5","Lentiform Loewenfeld","3.3.3","0","n","0","right","left","left","right","NA","673","11259","25108","673","NA","NA","NA","2","legacy","5","1024","2","48000","-16","experiment","1","odd","7","187778","184446","185532","4461","113221","185545","NA","142175","101961","4476","189792","190467","186560","29608","189792","NA","NA","Sternberg Task","24","15872","25","yes","1024"
"96.15384615384616","96.15384615384616","633.1923076923077","633.1923076923077","black","experiment","legacy","legacy","legacy","0","uniform","1","undefined","1","right","25","25","25","0","0","25","NA","25","0","0","25","25","25","0","25","0","NA","Sun Oct 18 08:11:40 2020","The main experiment item","yes","SternbergTask.osexp","/Users/Arianna/Desktop","no","mono","no","18","no","white","no","yes","768","legacy","13","11","/Users/Arianna/Downloads/AG-subject-1.csv","legacy","1 7 8 3 9","Lentiform Loewenfeld","3.3.3","0","n","0","right","left","left","right","NA","591","11259","25108","591","NA","NA","NA","2","legacy","5","1024","2","48000","-16","experiment","1","odd","2","193824","190494","191579","4461","113221","191592","NA","142175","101961","4476","195838","196430","192607","29608","195838","NA","NA","Sternberg Task","25","16463","26","yes","1024"
"96.29629629629629","96.29629629629629","632.5185185185185","632.5185185185185","black","experiment","legacy","legacy","legacy","0","uniform","1","undefined","1","right","26","26","26","0","0","26","NA","26","0","0","26","26","26","0","26","0","NA","Sun Oct 18 08:11:40 2020","The main experiment item","yes","SternbergTask.osexp","/Users/Arianna/Desktop","no","mono","no","18","no","white","no","yes","768","legacy","14","11","/Users/Arianna/Downloads/AG-subject-1.csv","legacy","5 3 2 6 9 8","Lentiform Loewenfeld","3.3.3","0","n","0","right","left","left","right","NA","615","11259","25108","615","NA","NA","NA","2","legacy","6","1024","2","48000","-16","experiment","1","odd","4","199788","196457","197542","4461","113221","197556","NA","142175","101961","4476","201802","202418","198571","29608","201802","NA","NA","Sternberg Task","26","17078","27","yes","1024"
"96.42857142857143","96.42857142857143","629.8571428571429","629.8571428571429","black","experiment","legacy","legacy","legacy","0","uniform","1","undefined","1","left","27","27","27","0","0","27","NA","27","0","0","27","27","27","0","27","0","NA","Sun Oct 18 08:11:40 2020","The main experiment item","yes","SternbergTask.osexp","/Users/Arianna/Desktop","no","mono","no","18","no","white","no","yes","768","legacy","15","11","/Users/Arianna/Downloads/AG-subject-1.csv","legacy","3 5 4 7","Lentiform Loewenfeld","3.3.3","1","y","0","left","left","left","left","NA","558","11259","25108","558","NA","NA","NA","2","legacy","4","1024","2","48000","-16","experiment","1","odd","3","205776","202445","203530","4461","113221","203543","NA","142175","101961","4476","207790","208350","204559","29608","207789","NA","NA","Sternberg Task","27","17636","28","yes","1024"
"96.55172413793103","96.55172413793103","625.0344827586207","625.0344827586207","black","experiment","legacy","legacy","legacy","0","uniform","1","undefined","1","left","28","28","28","0","0","28","NA","28","0","0","28","28","28","0","28","0","NA","Sun Oct 18 08:11:40 2020","The main experiment item","yes","SternbergTask.osexp","/Users/Arianna/Desktop","no","mono","no","18","no","white","no","yes","768","legacy","16","11","/Users/Arianna/Downloads/AG-subject-1.csv","legacy","6 2","Lentiform Loewenfeld","3.3.3","1","y","0","left","left","left","left","NA","490","11259","25108","490","NA","NA","NA","2","legacy","2","1024","2","48000","-16","experiment","1","odd","6","211698","208367","209452","4461","113221","209465","NA","142175","101961","4476","213712","214203","210481","29608","213712","NA","NA","Sternberg Task","28","18126","29","yes","1024"
"96.66666666666667","96.66666666666667","630.7666666666667","630.7666666666667","black","experiment","legacy","legacy","legacy","0","uniform","1","undefined","1","left","29","29","29","0","0","29","NA","29","0","0","29","29","29","0","29","0","NA","Sun Oct 18 08:11:40 2020","The main experiment item","yes","SternbergTask.osexp","/Users/Arianna/Desktop","no","mono","no","18","no","white","no","yes","768","legacy","17","11","/Users/Arianna/Downloads/AG-subject-1.csv","legacy","4 3 2 5 8","Lentiform Loewenfeld","3.3.3","2","y","0","left","left","left","left","NA","797","11259","25108","797","NA","NA","NA","2","legacy","5","1024","2","48000","-16","experiment","1","odd","3","217566","214230","215320","4461","113221","215333","NA","142175","101961","4476","219580","220378","216349","29608","219579","NA","NA","Sternberg Task","29","18923","30","yes","1024"
"93.54838709677419","93.54838709677419","631.5483870967741","631.5483870967741","black","experiment","legacy","legacy","legacy","0","uniform","0","undefined","0","left","30","30","30","0","0","30","NA","30","0","0","30","30","30","0","30","0","NA","Sun Oct 18 08:11:40 2020","The main experiment item","yes","SternbergTask.osexp","/Users/Arianna/Desktop","no","mono","no","18","no","white","no","yes","768","legacy","18","11","/Users/Arianna/Downloads/AG-subject-1.csv","legacy","6 9 3 1","Lentiform Loewenfeld","3.3.3","4","y","0","right","left","left","right","NA","655","11259","25108","655","NA","NA","NA","2","legacy","4","1024","2","48000","-16","experiment","1","odd","1","223732","220404","221489","4461","113221","221502","NA","142175","101961","4476","225747","226403","222517","29608","225747","NA","NA","Sternberg Task","29","19578","31","yes","1024"
"93.75","93.75","630.25","630.25","black","experiment","legacy","legacy","legacy","0","uniform","1","undefined","1","right","31","31","31","0","0","31","NA","31","0","0","31","31","31","0","31","0","NA","Sun Oct 18 08:11:40 2020","The main experiment item","yes","SternbergTask.osexp","/Users/Arianna/Desktop","no","mono","no","18","no","white","no","yes","768","legacy","19","11","/Users/Arianna/Downloads/AG-subject-1.csv","legacy","1 4 3 6 5","Lentiform Loewenfeld","3.3.3","0","n","0","right","left","left","right","NA","590","11259","25108","590","NA","NA","NA","2","legacy","5","1024","2","48000","-16","experiment","1","odd","8","229760","220404","227514","4461","113221","227527","NA","226429","101961","4476","231774","232366","228543","29608","231774","NA","NA","Sternberg Task","30","20168","32","yes","1024"
"93.93939393939394","93.93939393939394","631.3333333333334","631.3333333333334","black","experiment","legacy","legacy","legacy","0","uniform","1","undefined","1","right","32","32","32","0","0","32","NA","32","0","0","32","32","32","0","32","0","NA","Sun Oct 18 08:11:40 2020","The main experiment item","yes","SternbergTask.osexp","/Users/Arianna/Desktop","no","mono","no","18","no","white","no","yes","768","legacy","20","11","/Users/Arianna/Downloads/AG-subject-1.csv","legacy","3 9 8 1 6 4","Lentiform Loewenfeld","3.3.3","0","n","0","right","left","left","right","NA","666","11259","25108","666","NA","NA","NA","2","legacy","6","1024","2","48000","-16","experiment","1","odd","7","235719","232387","233473","4461","113221","233486","NA","226429","101961","4476","237733","238401","234501","29608","237732","NA","NA","Sternberg Task","31","20834","33","yes","1024"
"94.11764705882354","94.11764705882354","630.7647058823529","630.7647058823529","black","experiment","legacy","legacy","legacy","0","uniform","1","undefined","1","right","33","33","33","0","0","33","NA","33","0","0","33","33","33","0","33","0","NA","Sun Oct 18 08:11:40 2020","The main experiment item","yes","SternbergTask.osexp","/Users/Arianna/Desktop","no","mono","no","18","no","white","no","yes","768","legacy","21","11","/Users/Arianna/Downloads/AG-subject-1.csv","legacy","1 6 4","Lentiform Loewenfeld","3.3.3","0","n","0","right","left","left","right","NA","612","11259","25108","612","NA","NA","NA","2","legacy","3","1024","2","48000","-16","experiment","1","odd","7","241750","238416","239504","4461","113221","239517","NA","226429","101961","4476","243764","244377","240532","29608","243764","NA","NA","Sternberg Task","32","21446","34","yes","1024"
"94.28571428571429","94.28571428571429","631.6857142857143","631.6857142857143","black","experiment","legacy","legacy","legacy","0","uniform","1","undefined","1","right","34","34","34","0","0","34","NA","34","0","0","34","34","34","0","34","0","NA","Sun Oct 18 08:11:40 2020","The main experiment item","yes","SternbergTask.osexp","/Users/Arianna/Desktop","no","mono","no","18","no","white","no","yes","768","legacy","22","11","/Users/Arianna/Downloads/AG-subject-1.csv","legacy","2 8 9 4 1","Lentiform Loewenfeld","3.3.3","0","n","0","right","left","left","right","NA","663","11259","25108","663","NA","NA","NA","2","legacy","5","1024","2","48000","-16","experiment","1","odd","5","247734","244403","245488","4461","113221","245502","NA","226429","101961","4476","249748","250412","246517","29608","249748","NA","NA","Sternberg Task","33","22109","35","yes","1024"
"94.44444444444444","94.44444444444444","632.1111111111111","632.1111111111111","black","experiment","legacy","legacy","legacy","0","uniform","1","undefined","1","right","35","35","35","0","0","35","NA","35","0","0","35","35","35","0","35","0","NA","Sun Oct 18 08:11:40 2020","The main experiment item","yes","SternbergTask.osexp","/Users/Arianna/Desktop","no","mono","no","18","no","white","no","yes","768","legacy","23","11","/Users/Arianna/Downloads/AG-subject-1.csv","legacy","2 8 9","Lentiform Loewenfeld","3.3.3","0","n","0","right","left","left","right","NA","647","11259","25108","647","NA","NA","NA","2","legacy","3","1024","2","48000","-16","experiment","1","odd","6","253770","250439","251524","4461","113221","251537","NA","226429","101961","4476","255784","256432","252552","29608","255784","NA","NA","Sternberg Task","34","22756","36","yes","1024"
"94.5945945945946","94.5945945945946","633.6216216216217","633.6216216216217","black","experiment","legacy","legacy","legacy","0","uniform","1","undefined","1","left","36","36","36","0","0","36","NA","36","0","0","36","36","36","0","36","0","NA","Sun Oct 18 08:11:40 2020","The main experiment item","yes","SternbergTask.osexp","/Users/Arianna/Desktop","no","mono","no","18","no","white","no","yes","768","legacy","24","11","/Users/Arianna/Downloads/AG-subject-1.csv","legacy","8 3","Lentiform Loewenfeld","3.3.3","2","y","0","left","left","left","left","NA","688","11259","25108","688","NA","NA","NA","2","legacy","2","1024","2","48000","-16","experiment","1","odd","3","259794","256459","257548","4461","113221","257561","NA","226429","101961","4476","261808","262497","258576","29608","261808","NA","NA","Sternberg Task","35","23444","37","yes","1024"
"94.73684210526316","94.73684210526316","636.7368421052631","636.7368421052631","black","experiment","legacy","legacy","legacy","0","uniform","1","undefined","1","right","37","37","37","0","0","37","NA","37","0","0","37","37","37","0","37","0","NA","Sun Oct 18 08:11:40 2020","The main experiment item","yes","SternbergTask.osexp","/Users/Arianna/Desktop","no","mono","no","18","no","white","no","yes","768","legacy","25","11","/Users/Arianna/Downloads/AG-subject-1.csv","legacy","6 9 4 5 2","Lentiform Loewenfeld","3.3.3","0","n","0","right","left","left","right","NA","752","11259","25108","752","NA","NA","NA","2","legacy","5","1024","2","48000","-16","experiment","1","odd","1","265856","262524","263610","4461","113221","263623","NA","226429","101961","4476","267870","268623","264639","29608","267870","NA","NA","Sternberg Task","36","24196","38","yes","1024"
"94.87179487179488","94.87179487179488","637.6666666666666","637.6666666666666","black","experiment","legacy","legacy","legacy","0","uniform","1","undefined","1","left","38","38","38","0","0","38","NA","38","0","0","38","38","38","0","38","0","NA","Sun Oct 18 08:11:40 2020","The main experiment item","yes","SternbergTask.osexp","/Users/Arianna/Desktop","no","mono","no","18","no","white","no","yes","768","legacy","26","11","/Users/Arianna/Downloads/AG-subject-1.csv","legacy","6 9 7 4 5 1","Lentiform Loewenfeld","3.3.3","2","y","0","left","left","left","left","NA","673","11259","25108","673","NA","NA","NA","2","legacy","6","1024","2","48000","-16","experiment","1","odd","9","271984","268650","269737","4461","113221","269751","NA","226429","101961","4476","273998","274672","270767","29608","273998","NA","NA","Sternberg Task","37","24869","39","yes","1024"
"95","95","637.95","637.95","black","experiment","legacy","legacy","legacy","0","uniform","1","undefined","1","right","39","39","39","0","0","39","NA","39","0","0","39","39","39","0","39","0","NA","Sun Oct 18 08:11:40 2020","The main experiment item","yes","SternbergTask.osexp","/Users/Arianna/Desktop","no","mono","no","18","no","white","no","yes","768","legacy","27","11","/Users/Arianna/Downloads/AG-subject-1.csv","legacy","4 2 6 9","Lentiform Loewenfeld","3.3.3","0","n","0","right","left","left","right","NA","649","11259","25108","649","NA","NA","NA","2","legacy","4","1024","2","48000","-16","experiment","1","odd","7","278037","274696","275793","4461","113221","275806","NA","226429","101961","4476","280052","280702","276821","29608","280052","NA","NA","Sternberg Task","38","25518","40","yes","1024"
"95.1219512195122","95.1219512195122","636.3658536585366","636.3658536585366","black","experiment","legacy","legacy","legacy","0","uniform","1","undefined","1","left","40","40","40","0","0","40","NA","40","0","0","40","40","40","0","40","0","NA","Sun Oct 18 08:11:40 2020","The main experiment item","yes","SternbergTask.osexp","/Users/Arianna/Desktop","no","mono","no","18","no","white","no","yes","768","legacy","28","11","/Users/Arianna/Downloads/AG-subject-1.csv","legacy","4 9 7 8 5 3","Lentiform Loewenfeld","3.3.3","4","y","0","left","left","left","left","NA","573","11259","25108","573","NA","NA","NA","2","legacy","6","1024","2","48000","-16","experiment","1","odd","8","284061","280729","281816","4461","113221","281829","NA","226429","101961","4476","286075","286649","282844","29608","286074","NA","NA","Sternberg Task","39","26091","41","yes","1024"
"95.23809523809524","95.23809523809524","632.547619047619","632.547619047619","black","experiment","legacy","legacy","legacy","0","uniform","1","undefined","1","left","41","41","41","0","0","41","NA","41","0","0","41","41","41","0","41","0","NA","Sun Oct 18 08:11:40 2020","The main experiment item","yes","SternbergTask.osexp","/Users/Arianna/Desktop","no","mono","no","18","no","white","no","yes","768","legacy","29","11","/Users/Arianna/Downloads/AG-subject-1.csv","legacy","3 4 9 6 2 9","Lentiform Loewenfeld","3.3.3","5","y","0","left","left","left","left","NA","476","11259","25108","476","NA","NA","NA","2","legacy","6","1024","2","48000","-16","experiment","1","odd","2","290007","286676","287762","4461","113221","287775","NA","226429","101961","4476","292021","292498","288791","29608","292021","NA","NA","Sternberg Task","40","26567","42","yes","1024"
"95.34883720930233","95.34883720930233","632.1162790697674","632.1162790697674","black","experiment","legacy","legacy","legacy","0","uniform","1","undefined","1","right","42","42","42","0","0","42","NA","42","0","0","42","42","42","0","42","0","NA","Sun Oct 18 08:11:40 2020","The main experiment item","yes","SternbergTask.osexp","/Users/Arianna/Desktop","no","mono","no","18","no","white","no","yes","768","legacy","30","11","/Users/Arianna/Downloads/AG-subject-1.csv","legacy","5 3 8 7 2 4","Lentiform Loewenfeld","3.3.3","0","n","0","right","left","left","right","NA","614","11259","25108","614","NA","NA","NA","2","legacy","6","1024","2","48000","-16","experiment","1","odd","9","295857","292525","293611","4461","113221","293624","NA","226429","101961","4476","297871","298486","294640","29608","297871","NA","NA","Sternberg Task","41","27181","43","yes","1024"
"95.45454545454545","95.45454545454545","629.8863636363636","629.8863636363636","black","experiment","legacy","legacy","legacy","0","uniform","1","undefined","1","right","43","43","43","0","0","43","NA","43","0","0","43","43","43","0","43","0","NA","Sun Oct 18 08:11:40 2020","The main experiment item","yes","SternbergTask.osexp","/Users/Arianna/Desktop","no","mono","no","18","no","white","no","yes","768","legacy","31","11","/Users/Arianna/Downloads/AG-subject-1.csv","legacy","2 7 5","Lentiform Loewenfeld","3.3.3","0","n","0","right","left","left","right","NA","534","11259","25108","534","NA","NA","NA","2","legacy","3","1024","2","48000","-16","experiment","1","odd","8","301846","298513","299601","4461","113221","299613","NA","226429","101961","4476","303861","304396","300629","29608","303861","NA","NA","Sternberg Task","42","27715","44","yes","1024"
"95.55555555555556","95.55555555555556","628.3555555555556","628.3555555555556","black","experiment","legacy","legacy","legacy","0","uniform","1","undefined","1","left","44","44","44","0","0","44","NA","44","0","0","44","44","44","0","44","0","NA","Sun Oct 18 08:11:40 2020","The main experiment item","yes","SternbergTask.osexp","/Users/Arianna/Desktop","no","mono","no","18","no","white","no","yes","768","legacy","32","11","/Users/Arianna/Downloads/AG-subject-1.csv","legacy","4 6 2 5 1","Lentiform Loewenfeld","3.3.3","5","y","0","left","left","left","left","NA","561","11259","25108","561","NA","NA","NA","2","legacy","5","1024","2","48000","-16","experiment","1","odd","1","307753","304423","305508","4461","113221","305520","NA","226429","101961","4476","309768","310330","306536","29608","309767","NA","NA","Sternberg Task","43","28276","45","yes","1024"
"95.65217391304348","95.65217391304348","629.5434782608696","629.5434782608696","black","experiment","legacy","legacy","legacy","0","uniform","1","undefined","1","right","45","45","45","0","0","45","NA","45","0","0","45","45","45","0","45","0","NA","Sun Oct 18 08:11:40 2020","The main experiment item","yes","SternbergTask.osexp","/Users/Arianna/Desktop","no","mono","no","18","no","white","no","yes","768","legacy","33","11","/Users/Arianna/Downloads/AG-subject-1.csv","legacy","2 8 6 3 1","Lentiform Loewenfeld","3.3.3","0","n","0","right","left","left","right","NA","683","11259","25108","683","NA","NA","NA","2","legacy","5","1024","2","48000","-16","experiment","1","odd","7","313689","310357","311443","4461","113221","311456","NA","226429","101961","4476","315704","316388","312471","29608","315703","NA","NA","Sternberg Task","44","28959","46","yes","1024"
"95.74468085106383","95.74468085106383","639.4893617021277","639.4893617021277","black","experiment","legacy","legacy","legacy","0","uniform","1","undefined","1","left","46","46","46","0","0","46","NA","46","0","0","46","46","46","0","46","0","NA","Sun Oct 18 08:11:40 2020","The main experiment item","yes","SternbergTask.osexp","/Users/Arianna/Desktop","no","mono","no","18","no","white","no","yes","768","legacy","34","11","/Users/Arianna/Downloads/AG-subject-1.csv","legacy","7 2 3","Lentiform Loewenfeld","3.3.3","3","y","0","left","left","left","left","NA","1097","11259","25108","1097","NA","NA","NA","2","legacy","3","1024","2","48000","-16","experiment","1","odd","3","319750","316415","317505","4461","113221","317518","NA","226429","101961","4476","321764","322863","318533","29608","321764","NA","NA","Sternberg Task","45","30056","47","yes","1024"
"95.83333333333333","95.83333333333333","638.3958333333334","638.3958333333334","black","experiment","legacy","legacy","legacy","0","uniform","1","undefined","1","right","47","47","47","0","0","47","NA","47","0","0","47","47","47","0","47","0","NA","Sun Oct 18 08:11:40 2020","The main experiment item","yes","SternbergTask.osexp","/Users/Arianna/Desktop","no","mono","no","18","no","white","no","yes","768","legacy","35","11","/Users/Arianna/Downloads/AG-subject-1.csv","legacy","8 4 3 9","Lentiform Loewenfeld","3.3.3","0","n","0","right","left","left","right","NA","587","11259","25108","587","NA","NA","NA","2","legacy","4","1024","2","48000","-16","experiment","1","odd","5","326220","322889","323975","4461","113221","323988","NA","226429","101961","4476","328235","328824","325003","29608","328234","NA","NA","Sternberg Task","46","30643","48","yes","1024"
"95.91836734693878","95.91836734693878","635.8163265306123","635.8163265306123","black","experiment","legacy","legacy","legacy","0","uniform","1","undefined","1","left","48","48","48","0","0","48","NA","48","0","0","48","48","48","0","48","0","NA","Sun Oct 18 08:11:40 2020","The main experiment item","yes","SternbergTask.osexp","/Users/Arianna/Desktop","no","mono","no","18","no","white","no","yes","768","legacy","36","11","/Users/Arianna/Downloads/AG-subject-1.csv","legacy","9 1 7 2","Lentiform Loewenfeld","3.3.3","2","y","0","left","left","left","left","NA","512","11259","25108","512","NA","NA","NA","2","legacy","4","1024","2","48000","-16","experiment","1","odd","1","332186","328851","329940","4461","113221","329953","NA","226429","101961","4476","334200","334714","330969","29608","334200","NA","NA","Sternberg Task","47","31155","49","yes","1024"
"94","94","634.12","634.12","black","experiment","legacy","legacy","legacy","0","uniform","0","undefined","0","left","49","49","49","0","0","49","NA","49","0","0","49","49","49","0","49","0","NA","Sun Oct 18 08:11:40 2020","The main experiment item","yes","SternbergTask.osexp","/Users/Arianna/Desktop","no","mono","no","18","no","white","no","yes","768","legacy","37","11","/Users/Arianna/Downloads/AG-subject-1.csv","legacy","5 7 3 6 2","Lentiform Loewenfeld","3.3.3","5","y","0","right","left","left","right","NA","551","11259","25108","551","NA","NA","NA","2","legacy","5","1024","2","48000","-16","experiment","1","odd","2","338076","334738","335830","4461","113221","335843","NA","226429","101961","4476","340090","340642","336859","29608","340090","NA","NA","Sternberg Task","47","31706","50","yes","1024"
"94.11764705882354","94.11764705882354","635.3137254901961","635.3137254901961","black","experiment","legacy","legacy","legacy","0","uniform","1","undefined","1","right","50","50","50","0","0","50","NA","50","0","0","50","50","50","0","50","0","NA","Sun Oct 18 08:11:40 2020","The main experiment item","yes","SternbergTask.osexp","/Users/Arianna/Desktop","no","mono","no","18","no","white","no","yes","768","legacy","38","11","/Users/Arianna/Downloads/AG-subject-1.csv","legacy","1 3 2 6 9","Lentiform Loewenfeld","3.3.3","0","n","0","right","left","left","right","NA","695","11259","25108","695","NA","NA","NA","2","legacy","5","1024","2","48000","-16","experiment","1","odd","5","344000","334738","341755","4461","113221","341768","NA","340668","101961","4476","346014","346710","342784","29608","346013","NA","NA","Sternberg Task","48","32401","51","yes","1024"
"94.23076923076923","94.23076923076923","633.75","633.75","black","experiment","legacy","legacy","legacy","0","uniform","1","undefined","1","right","51","51","51","0","0","51","NA","51","0","0","51","51","51","0","51","0","NA","Sun Oct 18 08:11:40 2020","The main experiment item","yes","SternbergTask.osexp","/Users/Arianna/Desktop","no","mono","no","18","no","white","no","yes","768","legacy","39","11","/Users/Arianna/Downloads/AG-subject-1.csv","legacy","9 7 4 5 8","Lentiform Loewenfeld","3.3.3","0","n","0","right","left","left","right","NA","554","11259","25108","554","NA","NA","NA","2","legacy","5","1024","2","48000","-16","experiment","1","odd","6","350069","346737","347823","4461","113221","347837","NA","340668","101961","4476","352083","352638","348852","29608","352083","NA","NA","Sternberg Task","49","32955","52","yes","1024"
"94.33962264150944","94.33962264150944","629.6792452830189","629.6792452830189","black","experiment","legacy","legacy","legacy","0","uniform","1","undefined","1","left","52","52","52","0","0","52","NA","52","0","0","52","52","52","0","52","0","NA","Sun Oct 18 08:11:40 2020","The main experiment item","yes","SternbergTask.osexp","/Users/Arianna/Desktop","no","mono","no","18","no","white","no","yes","768","legacy","40","11","/Users/Arianna/Downloads/AG-subject-1.csv","legacy","6 7 8 5","Lentiform Loewenfeld","3.3.3","3","y","0","left","left","left","left","NA","418","11259","25108","418","NA","NA","NA","2","legacy","4","1024","2","48000","-16","experiment","1","odd","8","355998","352667","353753","4461","113221","353766","NA","340668","101961","4476","358010","358429","354781","29608","358010","NA","NA","Sternberg Task","50","33373","53","yes","1024"
"94.44444444444444","94.44444444444444","627.9814814814815","627.9814814814815","black","experiment","legacy","legacy","legacy","0","uniform","1","undefined","1","left","53","53","53","0","0","53","NA","53","0","0","53","53","53","0","53","0","NA","Sun Oct 18 08:11:40 2020","The main experiment item","yes","SternbergTask.osexp","/Users/Arianna/Desktop","no","mono","no","18","no","white","no","yes","768","legacy","41","11","/Users/Arianna/Downloads/AG-subject-1.csv","legacy","6 8 9 3 4 9","Lentiform Loewenfeld","3.3.3","5","y","0","left","left","left","left","NA","538","11259","25108","538","NA","NA","NA","2","legacy","6","1024","2","48000","-16","experiment","1","odd","4","361786","358455","359540","4461","113221","359554","NA","340668","101961","4476","363800","364340","360569","29608","363800","NA","NA","Sternberg Task","51","33911","54","yes","1024"
"94.54545454545455","94.54545454545455","628.2727272727273","628.2727272727273","black","experiment","legacy","legacy","legacy","0","uniform","1","undefined","1","left","54","54","54","0","0","54","NA","54","0","0","54","54","54","0","54","0","NA","Sun Oct 18 08:11:40 2020","The main experiment item","yes","SternbergTask.osexp","/Users/Arianna/Desktop","no","mono","no","18","no","white","no","yes","768","legacy","42","11","/Users/Arianna/Downloads/AG-subject-1.csv","legacy","6 5","Lentiform Loewenfeld","3.3.3","2","y","0","left","left","left","left","NA","644","11259","25108","644","NA","NA","NA","2","legacy","2","1024","2","48000","-16","experiment","1","odd","5","367698","364366","365452","4461","113221","365465","NA","340668","101961","4476","369712","370358","366481","29608","369711","NA","NA","Sternberg Task","52","34555","55","yes","1024"
"94.64285714285714","94.64285714285714","626.625","626.625","black","experiment","legacy","legacy","legacy","0","uniform","1","undefined","1","left","55","55","55","0","0","55","NA","55","0","0","55","55","55","0","55","0","NA","Sun Oct 18 08:11:40 2020","The main experiment item","yes","SternbergTask.osexp","/Users/Arianna/Desktop","no","mono","no","18","no","white","no","yes","768","legacy","43","11","/Users/Arianna/Downloads/AG-subject-1.csv","legacy","7 6","Lentiform Loewenfeld","3.3.3","2","y","0","left","left","left","left","NA","536","11259","25108","536","NA","NA","NA","2","legacy","2","1024","2","48000","-16","experiment","1","odd","6","373717","370384","371471","4461","113221","371484","NA","340668","101961","4476","375732","376269","372500","29608","375732","NA","NA","Sternberg Task","53","35091","56","yes","1024"
"94.73684210526316","94.73684210526316","627.6842105263158","627.6842105263158","black","experiment","legacy","legacy","legacy","0","uniform","1","undefined","1","left","56","56","56","0","0","56","NA","56","0","0","56","56","56","0","56","0","NA","Sun Oct 18 08:11:40 2020","The main experiment item","yes","SternbergTask.osexp","/Users/Arianna/Desktop","no","mono","no","18","no","white","no","yes","768","legacy","44","11","/Users/Arianna/Downloads/AG-subject-1.csv","legacy","9 5 8 1","Lentiform Loewenfeld","3.3.3","2","y","0","left","left","left","left","NA","687","11259","25108","687","NA","NA","NA","2","legacy","4","1024","2","48000","-16","experiment","1","odd","5","379628","376295","377382","4461","113221","377396","NA","340668","101961","4476","381642","382330","378411","29608","381642","NA","NA","Sternberg Task","54","35778","57","yes","1024"
"94.82758620689656","94.82758620689656","628.8103448275862","628.8103448275862","black","experiment","legacy","legacy","legacy","0","uniform","1","undefined","1","right","57","57","57","0","0","57","NA","57","0","0","57","57","57","0","57","0","NA","Sun Oct 18 08:11:40 2020","The main experiment item","yes","SternbergTask.osexp","/Users/Arianna/Desktop","no","mono","no","18","no","white","no","yes","768","legacy","45","11","/Users/Arianna/Downloads/AG-subject-1.csv","legacy","7 1 8 4 9 3","Lentiform Loewenfeld","3.3.3","0","n","0","right","left","left","right","NA","693","11259","25108","693","NA","NA","NA","2","legacy","6","1024","2","48000","-16","experiment","1","odd","6","385685","382347","383438","4461","113221","383451","NA","340668","101961","4476","387699","388393","384467","29608","387699","NA","NA","Sternberg Task","55","36471","58","yes","1024"
"94.91525423728814","94.91525423728814","626.0847457627119","626.0847457627119","black","experiment","legacy","legacy","legacy","0","uniform","1","undefined","1","left","58","58","58","0","0","58","NA","58","0","0","58","58","58","0","58","0","NA","Sun Oct 18 08:11:40 2020","The main experiment item","yes","SternbergTask.osexp","/Users/Arianna/Desktop","no","mono","no","18","no","white","no","yes","768","legacy","46","11","/Users/Arianna/Downloads/AG-subject-1.csv","legacy","7 8 6 3 1","Lentiform Loewenfeld","3.3.3","5","y","0","left","left","left","left","NA","468","11259","25108","468","NA","NA","NA","2","legacy","5","1024","2","48000","-16","experiment","1","odd","1","391739","388408","389493","4461","113221","389506","NA","340668","101961","4476","393753","394222","390522","29608","393752","NA","NA","Sternberg Task","56","36939","59","yes","1024"
"95","95","622.9","622.9","black","experiment","legacy","legacy","legacy","0","uniform","1","undefined","1","left","59","59","59","0","0","59","NA","59","0","0","59","59","59","0","59","0","NA","Sun Oct 18 08:11:40 2020","The main experiment item","yes","SternbergTask.osexp","/Users/Arianna/Desktop","no","mono","no","18","no","white","no","yes","768","legacy","47","11","/Users/Arianna/Downloads/AG-subject-1.csv","legacy","2 5 4 8 7","Lentiform Loewenfeld","3.3.3","3","y","0","left","left","left","left","NA","435","11259","25108","435","NA","NA","NA","2","legacy","5","1024","2","48000","-16","experiment","1","odd","4","397584","394249","395339","4461","113221","395352","NA","340668","101961","4476","399599","400036","396367","29608","399599","NA","NA","Sternberg Task","57","37374","60","yes","1024"
"95.08196721311475","95.08196721311475","623.1639344262295","623.1639344262295","black","experiment","legacy","legacy","legacy","0","uniform","1","undefined","1","right","60","60","60","0","0","60","NA","60","0","0","60","60","60","0","60","0","NA","Sun Oct 18 08:11:40 2020","The main experiment item","yes","SternbergTask.osexp","/Users/Arianna/Desktop","no","mono","no","18","no","white","no","yes","768","legacy","48","11","/Users/Arianna/Downloads/AG-subject-1.csv","legacy","6 9 7 3 8 2","Lentiform Loewenfeld","3.3.3","0","n","0","right","left","left","right","NA","639","11259","25108","639","NA","NA","NA","2","legacy","6","1024","2","48000","-16","experiment","1","odd","5","403383","400052","401138","4461","113221","401151","NA","340668","101961","4476","405397","406037","402166","29608","405397","NA","NA","Sternberg Task","58","38013","61","yes","1024"
"95.16129032258064","95.16129032258064","620.016129032258","620.016129032258","black","experiment","legacy","legacy","legacy","0","uniform","1","undefined","1","left","61","61","61","0","0","61","NA","61","0","0","61","61","61","0","61","0","NA","Sun Oct 18 08:11:40 2020","The main experiment item","yes","SternbergTask.osexp","/Users/Arianna/Desktop","no","mono","no","18","no","white","no","yes","768","legacy","49","11","/Users/Arianna/Downloads/AG-subject-1.csv","legacy","4","Lentiform Loewenfeld","3.3.3","1","y","0","left","left","left","left","NA","428","11259","25108","428","NA","NA","NA","2","legacy","1","1024","2","48000","-16","experiment","1","odd","4","409397","406063","407149","4461","113221","407163","NA","340668","101961","4476","411411","411841","408179","29608","411411","NA","NA","Sternberg Task","59","38441","62","yes","1024"
"95.23809523809524","95.23809523809524","618.952380952381","618.952380952381","black","experiment","legacy","legacy","legacy","0","uniform","1","undefined","1","left","62","62","62","0","0","62","NA","62","0","0","62","62","62","0","62","0","NA","Sun Oct 18 08:11:40 2020","The main experiment item","yes","SternbergTask.osexp","/Users/Arianna/Desktop","no","mono","no","18","no","white","no","yes","768","legacy","50","11","/Users/Arianna/Downloads/AG-subject-1.csv","legacy","2 8 5 1","Lentiform Loewenfeld","3.3.3","4","y","0","left","left","left","left","NA","553","11259","25108","553","NA","NA","NA","2","legacy","4","1024","2","48000","-16","experiment","1","odd","1","415197","411867","412952","4461","113221","412965","NA","340668","101961","4476","417211","417765","413980","29608","417211","NA","NA","Sternberg Task","60","38994","63","yes","1024"
"95.3125","95.3125","618.40625","618.40625","black","experiment","legacy","legacy","legacy","0","uniform","1","undefined","1","right","63","63","63","0","0","63","NA","63","0","0","63","63","63","0","63","0","NA","Sun Oct 18 08:11:40 2020","The main experiment item","yes","SternbergTask.osexp","/Users/Arianna/Desktop","no","mono","no","18","no","white","no","yes","768","legacy","51","11","/Users/Arianna/Downloads/AG-subject-1.csv","legacy","7 6 4 8 1 2","Lentiform Loewenfeld","3.3.3","0","n","0","right","left","left","right","NA","584","11259","25108","584","NA","NA","NA","2","legacy","6","1024","2","48000","-16","experiment","1","odd","9","421123","417792","418879","4461","113221","418892","NA","340668","101961","4476","423137","423723","419907","29608","423137","NA","NA","Sternberg Task","61","39578","64","yes","1024"
"93.84615384615384","93.84615384615384","617.6","617.6","black","experiment","legacy","legacy","legacy","0","uniform","0","undefined","0","right","64","64","64","0","0","64","NA","64","0","0","64","64","64","0","64","0","NA","Sun Oct 18 08:11:40 2020","The main experiment item","yes","SternbergTask.osexp","/Users/Arianna/Desktop","no","mono","no","18","no","white","no","yes","768","legacy","52","11","/Users/Arianna/Downloads/AG-subject-1.csv","legacy","7 1","Lentiform Loewenfeld","3.3.3","0","n","0","left","left","left","left","NA","566","11259","25108","566","NA","NA","NA","2","legacy","2","1024","2","48000","-16","experiment","1","odd","8","427081","423749","424836","4461","113221","424849","NA","340668","101961","4476","429095","429663","425864","29608","429094","NA","NA","Sternberg Task","61","40144","65","yes","1024"
"93.93939393939394","93.93939393939394","618.8636363636364","618.8636363636364","black","experiment","legacy","legacy","legacy","0","uniform","1","undefined","1","left","65","65","65","0","0","65","NA","65","0","0","65","65","65","0","65","0","NA","Sun Oct 18 08:11:40 2020","The main experiment item","yes","SternbergTask.osexp","/Users/Arianna/Desktop","no","mono","no","18","no","white","no","yes","768","legacy","53","11","/Users/Arianna/Downloads/AG-subject-1.csv","legacy","8 1 6","Lentiform Loewenfeld","3.3.3","3","y","0","left","left","left","left","NA","701","11259","25108","701","NA","NA","NA","2","legacy","3","1024","2","48000","-16","experiment","1","odd","6","433019","423749","430774","4461","113221","430787","NA","429689","101961","4476","435033","435736","431802","29608","435033","NA","NA","Sternberg Task","62","40845","66","yes","1024"
"92.53731343283582","92.53731343283582","620.0746268656717","620.0746268656717","black","experiment","legacy","legacy","legacy","0","uniform","0","undefined","0","left","66","66","66","0","0","66","NA","66","0","0","66","66","66","0","66","0","NA","Sun Oct 18 08:11:40 2020","The main experiment item","yes","SternbergTask.osexp","/Users/Arianna/Desktop","no","mono","no","18","no","white","no","yes","768","legacy","54","11","/Users/Arianna/Downloads/AG-subject-1.csv","legacy","7 4 2 6 3 5","Lentiform Loewenfeld","3.3.3","6","y","0","right","left","left","right","NA","700","11259","25108","700","NA","NA","NA","2","legacy","6","1024","2","48000","-16","experiment","1","odd","5","439095","435763","436850","4461","113221","436863","NA","429689","101961","4476","441109","441810","437878","29608","441109","NA","NA","Sternberg Task","62","41545","67","yes","1024"
"92.6470588235294","92.6470588235294","618.6029411764706","618.6029411764706","black","experiment","legacy","legacy","legacy","0","uniform","1","undefined","1","left","67","67","67","0","0","67","NA","67","0","0","67","67","67","0","67","0","NA","Sun Oct 18 08:11:40 2020","The main experiment item","yes","SternbergTask.osexp","/Users/Arianna/Desktop","no","mono","no","18","no","white","no","yes","768","legacy","55","11","/Users/Arianna/Downloads/AG-subject-1.csv","legacy","3 5 9 6 2 4","Lentiform Loewenfeld","3.3.3","1","y","0","left","left","left","left","NA","520","11259","25108","520","NA","NA","NA","2","legacy","6","1024","2","48000","-16","experiment","1","odd","3","445178","435763","442933","4461","113221","442946","NA","441847","101961","4476","447192","447713","443961","29608","447192","NA","NA","Sternberg Task","63","42065","68","yes","1024"
"92.7536231884058","92.7536231884058","618.6811594202899","618.6811594202899","black","experiment","legacy","legacy","legacy","0","uniform","1","undefined","1","right","68","68","68","0","0","68","NA","68","0","0","68","68","68","0","68","0","NA","Sun Oct 18 08:11:40 2020","The main experiment item","yes","SternbergTask.osexp","/Users/Arianna/Desktop","no","mono","no","18","no","white","no","yes","768","legacy","56","11","/Users/Arianna/Downloads/AG-subject-1.csv","legacy","6 7 5 9","Lentiform Loewenfeld","3.3.3","0","n","0","right","left","left","right","NA","624","11259","25108","624","NA","NA","NA","2","legacy","4","1024","2","48000","-16","experiment","1","odd","2","451075","447740","448829","4461","113221","448843","NA","441847","101961","4476","453089","453715","449858","29608","453089","NA","NA","Sternberg Task","64","42689","69","yes","1024"
"92.85714285714286","92.85714285714286","620.1857142857143","620.1857142857143","black","experiment","legacy","legacy","legacy","0","uniform","1","undefined","1","left","69","69","69","0","0","69","NA","69","0","0","69","69","69","0","69","0","NA","Sun Oct 18 08:11:40 2020","The main experiment item","yes","SternbergTask.osexp","/Users/Arianna/Desktop","no","mono","no","18","no","white","no","yes","768","legacy","57","11","/Users/Arianna/Downloads/AG-subject-1.csv","legacy","1 4 9 3 2 5","Lentiform Loewenfeld","3.3.3","3","y","0","left","left","left","left","NA","724","11259","25108","724","NA","NA","NA","2","legacy","6","1024","2","48000","-16","experiment","1","odd","9","457072","453741","454826","4461","113221","454839","NA","441847","101961","4476","459086","459812","455855","29608","459086","NA","NA","Sternberg Task","65","43413","70","yes","1024"
"92.95774647887323","92.95774647887323","618.2816901408451","618.2816901408451","black","experiment","legacy","legacy","legacy","0","uniform","1","undefined","1","left","70","70","70","0","0","70","NA","70","0","0","70","70","70","0","70","0","NA","Sun Oct 18 08:11:40 2020","The main experiment item","yes","SternbergTask.osexp","/Users/Arianna/Desktop","no","mono","no","18","no","white","no","yes","768","legacy","58","11","/Users/Arianna/Downloads/AG-subject-1.csv","legacy","9 1 6 7 8","Lentiform Loewenfeld","3.3.3","1","y","0","left","left","left","left","NA","485","11259","25108","485","NA","NA","NA","2","legacy","5","1024","2","48000","-16","experiment","1","odd","9","463170","459839","460926","4461","113221","460939","NA","441847","101961","4476","465185","465671","461954","29608","465184","NA","NA","Sternberg Task","66","43898","71","yes","1024"
"93.05555555555556","93.05555555555556","618.3333333333334","618.3333333333334","black","experiment","legacy","legacy","legacy","0","uniform","1","undefined","1","right","71","71","71","0","0","71","NA","71","0","0","71","71","71","0","71","0","NA","Sun Oct 18 08:11:40 2020","The main experiment item","yes","SternbergTask.osexp","/Users/Arianna/Desktop","no","mono","no","18","no","white","no","yes","768","legacy","59","11","/Users/Arianna/Downloads/AG-subject-1.csv","legacy","6 9 5","Lentiform Loewenfeld","3.3.3","0","n","0","right","left","left","right","NA","622","11259","25108","622","NA","NA","NA","2","legacy","3","1024","2","48000","-16","experiment","1","odd","8","469029","465699","466783","4461","113221","466797","NA","441847","101961","4476","471043","471666","467812","29608","471043","NA","NA","Sternberg Task","67","44520","72","yes","1024"
"93.15068493150685","93.15068493150685","618.6438356164383","618.6438356164383","black","experiment","legacy","legacy","legacy","0","uniform","1","undefined","1","left","72","72","72","0","0","72","NA","72","0","0","72","72","72","0","72","0","NA","Sun Oct 18 08:11:40 2020","The main experiment item","yes","SternbergTask.osexp","/Users/Arianna/Desktop","no","mono","no","18","no","white","no","yes","768","legacy","60","11","/Users/Arianna/Downloads/AG-subject-1.csv","legacy","3 2 1 4 7","Lentiform Loewenfeld","3.3.3","2","y","0","left","left","left","left","NA","641","11259","25108","641","NA","NA","NA","2","legacy","5","1024","2","48000","-16","experiment","1","odd","2","475024","471693","472779","4461","113221","472792","NA","441847","101961","4476","477038","477680","473807","29608","477038","NA","NA","Sternberg Task","68","45161","73","yes","1024"
"93.24324324324324","93.24324324324324","620.1216216216217","620.1216216216217","black","experiment","legacy","legacy","legacy","0","uniform","1","undefined","1","right","73","73","73","0","0","73","NA","73","0","0","73","73","73","0","73","0","NA","Sun Oct 18 08:11:40 2020","The main experiment item","yes","SternbergTask.osexp","/Users/Arianna/Desktop","no","mono","no","18","no","white","no","yes","768","legacy","61","11","/Users/Arianna/Downloads/AG-subject-1.csv","legacy","2 6 4 3 9","Lentiform Loewenfeld","3.3.3","0","n","0","right","left","left","right","NA","728","11259","25108","728","NA","NA","NA","2","legacy","5","1024","2","48000","-16","experiment","1","odd","1","481038","477707","478793","4461","113221","478806","NA","441847","101961","4476","483052","483782","479821","29608","483052","NA","NA","Sternberg Task","69","45889","74","yes","1024"
"93.33333333333333","93.33333333333333","622.0666666666667","622.0666666666667","black","experiment","legacy","legacy","legacy","0","uniform","1","undefined","1","right","74","74","74","0","0","74","NA","74","0","0","74","74","74","0","74","0","NA","Sun Oct 18 08:11:40 2020","The main experiment item","yes","SternbergTask.osexp","/Users/Arianna/Desktop","no","mono","no","18","no","white","no","yes","768","legacy","62","11","/Users/Arianna/Downloads/AG-subject-1.csv","legacy","2 8 7 9 5 3","Lentiform Loewenfeld","3.3.3","0","n","0","right","left","left","right","NA","766","11259","25108","766","NA","NA","NA","2","legacy","6","1024","2","48000","-16","experiment","1","odd","6","487140","483809","484895","4461","113221","484908","NA","441847","101961","4476","489154","489921","485924","29608","489154","NA","NA","Sternberg Task","70","46655","75","yes","1024"
"93.42105263157895","93.42105263157895","619.6184210526316","619.6184210526316","black","experiment","legacy","legacy","legacy","0","uniform","1","undefined","1","left","75","75","75","0","0","75","NA","75","0","0","75","75","75","0","75","0","NA","Sun Oct 18 08:11:40 2020","The main experiment item","yes","SternbergTask.osexp","/Users/Arianna/Desktop","no","mono","no","18","no","white","no","yes","768","legacy","63","11","/Users/Arianna/Downloads/AG-subject-1.csv","legacy","9 6 2 4 1","Lentiform Loewenfeld","3.3.3","4","y","0","left","left","left","left","NA","436","11259","25108","436","NA","NA","NA","2","legacy","5","1024","2","48000","-16","experiment","1","odd","4","493278","489948","491032","4461","113221","491045","NA","441847","101961","4476","495293","495731","492061","29608","495293","NA","NA","Sternberg Task","71","47091","76","yes","1024"
"93.50649350649351","93.50649350649351","618.3636363636364","618.3636363636364","black","experiment","legacy","legacy","legacy","0","uniform","1","undefined","1","right","76","76","76","0","0","76","NA","76","0","0","76","76","76","0","76","0","NA","Sun Oct 18 08:11:40 2020","The main experiment item","yes","SternbergTask.osexp","/Users/Arianna/Desktop","no","mono","no","18","no","white","no","yes","768","legacy","64","11","/Users/Arianna/Downloads/AG-subject-1.csv","legacy","1","Lentiform Loewenfeld","3.3.3","0","n","0","right","left","left","right","NA","523","11259","25108","523","NA","NA","NA","2","legacy","1","1024","2","48000","-16","experiment","1","odd","7","499088","495757","496842","4461","113221","496855","NA","441847","101961","4476","501102","501626","497870","29608","501102","NA","NA","Sternberg Task","72","47614","77","yes","1024"
"93.58974358974359","93.58974358974359","619.6923076923077","619.6923076923077","black","experiment","legacy","legacy","legacy","0","uniform","1","undefined","1","right","77","77","77","0","0","77","NA","77","0","0","77","77","77","0","77","0","NA","Sun Oct 18 08:11:40 2020","The main experiment item","yes","SternbergTask.osexp","/Users/Arianna/Desktop","no","mono","no","18","no","white","no","yes","768","legacy","65","11","/Users/Arianna/Downloads/AG-subject-1.csv","legacy","7 4 2 8 1 9","Lentiform Loewenfeld","3.3.3","0","n","0","right","left","left","right","NA","722","11259","25108","722","NA","NA","NA","2","legacy","6","1024","2","48000","-16","experiment","1","odd","5","504986","501652","502740","4461","113221","502753","NA","441847","101961","4476","507000","507723","503769","29608","507000","NA","NA","Sternberg Task","73","48336","78","yes","1024"
"93.67088607594937","93.67088607594937","619.8227848101266","619.8227848101266","black","experiment","legacy","legacy","legacy","0","uniform","1","undefined","1","left","78","78","78","0","0","78","NA","78","0","0","78","78","78","0","78","0","NA","Sun Oct 18 08:11:40 2020","The main experiment item","yes","SternbergTask.osexp","/Users/Arianna/Desktop","no","mono","no","18","no","white","no","yes","768","legacy","66","11","/Users/Arianna/Downloads/AG-subject-1.csv","legacy","2 6 1 7 4","Lentiform Loewenfeld","3.3.3","2","y","0","left","left","left","left","NA","630","11259","25108","630","NA","NA","NA","2","legacy","5","1024","2","48000","-16","experiment","1","odd","6","511088","507749","508840","4461","113221","508856","NA","441847","101961","4476","513102","513734","509871","29608","513102","NA","NA","Sternberg Task","74","48966","79","yes","1024"
"93.75","93.75","618.9625","618.9625","black","experiment","legacy","legacy","legacy","0","uniform","1","undefined","1","left","79","79","79","0","0","79","NA","79","0","0","79","79","79","0","79","0","NA","Sun Oct 18 08:11:40 2020","The main experiment item","yes","SternbergTask.osexp","/Users/Arianna/Desktop","no","mono","no","18","no","white","no","yes","768","legacy","67","11","/Users/Arianna/Downloads/AG-subject-1.csv","legacy","3 5 7 1","Lentiform Loewenfeld","3.3.3","3","y","0","left","left","left","left","NA","551","11259","25108","551","NA","NA","NA","2","legacy","4","1024","2","48000","-16","experiment","1","odd","7","517091","513760","514845","4461","113221","514858","NA","441847","101961","4476","519105","519657","515873","29608","519105","NA","NA","Sternberg Task","75","49517","80","yes","1024"
"93.82716049382717","93.82716049382717","616.4444444444445","616.4444444444445","black","experiment","legacy","legacy","legacy","0","uniform","1","undefined","1","left","80","80","80","0","0","80","NA","80","0","0","80","80","80","0","80","0","NA","Sun Oct 18 08:11:40 2020","The main experiment item","yes","SternbergTask.osexp","/Users/Arianna/Desktop","no","mono","no","18","no","white","no","yes","768","legacy","68","11","/Users/Arianna/Downloads/AG-subject-1.csv","legacy","8 5 4 7 3 1","Lentiform Loewenfeld","3.3.3","2","y","0","left","left","left","left","NA","415","11259","25108","415","NA","NA","NA","2","legacy","6","1024","2","48000","-16","experiment","1","odd","5","523003","519672","520758","4461","113221","520771","NA","441847","101961","4476","525017","525434","521787","29608","525017","NA","NA","Sternberg Task","76","49932","81","yes","1024"
"93.90243902439025","93.90243902439025","615.4268292682926","615.4268292682926","black","experiment","legacy","legacy","legacy","0","uniform","1","undefined","1","left","81","81","81","0","0","81","NA","81","0","0","81","81","81","0","81","0","NA","Sun Oct 18 08:11:40 2020","The main experiment item","yes","SternbergTask.osexp","/Users/Arianna/Desktop","no","mono","no","18","no","white","no","yes","768","legacy","69","11","/Users/Arianna/Downloads/AG-subject-1.csv","legacy","6 1 2","Lentiform Loewenfeld","3.3.3","3","y","0","left","left","left","left","NA","533","11259","25108","533","NA","NA","NA","2","legacy","3","1024","2","48000","-16","experiment","1","odd","2","528795","525460","526550","4461","113221","526563","NA","441847","101961","4476","530810","531345","527578","29608","530810","NA","NA","Sternberg Task","77","50465","82","yes","1024"
"93.97590361445783","93.97590361445783","617.8795180722891","617.8795180722891","black","experiment","legacy","legacy","legacy","0","uniform","1","undefined","1","right","82","82","82","0","0","82","NA","82","0","0","82","82","82","0","82","0","NA","Sun Oct 18 08:11:40 2020","The main experiment item","yes","SternbergTask.osexp","/Users/Arianna/Desktop","no","mono","no","18","no","white","no","yes","768","legacy","70","11","/Users/Arianna/Downloads/AG-subject-1.csv","legacy","2 5 1 4","Lentiform Loewenfeld","3.3.3","0","n","0","right","left","left","right","NA","819","11259","25108","819","NA","NA","NA","2","legacy","4","1024","2","48000","-16","experiment","1","odd","6","534704","531372","532459","4461","113221","532472","NA","441847","101961","4476","536718","537538","533487","29608","536718","NA","NA","Sternberg Task","78","51284","83","yes","1024"
"94.04761904761905","94.04761904761905","618.1904761904761","618.1904761904761","black","experiment","legacy","legacy","legacy","0","uniform","1","undefined","1","right","83","83","83","0","0","83","NA","83","0","0","83","83","83","0","83","0","NA","Sun Oct 18 08:11:40 2020","The main experiment item","yes","SternbergTask.osexp","/Users/Arianna/Desktop","no","mono","no","18","no","white","no","yes","768","legacy","71","11","/Users/Arianna/Downloads/AG-subject-1.csv","legacy","1 5 3 2 8","Lentiform Loewenfeld","3.3.3","0","n","0","right","left","left","right","NA","644","11259","25108","644","NA","NA","NA","2","legacy","5","1024","2","48000","-16","experiment","1","odd","4","540894","537566","538651","4461","113221","538664","NA","441847","101961","4476","542909","543554","539677","29608","542909","NA","NA","Sternberg Task","79","51928","84","yes","1024"
"94.11764705882354","94.11764705882354","617.8117647058823","617.8117647058823","black","experiment","legacy","legacy","legacy","0","uniform","1","undefined","1","right","84","84","84","0","0","84","NA","84","0","0","84","84","84","0","84","0","NA","Sun Oct 18 08:11:40 2020","The main experiment item","yes","SternbergTask.osexp","/Users/Arianna/Desktop","no","mono","no","18","no","white","no","yes","768","legacy","72","11","/Users/Arianna/Downloads/AG-subject-1.csv","legacy","1 7 5 2 9","Lentiform Loewenfeld","3.3.3","0","n","0","right","left","left","right","NA","586","11259","25108","586","NA","NA","NA","2","legacy","5","1024","2","48000","-16","experiment","1","odd","3","546912","543581","544666","4461","113221","544679","NA","441847","101961","4476","548926","549513","545695","29608","548926","NA","NA","Sternberg Task","80","52514","85","yes","1024"
"94.18604651162791","94.18604651162791","617.046511627907","617.046511627907","black","experiment","legacy","legacy","legacy","0","uniform","1","undefined","1","right","85","85","85","0","0","85","NA","85","0","0","85","85","85","0","85","0","NA","Sun Oct 18 08:11:40 2020","The main experiment item","yes","SternbergTask.osexp","/Users/Arianna/Desktop","no","mono","no","18","no","white","no","yes","768","legacy","73","11","/Users/Arianna/Downloads/AG-subject-1.csv","legacy","6 8 4","Lentiform Loewenfeld","3.3.3","0","n","0","right","left","left","right","NA","552","11259","25108","552","NA","NA","NA","2","legacy","3","1024","2","48000","-16","experiment","1","odd","1","552876","549540","550630","4461","113221","550643","NA","441847","101961","4476","554891","555444","551658","29608","554890","NA","NA","Sternberg Task","81","53066","86","yes","1024"
"94.25287356321839","94.25287356321839","618.2183908045977","618.2183908045977","black","experiment","legacy","legacy","legacy","0","uniform","1","undefined","1","right","86","86","86","0","0","86","NA","86","0","0","86","86","86","0","86","0","NA","Sun Oct 18 08:11:40 2020","The main experiment item","yes","SternbergTask.osexp","/Users/Arianna/Desktop","no","mono","no","18","no","white","no","yes","768","legacy","74","11","/Users/Arianna/Downloads/AG-subject-1.csv","legacy","5 9 2 3","Lentiform Loewenfeld","3.3.3","0","n","0","right","left","left","right","NA","719","11259","25108","719","NA","NA","NA","2","legacy","4","1024","2","48000","-16","experiment","1","odd","8","558802","555471","556556","4461","113221","556569","NA","441847","101961","4476","560816","561537","557585","29608","560816","NA","NA","Sternberg Task","82","53785","87","yes","1024"
"94.31818181818181","94.31818181818181","617.8636363636364","617.8636363636364","black","experiment","legacy","legacy","legacy","0","uniform","1","undefined","1","left","87","87","87","0","0","87","NA","87","0","0","87","87","87","0","87","0","NA","Sun Oct 18 08:11:40 2020","The main experiment item","yes","SternbergTask.osexp","/Users/Arianna/Desktop","no","mono","no","18","no","white","no","yes","768","legacy","75","11","/Users/Arianna/Downloads/AG-subject-1.csv","legacy","3 9 6 2","Lentiform Loewenfeld","3.3.3","4","y","0","left","left","left","left","NA","587","11259","25108","587","NA","NA","NA","2","legacy","4","1024","2","48000","-16","experiment","1","odd","2","564896","561563","562650","4461","113221","562663","NA","441847","101961","4476","566911","567499","563679","29608","566910","NA","NA","Sternberg Task","83","54372","88","yes","1024"
"94.38202247191012","94.38202247191012","616.438202247191","616.438202247191","black","experiment","legacy","legacy","legacy","0","uniform","1","undefined","1","left","88","88","88","0","0","88","NA","88","0","0","88","88","88","0","88","0","NA","Sun Oct 18 08:11:40 2020","The main experiment item","yes","SternbergTask.osexp","/Users/Arianna/Desktop","no","mono","no","18","no","white","no","yes","768","legacy","76","11","/Users/Arianna/Downloads/AG-subject-1.csv","legacy","9 3 1 2 5","Lentiform Loewenfeld","3.3.3","4","y","0","left","left","left","left","NA","491","11259","25108","491","NA","NA","NA","2","legacy","5","1024","2","48000","-16","experiment","1","odd","2","570859","567526","568612","4461","113221","568627","NA","441847","101961","4476","572873","573365","569642","29608","572873","NA","NA","Sternberg Task","84","54863","89","yes","1024"
"94.44444444444444","94.44444444444444","614.5222222222222","614.5222222222222","black","experiment","legacy","legacy","legacy","0","uniform","1","undefined","1","left","89","89","89","0","0","89","NA","89","0","0","89","89","89","0","89","0","NA","Sun Oct 18 08:11:40 2020","The main experiment item","yes","SternbergTask.osexp","/Users/Arianna/Desktop","no","mono","no","18","no","white","no","yes","768","legacy","77","11","/Users/Arianna/Downloads/AG-subject-1.csv","legacy","5 7 8 2 3 8","Lentiform Loewenfeld","3.3.3","5","y","0","left","left","left","left","NA","444","11259","25108","444","NA","NA","NA","2","legacy","6","1024","2","48000","-16","experiment","1","odd","3","576719","573388","574473","4461","113221","574486","NA","441847","101961","4476","578733","579179","575502","29608","578733","NA","NA","Sternberg Task","85","55307","90","yes","1024"
"94.50549450549451","94.50549450549451","614.0989010989011","614.0989010989011","black","experiment","legacy","legacy","legacy","0","uniform","1","undefined","1","right","90","90","90","0","0","90","NA","90","0","0","90","90","90","0","90","0","NA","Sun Oct 18 08:11:40 2020","The main experiment item","yes","SternbergTask.osexp","/Users/Arianna/Desktop","no","mono","no","18","no","white","no","yes","768","legacy","78","11","/Users/Arianna/Downloads/AG-subject-1.csv","legacy","4 2 7 6 1 3","Lentiform Loewenfeld","3.3.3","0","n","0","right","left","left","right","NA","576","11259","25108","576","NA","NA","NA","2","legacy","6","1024","2","48000","-16","experiment","1","odd","8","582550","579206","580304","4461","113221","580318","NA","441847","101961","4476","584564","585141","581333","29608","584564","NA","NA","Sternberg Task","86","55883","91","yes","1024"
"94.56521739130434","94.56521739130434","615.8804347826087","615.8804347826087","black","experiment","legacy","legacy","legacy","0","uniform","1","undefined","1","left","91","91","91","0","0","91","NA","91","0","0","91","91","91","0","91","0","NA","Sun Oct 18 08:11:40 2020","The main experiment item","yes","SternbergTask.osexp","/Users/Arianna/Desktop","no","mono","no","18","no","white","no","yes","768","legacy","79","11","/Users/Arianna/Downloads/AG-subject-1.csv","legacy","6 7 9 3 1 2","Lentiform Loewenfeld","3.3.3","1","y","0","left","left","left","left","NA","778","11259","25108","778","NA","NA","NA","2","legacy","6","1024","2","48000","-16","experiment","1","odd","6","588499","585168","586254","4461","113221","586267","NA","441847","101961","4476","590513","591292","587280","29608","590513","NA","NA","Sternberg Task","87","56661","92","yes","1024"
"94.6236559139785","94.6236559139785","622.0860215053764","622.0860215053764","black","experiment","legacy","legacy","legacy","0","uniform","1","undefined","1","right","92","92","92","0","0","92","NA","92","0","0","92","92","92","0","92","0","NA","Sun Oct 18 08:11:40 2020","The main experiment item","yes","SternbergTask.osexp","/Users/Arianna/Desktop","no","mono","no","18","no","white","no","yes","768","legacy","80","11","/Users/Arianna/Downloads/AG-subject-1.csv","legacy","1 4 9 3","Lentiform Loewenfeld","3.3.3","0","n","0","right","left","left","right","NA","1193","11259","25108","1193","NA","NA","NA","2","legacy","4","1024","2","48000","-16","experiment","1","odd","5","594657","591319","592411","4461","113221","592425","NA","441847","101961","4476","596671","597866","593440","29608","596671","NA","NA","Sternberg Task","88","57854","93","yes","1024"
"94.68085106382979","94.68085106382979","633.3936170212766","633.3936170212766","black","experiment","legacy","legacy","legacy","0","uniform","1","undefined","1","right","93","93","93","0","0","93","NA","93","0","0","93","93","93","0","93","0","NA","Sun Oct 18 08:11:40 2020","The main experiment item","yes","SternbergTask.osexp","/Users/Arianna/Desktop","no","mono","no","18","no","white","no","yes","768","legacy","81","11","/Users/Arianna/Downloads/AG-subject-1.csv","legacy","9 8 2 7 4","Lentiform Loewenfeld","3.3.3","0","n","0","right","left","left","right","NA","1685","11259","25108","1685","NA","NA","NA","2","legacy","5","1024","2","48000","-16","experiment","1","odd","5","601224","597893","598979","4461","113221","598992","NA","441847","101961","4476","603238","604925","600007","29608","603238","NA","NA","Sternberg Task","89","59539","94","yes","1024"
"94.73684210526316","94.73684210526316","633.1684210526316","633.1684210526316","black","experiment","legacy","legacy","legacy","0","uniform","1","undefined","1","right","94","94","94","0","0","94","NA","94","0","0","94","94","94","0","94","0","NA","Sun Oct 18 08:11:40 2020","The main experiment item","yes","SternbergTask.osexp","/Users/Arianna/Desktop","no","mono","no","18","no","white","no","yes","768","legacy","82","11","/Users/Arianna/Downloads/AG-subject-1.csv","legacy","8 9","Lentiform Loewenfeld","3.3.3","0","n","0","right","left","left","right","NA","612","11259","25108","612","NA","NA","NA","2","legacy","2","1024","2","48000","-16","experiment","1","odd","5","608282","604952","606039","4461","113221","606052","NA","441847","101961","4476","610295","610909","607068","29608","610295","NA","NA","Sternberg Task","90","60151","95","yes","1024"
"94.79166666666667","94.79166666666667","630.875","630.875","black","experiment","legacy","legacy","legacy","0","uniform","1","undefined","1","left","95","95","95","0","0","95","NA","95","0","0","95","95","95","0","95","0","NA","Sun Oct 18 08:11:40 2020","The main experiment item","yes","SternbergTask.osexp","/Users/Arianna/Desktop","no","mono","no","18","no","white","no","yes","768","legacy","83","11","/Users/Arianna/Downloads/AG-subject-1.csv","legacy","5 2 9 6 1 7","Lentiform Loewenfeld","3.3.3","3","y","0","left","left","left","left","NA","413","11259","25108","413","NA","NA","NA","2","legacy","6","1024","2","48000","-16","experiment","1","odd","9","614262","610931","612016","4461","113221","612029","NA","441847","101961","4476","616276","616691","613045","29608","616276","NA","NA","Sternberg Task","91","60564","96","yes","1024"
"94.84536082474227","94.84536082474227","629.3298969072165","629.3298969072165","black","experiment","legacy","legacy","legacy","0","uniform","1","undefined","1","right","96","96","96","0","0","96","NA","96","0","0","96","96","96","0","96","0","NA","Sun Oct 18 08:11:40 2020","The main experiment item","yes","SternbergTask.osexp","/Users/Arianna/Desktop","no","mono","no","18","no","white","no","yes","768","legacy","84","11","/Users/Arianna/Downloads/AG-subject-1.csv","legacy","4 1","Lentiform Loewenfeld","3.3.3","0","n","0","right","left","left","right","NA","481","11259","25108","481","NA","NA","NA","2","legacy","2","1024","2","48000","-16","experiment","1","odd","6","620048","616718","617803","4461","113221","617816","NA","441847","101961","4476","622062","622544","618831","29608","622062","NA","NA","Sternberg Task","92","61045","97","yes","1024"
"94.89795918367346","94.89795918367346","635.1326530612245","635.1326530612245","black","experiment","legacy","legacy","legacy","0","uniform","1","undefined","1","right","97","97","97","0","0","97","NA","97","0","0","97","97","97","0","97","0","NA","Sun Oct 18 08:11:40 2020","The main experiment item","yes","SternbergTask.osexp","/Users/Arianna/Desktop","no","mono","no","18","no","white","no","yes","768","legacy","85","11","/Users/Arianna/Downloads/AG-subject-1.csv","legacy","5","Lentiform Loewenfeld","3.3.3","0","n","0","right","left","left","right","NA","1198","11259","25108","1198","NA","NA","NA","2","legacy","1","1024","2","48000","-16","experiment","1","odd","8","625906","622572","623660","4461","113221","623673","NA","441847","101961","4476","627920","629120","624688","29608","627920","NA","NA","Sternberg Task","93","62243","98","yes","1024"
"94.94949494949495","94.94949494949495","636.1111111111111","636.1111111111111","black","experiment","legacy","legacy","legacy","0","uniform","1","undefined","1","right","98","98","98","0","0","98","NA","98","0","0","98","98","98","0","98","0","NA","Sun Oct 18 08:11:40 2020","The main experiment item","yes","SternbergTask.osexp","/Users/Arianna/Desktop","no","mono","no","18","no","white","no","yes","768","legacy","86","11","/Users/Arianna/Downloads/AG-subject-1.csv","legacy","2 3 8 5 6 7","Lentiform Loewenfeld","3.3.3","0","n","0","right","left","left","right","NA","732","11259","25108","732","NA","NA","NA","2","legacy","6","1024","2","48000","-16","experiment","1","odd","1","632468","629135","630222","4461","113221","630235","NA","441847","101961","4476","634482","635216","631251","29608","634482","NA","NA","Sternberg Task","94","62975","99","yes","1024"
"95","95","635.37","635.37","black","experiment","legacy","legacy","legacy","0","uniform","1","undefined","1","right","99","99","99","0","0","99","NA","99","0","0","99","99","99","0","99","0","NA","Sun Oct 18 08:11:40 2020","The main experiment item","yes","SternbergTask.osexp","/Users/Arianna/Desktop","no","mono","no","18","no","white","no","yes","768","legacy","87","11","/Users/Arianna/Downloads/AG-subject-1.csv","legacy","7 9","Lentiform Loewenfeld","3.3.3","0","n","0","right","left","left","right","NA","562","11259","25108","562","NA","NA","NA","2","legacy","2","1024","2","48000","-16","experiment","1","odd","1","638575","635243","636329","4461","113221","636342","NA","441847","101961","4476","640589","641153","637358","29608","640589","NA","NA","Sternberg Task","95","63537","100","yes","1024"
"95.04950495049505","95.04950495049505","634","634","black","experiment","legacy","legacy","legacy","0","uniform","1","undefined","1","left","100","100","100","0","0","100","NA","100","0","0","100","100","100","0","100","0","NA","Sun Oct 18 08:11:40 2020","The main experiment item","yes","SternbergTask.osexp","/Users/Arianna/Desktop","no","mono","no","18","no","white","no","yes","768","legacy","88","11","/Users/Arianna/Downloads/AG-subject-1.csv","legacy","5 2 6","Lentiform Loewenfeld","3.3.3","2","y","0","left","left","left","left","NA","497","11259","25108","497","NA","NA","NA","2","legacy","3","1024","2","48000","-16","experiment","1","odd","2","644510","641179","642264","4461","113221","642277","NA","441847","101961","4476","646524","647023","643292","29608","646524","NA","NA","Sternberg Task","96","64034","101","yes","1024"
"94.11764705882354","94.11764705882354","633.3529411764706","633.3529411764706","black","experiment","legacy","legacy","legacy","0","uniform","0","undefined","0","right","101","101","101","0","0","101","NA","101","0","0","101","101","101","0","101","0","NA","Sun Oct 18 08:11:40 2020","The main experiment item","yes","SternbergTask.osexp","/Users/Arianna/Desktop","no","mono","no","18","no","white","no","yes","768","legacy","89","11","/Users/Arianna/Downloads/AG-subject-1.csv","legacy","8 2 1 4 5 9","Lentiform Loewenfeld","3.3.3","0","n","0","left","left","left","left","NA","568","11259","25108","568","NA","NA","NA","2","legacy","6","1024","2","48000","-16","experiment","1","odd","7","650382","647050","648135","4461","113221","648149","NA","441847","101961","4476","652397","652967","649164","29608","652397","NA","NA","Sternberg Task","96","64602","102","yes","1024"
"94.1747572815534","94.1747572815534","633.6504854368932","633.6504854368932","black","experiment","legacy","legacy","legacy","0","uniform","1","undefined","1","left","102","102","102","0","0","102","NA","102","0","0","102","102","102","0","102","0","NA","Sun Oct 18 08:11:40 2020","The main experiment item","yes","SternbergTask.osexp","/Users/Arianna/Desktop","no","mono","no","18","no","white","no","yes","768","legacy","90","11","/Users/Arianna/Downloads/AG-subject-1.csv","legacy","8 9 5 6 7","Lentiform Loewenfeld","3.3.3","1","y","0","left","left","left","left","NA","664","11259","25108","664","NA","NA","NA","2","legacy","5","1024","2","48000","-16","experiment","1","odd","8","656324","647050","654078","4461","113221","654091","NA","652994","101961","4476","658339","659004","655106","29608","658338","NA","NA","Sternberg Task","97","65266","103","yes","1024"
"94.23076923076923","94.23076923076923","633.2307692307693","633.2307692307693","black","experiment","legacy","legacy","legacy","0","uniform","1","undefined","1","left","103","103","103","0","0","103","NA","103","0","0","103","103","103","0","103","0","NA","Sun Oct 18 08:11:40 2020","The main experiment item","yes","SternbergTask.osexp","/Users/Arianna/Desktop","no","mono","no","18","no","white","no","yes","768","legacy","91","11","/Users/Arianna/Downloads/AG-subject-1.csv","legacy","2 4 8 5 1 3","Lentiform Loewenfeld","3.3.3","1","y","0","left","left","left","left","NA","590","11259","25108","590","NA","NA","NA","2","legacy","6","1024","2","48000","-16","experiment","1","odd","2","662364","659031","660116","4461","113221","660130","NA","652994","101961","4476","664378","664969","661146","29608","664378","NA","NA","Sternberg Task","98","65856","104","yes","1024"
"94.28571428571429","94.28571428571429","632.2952380952381","632.2952380952381","black","experiment","legacy","legacy","legacy","0","uniform","1","undefined","1","left","104","104","104","0","0","104","NA","104","0","0","104","104","104","0","104","0","NA","Sun Oct 18 08:11:40 2020","The main experiment item","yes","SternbergTask.osexp","/Users/Arianna/Desktop","no","mono","no","18","no","white","no","yes","768","legacy","92","11","/Users/Arianna/Downloads/AG-subject-1.csv","legacy","9 5 3 8 4","Lentiform Loewenfeld","3.3.3","1","y","0","left","left","left","left","NA","535","11259","25108","535","NA","NA","NA","2","legacy","5","1024","2","48000","-16","experiment","1","odd","9","668327","664995","666080","4461","113221","666093","NA","652994","101961","4476","670341","670878","667109","29608","670341","NA","NA","Sternberg Task","99","66391","105","yes","1024"
"94.33962264150944","94.33962264150944","630.8679245283018","630.8679245283018","black","experiment","legacy","legacy","legacy","0","uniform","1","undefined","1","left","105","105","105","0","0","105","NA","105","0","0","105","105","105","0","105","0","NA","Sun Oct 18 08:11:40 2020","The main experiment item","yes","SternbergTask.osexp","/Users/Arianna/Desktop","no","mono","no","18","no","white","no","yes","768","legacy","93","11","/Users/Arianna/Downloads/AG-subject-1.csv","legacy","7","Lentiform Loewenfeld","3.3.3","1","y","0","left","left","left","left","NA","481","11259","25108","481","NA","NA","NA","2","legacy","1","1024","2","48000","-16","experiment","1","odd","7","674228","670892","671983","4461","113221","671996","NA","652994","101961","4476","676243","676726","673011","29608","676243","NA","NA","Sternberg Task","100","66872","106","yes","1024"
"94.39252336448598","94.39252336448598","629.2710280373832","629.2710280373832","black","experiment","legacy","legacy","legacy","0","uniform","1","undefined","1","left","106","106","106","0","0","106","NA","106","0","0","106","106","106","0","106","0","NA","Sun Oct 18 08:11:40 2020","The main experiment item","yes","SternbergTask.osexp","/Users/Arianna/Desktop","no","mono","no","18","no","white","no","yes","768","legacy","94","11","/Users/Arianna/Downloads/AG-subject-1.csv","legacy","8 5 1 3 9","Lentiform Loewenfeld","3.3.3","4","y","0","left","left","left","left","NA","460","11259","25108","460","NA","NA","NA","2","legacy","5","1024","2","48000","-16","experiment","1","odd","3","680085","676753","677840","4461","113221","677853","NA","652994","101961","4476","682099","682561","678869","29608","682099","NA","NA","Sternberg Task","101","67332","107","yes","1024"
"94.44444444444444","94.44444444444444","627.8611111111111","627.8611111111111","black","experiment","legacy","legacy","legacy","0","uniform","1","undefined","1","left","107","107","107","0","0","107","NA","107","0","0","107","107","107","0","107","0","NA","Sun Oct 18 08:11:40 2020","The main experiment item","yes","SternbergTask.osexp","/Users/Arianna/Desktop","no","mono","no","18","no","white","no","yes","768","legacy","95","11","/Users/Arianna/Downloads/AG-subject-1.csv","legacy","4 1 5","Lentiform Loewenfeld","3.3.3","2","y","0","left","left","left","left","NA","477","11259","25108","477","NA","NA","NA","2","legacy","3","1024","2","48000","-16","experiment","1","odd","1","685924","682587","683677","4461","113221","683690","NA","652994","101961","4476","687938","688417","684707","29608","687938","NA","NA","Sternberg Task","102","67809","108","yes","1024"
"94.4954128440367","94.4954128440367","626.5871559633027","626.5871559633027","black","experiment","legacy","legacy","legacy","0","uniform","1","undefined","1","left","108","108","108","0","0","108","NA","108","0","0","108","108","108","0","108","0","NA","Sun Oct 18 08:11:40 2020","The main experiment item","yes","SternbergTask.osexp","/Users/Arianna/Desktop","no","mono","no","18","no","white","no","yes","768","legacy","96","11","/Users/Arianna/Downloads/AG-subject-1.csv","legacy","9 3 8 2 1 4","Lentiform Loewenfeld","3.3.3","3","y","0","left","left","left","left","NA","489","11259","25108","489","NA","NA","NA","2","legacy","6","1024","2","48000","-16","experiment","1","odd","8","691777","688444","689531","4461","113221","689545","NA","652994","101961","4476","693791","694282","690560","29608","693791","NA","NA","Sternberg Task","103","68298","109","yes","1024"
"94.54545454545455","94.54545454545455","625.2727272727273","625.2727272727273","black","experiment","legacy","legacy","legacy","0","uniform","1","undefined","1","left","109","109","109","0","0","109","NA","109","0","0","109","109","109","0","109","0","NA","Sun Oct 18 08:11:40 2020","The main experiment item","yes","SternbergTask.osexp","/Users/Arianna/Desktop","no","mono","no","18","no","white","no","yes","768","legacy","97","11","/Users/Arianna/Downloads/AG-subject-1.csv","legacy","8 9 5 7 1 6","Lentiform Loewenfeld","3.3.3","4","y","0","left","left","left","left","NA","482","11259","25108","482","NA","NA","NA","2","legacy","6","1024","2","48000","-16","experiment","1","odd","7","697640","694309","695396","4461","113221","695409","NA","652994","101961","4476","699654","700138","696424","29608","699653","NA","NA","Sternberg Task","104","68780","110","yes","1024"
"94.5945945945946","94.5945945945946","626.027027027027","626.027027027027","black","experiment","legacy","legacy","legacy","0","uniform","1","undefined","1","right","110","110","110","0","0","110","NA","110","0","0","110","110","110","0","110","0","NA","Sun Oct 18 08:11:40 2020","The main experiment item","yes","SternbergTask.osexp","/Users/Arianna/Desktop","no","mono","no","18","no","white","no","yes","768","legacy","98","11","/Users/Arianna/Downloads/AG-subject-1.csv","legacy","1 8 7","Lentiform Loewenfeld","3.3.3","0","n","0","right","left","left","right","NA","709","11259","25108","709","NA","NA","NA","2","legacy","3","1024","2","48000","-16","experiment","1","odd","4","703500","700163","701253","4461","113221","701266","NA","652994","101961","4476","705514","706224","702282","29608","705514","NA","NA","Sternberg Task","105","69489","111","yes","1024"
"94.64285714285714","94.64285714285714","626.4910714285714","626.4910714285714","black","experiment","legacy","legacy","legacy","0","uniform","1","undefined","1","right","111","111","111","0","0","111","NA","111","0","0","111","111","111","0","111","0","NA","Sun Oct 18 08:11:40 2020","The main experiment item","yes","SternbergTask.osexp","/Users/Arianna/Desktop","no","mono","no","18","no","white","no","yes","768","legacy","99","11","/Users/Arianna/Downloads/AG-subject-1.csv","legacy","7 1 5 6 3","Lentiform Loewenfeld","3.3.3","0","n","0","right","left","left","right","NA","678","11259","25108","678","NA","NA","NA","2","legacy","5","1024","2","48000","-16","experiment","1","odd","8","709586","706251","707340","4461","113221","707354","NA","652994","101961","4476","711600","712280","708369","29608","711600","NA","NA","Sternberg Task","106","70167","112","yes","1024"
"94.69026548672566","94.69026548672566","624.7345132743363","624.7345132743363","black","experiment","legacy","legacy","legacy","0","uniform","1","undefined","1","left","112","112","112","0","0","112","NA","112","0","0","112","112","112","0","112","0","NA","Sun Oct 18 08:11:40 2020","The main experiment item","yes","SternbergTask.osexp","/Users/Arianna/Desktop","no","mono","no","18","no","white","no","yes","768","legacy","100","11","/Users/Arianna/Downloads/AG-subject-1.csv","legacy","4 6 5 8","Lentiform Loewenfeld","3.3.3","1","y","0","left","left","left","left","NA","428","11259","25108","428","NA","NA","NA","2","legacy","4","1024","2","48000","-16","experiment","1","odd","4","715642","712306","713397","4461","113221","713410","NA","652994","101961","4476","717656","718086","714425","29608","717656","NA","NA","Sternberg Task","107","70595","113","yes","1024"
"94.73684210526316","94.73684210526316","623.3684210526316","623.3684210526316","black","experiment","legacy","legacy","legacy","0","uniform","1","undefined","1","left","113","113","113","0","0","113","NA","113","0","0","113","113","113","0","113","0","NA","Sun Oct 18 08:11:40 2020","The main experiment item","yes","SternbergTask.osexp","/Users/Arianna/Desktop","no","mono","no","18","no","white","no","yes","768","legacy","101","11","/Users/Arianna/Downloads/AG-subject-1.csv","legacy","3 4","Lentiform Loewenfeld","3.3.3","1","y","0","left","left","left","left","NA","469","11259","25108","469","NA","NA","NA","2","legacy","2","1024","2","48000","-16","experiment","1","odd","3","721446","718113","719199","4461","113221","719213","NA","652994","101961","4476","723460","723931","720228","29608","723460","NA","NA","Sternberg Task","108","71064","114","yes","1024"
"93.91304347826087","93.91304347826087","621.9565217391304","621.9565217391304","black","experiment","legacy","legacy","legacy","0","uniform","0","undefined","0","right","114","114","114","0","0","114","NA","114","0","0","114","114","114","0","114","0","NA","Sun Oct 18 08:11:40 2020","The main experiment item","yes","SternbergTask.osexp","/Users/Arianna/Desktop","no","mono","no","18","no","white","no","yes","768","legacy","102","11","/Users/Arianna/Downloads/AG-subject-1.csv","legacy","8 6 3 4 7","Lentiform Loewenfeld","3.3.3","0","n","0","left","left","left","left","NA","461","11259","25108","461","NA","NA","NA","2","legacy","5","1024","2","48000","-16","experiment","1","odd","1","727289","723959","725044","4461","113221","725056","NA","652994","101961","4476","729304","729767","726072","29608","729304","NA","NA","Sternberg Task","108","71525","115","yes","1024"
