acc,accuracy,average_response_time,avg_rt,background,block,canvas_backend,clock_backend,color_backend,compensation,coordinates,correct,correct_instruction1,correct_keyboard_response,correct_response,count_ISI,count_correctFeedback,count_expSequence,count_experiment,count_fixation,count_incorrectFeedback,count_instruction1,count_instruction2,count_keyboard_response,count_logger,count_memorySet,count_new_loop,count_practiceLoop,count_probe,count_thankYou,datetime,description,disable_garbage_collection,experiment_file,experiment_path,font_bold,font_family,font_italic,font_size,font_underline,foreground,form_clicks,fullscreen,height,keyboard_backend,live_row,live_row_practiceLoop,logfile,mouse_backend,numberSet,opensesame_codename,opensesame_version,posInSet,present,repeat_cycle,response,response_instruction1,response_instruction2,response_keyboard_response,response_thankYou,response_time,response_time_instruction1,response_time_instruction2,response_time_keyboard_response,response_time_thankYou,round_decimals,sampler_backend,setSize,sound_buf_size,sound_channels,sound_freq,sound_sample_size,start,subject_nr,subject_parity,target,time_ISI,time_correctFeedback,time_expSequence,time_experiment,time_fixation,time_incorrectFeedback,time_instruction1,time_instruction2,time_keyboard_response,time_logger,time_memorySet,time_new_loop,time_practiceLoop,time_probe,time_thankYou,title,total_correct,total_response_time,total_responses,uniform_coordinates,width
100,100,984,984,black,practice,legacy,legacy,legacy,0,uniform,1,undefined,1,right,0,0,0,0,0,0,0,0,0,0,0,0,0,0,0,10/27/19 16:40,sternberg task,yes,sternbergtask.osexp,C:/Users/DLGoupil/Desktop,no,mono,no,18,no,white,no,yes,768,legacy,0,0,C:/Users/DLGoupil/Desktop/dg-subject-4.csv,legacy,5 7 8 4 1 2,Kafkaesque Koffka,3.2.8,0,n,0,right,right,NA,right,NA,984,1036,NA,984,NA,2,legacy,6,1024,2,48000,-16,experiment,4,even,6,6211,NA,4002,2022,4004,NA,2025,NA,8214,9199,5008,NA,3062,8214,NA,New experiment,1,984,1,yes,1024
100,100,878,878,black,practice,legacy,legacy,legacy,0,uniform,1,undefined,1,right,1,1,1,0,1,1,0,0,1,1,1,0,0,1,0,10/27/19 16:40,sternberg task,yes,sternbergtask.osexp,C:/Users/DLGoupil/Desktop,no,mono,no,18,no,white,no,yes,768,legacy,1,1,C:/Users/DLGoupil/Desktop/dg-subject-4.csv,legacy,2 1,Kafkaesque Koffka,3.2.8,0,n,0,right,right,NA,right,NA,772,1036,NA,772,NA,2,legacy,2,1024,2,48000,-16,experiment,4,even,5,12623,9271,10414,2022,10416,NA,2025,NA,14626,15399,11420,NA,3062,14626,NA,New experiment,2,1756,2,yes,1024
100,100,851.3333333,851.3333333,black,practice,legacy,legacy,legacy,0,uniform,1,undefined,1,right,2,2,2,0,2,2,0,0,2,2,2,0,0,2,0,10/27/19 16:40,sternberg task,yes,sternbergtask.osexp,C:/Users/DLGoupil/Desktop,no,mono,no,18,no,white,no,yes,768,legacy,2,2,C:/Users/DLGoupil/Desktop/dg-subject-4.csv,legacy,3 1 9 4,Kafkaesque Koffka,3.2.8,0,n,0,right,right,NA,right,NA,798,1036,NA,798,NA,2,legacy,4,1024,2,48000,-16,experiment,4,even,6,18749,15403,16540,2022,16543,NA,2025,NA,20752,21550,17546,NA,3062,20752,NA,New experiment,3,2554,3,yes,1024
100,100,854.5,854.5,black,practice,legacy,legacy,legacy,0,uniform,1,undefined,1,right,3,3,3,0,3,3,0,0,3,3,3,0,0,3,0,10/27/19 16:40,sternberg task,yes,sternbergtask.osexp,C:/Users/DLGoupil/Desktop,no,mono,no,18,no,white,no,yes,768,legacy,3,3,C:/Users/DLGoupil/Desktop/dg-subject-4.csv,legacy,4 1 5,Kafkaesque Koffka,3.2.8,0,n,0,right,right,NA,right,NA,864,1036,NA,864,NA,2,legacy,3,1024,2,48000,-16,experiment,4,even,2,24898,21555,22690,2022,22693,NA,2025,NA,26901,27766,23696,NA,3062,26901,NA,New experiment,4,3418,4,yes,1024
100,100,891.8,891.8,black,practice,legacy,legacy,legacy,0,uniform,1,undefined,1,left,4,4,4,0,4,4,0,0,4,4,4,0,0,4,0,10/27/19 16:40,sternberg task,yes,sternbergtask.osexp,C:/Users/DLGoupil/Desktop,no,mono,no,18,no,white,no,yes,768,legacy,4,4,C:/Users/DLGoupil/Desktop/dg-subject-4.csv,legacy,1 7 9 8 5,Kafkaesque Koffka,3.2.8,4,y,0,left,right,NA,left,NA,1041,1036,NA,1041,NA,2,legacy,5,1024,2,48000,-16,experiment,4,even,8,31122,27771,28914,2022,28916,NA,2025,NA,33125,34166,29919,NA,3062,33125,NA,New experiment,5,4459,5,yes,1024
100,100,847.6666667,847.6666667,black,practice,legacy,legacy,legacy,0,uniform,1,undefined,1,left,5,5,5,0,5,5,0,0,5,5,5,0,0,5,0,10/27/19 16:40,sternberg task,yes,sternbergtask.osexp,C:/Users/DLGoupil/Desktop,no,mono,no,18,no,white,no,yes,768,legacy,5,5,C:/Users/DLGoupil/Desktop/dg-subject-4.csv,legacy,4 3 1 7 9 8,Kafkaesque Koffka,3.2.8,1,y,0,left,right,NA,left,NA,627,1036,NA,627,NA,2,legacy,6,1024,2,48000,-16,experiment,4,even,4,37520,34171,35313,2022,35315,NA,2025,NA,39523,40150,36317,NA,3062,39523,NA,New experiment,6,5086,6,yes,1024
100,100,805.7142857,805.7142857,black,practice,legacy,legacy,legacy,0,uniform,1,undefined,1,left,6,6,6,0,6,6,0,0,6,6,6,0,0,6,0,10/27/19 16:40,sternberg task,yes,sternbergtask.osexp,C:/Users/DLGoupil/Desktop,no,mono,no,18,no,white,no,yes,768,legacy,6,6,C:/Users/DLGoupil/Desktop/dg-subject-4.csv,legacy,4 8,Kafkaesque Koffka,3.2.8,1,y,0,left,right,NA,left,NA,554,1036,NA,554,NA,2,legacy,2,1024,2,48000,-16,experiment,4,even,4,43497,40155,41289,2022,41291,NA,2025,NA,45500,46054,42294,NA,3062,45500,NA,New experiment,7,5640,7,yes,1024
100,100,776,776,black,practice,legacy,legacy,legacy,0,uniform,1,undefined,1,left,7,7,7,0,7,7,0,0,7,7,7,0,0,7,0,10/27/19 16:40,sternberg task,yes,sternbergtask.osexp,C:/Users/DLGoupil/Desktop,no,mono,no,18,no,white,no,yes,768,legacy,7,7,C:/Users/DLGoupil/Desktop/dg-subject-4.csv,legacy,6,Kafkaesque Koffka,3.2.8,1,y,0,left,right,NA,left,NA,568,1036,NA,568,NA,2,legacy,1,1024,2,48000,-16,experiment,4,even,6,49403,46059,47195,2022,47197,NA,2025,NA,51406,51974,48200,NA,3062,51406,NA,New experiment,8,6208,8,yes,1024
100,100,828.3333333,828.3333333,black,practice,legacy,legacy,legacy,0,uniform,1,undefined,1,right,8,8,8,0,8,8,0,0,8,8,8,0,0,8,0,10/27/19 16:40,sternberg task,yes,sternbergtask.osexp,C:/Users/DLGoupil/Desktop,no,mono,no,18,no,white,no,yes,768,legacy,8,8,C:/Users/DLGoupil/Desktop/dg-subject-4.csv,legacy,9 6 7 4 5,Kafkaesque Koffka,3.2.8,0,n,0,right,right,NA,right,NA,1247,1036,NA,1247,NA,2,legacy,5,1024,2,48000,-16,experiment,4,even,3,55332,51979,53124,2022,53126,NA,2025,NA,57334,58582,54129,NA,3062,57334,NA,New experiment,9,7455,9,yes,1024
100,100,831,831,black,practice,legacy,legacy,legacy,0,uniform,1,undefined,1,left,9,9,9,0,9,9,0,0,9,9,9,0,0,9,0,10/27/19 16:40,sternberg task,yes,sternbergtask.osexp,C:/Users/DLGoupil/Desktop,no,mono,no,18,no,white,no,yes,768,legacy,9,9,C:/Users/DLGoupil/Desktop/dg-subject-4.csv,legacy,2 9 4,Kafkaesque Koffka,3.2.8,3,y,0,left,right,NA,left,NA,855,1036,NA,855,NA,2,legacy,3,1024,2,48000,-16,experiment,4,even,4,61938,58587,59729,2022,59732,NA,2025,NA,63942,64798,60735,NA,3062,63941,NA,New experiment,10,8310,10,yes,1024
100,100,822.1818182,822.1818182,black,practice,legacy,legacy,legacy,0,uniform,1,undefined,1,right,10,10,10,0,10,10,0,0,10,10,10,0,0,10,0,10/27/19 16:40,sternberg task,yes,sternbergtask.osexp,C:/Users/DLGoupil/Desktop,no,mono,no,18,no,white,no,yes,768,legacy,10,10,C:/Users/DLGoupil/Desktop/dg-subject-4.csv,legacy,5,Kafkaesque Koffka,3.2.8,0,n,0,right,right,NA,right,NA,734,1036,NA,734,NA,2,legacy,1,1024,2,48000,-16,experiment,4,even,3,68149,64803,65940,2022,65943,NA,2025,NA,70152,70886,66946,NA,3062,70152,NA,New experiment,11,9044,11,yes,1024
100,100,808.1666667,808.1666667,black,practice,legacy,legacy,legacy,0,uniform,1,undefined,1,left,11,11,11,0,11,11,0,0,11,11,11,0,0,11,0,10/27/19 16:40,sternberg task,yes,sternbergtask.osexp,C:/Users/DLGoupil/Desktop,no,mono,no,18,no,white,no,yes,768,legacy,11,11,C:/Users/DLGoupil/Desktop/dg-subject-4.csv,legacy,1 5 2 9,Kafkaesque Koffka,3.2.8,2,y,0,left,right,NA,left,NA,654,1036,NA,654,NA,2,legacy,4,1024,2,48000,-16,experiment,4,even,5,74237,70892,72028,2022,72031,NA,2025,NA,76240,76894,73034,NA,3062,76240,NA,New experiment,12,9698,12,yes,1024
100,100,801.4615385,801.4615385,black,experiment,legacy,legacy,legacy,0,uniform,1,undefined,1,right,12,12,12,0,12,12,0,0,12,12,12,0,0,12,0,10/27/19 16:40,sternberg task,yes,sternbergtask.osexp,C:/Users/DLGoupil/Desktop,no,mono,no,18,no,white,no,yes,768,legacy,0,11,C:/Users/DLGoupil/Desktop/dg-subject-4.csv,legacy,5 7 3,Kafkaesque Koffka,3.2.8,0,n,0,right,right,right,right,NA,721,1036,1356,721,NA,2,legacy,3,1024,2,48000,-16,experiment,4,even,9,81657,76899,79448,2022,79451,NA,2025,77929,83660,84382,80454,79286,3062,83660,NA,New experiment,13,10419,13,yes,1024
100,100,803,803,black,experiment,legacy,legacy,legacy,0,uniform,1,undefined,1,left,13,13,13,0,13,13,0,0,13,13,13,0,0,13,0,10/27/19 16:40,sternberg task,yes,sternbergtask.osexp,C:/Users/DLGoupil/Desktop,no,mono,no,18,no,white,no,yes,768,legacy,1,11,C:/Users/DLGoupil/Desktop/dg-subject-4.csv,legacy,3 5 7 1,Kafkaesque Koffka,3.2.8,3,y,0,left,right,right,left,NA,823,1036,1356,823,NA,2,legacy,4,1024,2,48000,-16,experiment,4,even,7,87739,84387,85531,2022,85533,NA,2025,77929,89742,90566,86536,79286,3062,89742,NA,New experiment,14,11242,14,yes,1024
100,100,799.4,799.4,black,experiment,legacy,legacy,legacy,0,uniform,1,undefined,1,right,14,14,14,0,14,14,0,0,14,14,14,0,0,14,0,10/27/19 16:40,sternberg task,yes,sternbergtask.osexp,C:/Users/DLGoupil/Desktop,no,mono,no,18,no,white,no,yes,768,legacy,2,11,C:/Users/DLGoupil/Desktop/dg-subject-4.csv,legacy,2 5 1 4,Kafkaesque Koffka,3.2.8,0,n,0,right,right,right,right,NA,749,1036,1356,749,NA,2,legacy,4,1024,2,48000,-16,experiment,4,even,6,93918,90571,91710,2022,91712,NA,2025,77929,95921,96670,92715,79286,3062,95921,NA,New experiment,15,11991,15,yes,1024
100,100,793.3125,793.3125,black,experiment,legacy,legacy,legacy,0,uniform,1,undefined,1,right,15,15,15,0,15,15,0,0,15,15,15,0,0,15,0,10/27/19 16:40,sternberg task,yes,sternbergtask.osexp,C:/Users/DLGoupil/Desktop,no,mono,no,18,no,white,no,yes,768,legacy,3,11,C:/Users/DLGoupil/Desktop/dg-subject-4.csv,legacy,1 6 4,Kafkaesque Koffka,3.2.8,0,n,0,right,right,right,right,NA,702,1036,1356,702,NA,2,legacy,3,1024,2,48000,-16,experiment,4,even,7,100021,96675,97812,2022,97815,NA,2025,77929,102024,102727,98818,79286,3062,102024,NA,New experiment,16,12693,16,yes,1024
100,100,781.2941176,781.2941176,black,experiment,legacy,legacy,legacy,0,uniform,1,undefined,1,left,16,16,16,0,16,16,0,0,16,16,16,0,0,16,0,10/27/19 16:40,sternberg task,yes,sternbergtask.osexp,C:/Users/DLGoupil/Desktop,no,mono,no,18,no,white,no,yes,768,legacy,4,11,C:/Users/DLGoupil/Desktop/dg-subject-4.csv,legacy,2 6 1 7 4,Kafkaesque Koffka,3.2.8,2,y,0,left,right,right,left,NA,589,1036,1356,589,NA,2,legacy,5,1024,2,48000,-16,experiment,4,even,6,106078,102732,103870,2022,103872,NA,2025,77929,108081,108670,104875,79286,3062,108081,NA,New experiment,17,13282,17,yes,1024
100,100,786.9444444,786.9444444,black,experiment,legacy,legacy,legacy,0,uniform,1,undefined,1,right,17,17,17,0,17,17,0,0,17,17,17,0,0,17,0,10/27/19 16:40,sternberg task,yes,sternbergtask.osexp,C:/Users/DLGoupil/Desktop,no,mono,no,18,no,white,no,yes,768,legacy,5,11,C:/Users/DLGoupil/Desktop/dg-subject-4.csv,legacy,5 3 8 7 2 4,Kafkaesque Koffka,3.2.8,0,n,0,right,right,right,right,NA,883,1036,1356,883,NA,2,legacy,6,1024,2,48000,-16,experiment,4,even,9,112016,108675,109808,2022,109810,NA,2025,77929,114019,114902,110814,79286,3062,114019,NA,New experiment,18,14165,18,yes,1024
100,100,790.1052632,790.1052632,black,experiment,legacy,legacy,legacy,0,uniform,1,undefined,1,right,18,18,18,0,18,18,0,0,18,18,18,0,0,18,0,10/27/19 16:40,sternberg task,yes,sternbergtask.osexp,C:/Users/DLGoupil/Desktop,no,mono,no,18,no,white,no,yes,768,legacy,6,11,C:/Users/DLGoupil/Desktop/dg-subject-4.csv,legacy,7 9 1 6,Kafkaesque Koffka,3.2.8,0,n,0,right,right,right,right,NA,847,1036,1356,847,NA,2,legacy,4,1024,2,48000,-16,experiment,4,even,4,118252,114907,116045,2022,116047,NA,2025,77929,120255,121102,117050,79286,3062,120255,NA,New experiment,19,15012,19,yes,1024
100,100,788.25,788.25,black,experiment,legacy,legacy,legacy,0,uniform,1,undefined,1,right,19,19,19,0,19,19,0,0,19,19,19,0,0,19,0,10/27/19 16:40,sternberg task,yes,sternbergtask.osexp,C:/Users/DLGoupil/Desktop,no,mono,no,18,no,white,no,yes,768,legacy,7,11,C:/Users/DLGoupil/Desktop/dg-subject-4.csv,legacy,1 4 9 3,Kafkaesque Koffka,3.2.8,0,n,0,right,right,right,right,NA,753,1036,1356,753,NA,2,legacy,4,1024,2,48000,-16,experiment,4,even,5,124457,121107,122248,2022,122250,NA,2025,77929,126460,127214,123254,79286,3062,126460,NA,New experiment,20,15765,20,yes,1024
100,100,793.7142857,793.7142857,black,experiment,legacy,legacy,legacy,0,uniform,1,undefined,1,left,20,20,20,0,20,20,0,0,20,20,20,0,0,20,0,10/27/19 16:40,sternberg task,yes,sternbergtask.osexp,C:/Users/DLGoupil/Desktop,no,mono,no,18,no,white,no,yes,768,legacy,8,11,C:/Users/DLGoupil/Desktop/dg-subject-4.csv,legacy,8 5 3 7 4 6,Kafkaesque Koffka,3.2.8,6,y,0,left,right,right,left,NA,903,1036,1356,903,NA,2,legacy,6,1024,2,48000,-16,experiment,4,even,6,130571,127219,128362,2022,128365,NA,2025,77929,132574,133478,129368,79286,3062,132574,NA,New experiment,21,16668,21,yes,1024
100,100,810.5,810.5,black,experiment,legacy,legacy,legacy,0,uniform,1,undefined,1,right,21,21,21,0,21,21,0,0,21,21,21,0,0,21,0,10/27/19 16:40,sternberg task,yes,sternbergtask.osexp,C:/Users/DLGoupil/Desktop,no,mono,no,18,no,white,no,yes,768,legacy,9,11,C:/Users/DLGoupil/Desktop/dg-subject-4.csv,legacy,8 5 4 2 9 6,Kafkaesque Koffka,3.2.8,0,n,0,right,right,right,right,NA,1163,1036,1356,1163,NA,2,legacy,6,1024,2,48000,-16,experiment,4,even,3,136831,133483,134623,2022,134625,NA,2025,77929,138834,139998,135628,79286,3062,138834,NA,New experiment,22,17831,22,yes,1024
100,100,811.826087,811.826087,black,experiment,legacy,legacy,legacy,0,uniform,1,undefined,1,right,22,22,22,0,22,22,0,0,22,22,22,0,0,22,0,10/27/19 16:40,sternberg task,yes,sternbergtask.osexp,C:/Users/DLGoupil/Desktop,no,mono,no,18,no,white,no,yes,768,legacy,10,11,C:/Users/DLGoupil/Desktop/dg-subject-4.csv,legacy,6 9 4 5 3 2,Kafkaesque Koffka,3.2.8,0,n,0,right,right,right,right,NA,841,1036,1356,841,NA,2,legacy,6,1024,2,48000,-16,experiment,4,even,8,143353,140003,141144,2022,141147,NA,2025,77929,145356,146198,142150,79286,3062,145356,NA,New experiment,23,18672,23,yes,1024
100,100,810.9583333,810.9583333,black,experiment,legacy,legacy,legacy,0,uniform,1,undefined,1,left,23,23,23,0,23,23,0,0,23,23,23,0,0,23,0,10/27/19 16:40,sternberg task,yes,sternbergtask.osexp,C:/Users/DLGoupil/Desktop,no,mono,no,18,no,white,no,yes,768,legacy,11,11,C:/Users/DLGoupil/Desktop/dg-subject-4.csv,legacy,2 4 6 9,Kafkaesque Koffka,3.2.8,3,y,0,left,right,right,left,NA,791,1036,1356,791,NA,2,legacy,4,1024,2,48000,-16,experiment,4,even,6,149547,146203,147339,2022,147341,NA,2025,77929,151550,152342,148344,79286,3062,151550,NA,New experiment,24,19463,24,yes,1024
100,100,810.16,810.16,black,experiment,legacy,legacy,legacy,0,uniform,1,undefined,1,right,24,24,24,0,24,24,0,0,24,24,24,0,0,24,0,10/27/19 16:40,sternberg task,yes,sternbergtask.osexp,C:/Users/DLGoupil/Desktop,no,mono,no,18,no,white,no,yes,768,legacy,12,11,C:/Users/DLGoupil/Desktop/dg-subject-4.csv,legacy,7 3 2 8,Kafkaesque Koffka,3.2.8,0,n,0,right,right,right,right,NA,791,1036,1356,791,NA,2,legacy,4,1024,2,48000,-16,experiment,4,even,4,155691,152347,153482,2022,153485,NA,2025,77929,157694,158486,154488,79286,3062,157694,NA,New experiment,25,20254,25,yes,1024
100,100,808.3846154,808.3846154,black,experiment,legacy,legacy,legacy,0,uniform,1,undefined,1,right,25,25,25,0,25,25,0,0,25,25,25,0,0,25,0,10/27/19 16:40,sternberg task,yes,sternbergtask.osexp,C:/Users/DLGoupil/Desktop,no,mono,no,18,no,white,no,yes,768,legacy,13,11,C:/Users/DLGoupil/Desktop/dg-subject-4.csv,legacy,3 4 2,Kafkaesque Koffka,3.2.8,0,n,0,right,right,right,right,NA,764,1036,1356,764,NA,2,legacy,3,1024,2,48000,-16,experiment,4,even,5,161838,158491,159630,2022,159632,NA,2025,77929,163841,164606,160635,79286,3062,163841,NA,New experiment,26,21018,26,yes,1024
100,100,808.8888889,808.8888889,black,experiment,legacy,legacy,legacy,0,uniform,1,undefined,1,right,26,26,26,0,26,26,0,0,26,26,26,0,0,26,0,10/27/19 16:40,sternberg task,yes,sternbergtask.osexp,C:/Users/DLGoupil/Desktop,no,mono,no,18,no,white,no,yes,768,legacy,14,11,C:/Users/DLGoupil/Desktop/dg-subject-4.csv,legacy,6 9 5,Kafkaesque Koffka,3.2.8,0,n,0,right,right,right,right,NA,822,1036,1356,822,NA,2,legacy,3,1024,2,48000,-16,experiment,4,even,8,167956,164611,165748,2022,165750,NA,2025,77929,169959,170782,166753,79286,3062,169959,NA,New experiment,27,21840,27,yes,1024
96.42857143,96.42857143,826.8928571,826.8928571,black,experiment,legacy,legacy,legacy,0,uniform,0,undefined,0,right,27,27,27,0,27,27,0,0,27,27,27,0,0,27,0,10/27/19 16:40,sternberg task,yes,sternbergtask.osexp,C:/Users/DLGoupil/Desktop,no,mono,no,18,no,white,no,yes,768,legacy,15,11,C:/Users/DLGoupil/Desktop/dg-subject-4.csv,legacy,1 7 5 2 9,Kafkaesque Koffka,3.2.8,0,n,0,left,right,right,left,NA,1313,1036,1356,1313,NA,2,legacy,5,1024,2,48000,-16,experiment,4,even,3,174137,170787,171929,2022,171931,NA,2025,77929,176140,177454,172934,79286,3062,176140,NA,New experiment,27,23153,28,yes,1024
96.55172414,96.55172414,834.4482759,834.4482759,black,experiment,legacy,legacy,legacy,0,uniform,1,undefined,1,right,28,28,28,0,28,28,0,0,28,28,28,0,0,28,0,10/27/19 16:40,sternberg task,yes,sternbergtask.osexp,C:/Users/DLGoupil/Desktop,no,mono,no,18,no,white,no,yes,768,legacy,16,11,C:/Users/DLGoupil/Desktop/dg-subject-4.csv,legacy,4 2 6 9,Kafkaesque Koffka,3.2.8,0,n,0,right,right,right,right,NA,1046,1036,1356,1046,NA,2,legacy,4,1024,2,48000,-16,experiment,4,even,7,180804,170787,178595,2022,178598,177459,2025,77929,182807,183854,179601,79286,3062,182807,NA,New experiment,28,24199,29,yes,1024
96.66666667,96.66666667,836.2666667,836.2666667,black,experiment,legacy,legacy,legacy,0,uniform,1,undefined,1,right,29,29,29,0,29,29,0,0,29,29,29,0,0,29,0,10/27/19 16:40,sternberg task,yes,sternbergtask.osexp,C:/Users/DLGoupil/Desktop,no,mono,no,18,no,white,no,yes,768,legacy,17,11,C:/Users/DLGoupil/Desktop/dg-subject-4.csv,legacy,6 3 1 7 9 8,Kafkaesque Koffka,3.2.8,0,n,0,right,right,right,right,NA,889,1036,1356,889,NA,2,legacy,6,1024,2,48000,-16,experiment,4,even,4,187210,183859,185001,2022,185004,177459,2025,77929,189213,190102,186007,79286,3062,189213,NA,New experiment,29,25088,30,yes,1024
96.77419355,96.77419355,830,830,black,experiment,legacy,legacy,legacy,0,uniform,1,undefined,1,left,30,30,30,0,30,30,0,0,30,30,30,0,0,30,0,10/27/19 16:40,sternberg task,yes,sternbergtask.osexp,C:/Users/DLGoupil/Desktop,no,mono,no,18,no,white,no,yes,768,legacy,18,11,C:/Users/DLGoupil/Desktop/dg-subject-4.csv,legacy,9 8 4,Kafkaesque Koffka,3.2.8,1,y,0,left,right,right,left,NA,642,1036,1356,642,NA,2,legacy,3,1024,2,48000,-16,experiment,4,even,9,193456,190107,191248,2022,191250,177459,2025,77929,195459,196102,192253,79286,3062,195459,NA,New experiment,30,25730,31,yes,1024
96.875,96.875,826.375,826.375,black,experiment,legacy,legacy,legacy,0,uniform,1,undefined,1,left,31,31,31,0,31,31,0,0,31,31,31,0,0,31,0,10/27/19 16:40,sternberg task,yes,sternbergtask.osexp,C:/Users/DLGoupil/Desktop,no,mono,no,18,no,white,no,yes,768,legacy,19,11,C:/Users/DLGoupil/Desktop/dg-subject-4.csv,legacy,4 6 2 5 1,Kafkaesque Koffka,3.2.8,5,y,0,left,right,right,left,NA,714,1036,1356,714,NA,2,legacy,5,1024,2,48000,-16,experiment,4,even,1,199456,196107,197248,2022,197250,177459,2025,77929,201459,202174,198253,79286,3062,201459,NA,New experiment,31,26444,32,yes,1024
96.96969697,96.96969697,820.030303,820.030303,black,experiment,legacy,legacy,legacy,0,uniform,1,undefined,1,left,32,32,32,0,32,32,0,0,32,32,32,0,0,32,0,10/27/19 16:40,sternberg task,yes,sternbergtask.osexp,C:/Users/DLGoupil/Desktop,no,mono,no,18,no,white,no,yes,768,legacy,20,11,C:/Users/DLGoupil/Desktop/dg-subject-4.csv,legacy,9 4 2,Kafkaesque Koffka,3.2.8,1,y,0,left,right,right,left,NA,617,1036,1356,617,NA,2,legacy,3,1024,2,48000,-16,experiment,4,even,9,205521,202179,203313,2022,203316,177459,2025,77929,207524,208142,204318,79286,3062,207524,NA,New experiment,32,27061,33,yes,1024
97.05882353,97.05882353,812.5588235,812.5588235,black,experiment,legacy,legacy,legacy,0,uniform,1,undefined,1,left,33,33,33,0,33,33,0,0,33,33,33,0,0,33,0,10/27/19 16:40,sternberg task,yes,sternbergtask.osexp,C:/Users/DLGoupil/Desktop,no,mono,no,18,no,white,no,yes,768,legacy,21,11,C:/Users/DLGoupil/Desktop/dg-subject-4.csv,legacy,8,Kafkaesque Koffka,3.2.8,1,y,0,left,right,right,left,NA,566,1036,1356,566,NA,2,legacy,1,1024,2,48000,-16,experiment,4,even,8,211492,208147,209284,2022,209286,177459,2025,77929,213495,214062,210289,79286,3062,213495,NA,New experiment,33,27627,34,yes,1024
97.14285714,97.14285714,811.7428571,811.7428571,black,experiment,legacy,legacy,legacy,0,uniform,1,undefined,1,right,34,34,34,0,34,34,0,0,34,34,34,0,0,34,0,10/27/19 16:40,sternberg task,yes,sternbergtask.osexp,C:/Users/DLGoupil/Desktop,no,mono,no,18,no,white,no,yes,768,legacy,22,11,C:/Users/DLGoupil/Desktop/dg-subject-4.csv,legacy,5 9 2 3,Kafkaesque Koffka,3.2.8,0,n,0,right,right,right,right,NA,784,1036,1356,784,NA,2,legacy,4,1024,2,48000,-16,experiment,4,even,8,217418,214067,215210,2022,215212,177459,2025,77929,219421,220206,216215,79286,3062,219421,NA,New experiment,34,28411,35,yes,1024
97.22222222,97.22222222,808.0277778,808.0277778,black,experiment,legacy,legacy,legacy,0,uniform,1,undefined,1,left,35,35,35,0,35,35,0,0,35,35,35,0,0,35,0,10/27/19 16:40,sternberg task,yes,sternbergtask.osexp,C:/Users/DLGoupil/Desktop,no,mono,no,18,no,white,no,yes,768,legacy,23,11,C:/Users/DLGoupil/Desktop/dg-subject-4.csv,legacy,3 9 7 6 4,Kafkaesque Koffka,3.2.8,3,y,0,left,right,right,left,NA,678,1036,1356,678,NA,2,legacy,5,1024,2,48000,-16,experiment,4,even,7,223556,220211,221347,2022,221350,177459,2025,77929,225559,226238,222353,79286,3062,225559,NA,New experiment,35,29089,36,yes,1024
97.2972973,97.2972973,808.2162162,808.2162162,black,experiment,legacy,legacy,legacy,0,uniform,1,undefined,1,right,36,36,36,0,36,36,0,0,36,36,36,0,0,36,0,10/27/19 16:40,sternberg task,yes,sternbergtask.osexp,C:/Users/DLGoupil/Desktop,no,mono,no,18,no,white,no,yes,768,legacy,24,11,C:/Users/DLGoupil/Desktop/dg-subject-4.csv,legacy,2 8 9 4 1,Kafkaesque Koffka,3.2.8,0,n,0,right,right,right,right,NA,815,1036,1356,815,NA,2,legacy,5,1024,2,48000,-16,experiment,4,even,5,229587,226243,227379,2022,227381,177459,2025,77929,231590,232406,228384,79286,3062,231590,NA,New experiment,36,29904,37,yes,1024
97.36842105,97.36842105,807.0789474,807.0789474,black,experiment,legacy,legacy,legacy,0,uniform,1,undefined,1,left,37,37,37,0,37,37,0,0,37,37,37,0,0,37,0,10/27/19 16:40,sternberg task,yes,sternbergtask.osexp,C:/Users/DLGoupil/Desktop,no,mono,no,18,no,white,no,yes,768,legacy,25,11,C:/Users/DLGoupil/Desktop/dg-subject-4.csv,legacy,2 8 5 1,Kafkaesque Koffka,3.2.8,4,y,0,left,right,right,left,NA,765,1036,1356,765,NA,2,legacy,4,1024,2,48000,-16,experiment,4,even,1,235758,232411,233550,2022,233552,177459,2025,77929,237761,238527,234555,79286,3062,237761,NA,New experiment,37,30669,38,yes,1024
97.43589744,97.43589744,807.2307692,807.2307692,black,experiment,legacy,legacy,legacy,0,uniform,1,undefined,1,right,38,38,38,0,38,38,0,0,38,38,38,0,0,38,0,10/27/19 16:40,sternberg task,yes,sternbergtask.osexp,C:/Users/DLGoupil/Desktop,no,mono,no,18,no,white,no,yes,768,legacy,26,11,C:/Users/DLGoupil/Desktop/dg-subject-4.csv,legacy,9 7 4 5 8,Kafkaesque Koffka,3.2.8,0,n,0,right,right,right,right,NA,813,1036,1356,813,NA,2,legacy,5,1024,2,48000,-16,experiment,4,even,6,241878,238531,239670,2022,239672,177459,2025,77929,243881,244695,240675,79286,3062,243881,NA,New experiment,38,31482,39,yes,1024
97.5,97.5,804.85,804.85,black,experiment,legacy,legacy,legacy,0,uniform,1,undefined,1,left,39,39,39,0,39,39,0,0,39,39,39,0,0,39,0,10/27/19 16:40,sternberg task,yes,sternbergtask.osexp,C:/Users/DLGoupil/Desktop,no,mono,no,18,no,white,no,yes,768,legacy,27,11,C:/Users/DLGoupil/Desktop/dg-subject-4.csv,legacy,5 2 6,Kafkaesque Koffka,3.2.8,2,y,0,left,right,right,left,NA,712,1036,1356,712,NA,2,legacy,3,1024,2,48000,-16,experiment,4,even,2,248050,244699,245841,2022,245844,177459,2025,77929,250053,250766,246847,79286,3062,250053,NA,New experiment,39,32194,40,yes,1024
97.56097561,97.56097561,799.9756098,799.9756098,black,experiment,legacy,legacy,legacy,0,uniform,1,undefined,1,left,40,40,40,0,40,40,0,0,40,40,40,0,0,40,0,10/27/19 16:40,sternberg task,yes,sternbergtask.osexp,C:/Users/DLGoupil/Desktop,no,mono,no,18,no,white,no,yes,768,legacy,28,11,C:/Users/DLGoupil/Desktop/dg-subject-4.csv,legacy,9 5 3 8 4,Kafkaesque Koffka,3.2.8,1,y,0,left,right,right,left,NA,605,1036,1356,605,NA,2,legacy,5,1024,2,48000,-16,experiment,4,even,9,254117,250771,251909,2022,251911,177459,2025,77929,256121,256726,252914,79286,3062,256120,NA,New experiment,40,32799,41,yes,1024
97.61904762,97.61904762,794.9285714,794.9285714,black,experiment,legacy,legacy,legacy,0,uniform,1,undefined,1,left,41,41,41,0,41,41,0,0,41,41,41,0,0,41,0,10/27/19 16:40,sternberg task,yes,sternbergtask.osexp,C:/Users/DLGoupil/Desktop,no,mono,no,18,no,white,no,yes,768,legacy,29,11,C:/Users/DLGoupil/Desktop/dg-subject-4.csv,legacy,8 1 6,Kafkaesque Koffka,3.2.8,3,y,0,left,right,right,left,NA,588,1036,1356,588,NA,2,legacy,3,1024,2,48000,-16,experiment,4,even,6,260087,256731,257879,2022,257881,177459,2025,77929,262090,262679,258884,79286,3062,262090,NA,New experiment,41,33387,42,yes,1024
97.6744186,97.6744186,790.744186,790.744186,black,experiment,legacy,legacy,legacy,0,uniform,1,undefined,1,left,42,42,42,0,42,42,0,0,42,42,42,0,0,42,0,10/27/19 16:40,sternberg task,yes,sternbergtask.osexp,C:/Users/DLGoupil/Desktop,no,mono,no,18,no,white,no,yes,768,legacy,30,11,C:/Users/DLGoupil/Desktop/dg-subject-4.csv,legacy,2 3 7 4,Kafkaesque Koffka,3.2.8,1,y,0,left,right,right,left,NA,615,1036,1356,615,NA,2,legacy,4,1024,2,48000,-16,experiment,4,even,2,266028,262684,263820,2022,263822,177459,2025,77929,268031,268646,264825,79286,3062,268031,NA,New experiment,42,34002,43,yes,1024
97.72727273,97.72727273,790.8863636,790.8863636,black,experiment,legacy,legacy,legacy,0,uniform,1,undefined,1,right,43,43,43,0,43,43,0,0,43,43,43,0,0,43,0,10/27/19 16:40,sternberg task,yes,sternbergtask.osexp,C:/Users/DLGoupil/Desktop,no,mono,no,18,no,white,no,yes,768,legacy,31,11,C:/Users/DLGoupil/Desktop/dg-subject-4.csv,legacy,2 7 5,Kafkaesque Koffka,3.2.8,0,n,0,right,right,right,right,NA,797,1036,1356,797,NA,2,legacy,3,1024,2,48000,-16,experiment,4,even,8,271997,268652,269789,2022,269791,177459,2025,77929,274000,274798,270794,79286,3062,274000,NA,New experiment,43,34799,44,yes,1024
95.55555556,95.55555556,797.4444444,797.4444444,black,experiment,legacy,legacy,legacy,0,uniform,0,undefined,0,left,44,44,44,0,44,44,0,0,44,44,44,0,0,44,0,10/27/19 16:40,sternberg task,yes,sternbergtask.osexp,C:/Users/DLGoupil/Desktop,no,mono,no,18,no,white,no,yes,768,legacy,32,11,C:/Users/DLGoupil/Desktop/dg-subject-4.csv,legacy,5 7 3 6 2,Kafkaesque Koffka,3.2.8,5,y,0,right,right,right,right,NA,1086,1036,1356,1086,NA,2,legacy,5,1024,2,48000,-16,experiment,4,even,2,278149,274803,275940,2022,275943,177459,2025,77929,280151,281238,276946,79286,3062,280151,NA,New experiment,43,35885,45,yes,1024
95.65217391,95.65217391,799.8043478,799.8043478,black,experiment,legacy,legacy,legacy,0,uniform,1,undefined,1,right,45,45,45,0,45,45,0,0,45,45,45,0,0,45,0,10/27/19 16:40,sternberg task,yes,sternbergtask.osexp,C:/Users/DLGoupil/Desktop,no,mono,no,18,no,white,no,yes,768,legacy,33,11,C:/Users/DLGoupil/Desktop/dg-subject-4.csv,legacy,8 2 1 4 5 9,Kafkaesque Koffka,3.2.8,0,n,0,right,right,right,right,NA,906,1036,1356,906,NA,2,legacy,6,1024,2,48000,-16,experiment,4,even,7,284592,274803,282383,2022,282386,281243,2025,77929,286595,287502,283389,79286,3062,286595,NA,New experiment,44,36791,46,yes,1024
95.74468085,95.74468085,800.3404255,800.3404255,black,experiment,legacy,legacy,legacy,0,uniform,1,undefined,1,right,46,46,46,0,46,46,0,0,46,46,46,0,0,46,0,10/27/19 16:40,sternberg task,yes,sternbergtask.osexp,C:/Users/DLGoupil/Desktop,no,mono,no,18,no,white,no,yes,768,legacy,34,11,C:/Users/DLGoupil/Desktop/dg-subject-4.csv,legacy,4 2 7 6 1 3,Kafkaesque Koffka,3.2.8,0,n,0,right,right,right,right,NA,825,1036,1356,825,NA,2,legacy,6,1024,2,48000,-16,experiment,4,even,8,290849,287507,288640,2022,288643,281243,2025,77929,292852,293678,289646,79286,3062,292852,NA,New experiment,45,37616,47,yes,1024
95.83333333,95.83333333,798,798,black,experiment,legacy,legacy,legacy,0,uniform,1,undefined,1,right,47,47,47,0,47,47,0,0,47,47,47,0,0,47,0,10/27/19 16:40,sternberg task,yes,sternbergtask.osexp,C:/Users/DLGoupil/Desktop,no,mono,no,18,no,white,no,yes,768,legacy,35,11,C:/Users/DLGoupil/Desktop/dg-subject-4.csv,legacy,7 9,Kafkaesque Koffka,3.2.8,0,n,0,right,right,right,right,NA,688,1036,1356,688,NA,2,legacy,2,1024,2,48000,-16,experiment,4,even,1,297026,293683,294817,2022,294820,281243,2025,77929,299029,299718,295823,79286,3062,299029,NA,New experiment,46,38304,48,yes,1024
95.91836735,95.91836735,794.4897959,794.4897959,black,experiment,legacy,legacy,legacy,0,uniform,1,undefined,1,left,48,48,48,0,48,48,0,0,48,48,48,0,0,48,0,10/27/19 16:40,sternberg task,yes,sternbergtask.osexp,C:/Users/DLGoupil/Desktop,no,mono,no,18,no,white,no,yes,768,legacy,36,11,C:/Users/DLGoupil/Desktop/dg-subject-4.csv,legacy,7 1 8 5 6 2,Kafkaesque Koffka,3.2.8,2,y,0,left,right,right,left,NA,626,1036,1356,626,NA,2,legacy,6,1024,2,48000,-16,experiment,4,even,1,303073,299723,300865,2022,300867,281243,2025,77929,305076,305703,301870,79286,3062,305076,NA,New experiment,47,38930,49,yes,1024
96,96,792.58,792.58,black,experiment,legacy,legacy,legacy,0,uniform,1,undefined,1,right,49,49,49,0,49,49,0,0,49,49,49,0,0,49,0,10/27/19 16:40,sternberg task,yes,sternbergtask.osexp,C:/Users/DLGoupil/Desktop,no,mono,no,18,no,white,no,yes,768,legacy,37,11,C:/Users/DLGoupil/Desktop/dg-subject-4.csv,legacy,2 8 9,Kafkaesque Koffka,3.2.8,0,n,0,right,right,right,right,NA,699,1036,1356,699,NA,2,legacy,3,1024,2,48000,-16,experiment,4,even,6,309056,305708,306848,2022,306850,281243,2025,77929,311059,311759,307853,79286,3062,311059,NA,New experiment,48,39629,50,yes,1024
96.07843137,96.07843137,790.1764706,790.1764706,black,experiment,legacy,legacy,legacy,0,uniform,1,undefined,1,right,50,50,50,0,50,50,0,0,50,50,50,0,0,50,0,10/27/19 16:40,sternberg task,yes,sternbergtask.osexp,C:/Users/DLGoupil/Desktop,no,mono,no,18,no,white,no,yes,768,legacy,38,11,C:/Users/DLGoupil/Desktop/dg-subject-4.csv,legacy,7 1,Kafkaesque Koffka,3.2.8,0,n,0,right,right,right,right,NA,670,1036,1356,670,NA,2,legacy,2,1024,2,48000,-16,experiment,4,even,8,315108,311764,312900,2022,312902,281243,2025,77929,317111,317782,313905,79286,3062,317111,NA,New experiment,49,40299,51,yes,1024
96.15384615,96.15384615,787.2307692,787.2307692,black,experiment,legacy,legacy,legacy,0,uniform,1,undefined,1,left,51,51,51,0,51,51,0,0,51,51,51,0,0,51,0,10/27/19 16:40,sternberg task,yes,sternbergtask.osexp,C:/Users/DLGoupil/Desktop,no,mono,no,18,no,white,no,yes,768,legacy,39,11,C:/Users/DLGoupil/Desktop/dg-subject-4.csv,legacy,4 7 6 8 2 3,Kafkaesque Koffka,3.2.8,6,y,0,left,right,right,left,NA,637,1036,1356,637,NA,2,legacy,6,1024,2,48000,-16,experiment,4,even,3,321133,317787,318925,2022,318927,281243,2025,77929,323136,323774,319930,79286,3062,323136,NA,New experiment,50,40936,52,yes,1024
96.22641509,96.22641509,783.8867925,783.8867925,black,experiment,legacy,legacy,legacy,0,uniform,1,undefined,1,left,52,52,52,0,52,52,0,0,52,52,52,0,0,52,0,10/27/19 16:40,sternberg task,yes,sternbergtask.osexp,C:/Users/DLGoupil/Desktop,no,mono,no,18,no,white,no,yes,768,legacy,40,11,C:/Users/DLGoupil/Desktop/dg-subject-4.csv,legacy,2 4 8 5 1 3,Kafkaesque Koffka,3.2.8,1,y,0,left,right,right,left,NA,610,1036,1356,610,NA,2,legacy,6,1024,2,48000,-16,experiment,4,even,2,327128,323779,324919,2022,324921,281243,2025,77929,329132,329743,325925,79286,3062,329132,NA,New experiment,51,41546,53,yes,1024
96.2962963,96.2962963,782.6666667,782.6666667,black,experiment,legacy,legacy,legacy,0,uniform,1,undefined,1,right,53,53,53,0,53,53,0,0,53,53,53,0,0,53,0,10/27/19 16:40,sternberg task,yes,sternbergtask.osexp,C:/Users/DLGoupil/Desktop,no,mono,no,18,no,white,no,yes,768,legacy,41,11,C:/Users/DLGoupil/Desktop/dg-subject-4.csv,legacy,1 4 9 2 5,Kafkaesque Koffka,3.2.8,0,n,0,right,right,right,right,NA,718,1036,1356,718,NA,2,legacy,5,1024,2,48000,-16,experiment,4,even,7,333092,329747,330884,2022,330886,281243,2025,77929,335095,335814,331889,79286,3062,335095,NA,New experiment,52,42264,54,yes,1024
96.36363636,96.36363636,779.2727273,779.2727273,black,experiment,legacy,legacy,legacy,0,uniform,1,undefined,1,right,54,54,54,0,54,54,0,0,54,54,54,0,0,54,0,10/27/19 16:40,sternberg task,yes,sternbergtask.osexp,C:/Users/DLGoupil/Desktop,no,mono,no,18,no,white,no,yes,768,legacy,42,11,C:/Users/DLGoupil/Desktop/dg-subject-4.csv,legacy,4 1,Kafkaesque Koffka,3.2.8,0,n,0,right,right,right,right,NA,596,1036,1356,596,NA,2,legacy,2,1024,2,48000,-16,experiment,4,even,6,339167,335819,336958,2022,336961,281243,2025,77929,341170,341767,337964,79286,3062,341170,NA,New experiment,53,42860,55,yes,1024
96.42857143,96.42857143,781.8928571,781.8928571,black,experiment,legacy,legacy,legacy,0,uniform,1,undefined,1,left,55,55,55,0,55,55,0,0,55,55,55,0,0,55,0,10/27/19 16:40,sternberg task,yes,sternbergtask.osexp,C:/Users/DLGoupil/Desktop,no,mono,no,18,no,white,no,yes,768,legacy,43,11,C:/Users/DLGoupil/Desktop/dg-subject-4.csv,legacy,7 4 2 6 3 5,Kafkaesque Koffka,3.2.8,6,y,0,left,right,right,left,NA,926,1036,1356,926,NA,2,legacy,6,1024,2,48000,-16,experiment,4,even,5,345117,341772,342908,2022,342911,281243,2025,77929,347120,348047,343914,79286,3062,347120,NA,New experiment,54,43786,56,yes,1024
96.49122807,96.49122807,777.8947368,777.8947368,black,experiment,legacy,legacy,legacy,0,uniform,1,undefined,1,left,56,56,56,0,56,56,0,0,56,56,56,0,0,56,0,10/27/19 16:40,sternberg task,yes,sternbergtask.osexp,C:/Users/DLGoupil/Desktop,no,mono,no,18,no,white,no,yes,768,legacy,44,11,C:/Users/DLGoupil/Desktop/dg-subject-4.csv,legacy,2 3,Kafkaesque Koffka,3.2.8,1,y,0,left,right,right,left,NA,554,1036,1356,554,NA,2,legacy,2,1024,2,48000,-16,experiment,4,even,2,351401,348052,349192,2022,349195,281243,2025,77929,353404,353959,350198,79286,3062,353404,NA,New experiment,55,44340,57,yes,1024
96.55172414,96.55172414,775.1206897,775.1206897,black,experiment,legacy,legacy,legacy,0,uniform,1,undefined,1,left,57,57,57,0,57,57,0,0,57,57,57,0,0,57,0,10/27/19 16:40,sternberg task,yes,sternbergtask.osexp,C:/Users/DLGoupil/Desktop,no,mono,no,18,no,white,no,yes,768,legacy,45,11,C:/Users/DLGoupil/Desktop/dg-subject-4.csv,legacy,8 7 3,Kafkaesque Koffka,3.2.8,1,y,0,left,right,right,left,NA,617,1036,1356,617,NA,2,legacy,3,1024,2,48000,-16,experiment,4,even,8,357314,353964,355106,2022,355108,281243,2025,77929,359317,359935,356111,79286,3062,359317,NA,New experiment,56,44957,58,yes,1024
96.61016949,96.61016949,773.0338983,773.0338983,black,experiment,legacy,legacy,legacy,0,uniform,1,undefined,1,left,58,58,58,0,58,58,0,0,58,58,58,0,0,58,0,10/27/19 16:40,sternberg task,yes,sternbergtask.osexp,C:/Users/DLGoupil/Desktop,no,mono,no,18,no,white,no,yes,768,legacy,46,11,C:/Users/DLGoupil/Desktop/dg-subject-4.csv,legacy,6 9 7 4 5 1,Kafkaesque Koffka,3.2.8,2,y,0,left,right,right,left,NA,652,1036,1356,652,NA,2,legacy,6,1024,2,48000,-16,experiment,4,even,9,363287,359940,361078,2022,361081,281243,2025,77929,365290,365943,362084,79286,3062,365290,NA,New experiment,57,45609,59,yes,1024
96.66666667,96.66666667,768.5333333,768.5333333,black,experiment,legacy,legacy,legacy,0,uniform,1,undefined,1,left,59,59,59,0,59,59,0,0,59,59,59,0,0,59,0,10/27/19 16:40,sternberg task,yes,sternbergtask.osexp,C:/Users/DLGoupil/Desktop,no,mono,no,18,no,white,no,yes,768,legacy,47,11,C:/Users/DLGoupil/Desktop/dg-subject-4.csv,legacy,4,Kafkaesque Koffka,3.2.8,1,y,0,left,right,right,left,NA,503,1036,1356,503,NA,2,legacy,1,1024,2,48000,-16,experiment,4,even,4,369292,365948,367083,2022,367086,281243,2025,77929,371295,371799,368089,79286,3062,371295,NA,New experiment,58,46112,60,yes,1024
96.72131148,96.72131148,768.7704918,768.7704918,black,experiment,legacy,legacy,legacy,0,uniform,1,undefined,1,right,60,60,60,0,60,60,0,0,60,60,60,0,0,60,0,10/27/19 16:40,sternberg task,yes,sternbergtask.osexp,C:/Users/DLGoupil/Desktop,no,mono,no,18,no,white,no,yes,768,legacy,48,11,C:/Users/DLGoupil/Desktop/dg-subject-4.csv,legacy,8 6 3 4 7,Kafkaesque Koffka,3.2.8,0,n,0,right,right,right,right,NA,783,1036,1356,783,NA,2,legacy,5,1024,2,48000,-16,experiment,4,even,1,375147,371804,372939,2022,372941,281243,2025,77929,377150,377934,373944,79286,3062,377150,NA,New experiment,59,46895,61,yes,1024
96.77419355,96.77419355,772.5483871,772.5483871,black,experiment,legacy,legacy,legacy,0,uniform,1,undefined,1,left,61,61,61,0,61,61,0,0,61,61,61,0,0,61,0,10/27/19 16:40,sternberg task,yes,sternbergtask.osexp,C:/Users/DLGoupil/Desktop,no,mono,no,18,no,white,no,yes,768,legacy,49,11,C:/Users/DLGoupil/Desktop/dg-subject-4.csv,legacy,7 8 6 3 1,Kafkaesque Koffka,3.2.8,5,y,0,left,right,right,left,NA,1003,1036,1356,1003,NA,2,legacy,5,1024,2,48000,-16,experiment,4,even,1,381287,377939,379079,2022,379081,281243,2025,77929,383290,384295,380084,79286,3062,383290,NA,New experiment,60,47898,62,yes,1024
96.82539683,96.82539683,779.6825397,779.6825397,black,experiment,legacy,legacy,legacy,0,uniform,1,undefined,1,left,62,62,62,0,62,62,0,0,62,62,62,0,0,62,0,10/27/19 16:40,sternberg task,yes,sternbergtask.osexp,C:/Users/DLGoupil/Desktop,no,mono,no,18,no,white,no,yes,768,legacy,50,11,C:/Users/DLGoupil/Desktop/dg-subject-4.csv,legacy,6 7 8 5,Kafkaesque Koffka,3.2.8,3,y,0,left,right,right,left,NA,1222,1036,1356,1222,NA,2,legacy,4,1024,2,48000,-16,experiment,4,even,8,387645,384299,385437,2022,385439,281243,2025,77929,389648,390871,386442,79286,3062,389648,NA,New experiment,61,49120,63,yes,1024
96.875,96.875,777.234375,777.234375,black,experiment,legacy,legacy,legacy,0,uniform,1,undefined,1,right,63,63,63,0,63,63,0,0,63,63,63,0,0,63,0,10/27/19 16:40,sternberg task,yes,sternbergtask.osexp,C:/Users/DLGoupil/Desktop,no,mono,no,18,no,white,no,yes,768,legacy,51,11,C:/Users/DLGoupil/Desktop/dg-subject-4.csv,legacy,1,Kafkaesque Koffka,3.2.8,0,n,0,right,right,right,right,NA,623,1036,1356,623,NA,2,legacy,1,1024,2,48000,-16,experiment,4,even,7,394220,390875,392011,2022,392014,281243,2025,77929,396223,396847,393017,79286,3062,396223,NA,New experiment,62,49743,64,yes,1024
96.92307692,96.92307692,779.5846154,779.5846154,black,experiment,legacy,legacy,legacy,0,uniform,1,undefined,1,left,64,64,64,0,64,64,0,0,64,64,64,0,0,64,0,10/27/19 16:40,sternberg task,yes,sternbergtask.osexp,C:/Users/DLGoupil/Desktop,no,mono,no,18,no,white,no,yes,768,legacy,52,11,C:/Users/DLGoupil/Desktop/dg-subject-4.csv,legacy,9 3 8 2 1 4,Kafkaesque Koffka,3.2.8,3,y,0,left,right,right,left,NA,930,1036,1356,930,NA,2,legacy,6,1024,2,48000,-16,experiment,4,even,8,400193,396851,397985,2022,397987,281243,2025,77929,402196,403127,398990,79286,3062,402196,NA,New experiment,63,50673,65,yes,1024
96.96969697,96.96969697,778.0757576,778.0757576,black,experiment,legacy,legacy,legacy,0,uniform,1,undefined,1,left,65,65,65,0,65,65,0,0,65,65,65,0,0,65,0,10/27/19 16:40,sternberg task,yes,sternbergtask.osexp,C:/Users/DLGoupil/Desktop,no,mono,no,18,no,white,no,yes,768,legacy,53,11,C:/Users/DLGoupil/Desktop/dg-subject-4.csv,legacy,3 5 4 7,Kafkaesque Koffka,3.2.8,1,y,0,left,right,right,left,NA,680,1036,1356,680,NA,2,legacy,4,1024,2,48000,-16,experiment,4,even,3,406483,403131,404274,2022,404276,281243,2025,77929,408486,409167,405280,79286,3062,408486,NA,New experiment,64,51353,66,yes,1024
97.01492537,97.01492537,777.6268657,777.6268657,black,experiment,legacy,legacy,legacy,0,uniform,1,undefined,1,right,66,66,66,0,66,66,0,0,66,66,66,0,0,66,0,10/27/19 16:40,sternberg task,yes,sternbergtask.osexp,C:/Users/DLGoupil/Desktop,no,mono,no,18,no,white,no,yes,768,legacy,54,11,C:/Users/DLGoupil/Desktop/dg-subject-4.csv,legacy,3 9 1,Kafkaesque Koffka,3.2.8,0,n,0,right,right,right,right,NA,748,1036,1356,748,NA,2,legacy,3,1024,2,48000,-16,experiment,4,even,7,412518,409172,410309,2022,410312,281243,2025,77929,414521,415270,411315,79286,3062,414521,NA,New experiment,65,52101,67,yes,1024
97.05882353,97.05882353,775.7058824,775.7058824,black,experiment,legacy,legacy,legacy,0,uniform,1,undefined,1,left,67,67,67,0,67,67,0,0,67,67,67,0,0,67,0,10/27/19 16:40,sternberg task,yes,sternbergtask.osexp,C:/Users/DLGoupil/Desktop,no,mono,no,18,no,white,no,yes,768,legacy,55,11,C:/Users/DLGoupil/Desktop/dg-subject-4.csv,legacy,9 1 6 7 8,Kafkaesque Koffka,3.2.8,1,y,0,left,right,right,left,NA,647,1036,1356,647,NA,2,legacy,5,1024,2,48000,-16,experiment,4,even,9,418619,415275,416411,2022,416413,281243,2025,77929,420622,421271,417416,79286,3062,420622,NA,New experiment,66,52748,68,yes,1024
97.10144928,97.10144928,775.5942029,775.5942029,black,experiment,legacy,legacy,legacy,0,uniform,1,undefined,1,right,68,68,68,0,68,68,0,0,68,68,68,0,0,68,0,10/27/19 16:40,sternberg task,yes,sternbergtask.osexp,C:/Users/DLGoupil/Desktop,no,mono,no,18,no,white,no,yes,768,legacy,56,11,C:/Users/DLGoupil/Desktop/dg-subject-4.csv,legacy,1 5 3 2 8,Kafkaesque Koffka,3.2.8,0,n,0,right,right,right,right,NA,768,1036,1356,768,NA,2,legacy,5,1024,2,48000,-16,experiment,4,even,4,424619,421275,422410,2022,422413,281243,2025,77929,426622,427391,423416,79286,3062,426622,NA,New experiment,67,53516,69,yes,1024
97.14285714,97.14285714,776.9714286,776.9714286,black,experiment,legacy,legacy,legacy,0,uniform,1,undefined,1,left,69,69,69,0,69,69,0,0,69,69,69,0,0,69,0,10/27/19 16:40,sternberg task,yes,sternbergtask.osexp,C:/Users/DLGoupil/Desktop,no,mono,no,18,no,white,no,yes,768,legacy,57,11,C:/Users/DLGoupil/Desktop/dg-subject-4.csv,legacy,3 5 9 6 2 4,Kafkaesque Koffka,3.2.8,1,y,0,left,right,right,left,NA,872,1036,1356,872,NA,2,legacy,6,1024,2,48000,-16,experiment,4,even,3,430739,427396,428531,2022,428533,281243,2025,77929,432742,433615,429536,79286,3062,432742,NA,New experiment,68,54388,70,yes,1024
97.18309859,97.18309859,776.8169014,776.8169014,black,experiment,legacy,legacy,legacy,0,uniform,1,undefined,1,right,70,70,70,0,70,70,0,0,70,70,70,0,0,70,0,10/27/19 16:40,sternberg task,yes,sternbergtask.osexp,C:/Users/DLGoupil/Desktop,no,mono,no,18,no,white,no,yes,768,legacy,58,11,C:/Users/DLGoupil/Desktop/dg-subject-4.csv,legacy,7 8 6 1,Kafkaesque Koffka,3.2.8,0,n,0,right,right,right,right,NA,766,1036,1356,766,NA,2,legacy,4,1024,2,48000,-16,experiment,4,even,3,436972,433620,434762,2022,434764,281243,2025,77929,438975,439742,435769,79286,3062,438975,NA,New experiment,69,55154,71,yes,1024
97.22222222,97.22222222,775.8888889,775.8888889,black,experiment,legacy,legacy,legacy,0,uniform,1,undefined,1,right,71,71,71,0,71,71,0,0,71,71,71,0,0,71,0,10/27/19 16:40,sternberg task,yes,sternbergtask.osexp,C:/Users/DLGoupil/Desktop,no,mono,no,18,no,white,no,yes,768,legacy,59,11,C:/Users/DLGoupil/Desktop/dg-subject-4.csv,legacy,2 8 6 3 1,Kafkaesque Koffka,3.2.8,0,n,0,right,right,right,right,NA,710,1036,1356,710,NA,2,legacy,5,1024,2,48000,-16,experiment,4,even,7,443092,439747,440883,2022,440886,281243,2025,77929,445095,445806,441889,79286,3062,445095,NA,New experiment,70,55864,72,yes,1024
97.26027397,97.26027397,777.7260274,777.7260274,black,experiment,legacy,legacy,legacy,0,uniform,1,undefined,1,right,72,72,72,0,72,72,0,0,72,72,72,0,0,72,0,10/27/19 16:40,sternberg task,yes,sternbergtask.osexp,C:/Users/DLGoupil/Desktop,no,mono,no,18,no,white,no,yes,768,legacy,60,11,C:/Users/DLGoupil/Desktop/dg-subject-4.csv,legacy,7 6 4 8 1 2,Kafkaesque Koffka,3.2.8,0,n,0,right,right,right,right,NA,910,1036,1356,910,NA,2,legacy,6,1024,2,48000,-16,experiment,4,even,9,449155,445813,446947,2022,446949,281243,2025,77929,451159,452070,447952,79286,3062,451159,NA,New experiment,71,56774,73,yes,1024
97.2972973,97.2972973,777.6486486,777.6486486,black,experiment,legacy,legacy,legacy,0,uniform,1,undefined,1,right,73,73,73,0,73,73,0,0,73,73,73,0,0,73,0,10/27/19 16:40,sternberg task,yes,sternbergtask.osexp,C:/Users/DLGoupil/Desktop,no,mono,no,18,no,white,no,yes,768,legacy,61,11,C:/Users/DLGoupil/Desktop/dg-subject-4.csv,legacy,5 2,Kafkaesque Koffka,3.2.8,0,n,0,right,right,right,right,NA,772,1036,1356,772,NA,2,legacy,2,1024,2,48000,-16,experiment,4,even,7,455421,452075,453212,2022,453214,281243,2025,77929,457425,458198,454217,79286,3062,457424,NA,New experiment,72,57546,74,yes,1024
97.33333333,97.33333333,774.44,774.44,black,experiment,legacy,legacy,legacy,0,uniform,1,undefined,1,left,74,74,74,0,74,74,0,0,74,74,74,0,0,74,0,10/27/19 16:40,sternberg task,yes,sternbergtask.osexp,C:/Users/DLGoupil/Desktop,no,mono,no,18,no,white,no,yes,768,legacy,62,11,C:/Users/DLGoupil/Desktop/dg-subject-4.csv,legacy,6 2,Kafkaesque Koffka,3.2.8,1,y,0,left,right,right,left,NA,537,1036,1356,537,NA,2,legacy,2,1024,2,48000,-16,experiment,4,even,6,461546,458203,459337,2022,459340,281243,2025,77929,463549,464087,460343,79286,3062,463549,NA,New experiment,73,58083,75,yes,1024
96.05263158,96.05263158,774.3552632,774.3552632,black,experiment,legacy,legacy,legacy,0,uniform,0,undefined,0,left,75,75,75,0,75,75,0,0,75,75,75,0,0,75,0,10/27/19 16:40,sternberg task,yes,sternbergtask.osexp,C:/Users/DLGoupil/Desktop,no,mono,no,18,no,white,no,yes,768,legacy,63,11,C:/Users/DLGoupil/Desktop/dg-subject-4.csv,legacy,6 9 3 1,Kafkaesque Koffka,3.2.8,4,y,0,right,right,right,right,NA,768,1036,1356,768,NA,2,legacy,4,1024,2,48000,-16,experiment,4,even,1,467442,464092,465233,2022,465235,281243,2025,77929,469445,470215,466239,79286,3062,469445,NA,New experiment,73,58851,76,yes,1024
96.1038961,96.1038961,775.6623377,775.6623377,black,experiment,legacy,legacy,legacy,0,uniform,1,undefined,1,right,76,76,76,0,76,76,0,0,76,76,76,0,0,76,0,10/27/19 16:40,sternberg task,yes,sternbergtask.osexp,C:/Users/DLGoupil/Desktop,no,mono,no,18,no,white,no,yes,768,legacy,64,11,C:/Users/DLGoupil/Desktop/dg-subject-4.csv,legacy,3 4 9 6 7 8,Kafkaesque Koffka,3.2.8,0,n,0,right,right,right,right,NA,875,1036,1356,875,NA,2,legacy,6,1024,2,48000,-16,experiment,4,even,2,473567,464092,471359,2022,471361,470219,2025,77929,475570,476447,472364,79286,3062,475570,NA,New experiment,74,59726,77,yes,1024
96.15384615,96.15384615,781.3333333,781.3333333,black,experiment,legacy,legacy,legacy,0,uniform,1,undefined,1,right,77,77,77,0,77,77,0,0,77,77,77,0,0,77,0,10/27/19 16:40,sternberg task,yes,sternbergtask.osexp,C:/Users/DLGoupil/Desktop,no,mono,no,18,no,white,no,yes,768,legacy,65,11,C:/Users/DLGoupil/Desktop/dg-subject-4.csv,legacy,3 9 8 1 6 4,Kafkaesque Koffka,3.2.8,0,n,0,right,right,right,right,NA,1218,1036,1356,1218,NA,2,legacy,6,1024,2,48000,-16,experiment,4,even,7,479800,476451,477592,2022,477594,470219,2025,77929,481803,483023,478597,79286,3062,481803,NA,New experiment,75,60944,78,yes,1024
96.20253165,96.20253165,780.7848101,780.7848101,black,experiment,legacy,legacy,legacy,0,uniform,1,undefined,1,right,78,78,78,0,78,78,0,0,78,78,78,0,0,78,0,10/27/19 16:40,sternberg task,yes,sternbergtask.osexp,C:/Users/DLGoupil/Desktop,no,mono,no,18,no,white,no,yes,768,legacy,66,11,C:/Users/DLGoupil/Desktop/dg-subject-4.csv,legacy,1 7 5 2,Kafkaesque Koffka,3.2.8,0,n,0,right,right,right,right,NA,738,1036,1356,738,NA,2,legacy,4,1024,2,48000,-16,experiment,4,even,3,486376,483027,484167,2022,484170,470219,2025,77929,488379,489119,485173,79286,3062,488379,NA,New experiment,76,61682,79,yes,1024
96.25,96.25,780.525,780.525,black,experiment,legacy,legacy,legacy,0,uniform,1,undefined,1,right,79,79,79,0,79,79,0,0,79,79,79,0,0,79,0,10/27/19 16:40,sternberg task,yes,sternbergtask.osexp,C:/Users/DLGoupil/Desktop,no,mono,no,18,no,white,no,yes,768,legacy,67,11,C:/Users/DLGoupil/Desktop/dg-subject-4.csv,legacy,6 7 5 9,Kafkaesque Koffka,3.2.8,0,n,0,right,right,right,right,NA,760,1036,1356,760,NA,2,legacy,4,1024,2,48000,-16,experiment,4,even,2,492467,489123,490258,2022,490261,470219,2025,77929,494470,495231,491264,79286,3062,494470,NA,New experiment,77,62442,80,yes,1024
96.2962963,96.2962963,778.3209877,778.3209877,black,experiment,legacy,legacy,legacy,0,uniform,1,undefined,1,left,80,80,80,0,80,80,0,0,80,80,80,0,0,80,0,10/27/19 16:40,sternberg task,yes,sternbergtask.osexp,C:/Users/DLGoupil/Desktop,no,mono,no,18,no,white,no,yes,768,legacy,68,11,C:/Users/DLGoupil/Desktop/dg-subject-4.csv,legacy,3 4,Kafkaesque Koffka,3.2.8,1,y,0,left,right,right,left,NA,602,1036,1356,602,NA,2,legacy,2,1024,2,48000,-16,experiment,4,even,3,498585,495236,496377,2022,496379,470219,2025,77929,500588,501191,497382,79286,3062,500588,NA,New experiment,78,63044,81,yes,1024
96.34146341,96.34146341,778.1707317,778.1707317,black,experiment,legacy,legacy,legacy,0,uniform,1,undefined,1,right,81,81,81,0,81,81,0,0,81,81,81,0,0,81,0,10/27/19 16:40,sternberg task,yes,sternbergtask.osexp,C:/Users/DLGoupil/Desktop,no,mono,no,18,no,white,no,yes,768,legacy,69,11,C:/Users/DLGoupil/Desktop/dg-subject-4.csv,legacy,8 4 3 9,Kafkaesque Koffka,3.2.8,0,n,0,right,right,right,right,NA,766,1036,1356,766,NA,2,legacy,4,1024,2,48000,-16,experiment,4,even,5,504541,501196,502334,2022,502336,470219,2025,77929,506544,507311,503339,79286,3062,506544,NA,New experiment,79,63810,82,yes,1024
96.38554217,96.38554217,779.3614458,779.3614458,black,experiment,legacy,legacy,legacy,0,uniform,1,undefined,1,right,82,82,82,0,82,82,0,0,82,82,82,0,0,82,0,10/27/19 16:40,sternberg task,yes,sternbergtask.osexp,C:/Users/DLGoupil/Desktop,no,mono,no,18,no,white,no,yes,768,legacy,70,11,C:/Users/DLGoupil/Desktop/dg-subject-4.csv,legacy,6 9 7 3 8 2,Kafkaesque Koffka,3.2.8,0,n,0,right,right,right,right,NA,877,1036,1356,877,NA,2,legacy,6,1024,2,48000,-16,experiment,4,even,5,510662,507316,508454,2022,508456,470219,2025,77929,512665,513543,509459,79286,3062,512665,NA,New experiment,80,64687,83,yes,1024
96.42857143,96.42857143,782.6547619,782.6547619,black,experiment,legacy,legacy,legacy,0,uniform,1,undefined,1,right,83,83,83,0,83,83,0,0,83,83,83,0,0,83,0,10/27/19 16:40,sternberg task,yes,sternbergtask.osexp,C:/Users/DLGoupil/Desktop,no,mono,no,18,no,white,no,yes,768,legacy,71,11,C:/Users/DLGoupil/Desktop/dg-subject-4.csv,legacy,7 4 2 8 1 9,Kafkaesque Koffka,3.2.8,0,n,0,right,right,right,right,NA,1056,1036,1356,1056,NA,2,legacy,6,1024,2,48000,-16,experiment,4,even,5,516891,513548,514682,2022,514685,470219,2025,77929,518894,519951,515688,79286,3062,518894,NA,New experiment,81,65743,84,yes,1024
96.47058824,96.47058824,784.4470588,784.4470588,black,experiment,legacy,legacy,legacy,0,uniform,1,undefined,1,right,84,84,84,0,84,84,0,0,84,84,84,0,0,84,0,10/27/19 16:40,sternberg task,yes,sternbergtask.osexp,C:/Users/DLGoupil/Desktop,no,mono,no,18,no,white,no,yes,768,legacy,72,11,C:/Users/DLGoupil/Desktop/dg-subject-4.csv,legacy,9 5 3 2 8 6,Kafkaesque Koffka,3.2.8,0,n,0,right,right,right,right,NA,935,1036,1356,935,NA,2,legacy,6,1024,2,48000,-16,experiment,4,even,7,523307,519956,521099,2022,521102,470219,2025,77929,525310,526246,522105,79286,3062,525310,NA,New experiment,82,66678,85,yes,1024
96.51162791,96.51162791,785.5930233,785.5930233,black,experiment,legacy,legacy,legacy,0,uniform,1,undefined,1,right,85,85,85,0,85,85,0,0,85,85,85,0,0,85,0,10/27/19 16:40,sternberg task,yes,sternbergtask.osexp,C:/Users/DLGoupil/Desktop,no,mono,no,18,no,white,no,yes,768,legacy,73,11,C:/Users/DLGoupil/Desktop/dg-subject-4.csv,legacy,8 9,Kafkaesque Koffka,3.2.8,0,n,0,right,right,right,right,NA,883,1036,1356,883,NA,2,legacy,2,1024,2,48000,-16,experiment,4,even,5,529600,526251,527392,2022,527394,470219,2025,77929,531603,532487,528397,79286,3062,531603,NA,New experiment,83,67561,86,yes,1024
96.55172414,96.55172414,783.5632184,783.5632184,black,experiment,legacy,legacy,legacy,0,uniform,1,undefined,1,left,86,86,86,0,86,86,0,0,86,86,86,0,0,86,0,10/27/19 16:40,sternberg task,yes,sternbergtask.osexp,C:/Users/DLGoupil/Desktop,no,mono,no,18,no,white,no,yes,768,legacy,74,11,C:/Users/DLGoupil/Desktop/dg-subject-4.csv,legacy,8 9 5 7 1 6,Kafkaesque Koffka,3.2.8,4,y,0,left,right,right,left,NA,609,1036,1356,609,NA,2,legacy,6,1024,2,48000,-16,experiment,4,even,7,535834,532492,533626,2022,533628,470219,2025,77929,537837,538447,534631,79286,3062,537837,NA,New experiment,84,68170,87,yes,1024
96.59090909,96.59090909,783.7386364,783.7386364,black,experiment,legacy,legacy,legacy,0,uniform,1,undefined,1,left,87,87,87,0,87,87,0,0,87,87,87,0,0,87,0,10/27/19 16:40,sternberg task,yes,sternbergtask.osexp,C:/Users/DLGoupil/Desktop,no,mono,no,18,no,white,no,yes,768,legacy,75,11,C:/Users/DLGoupil/Desktop/dg-subject-4.csv,legacy,7 6,Kafkaesque Koffka,3.2.8,2,y,0,left,right,right,left,NA,799,1036,1356,799,NA,2,legacy,2,1024,2,48000,-16,experiment,4,even,6,541796,538452,539588,2022,539590,470219,2025,77929,543799,544599,540593,79286,3062,543799,NA,New experiment,85,68969,88,yes,1024
96.62921348,96.62921348,784.752809,784.752809,black,experiment,legacy,legacy,legacy,0,uniform,1,undefined,1,right,88,88,88,0,88,88,0,0,88,88,88,0,0,88,0,10/27/19 16:40,sternberg task,yes,sternbergtask.osexp,C:/Users/DLGoupil/Desktop,no,mono,no,18,no,white,no,yes,768,legacy,76,11,C:/Users/DLGoupil/Desktop/dg-subject-4.csv,legacy,1 6 4 3 9 7,Kafkaesque Koffka,3.2.8,0,n,0,right,right,right,right,NA,874,1036,1356,874,NA,2,legacy,6,1024,2,48000,-16,experiment,4,even,8,547945,544604,545737,2022,545739,470219,2025,77929,549948,550823,546742,79286,3062,549948,NA,New experiment,86,69843,89,yes,1024
96.66666667,96.66666667,785.5444444,785.5444444,black,experiment,legacy,legacy,legacy,0,uniform,1,undefined,1,left,89,89,89,0,89,89,0,0,89,89,89,0,0,89,0,10/27/19 16:40,sternberg task,yes,sternbergtask.osexp,C:/Users/DLGoupil/Desktop,no,mono,no,18,no,white,no,yes,768,legacy,77,11,C:/Users/DLGoupil/Desktop/dg-subject-4.csv,legacy,3 4 9 6 2 9,Kafkaesque Koffka,3.2.8,5,y,0,left,right,right,left,NA,856,1036,1356,856,NA,2,legacy,6,1024,2,48000,-16,experiment,4,even,2,554178,550828,551970,2022,551972,470219,2025,77929,556182,557039,552975,79286,3062,556182,NA,New experiment,87,70699,90,yes,1024
96.7032967,96.7032967,783.6593407,783.6593407,black,experiment,legacy,legacy,legacy,0,uniform,1,undefined,1,right,90,90,90,0,90,90,0,0,90,90,90,0,0,90,0,10/27/19 16:40,sternberg task,yes,sternbergtask.osexp,C:/Users/DLGoupil/Desktop,no,mono,no,18,no,white,no,yes,768,legacy,78,11,C:/Users/DLGoupil/Desktop/dg-subject-4.csv,legacy,5,Kafkaesque Koffka,3.2.8,0,n,0,right,right,right,right,NA,614,1036,1356,614,NA,2,legacy,1,1024,2,48000,-16,experiment,4,even,8,560389,557044,558181,2022,558183,470219,2025,77929,562392,563007,559186,79286,3062,562392,NA,New experiment,88,71313,91,yes,1024
96.73913043,96.73913043,785.2065217,785.2065217,black,experiment,legacy,legacy,legacy,0,uniform,1,undefined,1,right,91,91,91,0,91,91,0,0,91,91,91,0,0,91,0,10/27/19 16:40,sternberg task,yes,sternbergtask.osexp,C:/Users/DLGoupil/Desktop,no,mono,no,18,no,white,no,yes,768,legacy,79,11,C:/Users/DLGoupil/Desktop/dg-subject-4.csv,legacy,6 9 4 5 2,Kafkaesque Koffka,3.2.8,0,n,0,right,right,right,right,NA,926,1036,1356,926,NA,2,legacy,5,1024,2,48000,-16,experiment,4,even,1,566357,563013,564149,2022,564151,470219,2025,77929,568360,569287,565154,79286,3062,568360,NA,New experiment,89,72239,92,yes,1024
96.77419355,96.77419355,784.0430108,784.0430108,black,experiment,legacy,legacy,legacy,0,uniform,1,undefined,1,right,92,92,92,0,92,92,0,0,92,92,92,0,0,92,0,10/27/19 16:40,sternberg task,yes,sternbergtask.osexp,C:/Users/DLGoupil/Desktop,no,mono,no,18,no,white,no,yes,768,legacy,80,11,C:/Users/DLGoupil/Desktop/dg-subject-4.csv,legacy,6 8 4,Kafkaesque Koffka,3.2.8,0,n,0,right,right,right,right,NA,677,1036,1356,677,NA,2,legacy,3,1024,2,48000,-16,experiment,4,even,1,572638,569292,570429,2022,570431,470219,2025,77929,574641,575319,571435,79286,3062,574641,NA,New experiment,90,72916,93,yes,1024
96.80851064,96.80851064,785.4893617,785.4893617,black,experiment,legacy,legacy,legacy,0,uniform,1,undefined,1,left,93,93,93,0,93,93,0,0,93,93,93,0,0,93,0,10/27/19 16:40,sternberg task,yes,sternbergtask.osexp,C:/Users/DLGoupil/Desktop,no,mono,no,18,no,white,no,yes,768,legacy,81,11,C:/Users/DLGoupil/Desktop/dg-subject-4.csv,legacy,6 7 9 3 1 2,Kafkaesque Koffka,3.2.8,1,y,0,left,right,right,left,NA,920,1036,1356,920,NA,2,legacy,6,1024,2,48000,-16,experiment,4,even,6,578667,575324,576459,2022,576461,470219,2025,77929,580670,581591,577464,79286,3062,580670,NA,New experiment,91,73836,94,yes,1024
96.84210526,96.84210526,784.4421053,784.4421053,black,experiment,legacy,legacy,legacy,0,uniform,1,undefined,1,left,94,94,94,0,94,94,0,0,94,94,94,0,0,94,0,10/27/19 16:40,sternberg task,yes,sternbergtask.osexp,C:/Users/DLGoupil/Desktop,no,mono,no,18,no,white,no,yes,768,legacy,82,11,C:/Users/DLGoupil/Desktop/dg-subject-4.csv,legacy,2 5 4 8 7,Kafkaesque Koffka,3.2.8,3,y,0,left,right,right,left,NA,686,1036,1356,686,NA,2,legacy,5,1024,2,48000,-16,experiment,4,even,4,584941,581596,582733,2022,582735,470219,2025,77929,586944,587631,583738,79286,3062,586944,NA,New experiment,92,74522,95,yes,1024
96.875,96.875,785.6979167,785.6979167,black,experiment,legacy,legacy,legacy,0,uniform,1,undefined,1,right,95,95,95,0,95,95,0,0,95,95,95,0,0,95,0,10/27/19 16:40,sternberg task,yes,sternbergtask.osexp,C:/Users/DLGoupil/Desktop,no,mono,no,18,no,white,no,yes,768,legacy,83,11,C:/Users/DLGoupil/Desktop/dg-subject-4.csv,legacy,1 3 2 6 9,Kafkaesque Koffka,3.2.8,0,n,0,right,right,right,right,NA,905,1036,1356,905,NA,2,legacy,5,1024,2,48000,-16,experiment,4,even,5,590985,587636,588777,2022,588779,470219,2025,77929,592988,593895,589782,79286,3062,592988,NA,New experiment,93,75427,96,yes,1024
96.90721649,96.90721649,782.9072165,782.9072165,black,experiment,legacy,legacy,legacy,0,uniform,1,undefined,1,left,96,96,96,0,96,96,0,0,96,96,96,0,0,96,0,10/27/19 16:40,sternberg task,yes,sternbergtask.osexp,C:/Users/DLGoupil/Desktop,no,mono,no,18,no,white,no,yes,768,legacy,84,11,C:/Users/DLGoupil/Desktop/dg-subject-4.csv,legacy,7,Kafkaesque Koffka,3.2.8,1,y,0,left,right,right,left,NA,515,1036,1356,515,NA,2,legacy,1,1024,2,48000,-16,experiment,4,even,7,597239,593899,595031,2022,595033,470219,2025,77929,599242,599759,596036,79286,3062,599242,NA,New experiment,94,75942,97,yes,1024
96.93877551,96.93877551,784.4591837,784.4591837,black,experiment,legacy,legacy,legacy,0,uniform,1,undefined,1,left,97,97,97,0,97,97,0,0,97,97,97,0,0,97,0,10/27/19 16:40,sternberg task,yes,sternbergtask.osexp,C:/Users/DLGoupil/Desktop,no,mono,no,18,no,white,no,yes,768,legacy,85,11,C:/Users/DLGoupil/Desktop/dg-subject-4.csv,legacy,4 3 2 5 8,Kafkaesque Koffka,3.2.8,2,y,0,left,right,right,left,NA,935,1036,1356,935,NA,2,legacy,5,1024,2,48000,-16,experiment,4,even,3,603108,599763,600900,2022,600902,470219,2025,77929,605111,606047,601905,79286,3062,605111,NA,New experiment,95,76877,98,yes,1024
96.96969697,96.96969697,783.979798,783.979798,black,experiment,legacy,legacy,legacy,0,uniform,1,undefined,1,right,98,98,98,0,98,98,0,0,98,98,98,0,0,98,0,10/27/19 16:40,sternberg task,yes,sternbergtask.osexp,C:/Users/DLGoupil/Desktop,no,mono,no,18,no,white,no,yes,768,legacy,86,11,C:/Users/DLGoupil/Desktop/dg-subject-4.csv,legacy,8 4 3 5,Kafkaesque Koffka,3.2.8,0,n,0,right,right,right,right,NA,737,1036,1356,737,NA,2,legacy,4,1024,2,48000,-16,experiment,4,even,6,609402,606052,607194,2022,607196,470219,2025,77929,611405,612143,608199,79286,3062,611405,NA,New experiment,96,77614,99,yes,1024
97,97,787.21,787.21,black,experiment,legacy,legacy,legacy,0,uniform,1,undefined,1,right,99,99,99,0,99,99,0,0,99,99,99,0,0,99,0,10/27/19 16:40,sternberg task,yes,sternbergtask.osexp,C:/Users/DLGoupil/Desktop,no,mono,no,18,no,white,no,yes,768,legacy,87,11,C:/Users/DLGoupil/Desktop/dg-subject-4.csv,legacy,1 7 8 3 9,Kafkaesque Koffka,3.2.8,0,n,0,right,right,right,right,NA,1107,1036,1356,1107,NA,2,legacy,5,1024,2,48000,-16,experiment,4,even,2,615496,612148,613288,2022,613290,470219,2025,77929,617499,618607,614293,79286,3062,617499,NA,New experiment,97,78721,100,yes,1024
97.02970297,97.02970297,785.1980198,785.1980198,black,experiment,legacy,legacy,legacy,0,uniform,1,undefined,1,left,100,100,100,0,100,100,0,0,100,100,100,0,0,100,0,10/27/19 16:40,sternberg task,yes,sternbergtask.osexp,C:/Users/DLGoupil/Desktop,no,mono,no,18,no,white,no,yes,768,legacy,88,11,C:/Users/DLGoupil/Desktop/dg-subject-4.csv,legacy,4 6 5 8,Kafkaesque Koffka,3.2.8,1,y,0,left,right,right,left,NA,584,1036,1356,584,NA,2,legacy,4,1024,2,48000,-16,experiment,4,even,4,621955,618612,619747,2022,619749,470219,2025,77929,623958,624544,620752,79286,3062,623958,NA,New experiment,98,79305,101,yes,1024
97.05882353,97.05882353,787.745098,787.745098,black,experiment,legacy,legacy,legacy,0,uniform,1,undefined,1,right,101,101,101,0,101,101,0,0,101,101,101,0,0,101,0,10/27/19 16:40,sternberg task,yes,sternbergtask.osexp,C:/Users/DLGoupil/Desktop,no,mono,no,18,no,white,no,yes,768,legacy,89,11,C:/Users/DLGoupil/Desktop/dg-subject-4.csv,legacy,4 8 1 2,Kafkaesque Koffka,3.2.8,0,n,0,right,right,right,right,NA,1045,1036,1356,1045,NA,2,legacy,4,1024,2,48000,-16,experiment,4,even,7,627894,624549,625686,2022,625688,470219,2025,77929,629897,630943,626691,79286,3062,629897,NA,New experiment,99,80350,102,yes,1024
97.08737864,97.08737864,788.2524272,788.2524272,black,experiment,legacy,legacy,legacy,0,uniform,1,undefined,1,right,102,102,102,0,102,102,0,0,102,102,102,0,0,102,0,10/27/19 16:40,sternberg task,yes,sternbergtask.osexp,C:/Users/DLGoupil/Desktop,no,mono,no,18,no,white,no,yes,768,legacy,90,11,C:/Users/DLGoupil/Desktop/dg-subject-4.csv,legacy,2 6 4 3 9,Kafkaesque Koffka,3.2.8,0,n,0,right,right,right,right,NA,840,1036,1356,840,NA,2,legacy,5,1024,2,48000,-16,experiment,4,even,1,634299,630948,632090,2022,632093,470219,2025,77929,636302,637143,633096,79286,3062,636302,NA,New experiment,100,81190,103,yes,1024
97.11538462,97.11538462,788.9807692,788.9807692,black,experiment,legacy,legacy,legacy,0,uniform,1,undefined,1,right,103,103,103,0,103,103,0,0,103,103,103,0,0,103,0,10/27/19 16:40,sternberg task,yes,sternbergtask.osexp,C:/Users/DLGoupil/Desktop,no,mono,no,18,no,white,no,yes,768,legacy,91,11,C:/Users/DLGoupil/Desktop/dg-subject-4.csv,legacy,9 8 2 7 4,Kafkaesque Koffka,3.2.8,0,n,0,right,right,right,right,NA,864,1036,1356,864,NA,2,legacy,5,1024,2,48000,-16,experiment,4,even,5,640490,637148,638282,2022,638284,470219,2025,77929,642493,643359,639287,79286,3062,642493,NA,New experiment,101,82054,104,yes,1024
97.14285714,97.14285714,788.4,788.4,black,experiment,legacy,legacy,legacy,0,uniform,1,undefined,1,right,104,104,104,0,104,104,0,0,104,104,104,0,0,104,0,10/27/19 16:40,sternberg task,yes,sternbergtask.osexp,C:/Users/DLGoupil/Desktop,no,mono,no,18,no,white,no,yes,768,legacy,92,11,C:/Users/DLGoupil/Desktop/dg-subject-4.csv,legacy,1 4 3 6 5,Kafkaesque Koffka,3.2.8,0,n,0,right,right,right,right,NA,728,1036,1356,728,NA,2,legacy,5,1024,2,48000,-16,experiment,4,even,8,646707,643364,644499,2022,644501,470219,2025,77929,648710,649440,645504,79286,3062,648710,NA,New experiment,102,82782,105,yes,1024
97.16981132,97.16981132,789.2358491,789.2358491,black,experiment,legacy,legacy,legacy,0,uniform,1,undefined,1,left,105,105,105,0,105,105,0,0,105,105,105,0,0,105,0,10/27/19 16:40,sternberg task,yes,sternbergtask.osexp,C:/Users/DLGoupil/Desktop,no,mono,no,18,no,white,no,yes,768,legacy,93,11,C:/Users/DLGoupil/Desktop/dg-subject-4.csv,legacy,9 3 1 2 5,Kafkaesque Koffka,3.2.8,4,y,0,left,right,right,left,NA,877,1036,1356,877,NA,2,legacy,5,1024,2,48000,-16,experiment,4,even,2,652790,649445,650582,2022,650584,470219,2025,77929,654793,655671,651587,79286,3062,654793,NA,New experiment,103,83659,106,yes,1024
97.19626168,97.19626168,788.3084112,788.3084112,black,experiment,legacy,legacy,legacy,0,uniform,1,undefined,1,left,106,106,106,0,106,106,0,0,106,106,106,0,0,106,0,10/27/19 16:40,sternberg task,yes,sternbergtask.osexp,C:/Users/DLGoupil/Desktop,no,mono,no,18,no,white,no,yes,768,legacy,94,11,C:/Users/DLGoupil/Desktop/dg-subject-4.csv,legacy,7 8 4 6 9 5,Kafkaesque Koffka,3.2.8,4,y,0,left,right,right,left,NA,690,1036,1356,690,NA,2,legacy,6,1024,2,48000,-16,experiment,4,even,6,659025,655676,656816,2022,656819,470219,2025,77929,661028,661719,657822,79286,3062,661028,NA,New experiment,104,84349,107,yes,1024
97.22222222,97.22222222,787.0185185,787.0185185,black,experiment,legacy,legacy,legacy,0,uniform,1,undefined,1,right,107,107,107,0,107,107,0,0,107,107,107,0,0,107,0,10/27/19 16:40,sternberg task,yes,sternbergtask.osexp,C:/Users/DLGoupil/Desktop,no,mono,no,18,no,white,no,yes,768,legacy,95,11,C:/Users/DLGoupil/Desktop/dg-subject-4.csv,legacy,6 8,Kafkaesque Koffka,3.2.8,0,n,0,right,right,right,right,NA,649,1036,1356,649,NA,2,legacy,2,1024,2,48000,-16,experiment,4,even,9,665066,661725,662858,2022,662860,470219,2025,77929,667069,667719,663863,79286,3062,667069,NA,New experiment,105,84998,108,yes,1024
97.24770642,97.24770642,786.7706422,786.7706422,black,experiment,legacy,legacy,legacy,0,uniform,1,undefined,1,left,108,108,108,0,108,108,0,0,108,108,108,0,0,108,0,10/27/19 16:40,sternberg task,yes,sternbergtask.osexp,C:/Users/DLGoupil/Desktop,no,mono,no,18,no,white,no,yes,768,legacy,96,11,C:/Users/DLGoupil/Desktop/dg-subject-4.csv,legacy,1 4 9 3 2 5,Kafkaesque Koffka,3.2.8,3,y,0,left,right,right,left,NA,760,1036,1356,760,NA,2,legacy,6,1024,2,48000,-16,experiment,4,even,9,671067,667724,668858,2022,668861,470219,2025,77929,673070,673831,669864,79286,3062,673070,NA,New experiment,106,85758,109,yes,1024
97.27272727,97.27272727,789.9818182,789.9818182,black,experiment,legacy,legacy,legacy,0,uniform,1,undefined,1,left,109,109,109,0,109,109,0,0,109,109,109,0,0,109,0,10/27/19 16:40,sternberg task,yes,sternbergtask.osexp,C:/Users/DLGoupil/Desktop,no,mono,no,18,no,white,no,yes,768,legacy,97,11,C:/Users/DLGoupil/Desktop/dg-subject-4.csv,legacy,6 8 9 3 4 9,Kafkaesque Koffka,3.2.8,5,y,0,left,right,right,left,NA,1140,1036,1356,1140,NA,2,legacy,6,1024,2,48000,-16,experiment,4,even,4,677182,673836,674973,2022,674975,470219,2025,77929,679185,680327,675979,79286,3062,679185,NA,New experiment,107,86898,110,yes,1024
97.2972973,97.2972973,789.6306306,789.6306306,black,experiment,legacy,legacy,legacy,0,uniform,1,undefined,1,right,110,110,110,0,110,110,0,0,110,110,110,0,0,110,0,10/27/19 16:40,sternberg task,yes,sternbergtask.osexp,C:/Users/DLGoupil/Desktop,no,mono,no,18,no,white,no,yes,768,legacy,98,11,C:/Users/DLGoupil/Desktop/dg-subject-4.csv,legacy,7 1 5 6 3,Kafkaesque Koffka,3.2.8,0,n,0,right,right,right,right,NA,751,1036,1356,751,NA,2,legacy,5,1024,2,48000,-16,experiment,4,even,8,683684,680332,681476,2022,681478,470219,2025,77929,685687,686439,682481,79286,3062,685687,NA,New experiment,108,87649,111,yes,1024
97.32142857,97.32142857,787.3660714,787.3660714,black,experiment,legacy,legacy,legacy,0,uniform,1,undefined,1,left,111,111,111,0,111,111,0,0,111,111,111,0,0,111,0,10/27/19 16:40,sternberg task,yes,sternbergtask.osexp,C:/Users/DLGoupil/Desktop,no,mono,no,18,no,white,no,yes,768,legacy,99,11,C:/Users/DLGoupil/Desktop/dg-subject-4.csv,legacy,9 1 7 2,Kafkaesque Koffka,3.2.8,2,y,0,left,right,right,left,NA,536,1036,1356,536,NA,2,legacy,4,1024,2,48000,-16,experiment,4,even,1,689787,686444,687579,2022,687581,470219,2025,77929,691790,692328,688584,79286,3062,691790,NA,New experiment,109,88185,112,yes,1024
97.34513274,97.34513274,788.3982301,788.3982301,black,experiment,legacy,legacy,legacy,0,uniform,1,undefined,1,right,112,112,112,0,112,112,0,0,112,112,112,0,0,112,0,10/27/19 16:40,sternberg task,yes,sternbergtask.osexp,C:/Users/DLGoupil/Desktop,no,mono,no,18,no,white,no,yes,768,legacy,100,11,C:/Users/DLGoupil/Desktop/dg-subject-4.csv,legacy,1 8 7,Kafkaesque Koffka,3.2.8,0,n,0,right,right,right,right,NA,904,1036,1356,904,NA,2,legacy,3,1024,2,48000,-16,experiment,4,even,4,695682,692332,693474,2022,693476,470219,2025,77929,697685,698591,694479,79286,3062,697685,NA,New experiment,110,89089,113,yes,1024
97.36842105,97.36842105,787.3070175,787.3070175,black,experiment,legacy,legacy,legacy,0,uniform,1,undefined,1,left,113,113,113,0,113,113,0,0,113,113,113,0,0,113,0,10/27/19 16:40,sternberg task,yes,sternbergtask.osexp,C:/Users/DLGoupil/Desktop,no,mono,no,18,no,white,no,yes,768,legacy,101,11,C:/Users/DLGoupil/Desktop/dg-subject-4.csv,legacy,6 1 2,Kafkaesque Koffka,3.2.8,3,y,0,left,right,right,left,NA,664,1036,1356,664,NA,2,legacy,3,1024,2,48000,-16,experiment,4,even,2,701939,698595,699731,2022,699733,470219,2025,77929,703942,704607,700736,79286,3062,703942,NA,New experiment,111,89753,114,yes,1024
97.39130435,97.39130435,786.7652174,786.7652174,black,experiment,legacy,legacy,legacy,0,uniform,1,undefined,1,left,114,114,114,0,114,114,0,0,114,114,114,0,0,114,0,10/27/19 16:40,sternberg task,yes,sternbergtask.osexp,C:/Users/DLGoupil/Desktop,no,mono,no,18,no,white,no,yes,768,legacy,102,11,C:/Users/DLGoupil/Desktop/dg-subject-4.csv,legacy,8 3,Kafkaesque Koffka,3.2.8,2,y,0,left,right,right,left,NA,725,1036,1356,725,NA,2,legacy,2,1024,2,48000,-16,experiment,4,even,3,707958,704613,705750,2022,705752,470219,2025,77929,709961,710687,706755,79286,3062,709961,NA,New experiment,112,90478,115,yes,1024
97.4137931,97.4137931,786.0431034,786.0431034,black,experiment,legacy,legacy,legacy,0,uniform,1,undefined,1,left,115,115,115,0,115,115,0,0,115,115,115,0,0,115,0,10/27/19 16:40,sternberg task,yes,sternbergtask.osexp,C:/Users/DLGoupil/Desktop,no,mono,no,18,no,white,no,yes,768,legacy,103,11,C:/Users/DLGoupil/Desktop/dg-subject-4.csv,legacy,3 9 6 2,Kafkaesque Koffka,3.2.8,4,y,0,left,right,right,left,NA,703,1036,1356,703,NA,2,legacy,4,1024,2,48000,-16,experiment,4,even,2,714044,710693,711836,2022,711838,470219,2025,77929,716047,716752,712841,79286,3062,716047,NA,New experiment,113,91181,116,yes,1024
97.43589744,97.43589744,784.2735043,784.2735043,black,experiment,legacy,legacy,legacy,0,uniform,1,undefined,1,left,116,116,116,0,116,116,0,0,116,116,116,0,0,116,0,10/27/19 16:40,sternberg task,yes,sternbergtask.osexp,C:/Users/DLGoupil/Desktop,no,mono,no,18,no,white,no,yes,768,legacy,104,11,C:/Users/DLGoupil/Desktop/dg-subject-4.csv,legacy,8 9 5 6 7,Kafkaesque Koffka,3.2.8,1,y,0,left,right,right,left,NA,579,1036,1356,579,NA,2,legacy,5,1024,2,48000,-16,experiment,4,even,8,720104,716756,717895,2022,717898,470219,2025,77929,722107,722688,718901,79286,3062,722107,NA,New experiment,114,91760,117,yes,1024
97.45762712,97.45762712,783.6525424,783.6525424,black,experiment,legacy,legacy,legacy,0,uniform,1,undefined,1,left,117,117,117,0,117,117,0,0,117,117,117,0,0,117,0,10/27/19 16:40,sternberg task,yes,sternbergtask.osexp,C:/Users/DLGoupil/Desktop,no,mono,no,18,no,white,no,yes,768,legacy,105,11,C:/Users/DLGoupil/Desktop/dg-subject-4.csv,legacy,4 1 8 7 5,Kafkaesque Koffka,3.2.8,3,y,0,left,right,right,left,NA,711,1036,1356,711,NA,2,legacy,5,1024,2,48000,-16,experiment,4,even,8,726043,722693,723835,2022,723837,470219,2025,77929,728046,728759,724840,79286,3062,728046,NA,New experiment,115,92471,118,yes,1024
97.4789916,97.4789916,783.4957983,783.4957983,black,experiment,legacy,legacy,legacy,0,uniform,1,undefined,1,left,118,118,118,0,118,118,0,0,118,118,118,0,0,118,0,10/27/19 16:40,sternberg task,yes,sternbergtask.osexp,C:/Users/DLGoupil/Desktop,no,mono,no,18,no,white,no,yes,768,legacy,106,11,C:/Users/DLGoupil/Desktop/dg-subject-4.csv,legacy,8 5 4 7 3 1,Kafkaesque Koffka,3.2.8,2,y,0,left,right,right,left,NA,765,1036,1356,765,NA,2,legacy,6,1024,2,48000,-16,experiment,4,even,5,732110,728764,729902,2022,729904,470219,2025,77929,734113,734879,730907,79286,3062,734113,NA,New experiment,116,93236,119,yes,1024
97.5,97.5,781.8833333,781.8833333,black,experiment,legacy,legacy,legacy,0,uniform,1,undefined,1,left,119,119,119,0,119,119,0,0,119,119,119,0,0,119,0,10/27/19 16:40,sternberg task,yes,sternbergtask.osexp,C:/Users/DLGoupil/Desktop,no,mono,no,18,no,white,no,yes,768,legacy,107,11,C:/Users/DLGoupil/Desktop/dg-subject-4.csv,legacy,6 5,Kafkaesque Koffka,3.2.8,2,y,0,left,right,right,left,NA,590,1036,1356,590,NA,2,legacy,2,1024,2,48000,-16,experiment,4,even,5,738229,734884,736020,2022,736023,470219,2025,77929,740232,740823,737026,79286,3062,740232,NA,New experiment,117,93826,120,yes,1024
96.69421488,96.69421488,784.7355372,784.7355372,black,experiment,legacy,legacy,legacy,0,uniform,0,undefined,0,left,120,120,120,0,120,120,0,0,120,120,120,0,0,120,0,10/27/19 16:40,sternberg task,yes,sternbergtask.osexp,C:/Users/DLGoupil/Desktop,no,mono,no,18,no,white,no,yes,768,legacy,108,11,C:/Users/DLGoupil/Desktop/dg-subject-4.csv,legacy,4 9 7 8 5 3,Kafkaesque Koffka,3.2.8,4,y,0,right,right,right,right,NA,1127,1036,1356,1127,NA,2,legacy,6,1024,2,48000,-16,experiment,4,even,8,744172,740828,741963,2022,741966,470219,2025,77929,746175,747303,742969,79286,3062,746175,NA,New experiment,117,94953,121,yes,1024
95.90163934,95.90163934,790.1557377,790.1557377,black,experiment,legacy,legacy,legacy,0,uniform,0,undefined,0,right,121,121,121,0,121,121,0,0,121,121,121,0,0,121,0,10/27/19 16:40,sternberg task,yes,sternbergtask.osexp,C:/Users/DLGoupil/Desktop,no,mono,no,18,no,white,no,yes,768,legacy,109,11,C:/Users/DLGoupil/Desktop/dg-subject-4.csv,legacy,5 3 2 6 9 8,Kafkaesque Koffka,3.2.8,0,n,0,left,right,right,left,NA,1446,1036,1356,1446,NA,2,legacy,6,1024,2,48000,-16,experiment,4,even,4,750652,740828,748444,2022,748446,747308,2025,77929,752656,754103,749449,79286,3062,752655,NA,New experiment,117,96399,122,yes,1024
95.93495935,95.93495935,790.1463415,790.1463415,black,experiment,legacy,legacy,legacy,0,uniform,1,undefined,1,left,122,122,122,0,122,122,0,0,122,122,122,0,0,122,0,10/27/19 16:40,sternberg task,yes,sternbergtask.osexp,C:/Users/DLGoupil/Desktop,no,mono,no,18,no,white,no,yes,768,legacy,110,11,C:/Users/DLGoupil/Desktop/dg-subject-4.csv,legacy,8 5 1 3 9,Kafkaesque Koffka,3.2.8,4,y,0,left,right,right,left,NA,789,1036,1356,789,NA,2,legacy,5,1024,2,48000,-16,experiment,4,even,3,757454,740828,755246,2022,755248,754108,2025,77929,759457,760247,756251,79286,3062,759457,NA,New experiment,118,97188,123,yes,1024
95.96774194,95.96774194,788.233871,788.233871,black,experiment,legacy,legacy,legacy,0,uniform,1,undefined,1,left,123,123,123,0,123,123,0,0,123,123,123,0,0,123,0,10/27/19 16:40,sternberg task,yes,sternbergtask.osexp,C:/Users/DLGoupil/Desktop,no,mono,no,18,no,white,no,yes,768,legacy,111,11,C:/Users/DLGoupil/Desktop/dg-subject-4.csv,legacy,4 1 5,Kafkaesque Koffka,3.2.8,2,y,0,left,right,right,left,NA,553,1036,1356,553,NA,2,legacy,3,1024,2,48000,-16,experiment,4,even,1,763601,760252,761393,2022,761395,754108,2025,77929,765604,766159,762398,79286,3062,765604,NA,New experiment,119,97741,124,yes,1024
96,96,790.248,790.248,black,experiment,legacy,legacy,legacy,0,uniform,1,undefined,1,right,124,124,124,0,124,124,0,0,124,124,124,0,0,124,0,10/27/19 16:40,sternberg task,yes,sternbergtask.osexp,C:/Users/DLGoupil/Desktop,no,mono,no,18,no,white,no,yes,768,legacy,112,11,C:/Users/DLGoupil/Desktop/dg-subject-4.csv,legacy,6 2 9 3 8 4,Kafkaesque Koffka,3.2.8,0,n,0,right,right,right,right,NA,1040,1036,1356,1040,NA,2,legacy,6,1024,2,48000,-16,experiment,4,even,1,769514,766164,767305,2022,767308,754108,2025,77929,771517,772559,768311,79286,3062,771517,NA,New experiment,120,98781,125,yes,1024
96.03174603,96.03174603,788.8333333,788.8333333,black,experiment,legacy,legacy,legacy,0,uniform,1,undefined,1,left,125,125,125,0,125,125,0,0,125,125,125,0,0,125,0,10/27/19 16:40,sternberg task,yes,sternbergtask.osexp,C:/Users/DLGoupil/Desktop,no,mono,no,18,no,white,no,yes,768,legacy,113,11,C:/Users/DLGoupil/Desktop/dg-subject-4.csv,legacy,3 2 1 4 7,Kafkaesque Koffka,3.2.8,2,y,0,left,right,right,left,NA,612,1036,1356,612,NA,2,legacy,5,1024,2,48000,-16,experiment,4,even,2,775910,772564,773701,2022,773704,754108,2025,77929,777913,778527,774707,79286,3062,777913,NA,New experiment,121,99393,126,yes,1024
96.06299213,96.06299213,791.1023622,791.1023622,black,experiment,legacy,legacy,legacy,0,uniform,1,undefined,1,right,126,126,126,0,126,126,0,0,126,126,126,0,0,126,0,10/27/19 16:40,sternberg task,yes,sternbergtask.osexp,C:/Users/DLGoupil/Desktop,no,mono,no,18,no,white,no,yes,768,legacy,114,11,C:/Users/DLGoupil/Desktop/dg-subject-4.csv,legacy,7 1 8 4 9 3,Kafkaesque Koffka,3.2.8,0,n,0,right,right,right,right,NA,1077,1036,1356,1077,NA,2,legacy,6,1024,2,48000,-16,experiment,4,even,6,781878,778532,779669,2022,779672,754108,2025,77929,783881,784959,780675,79286,3062,783881,NA,New experiment,122,100470,127,yes,1024
95.3125,95.3125,792.6953125,792.6953125,black,experiment,legacy,legacy,legacy,0,uniform,0,undefined,0,left,127,127,127,0,127,127,0,0,127,127,127,0,0,127,0,10/27/19 16:40,sternberg task,yes,sternbergtask.osexp,C:/Users/DLGoupil/Desktop,no,mono,no,18,no,white,no,yes,768,legacy,115,11,C:/Users/DLGoupil/Desktop/dg-subject-4.csv,legacy,9 6 2 4 1,Kafkaesque Koffka,3.2.8,4,y,0,right,right,right,right,NA,995,1036,1356,995,NA,2,legacy,5,1024,2,48000,-16,experiment,4,even,4,788312,784964,786104,2022,786106,754108,2025,77929,790315,791311,787109,79286,3062,790315,NA,New experiment,122,101465,128,yes,1024
95.34883721,95.34883721,791.4418605,791.4418605,black,experiment,legacy,legacy,legacy,0,uniform,1,undefined,1,left,128,128,128,0,128,128,0,0,128,128,128,0,0,128,0,10/27/19 16:40,sternberg task,yes,sternbergtask.osexp,C:/Users/DLGoupil/Desktop,no,mono,no,18,no,white,no,yes,768,legacy,116,11,C:/Users/DLGoupil/Desktop/dg-subject-4.csv,legacy,8 9 6 1,Kafkaesque Koffka,3.2.8,2,y,0,left,right,right,left,NA,631,1036,1356,631,NA,2,legacy,4,1024,2,48000,-16,experiment,4,even,9,794660,784964,792452,2022,792454,791316,2025,77929,796663,797295,793457,79286,3062,796663,NA,New experiment,123,102096,129,yes,1024
95.38461538,95.38461538,789.7846154,789.7846154,black,experiment,legacy,legacy,legacy,0,uniform,1,undefined,1,left,129,129,129,0,129,129,0,0,129,129,129,0,0,129,0,10/27/19 16:40,sternberg task,yes,sternbergtask.osexp,C:/Users/DLGoupil/Desktop,no,mono,no,18,no,white,no,yes,768,legacy,117,11,C:/Users/DLGoupil/Desktop/dg-subject-4.csv,legacy,9 5 8 1,Kafkaesque Koffka,3.2.8,2,y,0,left,right,right,left,NA,576,1036,1356,576,NA,2,legacy,4,1024,2,48000,-16,experiment,4,even,5,800643,797300,798434,2022,798437,791316,2025,77929,802646,803223,799440,79286,3062,802646,NA,New experiment,124,102672,130,yes,1024
95.41984733,95.41984733,789.1221374,789.1221374,black,experiment,legacy,legacy,legacy,0,uniform,1,undefined,1,left,130,130,130,0,130,130,0,0,130,130,130,0,0,130,0,10/27/19 16:40,sternberg task,yes,sternbergtask.osexp,C:/Users/DLGoupil/Desktop,no,mono,no,18,no,white,no,yes,768,legacy,118,11,C:/Users/DLGoupil/Desktop/dg-subject-4.csv,legacy,7 2 3,Kafkaesque Koffka,3.2.8,3,y,0,left,right,right,left,NA,703,1036,1356,703,NA,2,legacy,3,1024,2,48000,-16,experiment,4,even,3,806572,803228,804364,2022,804366,791316,2025,77929,808575,809280,805369,79286,3062,808575,NA,New experiment,125,103375,131,yes,1024
95.45454545,95.45454545,788.0227273,788.0227273,black,experiment,legacy,legacy,legacy,0,uniform,1,undefined,1,left,131,131,131,0,131,131,0,0,131,131,131,0,0,131,0,10/27/19 16:40,sternberg task,yes,sternbergtask.osexp,C:/Users/DLGoupil/Desktop,no,mono,no,18,no,white,no,yes,768,legacy,119,11,C:/Users/DLGoupil/Desktop/dg-subject-4.csv,legacy,5 2 9 6 1 7,Kafkaesque Koffka,3.2.8,3,y,0,left,right,right,left,NA,644,1036,1356,644,NA,2,legacy,6,1024,2,48000,-16,experiment,4,even,9,812631,809284,810423,2022,810425,791316,2025,77929,814634,815280,811428,79286,3062,814634,NA,New experiment,126,104019,132,yes,1024
95.4887218,95.4887218,788.6090226,788.6090226,black,experiment,legacy,legacy,legacy,0,uniform,1,undefined,1,right,132,132,132,0,132,132,0,0,132,132,132,0,0,132,0,10/27/19 16:40,sternberg task,yes,sternbergtask.osexp,C:/Users/DLGoupil/Desktop,no,mono,no,18,no,white,no,yes,768,legacy,120,11,C:/Users/DLGoupil/Desktop/dg-subject-4.csv,legacy,2 3 8 5 6 7,Kafkaesque Koffka,3.2.8,0,n,0,right,right,right,right,NA,866,1036,1356,866,NA,2,legacy,6,1024,2,48000,-16,experiment,4,even,1,818632,815285,816423,2022,816426,791316,2025,77929,820635,821503,817429,79286,3062,820635,NA,New experiment,127,104885,133,yes,1024
95.52238806,95.52238806,791.5671642,791.5671642,black,experiment,legacy,legacy,legacy,0,uniform,1,undefined,1,left,133,133,133,0,133,133,0,0,133,133,133,0,0,133,0,10/27/19 16:40,sternberg task,yes,sternbergtask.osexp,C:/Users/DLGoupil/Desktop,no,mono,no,18,no,white,no,yes,768,legacy,121,11,C:/Users/DLGoupil/Desktop/dg-subject-4.csv,legacy,5 7 8 2 3 8,Kafkaesque Koffka,3.2.8,5,y,0,left,right,right,left,NA,1185,1036,1356,1185,NA,2,legacy,6,1024,2,48000,-16,experiment,4,even,3,824858,821508,822650,2022,822652,791316,2025,77929,826861,828047,823655,79286,3062,826861,NA,New experiment,128,106070,134,yes,1024
95.55555556,95.55555556,790.6222222,790.6222222,black,experiment,legacy,legacy,legacy,0,uniform,1,undefined,1,right,134,134,134,0,134,134,0,0,134,134,134,0,0,134,0,10/27/19 16:40,sternberg task,yes,sternbergtask.osexp,C:/Users/DLGoupil/Desktop,no,mono,no,18,no,white,no,yes,768,legacy,122,11,C:/Users/DLGoupil/Desktop/dg-subject-4.csv,legacy,9,Kafkaesque Koffka,3.2.8,0,n,0,right,right,right,right,NA,664,1036,1356,664,NA,2,legacy,1,1024,2,48000,-16,experiment,4,even,6,831402,828052,829193,2022,829196,791316,2025,77929,833405,834071,830199,79286,3062,833405,NA,New experiment,129,106734,135,yes,1024
95.58823529,95.58823529,788.5,788.5,black,experiment,legacy,legacy,legacy,0,uniform,1,undefined,1,left,135,135,135,0,135,135,0,0,135,135,135,0,0,135,0,10/27/19 16:40,sternberg task,yes,sternbergtask.osexp,C:/Users/DLGoupil/Desktop,no,mono,no,18,no,white,no,yes,768,legacy,123,11,C:/Users/DLGoupil/Desktop/dg-subject-4.csv,legacy,7 1 3,Kafkaesque Koffka,3.2.8,2,y,0,left,right,right,left,NA,502,1036,1356,502,NA,2,legacy,3,1024,2,48000,-16,experiment,4,even,1,837421,834076,835213,2022,835215,791316,2025,77929,839424,839928,836218,79286,3062,839424,NA,New experiment,130,107236,136,yes,1024
95.62043796,95.62043796,789.5547445,789.5547445,black,experiment,legacy,legacy,legacy,0,uniform,1,undefined,1,right,136,136,136,0,136,136,0,0,136,136,136,0,0,136,0,10/27/19 16:40,sternberg task,yes,sternbergtask.osexp,C:/Users/DLGoupil/Desktop,no,mono,no,18,no,white,no,yes,768,legacy,124,11,C:/Users/DLGoupil/Desktop/dg-subject-4.csv,legacy,2 8 7 9 5 3,Kafkaesque Koffka,3.2.8,0,n,0,right,right,right,right,NA,933,1036,1356,933,NA,2,legacy,6,1024,2,48000,-16,experiment,4,even,6,843285,839932,841076,2022,841079,791316,2025,77929,845289,846224,842082,79286,3062,845288,NA,New experiment,131,108169,137,yes,1024
95.65217391,95.65217391,790.6304348,790.6304348,black,experiment,legacy,legacy,legacy,0,uniform,1,undefined,1,right,137,137,137,0,137,137,0,0,137,137,137,0,0,137,0,10/27/19 16:40,sternberg task,yes,sternbergtask.osexp,C:/Users/DLGoupil/Desktop,no,mono,no,18,no,white,no,yes,768,legacy,125,11,C:/Users/DLGoupil/Desktop/dg-subject-4.csv,legacy,8 5 7 3 6,Kafkaesque Koffka,3.2.8,0,n,0,right,right,right,right,NA,938,1036,1356,938,NA,2,legacy,5,1024,2,48000,-16,experiment,4,even,9,849585,846228,847377,2022,847379,791316,2025,77929,851588,852528,848382,79286,3062,851588,NA,New experiment,132,109107,138,yes,1024