"acc","accuracy","average_response_time","avg_rt","background","block","canvas_backend","clock_backend","color_backend","compensation","coordinates","correct","correct_instruction1","correct_keyboard_response","correct_response","count_ISI","count_correctFeedback","count_expSequence","count_experiment","count_experimentLoop","count_fixation","count_incorrectFeedback","count_instruction1","count_instructions2","count_keyboard_response","count_memorySet","count_new_logger","count_practiceLoop","count_probe","count_thankYou","datetime","description","disable_garbage_collection","experiment_file","experiment_path","expyriment_opengl","font_bold","font_family","font_italic","font_size","font_underline","foreground","form_clicks","fullscreen","height","keyboard_backend","live_row","live_row_practiceLoop","logfile","mouse_backend","numberSet","opensesame_codename","opensesame_version","posInSet","present","repeat_cycle","response","response_instruction1","response_instructions2","response_keyboard_response","response_thankYou","response_time","response_time_instruction1","response_time_instructions2","response_time_keyboard_response","response_time_thankYou","round_decimals","sampler_backend","setSize","sound_buf_size","sound_channels","sound_freq","sound_sample_size","start","subject_nr","subject_parity","target","time_ISI","time_correctFeedback","time_expSequence","time_experiment","time_experimentLoop","time_fixation","time_incorrectFeedback","time_instruction1","time_instructions2","time_keyboard_response","time_memorySet","time_new_logger","time_practiceLoop","time_probe","time_thankYou","title","total_correct","total_response_time","total_responses","uniform_coordinates","width"
"100","100","1966","1966","black","practice","legacy","legacy","legacy","0","uniform","1","undefined","1","left","0","0","0","0","0","0","0","0","0","0","0","0","0","0","0","10/22/21 19:26:51","The main experiment item","yes","Sternbergtask.osexp","C:\Users\Brian\Desktop\College - Graduate\Graduate Work\Advanced Quant\Lab 3","yes","no","mono","no","18","no","white","no","yes","768","legacy","0","0","C:/Users/Brian/Desktop/College - Graduate/Graduate Work/Advanced Quant/Lab 3/BK-subject-4.csv","legacy","1 5 2 9","Kafkaesque Koffka","3.2.8","2","y","0","left","right","NA","left","NA","1966","38389","NA","1966","NA","2","legacy","4","1024","2","48000","-16","experiment","4","even","5","43953","NA","41745","2551","NA","41748","NA","2566","NA","45955","42750","47921","40957","45955","NA","Sternberg task","1","1966","1","yes","1024"
"100","100","1608","1608","black","practice","legacy","legacy","legacy","0","uniform","1","undefined","1","left","1","1","1","0","0","1","1","0","0","1","1","1","0","1","0","10/22/21 19:26:51","The main experiment item","yes","Sternbergtask.osexp","C:\Users\Brian\Desktop\College - Graduate\Graduate Work\Advanced Quant\Lab 3","yes","no","mono","no","18","no","white","no","yes","768","legacy","1","1","C:/Users/Brian/Desktop/College - Graduate/Graduate Work/Advanced Quant/Lab 3/BK-subject-4.csv","legacy","1 7 9 8 5","Kafkaesque Koffka","3.2.8","4","y","0","left","right","NA","left","NA","1250","38389","NA","1250","NA","2","legacy","5","1024","2","48000","-16","experiment","4","even","8","51365","48009","49158","2551","NA","49161","NA","2566","NA","53368","50163","54618","40957","53367","NA","Sternberg task","2","3216","2","yes","1024"
"100","100","1381.66666667","1381.66666667","black","practice","legacy","legacy","legacy","0","uniform","1","undefined","1","right","2","2","2","0","0","2","2","0","0","2","2","2","0","2","0","10/22/21 19:26:51","The main experiment item","yes","Sternbergtask.osexp","C:\Users\Brian\Desktop\College - Graduate\Graduate Work\Advanced Quant\Lab 3","yes","no","mono","no","18","no","white","no","yes","768","legacy","2","2","C:/Users/Brian/Desktop/College - Graduate/Graduate Work/Advanced Quant/Lab 3/BK-subject-4.csv","legacy","5","Kafkaesque Koffka","3.2.8","0","n","0","right","right","NA","right","NA","929","38389","NA","929","NA","2","legacy","1","1024","2","48000","-16","experiment","4","even","3","57984","54625","55777","2551","NA","55780","NA","2566","NA","59986","56782","60916","40957","59986","NA","Sternberg task","3","4145","3","yes","1024"
"100","100","1294.75","1294.75","black","practice","legacy","legacy","legacy","0","uniform","1","undefined","1","left","3","3","3","0","0","3","3","0","0","3","3","3","0","3","0","10/22/21 19:26:51","The main experiment item","yes","Sternbergtask.osexp","C:\Users\Brian\Desktop\College - Graduate\Graduate Work\Advanced Quant\Lab 3","yes","no","mono","no","18","no","white","no","yes","768","legacy","3","3","C:/Users/Brian/Desktop/College - Graduate/Graduate Work/Advanced Quant/Lab 3/BK-subject-4.csv","legacy","4 3 1 7 9 8","Kafkaesque Koffka","3.2.8","1","y","0","left","right","NA","left","NA","1034","38389","NA","1034","NA","2","legacy","6","1024","2","48000","-16","experiment","4","even","4","64270","60922","62062","2551","NA","62065","NA","2566","NA","66274","63067","67309","40957","66274","NA","Sternberg task","4","5179","4","yes","1024"
"100","100","1343.6","1343.6","black","practice","legacy","legacy","legacy","0","uniform","1","undefined","1","right","4","4","4","0","0","4","4","0","0","4","4","4","0","4","0","10/22/21 19:26:51","The main experiment item","yes","Sternbergtask.osexp","C:\Users\Brian\Desktop\College - Graduate\Graduate Work\Advanced Quant\Lab 3","yes","no","mono","no","18","no","white","no","yes","768","legacy","4","4","C:/Users/Brian/Desktop/College - Graduate/Graduate Work/Advanced Quant/Lab 3/BK-subject-4.csv","legacy","5 7 8 4 1 2","Kafkaesque Koffka","3.2.8","0","n","0","right","right","NA","right","NA","1539","38389","NA","1539","NA","2","legacy","6","1024","2","48000","-16","experiment","4","even","6","70682","67319","68473","2551","NA","68476","NA","2566","NA","72685","69479","74225","40957","72685","NA","Sternberg task","5","6718","5","yes","1024"
"83.3333333333","83.3333333333","1453","1453","black","practice","legacy","legacy","legacy","0","uniform","0","undefined","0","left","5","5","5","0","0","5","5","0","0","5","5","5","0","5","0","10/22/21 19:26:51","The main experiment item","yes","Sternbergtask.osexp","C:\Users\Brian\Desktop\College - Graduate\Graduate Work\Advanced Quant\Lab 3","yes","no","mono","no","18","no","white","no","yes","768","legacy","5","5","C:/Users/Brian/Desktop/College - Graduate/Graduate Work/Advanced Quant/Lab 3/BK-subject-4.csv","legacy","4 8","Kafkaesque Koffka","3.2.8","1","y","0","None","right","NA","None","NA","2000","38389","NA","2000","NA","2","legacy","2","1024","2","48000","-16","experiment","4","even","4","77599","74237","75392","2551","NA","75394","NA","2566","NA","79603","76397","81603","40957","79603","NA","Sternberg task","5","8718","6","yes","1024"
"85.7142857143","85.7142857143","1458","1458","black","practice","legacy","legacy","legacy","0","uniform","1","undefined","1","right","6","6","6","0","0","6","6","0","0","6","6","6","0","6","0","10/22/21 19:26:51","The main experiment item","yes","Sternbergtask.osexp","C:\Users\Brian\Desktop\College - Graduate\Graduate Work\Advanced Quant\Lab 3","yes","no","mono","no","18","no","white","no","yes","768","legacy","6","6","C:/Users/Brian/Desktop/College - Graduate/Graduate Work/Advanced Quant/Lab 3/BK-subject-4.csv","legacy","4 1 5","Kafkaesque Koffka","3.2.8","0","n","0","right","right","NA","right","NA","1488","38389","NA","1488","NA","2","legacy","3","1024","2","48000","-16","experiment","4","even","2","84978","74237","82769","2551","NA","82772","81613","2566","NA","86981","83775","88470","40957","86981","NA","Sternberg task","6","10206","7","yes","1024"
"87.5","87.5","1441.25","1441.25","black","practice","legacy","legacy","legacy","0","uniform","1","undefined","1","right","7","7","7","0","0","7","7","0","0","7","7","7","0","7","0","10/22/21 19:26:51","The main experiment item","yes","Sternbergtask.osexp","C:\Users\Brian\Desktop\College - Graduate\Graduate Work\Advanced Quant\Lab 3","yes","no","mono","no","18","no","white","no","yes","768","legacy","7","7","C:/Users/Brian/Desktop/College - Graduate/Graduate Work/Advanced Quant/Lab 3/BK-subject-4.csv","legacy","9 6 7 4 5","Kafkaesque Koffka","3.2.8","0","n","0","right","right","NA","right","NA","1324","38389","NA","1324","NA","2","legacy","5","1024","2","48000","-16","experiment","4","even","3","91853","88484","89644","2551","NA","89647","81613","2566","NA","93856","90650","95181","40957","93856","NA","Sternberg task","7","11530","8","yes","1024"
"88.8888888889","88.8888888889","1419.33333333","1419.33333333","black","practice","legacy","legacy","legacy","0","uniform","1","undefined","1","right","8","8","8","0","0","8","8","0","0","8","8","8","0","8","0","10/22/21 19:26:51","The main experiment item","yes","Sternbergtask.osexp","C:\Users\Brian\Desktop\College - Graduate\Graduate Work\Advanced Quant\Lab 3","yes","no","mono","no","18","no","white","no","yes","768","legacy","8","8","C:/Users/Brian/Desktop/College - Graduate/Graduate Work/Advanced Quant/Lab 3/BK-subject-4.csv","legacy","2 1","Kafkaesque Koffka","3.2.8","0","n","0","right","right","NA","right","NA","1244","38389","NA","1244","NA","2","legacy","2","1024","2","48000","-16","experiment","4","even","5","98565","95193","96356","2551","NA","96359","81613","2566","NA","100568","97362","101813","40957","100568","NA","Sternberg task","8","12774","9","yes","1024"
"90","90","1380.3","1380.3","black","practice","legacy","legacy","legacy","0","uniform","1","undefined","1","right","9","9","9","0","0","9","9","0","0","9","9","9","0","9","0","10/22/21 19:26:51","The main experiment item","yes","Sternbergtask.osexp","C:\Users\Brian\Desktop\College - Graduate\Graduate Work\Advanced Quant\Lab 3","yes","no","mono","no","18","no","white","no","yes","768","legacy","9","9","C:/Users/Brian/Desktop/College - Graduate/Graduate Work/Advanced Quant/Lab 3/BK-subject-4.csv","legacy","3 1 9 4","Kafkaesque Koffka","3.2.8","0","n","0","right","right","NA","right","NA","1029","38389","NA","1029","NA","2","legacy","4","1024","2","48000","-16","experiment","4","even","6","105177","101823","102968","2551","NA","102971","81613","2566","NA","107180","103974","108209","40957","107180","NA","Sternberg task","9","13803","10","yes","1024"
"90.9090909091","90.9090909091","1353.81818182","1353.81818182","black","practice","legacy","legacy","legacy","0","uniform","1","undefined","1","left","10","10","10","0","0","10","10","0","0","10","10","10","0","10","0","10/22/21 19:26:51","The main experiment item","yes","Sternbergtask.osexp","C:\Users\Brian\Desktop\College - Graduate\Graduate Work\Advanced Quant\Lab 3","yes","no","mono","no","18","no","white","no","yes","768","legacy","10","10","C:/Users/Brian/Desktop/College - Graduate/Graduate Work/Advanced Quant/Lab 3/BK-subject-4.csv","legacy","2 9 4","Kafkaesque Koffka","3.2.8","3","y","0","left","right","NA","left","NA","1089","38389","NA","1089","NA","2","legacy","3","1024","2","48000","-16","experiment","4","even","4","111575","108219","109367","2551","NA","109369","81613","2566","NA","113578","110372","114668","40957","113578","NA","Sternberg task","10","14892","11","yes","1024"
"91.6666666667","91.6666666667","1320","1320","black","practice","legacy","legacy","legacy","0","uniform","1","undefined","1","left","11","11","11","0","0","11","11","0","0","11","11","11","0","11","0","10/22/21 19:26:51","The main experiment item","yes","Sternbergtask.osexp","C:\Users\Brian\Desktop\College - Graduate\Graduate Work\Advanced Quant\Lab 3","yes","no","mono","no","18","no","white","no","yes","768","legacy","11","11","C:/Users/Brian/Desktop/College - Graduate/Graduate Work/Advanced Quant/Lab 3/BK-subject-4.csv","legacy","6","Kafkaesque Koffka","3.2.8","1","y","0","left","right","NA","left","NA","948","38389","NA","948","NA","2","legacy","1","1024","2","48000","-16","experiment","4","even","6","118043","114681","115834","2551","NA","115837","81613","2566","NA","120045","116840","120994","40957","120045","NA","Sternberg task","11","15840","12","yes","1024"
"92.3076923077","92.3076923077","1322.53846154","1322.53846154","black","experiment","legacy","legacy","legacy","0","uniform","1","undefined","1","right","12","12","12","0","0","12","12","0","0","12","12","12","0","12","0","10/22/21 19:26:51","The main experiment item","yes","Sternbergtask.osexp","C:\Users\Brian\Desktop\College - Graduate\Graduate Work\Advanced Quant\Lab 3","yes","no","mono","no","18","no","white","no","yes","768","legacy","0","11","C:/Users/Brian/Desktop/College - Graduate/Graduate Work/Advanced Quant/Lab 3/BK-subject-4.csv","legacy","2 8 6 3 1","Kafkaesque Koffka","3.2.8","0","n","0","right","right","right","right","NA","1353","38389","19055","1353","NA","2","legacy","5","1024","2","48000","-16","experiment","4","even","7","143495","121004","141286","2551","141098","141289","81613","2566","122042","145498","142292","146853","40957","145498","NA","Sternberg task","12","17193","13","yes","1024"
"92.8571428571","92.8571428571","1289.28571429","1289.28571429","black","experiment","legacy","legacy","legacy","0","uniform","1","undefined","1","left","13","13","13","0","0","13","13","0","0","13","13","13","0","13","0","10/22/21 19:26:51","The main experiment item","yes","Sternbergtask.osexp","C:\Users\Brian\Desktop\College - Graduate\Graduate Work\Advanced Quant\Lab 3","yes","no","mono","no","18","no","white","no","yes","768","legacy","1","11","C:/Users/Brian/Desktop/College - Graduate/Graduate Work/Advanced Quant/Lab 3/BK-subject-4.csv","legacy","8 7 3","Kafkaesque Koffka","3.2.8","1","y","0","left","right","right","left","NA","857","38389","19055","857","NA","2","legacy","3","1024","2","48000","-16","experiment","4","even","8","150273","146864","148063","2551","141098","148067","81613","2566","122042","152276","149070","153134","40957","152276","NA","Sternberg task","13","18050","14","yes","1024"
"93.3333333333","93.3333333333","1321.13333333","1321.13333333","black","experiment","legacy","legacy","legacy","0","uniform","1","undefined","1","left","14","14","14","0","0","14","14","0","0","14","14","14","0","14","0","10/22/21 19:26:51","The main experiment item","yes","Sternbergtask.osexp","C:\Users\Brian\Desktop\College - Graduate\Graduate Work\Advanced Quant\Lab 3","yes","no","mono","no","18","no","white","no","yes","768","legacy","2","11","C:/Users/Brian/Desktop/College - Graduate/Graduate Work/Advanced Quant/Lab 3/BK-subject-4.csv","legacy","9 6 2 4 1","Kafkaesque Koffka","3.2.8","4","y","0","left","right","right","left","NA","1767","38389","19055","1767","NA","2","legacy","5","1024","2","48000","-16","experiment","4","even","4","156513","153144","154304","2551","141098","154307","81613","2566","122042","158516","155310","160284","40957","158516","NA","Sternberg task","14","19817","15","yes","1024"
"87.5","87.5","1345.6875","1345.6875","black","experiment","legacy","legacy","legacy","0","uniform","0","undefined","0","left","15","15","15","0","0","15","15","0","0","15","15","15","0","15","0","10/22/21 19:26:51","The main experiment item","yes","Sternbergtask.osexp","C:\Users\Brian\Desktop\College - Graduate\Graduate Work\Advanced Quant\Lab 3","yes","no","mono","no","18","no","white","no","yes","768","legacy","3","11","C:/Users/Brian/Desktop/College - Graduate/Graduate Work/Advanced Quant/Lab 3/BK-subject-4.csv","legacy","7 4 2 6 3 5","Kafkaesque Koffka","3.2.8","6","y","0","right","right","right","right","NA","1714","38389","19055","1714","NA","2","legacy","6","1024","2","48000","-16","experiment","4","even","5","163655","160297","161447","2551","141098","161449","81613","2566","122042","165658","162452","167374","40957","165658","NA","Sternberg task","14","21531","16","yes","1024"
"88.2352941176","88.2352941176","1334","1334","black","experiment","legacy","legacy","legacy","0","uniform","1","undefined","1","right","16","16","16","0","0","16","16","0","0","16","16","16","0","16","0","10/22/21 19:26:51","The main experiment item","yes","Sternbergtask.osexp","C:\Users\Brian\Desktop\College - Graduate\Graduate Work\Advanced Quant\Lab 3","yes","no","mono","no","18","no","white","no","yes","768","legacy","4","11","C:/Users/Brian/Desktop/College - Graduate/Graduate Work/Advanced Quant/Lab 3/BK-subject-4.csv","legacy","4 1","Kafkaesque Koffka","3.2.8","0","n","0","right","right","right","right","NA","1147","38389","19055","1147","NA","2","legacy","2","1024","2","48000","-16","experiment","4","even","6","170738","160297","168530","2551","141098","168532","167383","2566","122042","172741","169535","173890","40957","172741","NA","Sternberg task","15","22678","17","yes","1024"
"88.8888888889","88.8888888889","1348.77777778","1348.77777778","black","experiment","legacy","legacy","legacy","0","uniform","1","undefined","1","left","17","17","17","0","0","17","17","0","0","17","17","17","0","17","0","10/22/21 19:26:51","The main experiment item","yes","Sternbergtask.osexp","C:\Users\Brian\Desktop\College - Graduate\Graduate Work\Advanced Quant\Lab 3","yes","no","mono","no","18","no","white","no","yes","768","legacy","5","11","C:/Users/Brian/Desktop/College - Graduate/Graduate Work/Advanced Quant/Lab 3/BK-subject-4.csv","legacy","7 8 4 6 9 5","Kafkaesque Koffka","3.2.8","4","y","0","left","right","right","left","NA","1600","38389","19055","1600","NA","2","legacy","6","1024","2","48000","-16","experiment","4","even","6","177256","173902","175047","2551","141098","175050","167383","2566","122042","179259","176053","180861","40957","179259","NA","Sternberg task","16","24278","18","yes","1024"
"89.4736842105","89.4736842105","1338.84210526","1338.84210526","black","experiment","legacy","legacy","legacy","0","uniform","1","undefined","1","right","18","18","18","0","0","18","18","0","0","18","18","18","0","18","0","10/22/21 19:26:51","The main experiment item","yes","Sternbergtask.osexp","C:\Users\Brian\Desktop\College - Graduate\Graduate Work\Advanced Quant\Lab 3","yes","no","mono","no","18","no","white","no","yes","768","legacy","6","11","C:/Users/Brian/Desktop/College - Graduate/Graduate Work/Advanced Quant/Lab 3/BK-subject-4.csv","legacy","5 9 2 3","Kafkaesque Koffka","3.2.8","0","n","0","right","right","right","right","NA","1160","38389","19055","1160","NA","2","legacy","4","1024","2","48000","-16","experiment","4","even","8","184232","180872","182023","2551","141098","182026","167383","2566","122042","186235","183029","187396","40957","186235","NA","Sternberg task","17","25438","19","yes","1024"
"90","90","1328.25","1328.25","black","experiment","legacy","legacy","legacy","0","uniform","1","undefined","1","left","19","19","19","0","0","19","19","0","0","19","19","19","0","19","0","10/22/21 19:26:51","The main experiment item","yes","Sternbergtask.osexp","C:\Users\Brian\Desktop\College - Graduate\Graduate Work\Advanced Quant\Lab 3","yes","no","mono","no","18","no","white","no","yes","768","legacy","7","11","C:/Users/Brian/Desktop/College - Graduate/Graduate Work/Advanced Quant/Lab 3/BK-subject-4.csv","legacy","7 6","Kafkaesque Koffka","3.2.8","2","y","0","left","right","right","left","NA","1127","38389","19055","1127","NA","2","legacy","2","1024","2","48000","-16","experiment","4","even","6","190772","187408","188563","2551","141098","188566","167383","2566","122042","192775","189569","193904","40957","192775","NA","Sternberg task","18","26565","20","yes","1024"
"90.4761904762","90.4761904762","1317.61904762","1317.61904762","black","experiment","legacy","legacy","legacy","0","uniform","1","undefined","1","right","20","20","20","0","0","20","20","0","0","20","20","20","0","20","0","10/22/21 19:26:51","The main experiment item","yes","Sternbergtask.osexp","C:\Users\Brian\Desktop\College - Graduate\Graduate Work\Advanced Quant\Lab 3","yes","no","mono","no","18","no","white","no","yes","768","legacy","8","11","C:/Users/Brian/Desktop/College - Graduate/Graduate Work/Advanced Quant/Lab 3/BK-subject-4.csv","legacy","2 6 4 3 9","Kafkaesque Koffka","3.2.8","0","n","0","right","right","right","right","NA","1105","38389","19055","1105","NA","2","legacy","5","1024","2","48000","-16","experiment","4","even","1","197271","193909","195062","2551","141098","195065","167383","2566","122042","199274","196068","200380","40957","199274","NA","Sternberg task","19","27670","21","yes","1024"
"90.9090909091","90.9090909091","1307.59090909","1307.59090909","black","experiment","legacy","legacy","legacy","0","uniform","1","undefined","1","right","21","21","21","0","0","21","21","0","0","21","21","21","0","21","0","10/22/21 19:26:51","The main experiment item","yes","Sternbergtask.osexp","C:\Users\Brian\Desktop\College - Graduate\Graduate Work\Advanced Quant\Lab 3","yes","no","mono","no","18","no","white","no","yes","768","legacy","9","11","C:/Users/Brian/Desktop/College - Graduate/Graduate Work/Advanced Quant/Lab 3/BK-subject-4.csv","legacy","9 8 2 7 4","Kafkaesque Koffka","3.2.8","0","n","0","right","right","right","right","NA","1097","38389","19055","1097","NA","2","legacy","5","1024","2","48000","-16","experiment","4","even","5","203755","200392","201546","2551","141098","201549","167383","2566","122042","205758","202552","206856","40957","205758","NA","Sternberg task","20","28767","22","yes","1024"
"91.3043478261","91.3043478261","1311.73913043","1311.73913043","black","experiment","legacy","legacy","legacy","0","uniform","1","undefined","1","left","22","22","22","0","0","22","22","0","0","22","22","22","0","22","0","10/22/21 19:26:51","The main experiment item","yes","Sternbergtask.osexp","C:\Users\Brian\Desktop\College - Graduate\Graduate Work\Advanced Quant\Lab 3","yes","no","mono","no","18","no","white","no","yes","768","legacy","10","11","C:/Users/Brian/Desktop/College - Graduate/Graduate Work/Advanced Quant/Lab 3/BK-subject-4.csv","legacy","6 8 9 3 4 9","Kafkaesque Koffka","3.2.8","5","y","0","left","right","right","left","NA","1403","38389","19055","1403","NA","2","legacy","6","1024","2","48000","-16","experiment","4","even","4","210275","206866","208065","2551","141098","208069","167383","2566","122042","212278","209072","213682","40957","212278","NA","Sternberg task","21","30170","23","yes","1024"
"91.6666666667","91.6666666667","1299.125","1299.125","black","experiment","legacy","legacy","legacy","0","uniform","1","undefined","1","left","23","23","23","0","0","23","23","0","0","23","23","23","0","23","0","10/22/21 19:26:51","The main experiment item","yes","Sternbergtask.osexp","C:\Users\Brian\Desktop\College - Graduate\Graduate Work\Advanced Quant\Lab 3","yes","no","mono","no","18","no","white","no","yes","768","legacy","11","11","C:/Users/Brian/Desktop/College - Graduate/Graduate Work/Advanced Quant/Lab 3/BK-subject-4.csv","legacy","7 1 3","Kafkaesque Koffka","3.2.8","2","y","0","left","right","right","left","NA","1009","38389","19055","1009","NA","2","legacy","3","1024","2","48000","-16","experiment","4","even","1","217066","213693","214857","2551","141098","214860","167383","2566","122042","219069","215863","220079","40957","219069","NA","Sternberg task","22","31179","24","yes","1024"
"92","92","1299.4","1299.4","black","experiment","legacy","legacy","legacy","0","uniform","1","undefined","1","left","24","24","24","0","0","24","24","0","0","24","24","24","0","24","0","10/22/21 19:26:51","The main experiment item","yes","Sternbergtask.osexp","C:\Users\Brian\Desktop\College - Graduate\Graduate Work\Advanced Quant\Lab 3","yes","no","mono","no","18","no","white","no","yes","768","legacy","12","11","C:/Users/Brian/Desktop/College - Graduate/Graduate Work/Advanced Quant/Lab 3/BK-subject-4.csv","legacy","5 7 3 6 2","Kafkaesque Koffka","3.2.8","5","y","0","left","right","right","left","NA","1306","38389","19055","1306","NA","2","legacy","5","1024","2","48000","-16","experiment","4","even","2","223459","220090","221250","2551","141098","221253","167383","2566","122042","225462","222256","226770","40957","225462","NA","Sternberg task","23","32485","25","yes","1024"
"92.3076923077","92.3076923077","1300.96153846","1300.96153846","black","experiment","legacy","legacy","legacy","0","uniform","1","undefined","1","left","25","25","25","0","0","25","25","0","0","25","25","25","0","25","0","10/22/21 19:26:51","The main experiment item","yes","Sternbergtask.osexp","C:\Users\Brian\Desktop\College - Graduate\Graduate Work\Advanced Quant\Lab 3","yes","no","mono","no","18","no","white","no","yes","768","legacy","13","11","C:/Users/Brian/Desktop/College - Graduate/Graduate Work/Advanced Quant/Lab 3/BK-subject-4.csv","legacy","2 8 5 1","Kafkaesque Koffka","3.2.8","4","y","0","left","right","right","left","NA","1340","38389","19055","1340","NA","2","legacy","4","1024","2","48000","-16","experiment","4","even","1","230147","226781","227938","2551","141098","227941","167383","2566","122042","232150","228944","233491","40957","232150","NA","Sternberg task","24","33825","26","yes","1024"
"92.5925925926","92.5925925926","1289.11111111","1289.11111111","black","experiment","legacy","legacy","legacy","0","uniform","1","undefined","1","right","26","26","26","0","0","26","26","0","0","26","26","26","0","26","0","10/22/21 19:26:51","The main experiment item","yes","Sternbergtask.osexp","C:\Users\Brian\Desktop\College - Graduate\Graduate Work\Advanced Quant\Lab 3","yes","no","mono","no","18","no","white","no","yes","768","legacy","14","11","C:/Users/Brian/Desktop/College - Graduate/Graduate Work/Advanced Quant/Lab 3/BK-subject-4.csv","legacy","1 7 8 3 9","Kafkaesque Koffka","3.2.8","0","n","0","right","right","right","right","NA","981","38389","19055","981","NA","2","legacy","5","1024","2","48000","-16","experiment","4","even","2","236888","233501","234679","2551","141098","234682","167383","2566","122042","238891","235685","239873","40957","238891","NA","Sternberg task","25","34806","27","yes","1024"
"92.8571428571","92.8571428571","1279.28571429","1279.28571429","black","experiment","legacy","legacy","legacy","0","uniform","1","undefined","1","left","27","27","27","0","0","27","27","0","0","27","27","27","0","27","0","10/22/21 19:26:51","The main experiment item","yes","Sternbergtask.osexp","C:\Users\Brian\Desktop\College - Graduate\Graduate Work\Advanced Quant\Lab 3","yes","no","mono","no","18","no","white","no","yes","768","legacy","15","11","C:/Users/Brian/Desktop/College - Graduate/Graduate Work/Advanced Quant/Lab 3/BK-subject-4.csv","legacy","8 3","Kafkaesque Koffka","3.2.8","2","y","0","left","right","right","left","NA","1014","38389","19055","1014","NA","2","legacy","2","1024","2","48000","-16","experiment","4","even","3","243241","239882","241032","2551","141098","241035","167383","2566","122042","245244","242038","246260","40957","245244","NA","Sternberg task","26","35820","28","yes","1024"
"93.1034482759","93.1034482759","1303.10344828","1303.10344828","black","experiment","legacy","legacy","legacy","0","uniform","1","undefined","1","left","28","28","28","0","0","28","28","0","0","28","28","28","0","28","0","10/22/21 19:26:51","The main experiment item","yes","Sternbergtask.osexp","C:\Users\Brian\Desktop\College - Graduate\Graduate Work\Advanced Quant\Lab 3","yes","no","mono","no","18","no","white","no","yes","768","legacy","16","11","C:/Users/Brian/Desktop/College - Graduate/Graduate Work/Advanced Quant/Lab 3/BK-subject-4.csv","legacy","5 2 6","Kafkaesque Koffka","3.2.8","2","y","0","left","right","right","left","NA","1970","38389","19055","1970","NA","2","legacy","3","1024","2","48000","-16","experiment","4","even","2","249629","246271","247420","2551","141098","247423","167383","2566","122042","251632","248426","253604","40957","251632","NA","Sternberg task","27","37790","29","yes","1024"
"93.3333333333","93.3333333333","1299","1299","black","experiment","legacy","legacy","legacy","0","uniform","1","undefined","1","right","29","29","29","0","0","29","29","0","0","29","29","29","0","29","0","10/22/21 19:26:51","The main experiment item","yes","Sternbergtask.osexp","C:\Users\Brian\Desktop\College - Graduate\Graduate Work\Advanced Quant\Lab 3","yes","no","mono","no","18","no","white","no","yes","768","legacy","17","11","C:/Users/Brian/Desktop/College - Graduate/Graduate Work/Advanced Quant/Lab 3/BK-subject-4.csv","legacy","9 5 3 2 8 6","Kafkaesque Koffka","3.2.8","0","n","0","right","right","right","right","NA","1180","38389","19055","1180","NA","2","legacy","6","1024","2","48000","-16","experiment","4","even","7","256969","253616","254760","2551","141098","254763","167383","2566","122042","258972","255766","260154","40957","258972","NA","Sternberg task","28","38970","30","yes","1024"
"93.5483870968","93.5483870968","1312.67741935","1312.67741935","black","experiment","legacy","legacy","legacy","0","uniform","1","undefined","1","right","30","30","30","0","0","30","30","0","0","30","30","30","0","30","0","10/22/21 19:26:51","The main experiment item","yes","Sternbergtask.osexp","C:\Users\Brian\Desktop\College - Graduate\Graduate Work\Advanced Quant\Lab 3","yes","no","mono","no","18","no","white","no","yes","768","legacy","18","11","C:/Users/Brian/Desktop/College - Graduate/Graduate Work/Advanced Quant/Lab 3/BK-subject-4.csv","legacy","7 3 2 8","Kafkaesque Koffka","3.2.8","0","n","0","right","right","right","right","NA","1723","38389","19055","1723","NA","2","legacy","4","1024","2","48000","-16","experiment","4","even","4","263531","260165","261323","2551","141098","261325","167383","2566","122042","265534","262328","267259","40957","265534","NA","Sternberg task","29","40693","31","yes","1024"
"93.75","93.75","1300.25","1300.25","black","experiment","legacy","legacy","legacy","0","uniform","1","undefined","1","right","31","31","31","0","0","31","31","0","0","31","31","31","0","31","0","10/22/21 19:26:51","The main experiment item","yes","Sternbergtask.osexp","C:\Users\Brian\Desktop\College - Graduate\Graduate Work\Advanced Quant\Lab 3","yes","no","mono","no","18","no","white","no","yes","768","legacy","19","11","C:/Users/Brian/Desktop/College - Graduate/Graduate Work/Advanced Quant/Lab 3/BK-subject-4.csv","legacy","6 8 4","Kafkaesque Koffka","3.2.8","0","n","0","right","right","right","right","NA","915","38389","19055","915","NA","2","legacy","3","1024","2","48000","-16","experiment","4","even","1","270641","267271","268432","2551","141098","268435","167383","2566","122042","272644","269438","273561","40957","272644","NA","Sternberg task","30","41608","32","yes","1024"
"93.9393939394","93.9393939394","1292.87878788","1292.87878788","black","experiment","legacy","legacy","legacy","0","uniform","1","undefined","1","right","32","32","32","0","0","32","32","0","0","32","32","32","0","32","0","10/22/21 19:26:51","The main experiment item","yes","Sternbergtask.osexp","C:\Users\Brian\Desktop\College - Graduate\Graduate Work\Advanced Quant\Lab 3","yes","no","mono","no","18","no","white","no","yes","768","legacy","20","11","C:/Users/Brian/Desktop/College - Graduate/Graduate Work/Advanced Quant/Lab 3/BK-subject-4.csv","legacy","7 9 1 6","Kafkaesque Koffka","3.2.8","0","n","0","right","right","right","right","NA","1057","38389","19055","1057","NA","2","legacy","4","1024","2","48000","-16","experiment","4","even","4","276925","273572","274716","2551","141098","274719","167383","2566","122042","278928","275722","279987","40957","278928","NA","Sternberg task","31","42665","33","yes","1024"
"94.1176470588","94.1176470588","1295.11764706","1295.11764706","black","experiment","legacy","legacy","legacy","0","uniform","1","undefined","1","right","33","33","33","0","0","33","33","0","0","33","33","33","0","33","0","10/22/21 19:26:51","The main experiment item","yes","Sternbergtask.osexp","C:\Users\Brian\Desktop\College - Graduate\Graduate Work\Advanced Quant\Lab 3","yes","no","mono","no","18","no","white","no","yes","768","legacy","21","11","C:/Users/Brian/Desktop/College - Graduate/Graduate Work/Advanced Quant/Lab 3/BK-subject-4.csv","legacy","8 2 1 4 5 9","Kafkaesque Koffka","3.2.8","0","n","0","right","right","right","right","NA","1369","38389","19055","1369","NA","2","legacy","6","1024","2","48000","-16","experiment","4","even","7","283355","279999","281146","2551","141098","281149","167383","2566","122042","285358","282152","286728","40957","285358","NA","Sternberg task","32","44034","34","yes","1024"
"91.4285714286","91.4285714286","1289.34285714","1289.34285714","black","experiment","legacy","legacy","legacy","0","uniform","0","undefined","0","left","34","34","34","0","0","34","34","0","0","34","34","34","0","34","0","10/22/21 19:26:51","The main experiment item","yes","Sternbergtask.osexp","C:\Users\Brian\Desktop\College - Graduate\Graduate Work\Advanced Quant\Lab 3","yes","no","mono","no","18","no","white","no","yes","768","legacy","22","11","C:/Users/Brian/Desktop/College - Graduate/Graduate Work/Advanced Quant/Lab 3/BK-subject-4.csv","legacy","6 9 3 1","Kafkaesque Koffka","3.2.8","4","y","0","right","right","right","right","NA","1093","38389","19055","1093","NA","2","legacy","4","1024","2","48000","-16","experiment","4","even","1","290093","286738","287884","2551","141098","287886","167383","2566","122042","292096","288890","293191","40957","292096","NA","Sternberg task","32","45127","35","yes","1024"
"91.6666666667","91.6666666667","1283.05555556","1283.05555556","black","experiment","legacy","legacy","legacy","0","uniform","1","undefined","1","left","35","35","35","0","0","35","35","0","0","35","35","35","0","35","0","10/22/21 19:26:51","The main experiment item","yes","Sternbergtask.osexp","C:\Users\Brian\Desktop\College - Graduate\Graduate Work\Advanced Quant\Lab 3","yes","no","mono","no","18","no","white","no","yes","768","legacy","23","11","C:/Users/Brian/Desktop/College - Graduate/Graduate Work/Advanced Quant/Lab 3/BK-subject-4.csv","legacy","9 1 7 2","Kafkaesque Koffka","3.2.8","2","y","0","left","right","right","left","NA","1063","38389","19055","1063","NA","2","legacy","4","1024","2","48000","-16","experiment","4","even","1","296578","286738","294369","2551","141098","294372","293203","2566","122042","298581","295375","299645","40957","298581","NA","Sternberg task","33","46190","36","yes","1024"
"91.8918918919","91.8918918919","1284.51351351","1284.51351351","black","experiment","legacy","legacy","legacy","0","uniform","1","undefined","1","right","36","36","36","0","0","36","36","0","0","36","36","36","0","36","0","10/22/21 19:26:51","The main experiment item","yes","Sternbergtask.osexp","C:\Users\Brian\Desktop\College - Graduate\Graduate Work\Advanced Quant\Lab 3","yes","no","mono","no","18","no","white","no","yes","768","legacy","24","11","C:/Users/Brian/Desktop/College - Graduate/Graduate Work/Advanced Quant/Lab 3/BK-subject-4.csv","legacy","8 5 4 2 9 6","Kafkaesque Koffka","3.2.8","0","n","0","right","right","right","right","NA","1337","38389","19055","1337","NA","2","legacy","6","1024","2","48000","-16","experiment","4","even","3","303020","299656","300811","2551","141098","300814","293203","2566","122042","305023","301817","306362","40957","305023","NA","Sternberg task","34","47527","37","yes","1024"
"92.1052631579","92.1052631579","1277.73684211","1277.73684211","black","experiment","legacy","legacy","legacy","0","uniform","1","undefined","1","right","37","37","37","0","0","37","37","0","0","37","37","37","0","37","0","10/22/21 19:26:51","The main experiment item","yes","Sternbergtask.osexp","C:\Users\Brian\Desktop\College - Graduate\Graduate Work\Advanced Quant\Lab 3","yes","no","mono","no","18","no","white","no","yes","768","legacy","25","11","C:/Users/Brian/Desktop/College - Graduate/Graduate Work/Advanced Quant/Lab 3/BK-subject-4.csv","legacy","6 2 9 3 8 4","Kafkaesque Koffka","3.2.8","0","n","0","right","right","right","right","NA","1027","38389","19055","1027","NA","2","legacy","6","1024","2","48000","-16","experiment","4","even","1","309731","306375","307522","2551","141098","307525","293203","2566","122042","311734","308528","312763","40957","311734","NA","Sternberg task","35","48554","38","yes","1024"
"92.3076923077","92.3076923077","1285.53846154","1285.53846154","black","experiment","legacy","legacy","legacy","0","uniform","1","undefined","1","right","38","38","38","0","0","38","38","0","0","38","38","38","0","38","0","10/22/21 19:26:51","The main experiment item","yes","Sternbergtask.osexp","C:\Users\Brian\Desktop\College - Graduate\Graduate Work\Advanced Quant\Lab 3","yes","no","mono","no","18","no","white","no","yes","768","legacy","26","11","C:/Users/Brian/Desktop/College - Graduate/Graduate Work/Advanced Quant/Lab 3/BK-subject-4.csv","legacy","1 4 3 6 5","Kafkaesque Koffka","3.2.8","0","n","0","right","right","right","right","NA","1582","38389","19055","1582","NA","2","legacy","5","1024","2","48000","-16","experiment","4","even","8","316131","312772","313922","2551","141098","313925","293203","2566","122042","318134","314928","319718","40957","318134","NA","Sternberg task","36","50136","39","yes","1024"
"92.5","92.5","1275.825","1275.825","black","experiment","legacy","legacy","legacy","0","uniform","1","undefined","1","left","39","39","39","0","0","39","39","0","0","39","39","39","0","39","0","10/22/21 19:26:51","The main experiment item","yes","Sternbergtask.osexp","C:\Users\Brian\Desktop\College - Graduate\Graduate Work\Advanced Quant\Lab 3","yes","no","mono","no","18","no","white","no","yes","768","legacy","27","11","C:/Users/Brian/Desktop/College - Graduate/Graduate Work/Advanced Quant/Lab 3/BK-subject-4.csv","legacy","3 4","Kafkaesque Koffka","3.2.8","1","y","0","left","right","right","left","NA","897","38389","19055","897","NA","2","legacy","2","1024","2","48000","-16","experiment","4","even","3","323093","319729","320883","2551","141098","320885","293203","2566","122042","325096","321889","325995","40957","325096","NA","Sternberg task","37","51033","40","yes","1024"
"92.6829268293","92.6829268293","1271.51219512","1271.51219512","black","experiment","legacy","legacy","legacy","0","uniform","1","undefined","1","left","40","40","40","0","0","40","40","0","0","40","40","40","0","40","0","10/22/21 19:26:51","The main experiment item","yes","Sternbergtask.osexp","C:\Users\Brian\Desktop\College - Graduate\Graduate Work\Advanced Quant\Lab 3","yes","no","mono","no","18","no","white","no","yes","768","legacy","28","11","C:/Users/Brian/Desktop/College - Graduate/Graduate Work/Advanced Quant/Lab 3/BK-subject-4.csv","legacy","3 5 9 6 2 4","Kafkaesque Koffka","3.2.8","1","y","0","left","right","right","left","NA","1099","38389","19055","1099","NA","2","legacy","6","1024","2","48000","-16","experiment","4","even","3","329379","326006","327171","2551","141098","327173","293203","2566","122042","331382","328176","332482","40957","331382","NA","Sternberg task","38","52132","41","yes","1024"
"92.8571428571","92.8571428571","1264.4047619","1264.4047619","black","experiment","legacy","legacy","legacy","0","uniform","1","undefined","1","left","41","41","41","0","0","41","41","0","0","41","41","41","0","41","0","10/22/21 19:26:51","The main experiment item","yes","Sternbergtask.osexp","C:\Users\Brian\Desktop\College - Graduate\Graduate Work\Advanced Quant\Lab 3","yes","no","mono","no","18","no","white","no","yes","768","legacy","29","11","C:/Users/Brian/Desktop/College - Graduate/Graduate Work/Advanced Quant/Lab 3/BK-subject-4.csv","legacy","8 9 5 7 1 6","Kafkaesque Koffka","3.2.8","4","y","0","left","right","right","left","NA","973","38389","19055","973","NA","2","legacy","6","1024","2","48000","-16","experiment","4","even","7","335861","332492","333652","2551","141098","333655","293203","2566","122042","337864","334658","338840","40957","337864","NA","Sternberg task","39","53105","42","yes","1024"
"93.023255814","93.023255814","1257.46511628","1257.46511628","black","experiment","legacy","legacy","legacy","0","uniform","1","undefined","1","right","42","42","42","0","0","42","42","0","0","42","42","42","0","42","0","10/22/21 19:26:51","The main experiment item","yes","Sternbergtask.osexp","C:\Users\Brian\Desktop\College - Graduate\Graduate Work\Advanced Quant\Lab 3","yes","no","mono","no","18","no","white","no","yes","768","legacy","30","11","C:/Users/Brian/Desktop/College - Graduate/Graduate Work/Advanced Quant/Lab 3/BK-subject-4.csv","legacy","7 1 5 6 3","Kafkaesque Koffka","3.2.8","0","n","0","right","right","right","right","NA","966","38389","19055","966","NA","2","legacy","5","1024","2","48000","-16","experiment","4","even","8","342216","338852","340007","2551","141098","340010","293203","2566","122042","344219","341013","345186","40957","344219","NA","Sternberg task","40","54071","43","yes","1024"
"93.1818181818","93.1818181818","1257","1257","black","experiment","legacy","legacy","legacy","0","uniform","1","undefined","1","left","43","43","43","0","0","43","43","0","0","43","43","43","0","43","0","10/22/21 19:26:51","The main experiment item","yes","Sternbergtask.osexp","C:\Users\Brian\Desktop\College - Graduate\Graduate Work\Advanced Quant\Lab 3","yes","no","mono","no","18","no","white","no","yes","768","legacy","31","11","C:/Users/Brian/Desktop/College - Graduate/Graduate Work/Advanced Quant/Lab 3/BK-subject-4.csv","legacy","9 3 8 2 1 4","Kafkaesque Koffka","3.2.8","3","y","0","left","right","right","left","NA","1237","38389","19055","1237","NA","2","legacy","6","1024","2","48000","-16","experiment","4","even","8","348561","345198","346352","2551","141098","346355","293203","2566","122042","350564","347358","351802","40957","350564","NA","Sternberg task","41","55308","44","yes","1024"
"93.3333333333","93.3333333333","1253.06666667","1253.06666667","black","experiment","legacy","legacy","legacy","0","uniform","1","undefined","1","right","44","44","44","0","0","44","44","0","0","44","44","44","0","44","0","10/22/21 19:26:51","The main experiment item","yes","Sternbergtask.osexp","C:\Users\Brian\Desktop\College - Graduate\Graduate Work\Advanced Quant\Lab 3","yes","no","mono","no","18","no","white","no","yes","768","legacy","32","11","C:/Users/Brian/Desktop/College - Graduate/Graduate Work/Advanced Quant/Lab 3/BK-subject-4.csv","legacy","7 9","Kafkaesque Koffka","3.2.8","0","n","0","right","right","right","right","NA","1080","38389","19055","1080","NA","2","legacy","2","1024","2","48000","-16","experiment","4","even","1","355184","351813","352975","2551","141098","352978","293203","2566","122042","357187","353981","358269","40957","357187","NA","Sternberg task","42","56388","45","yes","1024"
"93.4782608696","93.4782608696","1255.82608696","1255.82608696","black","experiment","legacy","legacy","legacy","0","uniform","1","undefined","1","right","45","45","45","0","0","45","45","0","0","45","45","45","0","45","0","10/22/21 19:26:51","The main experiment item","yes","Sternbergtask.osexp","C:\Users\Brian\Desktop\College - Graduate\Graduate Work\Advanced Quant\Lab 3","yes","no","mono","no","18","no","white","no","yes","768","legacy","33","11","C:/Users/Brian/Desktop/College - Graduate/Graduate Work/Advanced Quant/Lab 3/BK-subject-4.csv","legacy","1 4 9 2 5","Kafkaesque Koffka","3.2.8","0","n","0","right","right","right","right","NA","1380","38389","19055","1380","NA","2","legacy","5","1024","2","48000","-16","experiment","4","even","7","361644","358280","359436","2551","141098","359438","293203","2566","122042","363647","360441","365029","40957","363647","NA","Sternberg task","43","57768","46","yes","1024"
"93.6170212766","93.6170212766","1259.65957447","1259.65957447","black","experiment","legacy","legacy","legacy","0","uniform","1","undefined","1","right","46","46","46","0","0","46","46","0","0","46","46","46","0","46","0","10/22/21 19:26:51","The main experiment item","yes","Sternbergtask.osexp","C:\Users\Brian\Desktop\College - Graduate\Graduate Work\Advanced Quant\Lab 3","yes","no","mono","no","18","no","white","no","yes","768","legacy","34","11","C:/Users/Brian/Desktop/College - Graduate/Graduate Work/Advanced Quant/Lab 3/BK-subject-4.csv","legacy","1 4 9 3","Kafkaesque Koffka","3.2.8","0","n","0","right","right","right","right","NA","1436","38389","19055","1436","NA","2","legacy","4","1024","2","48000","-16","experiment","4","even","5","368393","365039","366184","2551","141098","366187","293203","2566","122042","370396","367190","371833","40957","370396","NA","Sternberg task","44","59204","47","yes","1024"
"93.75","93.75","1251.9375","1251.9375","black","experiment","legacy","legacy","legacy","0","uniform","1","undefined","1","right","47","47","47","0","0","47","47","0","0","47","47","47","0","47","0","10/22/21 19:26:51","The main experiment item","yes","Sternbergtask.osexp","C:\Users\Brian\Desktop\College - Graduate\Graduate Work\Advanced Quant\Lab 3","yes","no","mono","no","18","no","white","no","yes","768","legacy","35","11","C:/Users/Brian/Desktop/College - Graduate/Graduate Work/Advanced Quant/Lab 3/BK-subject-4.csv","legacy","6 7 5 9","Kafkaesque Koffka","3.2.8","0","n","0","right","right","right","right","NA","889","38389","19055","889","NA","2","legacy","4","1024","2","48000","-16","experiment","4","even","2","375226","371843","373018","2551","141098","373020","293203","2566","122042","377229","374023","378120","40957","377229","NA","Sternberg task","45","60093","48","yes","1024"
"93.8775510204","93.8775510204","1244.44897959","1244.44897959","black","experiment","legacy","legacy","legacy","0","uniform","1","undefined","1","right","48","48","48","0","0","48","48","0","0","48","48","48","0","48","0","10/22/21 19:26:51","The main experiment item","yes","Sternbergtask.osexp","C:\Users\Brian\Desktop\College - Graduate\Graduate Work\Advanced Quant\Lab 3","yes","no","mono","no","18","no","white","no","yes","768","legacy","36","11","C:/Users/Brian/Desktop/College - Graduate/Graduate Work/Advanced Quant/Lab 3/BK-subject-4.csv","legacy","3 9 1","Kafkaesque Koffka","3.2.8","0","n","0","right","right","right","right","NA","885","38389","19055","885","NA","2","legacy","3","1024","2","48000","-16","experiment","4","even","7","381488","378131","379280","2551","141098","379283","293203","2566","122042","383490","380285","384378","40957","383490","NA","Sternberg task","46","60978","49","yes","1024"
"94","94","1242.88","1242.88","black","experiment","legacy","legacy","legacy","0","uniform","1","undefined","1","left","49","49","49","0","0","49","49","0","0","49","49","49","0","49","0","10/22/21 19:26:51","The main experiment item","yes","Sternbergtask.osexp","C:\Users\Brian\Desktop\College - Graduate\Graduate Work\Advanced Quant\Lab 3","yes","no","mono","no","18","no","white","no","yes","768","legacy","37","11","C:/Users/Brian/Desktop/College - Graduate/Graduate Work/Advanced Quant/Lab 3/BK-subject-4.csv","legacy","3 9 6 2","Kafkaesque Koffka","3.2.8","4","y","0","left","right","right","left","NA","1166","38389","19055","1166","NA","2","legacy","4","1024","2","48000","-16","experiment","4","even","2","387752","384390","385544","2551","141098","385546","293203","2566","122042","389755","386549","390923","40957","389755","NA","Sternberg task","47","62144","50","yes","1024"
"92.1568627451","92.1568627451","1248.15686275","1248.15686275","black","experiment","legacy","legacy","legacy","0","uniform","0","undefined","0","left","50","50","50","0","0","50","50","0","0","50","50","50","0","50","0","10/22/21 19:26:51","The main experiment item","yes","Sternbergtask.osexp","C:\Users\Brian\Desktop\College - Graduate\Graduate Work\Advanced Quant\Lab 3","yes","no","mono","no","18","no","white","no","yes","768","legacy","38","11","C:/Users/Brian/Desktop/College - Graduate/Graduate Work/Advanced Quant/Lab 3/BK-subject-4.csv","legacy","6 9 7 4 5 1","Kafkaesque Koffka","3.2.8","2","y","0","right","right","right","right","NA","1512","38389","19055","1512","NA","2","legacy","6","1024","2","48000","-16","experiment","4","even","9","394302","390935","392093","2551","141098","392096","293203","2566","122042","396305","393099","397818","40957","396305","NA","Sternberg task","47","63656","51","yes","1024"
"92.3076923077","92.3076923077","1243.67307692","1243.67307692","black","experiment","legacy","legacy","legacy","0","uniform","1","undefined","1","left","51","51","51","0","0","51","51","0","0","51","51","51","0","51","0","10/22/21 19:26:51","The main experiment item","yes","Sternbergtask.osexp","C:\Users\Brian\Desktop\College - Graduate\Graduate Work\Advanced Quant\Lab 3","yes","no","mono","no","18","no","white","no","yes","768","legacy","39","11","C:/Users/Brian/Desktop/College - Graduate/Graduate Work/Advanced Quant/Lab 3/BK-subject-4.csv","legacy","4 9 7 8 5 3","Kafkaesque Koffka","3.2.8","4","y","0","left","right","right","left","NA","1015","38389","19055","1015","NA","2","legacy","6","1024","2","48000","-16","experiment","4","even","8","401179","390935","398970","2551","141098","398973","397823","2566","122042","403182","399976","404199","40957","403182","NA","Sternberg task","48","64671","52","yes","1024"
"92.4528301887","92.4528301887","1234.71698113","1234.71698113","black","experiment","legacy","legacy","legacy","0","uniform","1","undefined","1","right","52","52","52","0","0","52","52","0","0","52","52","52","0","52","0","10/22/21 19:26:51","The main experiment item","yes","Sternbergtask.osexp","C:\Users\Brian\Desktop\College - Graduate\Graduate Work\Advanced Quant\Lab 3","yes","no","mono","no","18","no","white","no","yes","768","legacy","40","11","C:/Users/Brian/Desktop/College - Graduate/Graduate Work/Advanced Quant/Lab 3/BK-subject-4.csv","legacy","7 1","Kafkaesque Koffka","3.2.8","0","n","0","right","right","right","right","NA","769","38389","19055","769","NA","2","legacy","2","1024","2","48000","-16","experiment","4","even","8","407572","404211","405363","2551","141098","405365","397823","2566","122042","409575","406369","410346","40957","409575","NA","Sternberg task","49","65440","53","yes","1024"
"92.5925925926","92.5925925926","1228.24074074","1228.24074074","black","experiment","legacy","legacy","legacy","0","uniform","1","undefined","1","left","53","53","53","0","0","53","53","0","0","53","53","53","0","53","0","10/22/21 19:26:51","The main experiment item","yes","Sternbergtask.osexp","C:\Users\Brian\Desktop\College - Graduate\Graduate Work\Advanced Quant\Lab 3","yes","no","mono","no","18","no","white","no","yes","768","legacy","41","11","C:/Users/Brian/Desktop/College - Graduate/Graduate Work/Advanced Quant/Lab 3/BK-subject-4.csv","legacy","1 4 9 3 2 5","Kafkaesque Koffka","3.2.8","3","y","0","left","right","right","left","NA","885","38389","19055","885","NA","2","legacy","6","1024","2","48000","-16","experiment","4","even","9","413717","410356","411510","2551","141098","411512","397823","2566","122042","415721","412515","416607","40957","415721","NA","Sternberg task","50","66325","54","yes","1024"
"92.7272727273","92.7272727273","1240.50909091","1240.50909091","black","experiment","legacy","legacy","legacy","0","uniform","1","undefined","1","right","54","54","54","0","0","54","54","0","0","54","54","54","0","54","0","10/22/21 19:26:51","The main experiment item","yes","Sternbergtask.osexp","C:\Users\Brian\Desktop\College - Graduate\Graduate Work\Advanced Quant\Lab 3","yes","no","mono","no","18","no","white","no","yes","768","legacy","42","11","C:/Users/Brian/Desktop/College - Graduate/Graduate Work/Advanced Quant/Lab 3/BK-subject-4.csv","legacy","5","Kafkaesque Koffka","3.2.8","0","n","0","right","right","right","right","NA","1903","38389","19055","1903","NA","2","legacy","1","1024","2","48000","-16","experiment","4","even","8","419978","416617","417769","2551","141098","417772","397823","2566","122042","421981","418775","423886","40957","421981","NA","Sternberg task","51","68228","55","yes","1024"
"92.8571428571","92.8571428571","1235.66071429","1235.66071429","black","experiment","legacy","legacy","legacy","0","uniform","1","undefined","1","left","55","55","55","0","0","55","55","0","0","55","55","55","0","55","0","10/22/21 19:26:51","The main experiment item","yes","Sternbergtask.osexp","C:\Users\Brian\Desktop\College - Graduate\Graduate Work\Advanced Quant\Lab 3","yes","no","mono","no","18","no","white","no","yes","768","legacy","43","11","C:/Users/Brian/Desktop/College - Graduate/Graduate Work/Advanced Quant/Lab 3/BK-subject-4.csv","legacy","6 5","Kafkaesque Koffka","3.2.8","2","y","0","left","right","right","left","NA","969","38389","19055","969","NA","2","legacy","2","1024","2","48000","-16","experiment","4","even","5","427273","423895","425065","2551","141098","425068","397823","2566","122042","429276","426071","430247","40957","429276","NA","Sternberg task","52","69197","56","yes","1024"
"92.9824561404","92.9824561404","1234.84210526","1234.84210526","black","experiment","legacy","legacy","legacy","0","uniform","1","undefined","1","left","56","56","56","0","0","56","56","0","0","56","56","56","0","56","0","10/22/21 19:26:51","The main experiment item","yes","Sternbergtask.osexp","C:\Users\Brian\Desktop\College - Graduate\Graduate Work\Advanced Quant\Lab 3","yes","no","mono","no","18","no","white","no","yes","768","legacy","44","11","C:/Users/Brian/Desktop/College - Graduate/Graduate Work/Advanced Quant/Lab 3/BK-subject-4.csv","legacy","4 3 2 5 8","Kafkaesque Koffka","3.2.8","2","y","0","left","right","right","left","NA","1189","38389","19055","1189","NA","2","legacy","5","1024","2","48000","-16","experiment","4","even","3","433629","430258","431419","2551","141098","431423","397823","2566","122042","435632","432426","436822","40957","435632","NA","Sternberg task","53","70386","57","yes","1024"
"93.1034482759","93.1034482759","1242.55172414","1242.55172414","black","experiment","legacy","legacy","legacy","0","uniform","1","undefined","1","right","57","57","57","0","0","57","57","0","0","57","57","57","0","57","0","10/22/21 19:26:51","The main experiment item","yes","Sternbergtask.osexp","C:\Users\Brian\Desktop\College - Graduate\Graduate Work\Advanced Quant\Lab 3","yes","no","mono","no","18","no","white","no","yes","768","legacy","45","11","C:/Users/Brian/Desktop/College - Graduate/Graduate Work/Advanced Quant/Lab 3/BK-subject-4.csv","legacy","7 1 8 4 9 3","Kafkaesque Koffka","3.2.8","0","n","0","right","right","right","right","NA","1682","38389","19055","1682","NA","2","legacy","6","1024","2","48000","-16","experiment","4","even","6","440190","436832","437981","2551","141098","437984","397823","2566","122042","442193","438987","443877","40957","442193","NA","Sternberg task","54","72068","58","yes","1024"
"93.2203389831","93.2203389831","1239.27118644","1239.27118644","black","experiment","legacy","legacy","legacy","0","uniform","1","undefined","1","left","58","58","58","0","0","58","58","0","0","58","58","58","0","58","0","10/22/21 19:26:51","The main experiment item","yes","Sternbergtask.osexp","C:\Users\Brian\Desktop\College - Graduate\Graduate Work\Advanced Quant\Lab 3","yes","no","mono","no","18","no","white","no","yes","768","legacy","46","11","C:/Users/Brian/Desktop/College - Graduate/Graduate Work/Advanced Quant/Lab 3/BK-subject-4.csv","legacy","3 2 1 4 7","Kafkaesque Koffka","3.2.8","2","y","0","left","right","right","left","NA","1049","38389","19055","1049","NA","2","legacy","5","1024","2","48000","-16","experiment","4","even","2","447249","443889","445040","2551","141098","445043","397823","2566","122042","449252","446046","450303","40957","449252","NA","Sternberg task","55","73117","59","yes","1024"
"93.3333333333","93.3333333333","1231.13333333","1231.13333333","black","experiment","legacy","legacy","legacy","0","uniform","1","undefined","1","left","59","59","59","0","0","59","59","0","0","59","59","59","0","59","0","10/22/21 19:26:51","The main experiment item","yes","Sternbergtask.osexp","C:\Users\Brian\Desktop\College - Graduate\Graduate Work\Advanced Quant\Lab 3","yes","no","mono","no","18","no","white","no","yes","768","legacy","47","11","C:/Users/Brian/Desktop/College - Graduate/Graduate Work/Advanced Quant/Lab 3/BK-subject-4.csv","legacy","9 1 6 7 8","Kafkaesque Koffka","3.2.8","1","y","0","left","right","right","left","NA","751","38389","19055","751","NA","2","legacy","5","1024","2","48000","-16","experiment","4","even","9","453674","450312","451466","2551","141098","451468","397823","2566","122042","455677","452471","456430","40957","455677","NA","Sternberg task","56","73868","60","yes","1024"
"93.4426229508","93.4426229508","1239.62295082","1239.62295082","black","experiment","legacy","legacy","legacy","0","uniform","1","undefined","1","left","60","60","60","0","0","60","60","0","0","60","60","60","0","60","0","10/22/21 19:26:51","The main experiment item","yes","Sternbergtask.osexp","C:\Users\Brian\Desktop\College - Graduate\Graduate Work\Advanced Quant\Lab 3","yes","no","mono","no","18","no","white","no","yes","768","legacy","48","11","C:/Users/Brian/Desktop/College - Graduate/Graduate Work/Advanced Quant/Lab 3/BK-subject-4.csv","legacy","6 7 8 5","Kafkaesque Koffka","3.2.8","3","y","0","left","right","right","left","NA","1749","38389","19055","1749","NA","2","legacy","4","1024","2","48000","-16","experiment","4","even","8","459790","456435","457581","2551","141098","457584","397823","2566","122042","461793","458587","463545","40957","461793","NA","Sternberg task","57","75617","61","yes","1024"
"93.5483870968","93.5483870968","1233.37096774","1233.37096774","black","experiment","legacy","legacy","legacy","0","uniform","1","undefined","1","left","61","61","61","0","0","61","61","0","0","61","61","61","0","61","0","10/22/21 19:26:51","The main experiment item","yes","Sternbergtask.osexp","C:\Users\Brian\Desktop\College - Graduate\Graduate Work\Advanced Quant\Lab 3","yes","no","mono","no","18","no","white","no","yes","768","legacy","49","11","C:/Users/Brian/Desktop/College - Graduate/Graduate Work/Advanced Quant/Lab 3/BK-subject-4.csv","legacy","9 5 3 8 4","Kafkaesque Koffka","3.2.8","1","y","0","left","right","right","left","NA","852","38389","19055","852","NA","2","legacy","5","1024","2","48000","-16","experiment","4","even","9","466919","463558","464711","2551","141098","464713","397823","2566","122042","468922","465716","469776","40957","468922","NA","Sternberg task","58","76469","62","yes","1024"
"93.6507936508","93.6507936508","1228.06349206","1228.06349206","black","experiment","legacy","legacy","legacy","0","uniform","1","undefined","1","right","62","62","62","0","0","62","62","0","0","62","62","62","0","62","0","10/22/21 19:26:51","The main experiment item","yes","Sternbergtask.osexp","C:\Users\Brian\Desktop\College - Graduate\Graduate Work\Advanced Quant\Lab 3","yes","no","mono","no","18","no","white","no","yes","768","legacy","50","11","C:/Users/Brian/Desktop/College - Graduate/Graduate Work/Advanced Quant/Lab 3/BK-subject-4.csv","legacy","1 8 7","Kafkaesque Koffka","3.2.8","0","n","0","right","right","right","right","NA","899","38389","19055","899","NA","2","legacy","3","1024","2","48000","-16","experiment","4","even","4","473143","469789","470934","2551","141098","470937","397823","2566","122042","475146","471940","476048","40957","475146","NA","Sternberg task","59","77368","63","yes","1024"
"93.75","93.75","1229.34375","1229.34375","black","experiment","legacy","legacy","legacy","0","uniform","1","undefined","1","right","63","63","63","0","0","63","63","0","0","63","63","63","0","63","0","10/22/21 19:26:51","The main experiment item","yes","Sternbergtask.osexp","C:\Users\Brian\Desktop\College - Graduate\Graduate Work\Advanced Quant\Lab 3","yes","no","mono","no","18","no","white","no","yes","768","legacy","51","11","C:/Users/Brian/Desktop/College - Graduate/Graduate Work/Advanced Quant/Lab 3/BK-subject-4.csv","legacy","9 7 4 5 8","Kafkaesque Koffka","3.2.8","0","n","0","right","right","right","right","NA","1310","38389","19055","1310","NA","2","legacy","5","1024","2","48000","-16","experiment","4","even","6","479417","476059","477207","2551","141098","477210","397823","2566","122042","481420","478214","482732","40957","481420","NA","Sternberg task","60","78678","64","yes","1024"
"93.8461538462","93.8461538462","1230.04615385","1230.04615385","black","experiment","legacy","legacy","legacy","0","uniform","1","undefined","1","left","64","64","64","0","0","64","64","0","0","64","64","64","0","64","0","10/22/21 19:26:51","The main experiment item","yes","Sternbergtask.osexp","C:\Users\Brian\Desktop\College - Graduate\Graduate Work\Advanced Quant\Lab 3","yes","no","mono","no","18","no","white","no","yes","768","legacy","52","11","C:/Users/Brian/Desktop/College - Graduate/Graduate Work/Advanced Quant/Lab 3/BK-subject-4.csv","legacy","8 1 6","Kafkaesque Koffka","3.2.8","3","y","0","left","right","right","left","NA","1275","38389","19055","1275","NA","2","legacy","3","1024","2","48000","-16","experiment","4","even","6","486112","482744","483903","2551","141098","483906","397823","2566","122042","488115","484909","489392","40957","488115","NA","Sternberg task","61","79953","65","yes","1024"
"93.9393939394","93.9393939394","1226.04545455","1226.04545455","black","experiment","legacy","legacy","legacy","0","uniform","1","undefined","1","right","65","65","65","0","0","65","65","0","0","65","65","65","0","65","0","10/22/21 19:26:51","The main experiment item","yes","Sternbergtask.osexp","C:\Users\Brian\Desktop\College - Graduate\Graduate Work\Advanced Quant\Lab 3","yes","no","mono","no","18","no","white","no","yes","768","legacy","53","11","C:/Users/Brian/Desktop/College - Graduate/Graduate Work/Advanced Quant/Lab 3/BK-subject-4.csv","legacy","4 8 1 2","Kafkaesque Koffka","3.2.8","0","n","0","right","right","right","right","NA","966","38389","19055","966","NA","2","legacy","4","1024","2","48000","-16","experiment","4","even","7","492807","489401","490597","2551","141098","490601","397823","2566","122042","494810","491604","495778","40957","494810","NA","Sternberg task","62","80919","66","yes","1024"
"94.0298507463","94.0298507463","1220.02985075","1220.02985075","black","experiment","legacy","legacy","legacy","0","uniform","1","undefined","1","left","66","66","66","0","0","66","66","0","0","66","66","66","0","66","0","10/22/21 19:26:51","The main experiment item","yes","Sternbergtask.osexp","C:\Users\Brian\Desktop\College - Graduate\Graduate Work\Advanced Quant\Lab 3","yes","no","mono","no","18","no","white","no","yes","768","legacy","54","11","C:/Users/Brian/Desktop/College - Graduate/Graduate Work/Advanced Quant/Lab 3/BK-subject-4.csv","legacy","2 3","Kafkaesque Koffka","3.2.8","1","y","0","left","right","right","left","NA","823","38389","19055","823","NA","2","legacy","2","1024","2","48000","-16","experiment","4","even","2","499146","495789","496937","2551","141098","496940","397823","2566","122042","501149","497943","501974","40957","501149","NA","Sternberg task","63","81742","67","yes","1024"
"94.1176470588","94.1176470588","1219.39705882","1219.39705882","black","experiment","legacy","legacy","legacy","0","uniform","1","undefined","1","left","67","67","67","0","0","67","67","0","0","67","67","67","0","67","0","10/22/21 19:26:51","The main experiment item","yes","Sternbergtask.osexp","C:\Users\Brian\Desktop\College - Graduate\Graduate Work\Advanced Quant\Lab 3","yes","no","mono","no","18","no","white","no","yes","768","legacy","55","11","C:/Users/Brian/Desktop/College - Graduate/Graduate Work/Advanced Quant/Lab 3/BK-subject-4.csv","legacy","8 9 5 6 7","Kafkaesque Koffka","3.2.8","1","y","0","left","right","right","left","NA","1177","38389","19055","1177","NA","2","legacy","5","1024","2","48000","-16","experiment","4","even","8","505356","501984","503148","2551","141098","503151","397823","2566","122042","507360","504154","508539","40957","507360","NA","Sternberg task","64","82919","68","yes","1024"
"94.2028985507","94.2028985507","1220.14492754","1220.14492754","black","experiment","legacy","legacy","legacy","0","uniform","1","undefined","1","right","68","68","68","0","0","68","68","0","0","68","68","68","0","68","0","10/22/21 19:26:51","The main experiment item","yes","Sternbergtask.osexp","C:\Users\Brian\Desktop\College - Graduate\Graduate Work\Advanced Quant\Lab 3","yes","no","mono","no","18","no","white","no","yes","768","legacy","56","11","C:/Users/Brian/Desktop/College - Graduate/Graduate Work/Advanced Quant/Lab 3/BK-subject-4.csv","legacy","7 6 4 8 1 2","Kafkaesque Koffka","3.2.8","0","n","0","right","right","right","right","NA","1271","38389","19055","1271","NA","2","legacy","6","1024","2","48000","-16","experiment","4","even","9","511903","508544","509693","2551","141098","509697","397823","2566","122042","513906","510700","515179","40957","513906","NA","Sternberg task","65","84190","69","yes","1024"
"94.2857142857","94.2857142857","1223.98571429","1223.98571429","black","experiment","legacy","legacy","legacy","0","uniform","1","undefined","1","right","69","69","69","0","0","69","69","0","0","69","69","69","0","69","0","10/22/21 19:26:51","The main experiment item","yes","Sternbergtask.osexp","C:\Users\Brian\Desktop\College - Graduate\Graduate Work\Advanced Quant\Lab 3","yes","no","mono","no","18","no","white","no","yes","768","legacy","57","11","C:/Users/Brian/Desktop/College - Graduate/Graduate Work/Advanced Quant/Lab 3/BK-subject-4.csv","legacy","5 3 2 6 9 8","Kafkaesque Koffka","3.2.8","0","n","0","right","right","right","right","NA","1489","38389","19055","1489","NA","2","legacy","6","1024","2","48000","-16","experiment","4","even","4","518565","515190","516356","2551","141098","516359","397823","2566","122042","520568","517362","522059","40957","520568","NA","Sternberg task","66","85679","70","yes","1024"
"94.3661971831","94.3661971831","1218.81690141","1218.81690141","black","experiment","legacy","legacy","legacy","0","uniform","1","undefined","1","right","70","70","70","0","0","70","70","0","0","70","70","70","0","70","0","10/22/21 19:26:51","The main experiment item","yes","Sternbergtask.osexp","C:\Users\Brian\Desktop\College - Graduate\Graduate Work\Advanced Quant\Lab 3","yes","no","mono","no","18","no","white","no","yes","768","legacy","58","11","C:/Users/Brian/Desktop/College - Graduate/Graduate Work/Advanced Quant/Lab 3/BK-subject-4.csv","legacy","5 2","Kafkaesque Koffka","3.2.8","0","n","0","right","right","right","right","NA","857","38389","19055","857","NA","2","legacy","2","1024","2","48000","-16","experiment","4","even","7","525430","522071","523221","2551","141098","523223","397823","2566","122042","527433","524227","528293","40957","527433","NA","Sternberg task","67","86536","71","yes","1024"
"94.4444444444","94.4444444444","1223.76388889","1223.76388889","black","experiment","legacy","legacy","legacy","0","uniform","1","undefined","1","left","71","71","71","0","0","71","71","0","0","71","71","71","0","71","0","10/22/21 19:26:51","The main experiment item","yes","Sternbergtask.osexp","C:\Users\Brian\Desktop\College - Graduate\Graduate Work\Advanced Quant\Lab 3","yes","no","mono","no","18","no","white","no","yes","768","legacy","59","11","C:/Users/Brian/Desktop/College - Graduate/Graduate Work/Advanced Quant/Lab 3/BK-subject-4.csv","legacy","8 5 4 7 3 1","Kafkaesque Koffka","3.2.8","2","y","0","left","right","right","left","NA","1575","38389","19055","1575","NA","2","legacy","6","1024","2","48000","-16","experiment","4","even","5","531670","528306","529461","2551","141098","529464","397823","2566","122042","533673","530467","535250","40957","533673","NA","Sternberg task","68","88111","72","yes","1024"
"94.5205479452","94.5205479452","1222.61643836","1222.61643836","black","experiment","legacy","legacy","legacy","0","uniform","1","undefined","1","right","72","72","72","0","0","72","72","0","0","72","72","72","0","72","0","10/22/21 19:26:51","The main experiment item","yes","Sternbergtask.osexp","C:\Users\Brian\Desktop\College - Graduate\Graduate Work\Advanced Quant\Lab 3","yes","no","mono","no","18","no","white","no","yes","768","legacy","60","11","C:/Users/Brian/Desktop/College - Graduate/Graduate Work/Advanced Quant/Lab 3/BK-subject-4.csv","legacy","1 6 4","Kafkaesque Koffka","3.2.8","0","n","0","right","right","right","right","NA","1140","38389","19055","1140","NA","2","legacy","3","1024","2","48000","-16","experiment","4","even","7","538619","535260","536410","2551","141098","536413","397823","2566","122042","540622","537416","541765","40957","540622","NA","Sternberg task","69","89251","73","yes","1024"
"94.5945945946","94.5945945946","1218.75675676","1218.75675676","black","experiment","legacy","legacy","legacy","0","uniform","1","undefined","1","right","73","73","73","0","0","73","73","0","0","73","73","73","0","73","0","10/22/21 19:26:51","The main experiment item","yes","Sternbergtask.osexp","C:\Users\Brian\Desktop\College - Graduate\Graduate Work\Advanced Quant\Lab 3","yes","no","mono","no","18","no","white","no","yes","768","legacy","61","11","C:/Users/Brian/Desktop/College - Graduate/Graduate Work/Advanced Quant/Lab 3/BK-subject-4.csv","legacy","5 3 8 7 2 4","Kafkaesque Koffka","3.2.8","0","n","0","right","right","right","right","NA","937","38389","19055","937","NA","2","legacy","6","1024","2","48000","-16","experiment","4","even","9","545139","541776","542930","2551","141098","542933","397823","2566","122042","547142","543936","548081","40957","547142","NA","Sternberg task","70","90188","74","yes","1024"
"94.6666666667","94.6666666667","1220.50666667","1220.50666667","black","experiment","legacy","legacy","legacy","0","uniform","1","undefined","1","right","74","74","74","0","0","74","74","0","0","74","74","74","0","74","0","10/22/21 19:26:51","The main experiment item","yes","Sternbergtask.osexp","C:\Users\Brian\Desktop\College - Graduate\Graduate Work\Advanced Quant\Lab 3","yes","no","mono","no","18","no","white","no","yes","768","legacy","62","11","C:/Users/Brian/Desktop/College - Graduate/Graduate Work/Advanced Quant/Lab 3/BK-subject-4.csv","legacy","2 8 7 9 5 3","Kafkaesque Koffka","3.2.8","0","n","0","right","right","right","right","NA","1350","38389","19055","1350","NA","2","legacy","6","1024","2","48000","-16","experiment","4","even","6","551451","548086","549242","2551","141098","549245","397823","2566","122042","553454","550248","554805","40957","553454","NA","Sternberg task","71","91538","75","yes","1024"
"94.7368421053","94.7368421053","1224.46052632","1224.46052632","black","experiment","legacy","legacy","legacy","0","uniform","1","undefined","1","right","75","75","75","0","0","75","75","0","0","75","75","75","0","75","0","10/22/21 19:26:51","The main experiment item","yes","Sternbergtask.osexp","C:\Users\Brian\Desktop\College - Graduate\Graduate Work\Advanced Quant\Lab 3","yes","no","mono","no","18","no","white","no","yes","768","legacy","63","11","C:/Users/Brian/Desktop/College - Graduate/Graduate Work/Advanced Quant/Lab 3/BK-subject-4.csv","legacy","6 9 7 3 8 2","Kafkaesque Koffka","3.2.8","0","n","0","right","right","right","right","NA","1521","38389","19055","1521","NA","2","legacy","6","1024","2","48000","-16","experiment","4","even","5","558179","554816","555970","2551","141098","555973","397823","2566","122042","560182","556976","561706","40957","560182","NA","Sternberg task","72","93059","76","yes","1024"
"94.8051948052","94.8051948052","1221.49350649","1221.49350649","black","experiment","legacy","legacy","legacy","0","uniform","1","undefined","1","right","76","76","76","0","0","76","76","0","0","76","76","76","0","76","0","10/22/21 19:26:51","The main experiment item","yes","Sternbergtask.osexp","C:\Users\Brian\Desktop\College - Graduate\Graduate Work\Advanced Quant\Lab 3","yes","no","mono","no","18","no","white","no","yes","768","legacy","64","11","C:/Users/Brian/Desktop/College - Graduate/Graduate Work/Advanced Quant/Lab 3/BK-subject-4.csv","legacy","1 7 5 2","Kafkaesque Koffka","3.2.8","0","n","0","right","right","right","right","NA","996","38389","19055","996","NA","2","legacy","4","1024","2","48000","-16","experiment","4","even","3","565076","561718","562868","2551","141098","562870","397823","2566","122042","567079","563873","568077","40957","567079","NA","Sternberg task","73","94055","77","yes","1024"
"94.8717948718","94.8717948718","1224.65384615","1224.65384615","black","experiment","legacy","legacy","legacy","0","uniform","1","undefined","1","left","77","77","77","0","0","77","77","0","0","77","77","77","0","77","0","10/22/21 19:26:51","The main experiment item","yes","Sternbergtask.osexp","C:\Users\Brian\Desktop\College - Graduate\Graduate Work\Advanced Quant\Lab 3","yes","no","mono","no","18","no","white","no","yes","768","legacy","65","11","C:/Users/Brian/Desktop/College - Graduate/Graduate Work/Advanced Quant/Lab 3/BK-subject-4.csv","legacy","3 5 4 7","Kafkaesque Koffka","3.2.8","1","y","0","left","right","right","left","NA","1468","38389","19055","1468","NA","2","legacy","4","1024","2","48000","-16","experiment","4","even","3","571443","568086","569234","2551","141098","569237","397823","2566","122042","573446","570240","574916","40957","573446","NA","Sternberg task","74","95523","78","yes","1024"
"94.9367088608","94.9367088608","1228.55696203","1228.55696203","black","experiment","legacy","legacy","legacy","0","uniform","1","undefined","1","left","78","78","78","0","0","78","78","0","0","78","78","78","0","78","0","10/22/21 19:26:51","The main experiment item","yes","Sternbergtask.osexp","C:\Users\Brian\Desktop\College - Graduate\Graduate Work\Advanced Quant\Lab 3","yes","no","mono","no","18","no","white","no","yes","768","legacy","66","11","C:/Users/Brian/Desktop/College - Graduate/Graduate Work/Advanced Quant/Lab 3/BK-subject-4.csv","legacy","9 3 1 2 5","Kafkaesque Koffka","3.2.8","4","y","0","left","right","right","left","NA","1533","38389","19055","1533","NA","2","legacy","5","1024","2","48000","-16","experiment","4","even","2","578297","574926","576088","2551","141098","576091","397823","2566","122042","580300","577094","581835","40957","580300","NA","Sternberg task","75","97056","79","yes","1024"
"95","95","1227.975","1227.975","black","experiment","legacy","legacy","legacy","0","uniform","1","undefined","1","left","79","79","79","0","0","79","79","0","0","79","79","79","0","79","0","10/22/21 19:26:51","The main experiment item","yes","Sternbergtask.osexp","C:\Users\Brian\Desktop\College - Graduate\Graduate Work\Advanced Quant\Lab 3","yes","no","mono","no","18","no","white","no","yes","768","legacy","67","11","C:/Users/Brian/Desktop/College - Graduate/Graduate Work/Advanced Quant/Lab 3/BK-subject-4.csv","legacy","5 2 9 6 1 7","Kafkaesque Koffka","3.2.8","3","y","0","left","right","right","left","NA","1182","38389","19055","1182","NA","2","legacy","6","1024","2","48000","-16","experiment","4","even","9","585214","581845","583005","2551","141098","583008","397823","2566","122042","587217","584011","588402","40957","587217","NA","Sternberg task","76","98238","80","yes","1024"
"95.0617283951","95.0617283951","1229.08641975","1229.08641975","black","experiment","legacy","legacy","legacy","0","uniform","1","undefined","1","left","80","80","80","0","0","80","80","0","0","80","80","80","0","80","0","10/22/21 19:26:51","The main experiment item","yes","Sternbergtask.osexp","C:\Users\Brian\Desktop\College - Graduate\Graduate Work\Advanced Quant\Lab 3","yes","no","mono","no","18","no","white","no","yes","768","legacy","68","11","C:/Users/Brian/Desktop/College - Graduate/Graduate Work/Advanced Quant/Lab 3/BK-subject-4.csv","legacy","2 4 6 9","Kafkaesque Koffka","3.2.8","3","y","0","left","right","right","left","NA","1318","38389","19055","1318","NA","2","legacy","4","1024","2","48000","-16","experiment","4","even","6","591774","588415","589565","2551","141098","589567","397823","2566","122042","593777","590571","595097","40957","593777","NA","Sternberg task","77","99556","81","yes","1024"
"95.1219512195","95.1219512195","1227.30487805","1227.30487805","black","experiment","legacy","legacy","legacy","0","uniform","1","undefined","1","right","81","81","81","0","0","81","81","0","0","81","81","81","0","81","0","10/22/21 19:26:51","The main experiment item","yes","Sternbergtask.osexp","C:\Users\Brian\Desktop\College - Graduate\Graduate Work\Advanced Quant\Lab 3","yes","no","mono","no","18","no","white","no","yes","768","legacy","69","11","C:/Users/Brian/Desktop/College - Graduate/Graduate Work/Advanced Quant/Lab 3/BK-subject-4.csv","legacy","1 6 4 3 9 7","Kafkaesque Koffka","3.2.8","0","n","0","right","right","right","right","NA","1083","38389","19055","1083","NA","2","legacy","6","1024","2","48000","-16","experiment","4","even","8","598469","595106","596260","2551","141098","596263","397823","2566","122042","600472","597266","601557","40957","600472","NA","Sternberg task","78","100639","82","yes","1024"
"95.1807228916","95.1807228916","1226.59036145","1226.59036145","black","experiment","legacy","legacy","legacy","0","uniform","1","undefined","1","right","82","82","82","0","0","82","82","0","0","82","82","82","0","82","0","10/22/21 19:26:51","The main experiment item","yes","Sternbergtask.osexp","C:\Users\Brian\Desktop\College - Graduate\Graduate Work\Advanced Quant\Lab 3","yes","no","mono","no","18","no","white","no","yes","768","legacy","70","11","C:/Users/Brian/Desktop/College - Graduate/Graduate Work/Advanced Quant/Lab 3/BK-subject-4.csv","legacy","1 5 3 2 8","Kafkaesque Koffka","3.2.8","0","n","0","right","right","right","right","NA","1168","38389","19055","1168","NA","2","legacy","5","1024","2","48000","-16","experiment","4","even","4","604929","601567","602721","2551","141098","602723","397823","2566","122042","606932","603726","608102","40957","606932","NA","Sternberg task","79","101807","83","yes","1024"
"95.2380952381","95.2380952381","1228.17857143","1228.17857143","black","experiment","legacy","legacy","legacy","0","uniform","1","undefined","1","left","83","83","83","0","0","83","83","0","0","83","83","83","0","83","0","10/22/21 19:26:51","The main experiment item","yes","Sternbergtask.osexp","C:\Users\Brian\Desktop\College - Graduate\Graduate Work\Advanced Quant\Lab 3","yes","no","mono","no","18","no","white","no","yes","768","legacy","71","11","C:/Users/Brian/Desktop/College - Graduate/Graduate Work/Advanced Quant/Lab 3/BK-subject-4.csv","legacy","8 5 3 7 4 6","Kafkaesque Koffka","3.2.8","6","y","0","left","right","right","left","NA","1360","38389","19055","1360","NA","2","legacy","6","1024","2","48000","-16","experiment","4","even","6","611492","608112","609283","2551","141098","609286","397823","2566","122042","613495","610289","614859","40957","613495","NA","Sternberg task","80","103167","84","yes","1024"
"95.2941176471","95.2941176471","1226.47058824","1226.47058824","black","experiment","legacy","legacy","legacy","0","uniform","1","undefined","1","left","84","84","84","0","0","84","84","0","0","84","84","84","0","84","0","10/22/21 19:26:51","The main experiment item","yes","Sternbergtask.osexp","C:\Users\Brian\Desktop\College - Graduate\Graduate Work\Advanced Quant\Lab 3","yes","no","mono","no","18","no","white","no","yes","768","legacy","72","11","C:/Users/Brian/Desktop/College - Graduate/Graduate Work/Advanced Quant/Lab 3/BK-subject-4.csv","legacy","2 4 8 5 1 3","Kafkaesque Koffka","3.2.8","1","y","0","left","right","right","left","NA","1083","38389","19055","1083","NA","2","legacy","6","1024","2","48000","-16","experiment","4","even","2","618225","614867","616016","2551","141098","616019","397823","2566","122042","620228","617022","621313","40957","620228","NA","Sternberg task","81","104250","85","yes","1024"
"95.3488372093","95.3488372093","1225.06976744","1225.06976744","black","experiment","legacy","legacy","legacy","0","uniform","1","undefined","1","left","85","85","85","0","0","85","85","0","0","85","85","85","0","85","0","10/22/21 19:26:51","The main experiment item","yes","Sternbergtask.osexp","C:\Users\Brian\Desktop\College - Graduate\Graduate Work\Advanced Quant\Lab 3","yes","no","mono","no","18","no","white","no","yes","768","legacy","73","11","C:/Users/Brian/Desktop/College - Graduate/Graduate Work/Advanced Quant/Lab 3/BK-subject-4.csv","legacy","8 5 1 3 9","Kafkaesque Koffka","3.2.8","4","y","0","left","right","right","left","NA","1106","38389","19055","1106","NA","2","legacy","5","1024","2","48000","-16","experiment","4","even","3","624697","621323","622488","2551","141098","622491","397823","2566","122042","626700","623494","627808","40957","626700","NA","Sternberg task","82","105356","86","yes","1024"
"95.4022988506","95.4022988506","1220.57471264","1220.57471264","black","experiment","legacy","legacy","legacy","0","uniform","1","undefined","1","left","86","86","86","0","0","86","86","0","0","86","86","86","0","86","0","10/22/21 19:26:51","The main experiment item","yes","Sternbergtask.osexp","C:\Users\Brian\Desktop\College - Graduate\Graduate Work\Advanced Quant\Lab 3","yes","no","mono","no","18","no","white","no","yes","768","legacy","74","11","C:/Users/Brian/Desktop/College - Graduate/Graduate Work/Advanced Quant/Lab 3/BK-subject-4.csv","legacy","3 5 7 1","Kafkaesque Koffka","3.2.8","3","y","0","left","right","right","left","NA","834","38389","19055","834","NA","2","legacy","4","1024","2","48000","-16","experiment","4","even","7","631175","627819","628967","2551","141098","628969","397823","2566","122042","633178","629972","634014","40957","633178","NA","Sternberg task","83","106190","87","yes","1024"
"95.4545454545","95.4545454545","1215.57954545","1215.57954545","black","experiment","legacy","legacy","legacy","0","uniform","1","undefined","1","left","87","87","87","0","0","87","87","0","0","87","87","87","0","87","0","10/22/21 19:26:51","The main experiment item","yes","Sternbergtask.osexp","C:\Users\Brian\Desktop\College - Graduate\Graduate Work\Advanced Quant\Lab 3","yes","no","mono","no","18","no","white","no","yes","768","legacy","75","11","C:/Users/Brian/Desktop/College - Graduate/Graduate Work/Advanced Quant/Lab 3/BK-subject-4.csv","legacy","4","Kafkaesque Koffka","3.2.8","1","y","0","left","right","right","left","NA","781","38389","19055","781","NA","2","legacy","1","1024","2","48000","-16","experiment","4","even","4","637384","634024","635176","2551","141098","635178","397823","2566","122042","639388","636182","640171","40957","639388","NA","Sternberg task","84","106971","88","yes","1024"
"95.5056179775","95.5056179775","1216.25842697","1216.25842697","black","experiment","legacy","legacy","legacy","0","uniform","1","undefined","1","left","88","88","88","0","0","88","88","0","0","88","88","88","0","88","0","10/22/21 19:26:51","The main experiment item","yes","Sternbergtask.osexp","C:\Users\Brian\Desktop\College - Graduate\Graduate Work\Advanced Quant\Lab 3","yes","no","mono","no","18","no","white","no","yes","768","legacy","76","11","C:/Users/Brian/Desktop/College - Graduate/Graduate Work/Advanced Quant/Lab 3/BK-subject-4.csv","legacy","7 2 3","Kafkaesque Koffka","3.2.8","3","y","0","left","right","right","left","NA","1276","38389","19055","1276","NA","2","legacy","3","1024","2","48000","-16","experiment","4","even","3","643551","640181","641342","2551","141098","641345","397823","2566","122042","645554","642348","646833","40957","645554","NA","Sternberg task","85","108247","89","yes","1024"
"95.5555555556","95.5555555556","1215.3","1215.3","black","experiment","legacy","legacy","legacy","0","uniform","1","undefined","1","left","89","89","89","0","0","89","89","0","0","89","89","89","0","89","0","10/22/21 19:26:51","The main experiment item","yes","Sternbergtask.osexp","C:\Users\Brian\Desktop\College - Graduate\Graduate Work\Advanced Quant\Lab 3","yes","no","mono","no","18","no","white","no","yes","768","legacy","77","11","C:/Users/Brian/Desktop/College - Graduate/Graduate Work/Advanced Quant/Lab 3/BK-subject-4.csv","legacy","4 1 5","Kafkaesque Koffka","3.2.8","2","y","0","left","right","right","left","NA","1130","38389","19055","1130","NA","2","legacy","3","1024","2","48000","-16","experiment","4","even","1","650252","646844","648042","2551","141098","648045","397823","2566","122042","652255","649049","653387","40957","652255","NA","Sternberg task","86","109377","90","yes","1024"
"95.6043956044","95.6043956044","1212.83516484","1212.83516484","black","experiment","legacy","legacy","legacy","0","uniform","1","undefined","1","left","90","90","90","0","0","90","90","0","0","90","90","90","0","90","0","10/22/21 19:26:51","The main experiment item","yes","Sternbergtask.osexp","C:\Users\Brian\Desktop\College - Graduate\Graduate Work\Advanced Quant\Lab 3","yes","no","mono","no","18","no","white","no","yes","768","legacy","78","11","C:/Users/Brian/Desktop/College - Graduate/Graduate Work/Advanced Quant/Lab 3/BK-subject-4.csv","legacy","7 1 8 5 6 2","Kafkaesque Koffka","3.2.8","2","y","0","left","right","right","left","NA","991","38389","19055","991","NA","2","legacy","6","1024","2","48000","-16","experiment","4","even","1","656746","653392","654537","2551","141098","654540","397823","2566","122042","658749","655543","659742","40957","658749","NA","Sternberg task","87","110368","91","yes","1024"
"95.652173913","95.652173913","1210.23913043","1210.23913043","black","experiment","legacy","legacy","legacy","0","uniform","1","undefined","1","left","91","91","91","0","0","91","91","0","0","91","91","91","0","91","0","10/22/21 19:26:51","The main experiment item","yes","Sternbergtask.osexp","C:\Users\Brian\Desktop\College - Graduate\Graduate Work\Advanced Quant\Lab 3","yes","no","mono","no","18","no","white","no","yes","768","legacy","79","11","C:/Users/Brian/Desktop/College - Graduate/Graduate Work/Advanced Quant/Lab 3/BK-subject-4.csv","legacy","9 4 2","Kafkaesque Koffka","3.2.8","1","y","0","left","right","right","left","NA","974","38389","19055","974","NA","2","legacy","3","1024","2","48000","-16","experiment","4","even","9","663115","659754","660906","2551","141098","660909","397823","2566","122042","665118","661912","666094","40957","665118","NA","Sternberg task","88","111342","92","yes","1024"
"95.6989247312","95.6989247312","1213.95698925","1213.95698925","black","experiment","legacy","legacy","legacy","0","uniform","1","undefined","1","right","92","92","92","0","0","92","92","0","0","92","92","92","0","92","0","10/22/21 19:26:51","The main experiment item","yes","Sternbergtask.osexp","C:\Users\Brian\Desktop\College - Graduate\Graduate Work\Advanced Quant\Lab 3","yes","no","mono","no","18","no","white","no","yes","768","legacy","80","11","C:/Users/Brian/Desktop/College - Graduate/Graduate Work/Advanced Quant/Lab 3/BK-subject-4.csv","legacy","7 8 6 1","Kafkaesque Koffka","3.2.8","0","n","0","right","right","right","right","NA","1556","38389","19055","1556","NA","2","legacy","4","1024","2","48000","-16","experiment","4","even","3","669471","666106","667263","2551","141098","667266","397823","2566","122042","671475","668269","673034","40957","671475","NA","Sternberg task","89","112898","93","yes","1024"
"95.7446808511","95.7446808511","1213.03191489","1213.03191489","black","experiment","legacy","legacy","legacy","0","uniform","1","undefined","1","left","93","93","93","0","0","93","93","0","0","93","93","93","0","93","0","10/22/21 19:26:51","The main experiment item","yes","Sternbergtask.osexp","C:\Users\Brian\Desktop\College - Graduate\Graduate Work\Advanced Quant\Lab 3","yes","no","mono","no","18","no","white","no","yes","768","legacy","81","11","C:/Users/Brian/Desktop/College - Graduate/Graduate Work/Advanced Quant/Lab 3/BK-subject-4.csv","legacy","8 9 6 1","Kafkaesque Koffka","3.2.8","2","y","0","left","right","right","left","NA","1127","38389","19055","1127","NA","2","legacy","4","1024","2","48000","-16","experiment","4","even","9","676406","673046","674197","2551","141098","674200","397823","2566","122042","678409","675203","679539","40957","678409","NA","Sternberg task","90","114025","94","yes","1024"
"95.7894736842","95.7894736842","1212.64210526","1212.64210526","black","experiment","legacy","legacy","legacy","0","uniform","1","undefined","1","right","94","94","94","0","0","94","94","0","0","94","94","94","0","94","0","10/22/21 19:26:51","The main experiment item","yes","Sternbergtask.osexp","C:\Users\Brian\Desktop\College - Graduate\Graduate Work\Advanced Quant\Lab 3","yes","no","mono","no","18","no","white","no","yes","768","legacy","82","11","C:/Users/Brian/Desktop/College - Graduate/Graduate Work/Advanced Quant/Lab 3/BK-subject-4.csv","legacy","8 4 3 5","Kafkaesque Koffka","3.2.8","0","n","0","right","right","right","right","NA","1176","38389","19055","1176","NA","2","legacy","4","1024","2","48000","-16","experiment","4","even","6","682917","679551","680708","2551","141098","680711","397823","2566","122042","684920","681714","686100","40957","684920","NA","Sternberg task","91","115201","95","yes","1024"
"95.8333333333","95.8333333333","1213.53125","1213.53125","black","experiment","legacy","legacy","legacy","0","uniform","1","undefined","1","right","95","95","95","0","0","95","95","0","0","95","95","95","0","95","0","10/22/21 19:26:51","The main experiment item","yes","Sternbergtask.osexp","C:\Users\Brian\Desktop\College - Graduate\Graduate Work\Advanced Quant\Lab 3","yes","no","mono","no","18","no","white","no","yes","768","legacy","83","11","C:/Users/Brian/Desktop/College - Graduate/Graduate Work/Advanced Quant/Lab 3/BK-subject-4.csv","legacy","1 3 2 6 9","Kafkaesque Koffka","3.2.8","0","n","0","right","right","right","right","NA","1298","38389","19055","1298","NA","2","legacy","5","1024","2","48000","-16","experiment","4","even","5","689470","686111","687261","2551","141098","687264","397823","2566","122042","691473","688267","692773","40957","691473","NA","Sternberg task","92","116499","96","yes","1024"
"95.8762886598","95.8762886598","1215.64948454","1215.64948454","black","experiment","legacy","legacy","legacy","0","uniform","1","undefined","1","right","96","96","96","0","0","96","96","0","0","96","96","96","0","96","0","10/22/21 19:26:51","The main experiment item","yes","Sternbergtask.osexp","C:\Users\Brian\Desktop\College - Graduate\Graduate Work\Advanced Quant\Lab 3","yes","no","mono","no","18","no","white","no","yes","768","legacy","84","11","C:/Users/Brian/Desktop/College - Graduate/Graduate Work/Advanced Quant/Lab 3/BK-subject-4.csv","legacy","8 4 3 9","Kafkaesque Koffka","3.2.8","0","n","0","right","right","right","right","NA","1419","38389","19055","1419","NA","2","legacy","4","1024","2","48000","-16","experiment","4","even","5","696143","692780","693934","2551","141098","693937","397823","2566","122042","698146","694940","699567","40957","698146","NA","Sternberg task","93","117918","97","yes","1024"
"95.9183673469","95.9183673469","1214.01020408","1214.01020408","black","experiment","legacy","legacy","legacy","0","uniform","1","undefined","1","right","97","97","97","0","0","97","97","0","0","97","97","97","0","97","0","10/22/21 19:26:51","The main experiment item","yes","Sternbergtask.osexp","C:\Users\Brian\Desktop\College - Graduate\Graduate Work\Advanced Quant\Lab 3","yes","no","mono","no","18","no","white","no","yes","768","legacy","85","11","C:/Users/Brian/Desktop/College - Graduate/Graduate Work/Advanced Quant/Lab 3/BK-subject-4.csv","legacy","3 4 9 6 7 8","Kafkaesque Koffka","3.2.8","0","n","0","right","right","right","right","NA","1055","38389","19055","1055","NA","2","legacy","6","1024","2","48000","-16","experiment","4","even","2","702953","699579","700744","2551","141098","700747","397823","2566","122042","704956","701750","706013","40957","704956","NA","Sternberg task","94","118973","98","yes","1024"
"94.9494949495","94.9494949495","1214.62626263","1214.62626263","black","experiment","legacy","legacy","legacy","0","uniform","0","undefined","0","left","98","98","98","0","0","98","98","0","0","98","98","98","0","98","0","10/22/21 19:26:51","The main experiment item","yes","Sternbergtask.osexp","C:\Users\Brian\Desktop\College - Graduate\Graduate Work\Advanced Quant\Lab 3","yes","no","mono","no","18","no","white","no","yes","768","legacy","86","11","C:/Users/Brian/Desktop/College - Graduate/Graduate Work/Advanced Quant/Lab 3/BK-subject-4.csv","legacy","2 6 1 7 4","Kafkaesque Koffka","3.2.8","2","y","0","right","right","right","right","NA","1275","38389","19055","1275","NA","2","legacy","5","1024","2","48000","-16","experiment","4","even","6","709384","706023","707175","2551","141098","707177","397823","2566","122042","711387","708181","712664","40957","711387","NA","Sternberg task","94","120248","99","yes","1024"
"95","95","1213.39","1213.39","black","experiment","legacy","legacy","legacy","0","uniform","1","undefined","1","left","99","99","99","0","0","99","99","0","0","99","99","99","0","99","0","10/22/21 19:26:51","The main experiment item","yes","Sternbergtask.osexp","C:\Users\Brian\Desktop\College - Graduate\Graduate Work\Advanced Quant\Lab 3","yes","no","mono","no","18","no","white","no","yes","768","legacy","87","11","C:/Users/Brian/Desktop/College - Graduate/Graduate Work/Advanced Quant/Lab 3/BK-subject-4.csv","legacy","4 6 2 5 1","Kafkaesque Koffka","3.2.8","5","y","0","left","right","right","left","NA","1091","38389","19055","1091","NA","2","legacy","5","1024","2","48000","-16","experiment","4","even","1","716027","706023","713818","2551","141098","713821","712674","2566","122042","718030","714824","719123","40957","718030","NA","Sternberg task","95","121339","100","yes","1024"
"94.0594059406","94.0594059406","1214.6039604","1214.6039604","black","experiment","legacy","legacy","legacy","0","uniform","0","undefined","0","right","100","100","100","0","0","100","100","0","0","100","100","100","0","100","0","10/22/21 19:26:51","The main experiment item","yes","Sternbergtask.osexp","C:\Users\Brian\Desktop\College - Graduate\Graduate Work\Advanced Quant\Lab 3","yes","no","mono","no","18","no","white","no","yes","768","legacy","88","11","C:/Users/Brian/Desktop/College - Graduate/Graduate Work/Advanced Quant/Lab 3/BK-subject-4.csv","legacy","7 4 2 8 1 9","Kafkaesque Koffka","3.2.8","0","n","0","left","right","right","left","NA","1336","38389","19055","1336","NA","2","legacy","6","1024","2","48000","-16","experiment","4","even","5","722516","719133","720308","2551","141098","720311","712674","2566","122042","724520","721314","725858","40957","724520","NA","Sternberg task","95","122675","101","yes","1024"
"94.1176470588","94.1176470588","1211.78431373","1211.78431373","black","experiment","legacy","legacy","legacy","0","uniform","1","undefined","1","left","101","101","101","0","0","101","101","0","0","101","101","101","0","101","0","10/22/21 19:26:51","The main experiment item","yes","Sternbergtask.osexp","C:\Users\Brian\Desktop\College - Graduate\Graduate Work\Advanced Quant\Lab 3","yes","no","mono","no","18","no","white","no","yes","768","legacy","89","11","C:/Users/Brian/Desktop/College - Graduate/Graduate Work/Advanced Quant/Lab 3/BK-subject-4.csv","legacy","7 8 6 3 1","Kafkaesque Koffka","3.2.8","5","y","0","left","right","right","left","NA","927","38389","19055","927","NA","2","legacy","5","1024","2","48000","-16","experiment","4","even","1","729231","719133","727023","2551","141098","727026","725868","2566","122042","731234","728029","732163","40957","731234","NA","Sternberg task","96","123602","102","yes","1024"
"94.1747572816","94.1747572816","1208.93203883","1208.93203883","black","experiment","legacy","legacy","legacy","0","uniform","1","undefined","1","right","102","102","102","0","0","102","102","0","0","102","102","102","0","102","0","10/22/21 19:26:51","The main experiment item","yes","Sternbergtask.osexp","C:\Users\Brian\Desktop\College - Graduate\Graduate Work\Advanced Quant\Lab 3","yes","no","mono","no","18","no","white","no","yes","768","legacy","90","11","C:/Users/Brian/Desktop/College - Graduate/Graduate Work/Advanced Quant/Lab 3/BK-subject-4.csv","legacy","9","Kafkaesque Koffka","3.2.8","0","n","0","right","right","right","right","NA","918","38389","19055","918","NA","2","legacy","1","1024","2","48000","-16","experiment","4","even","6","735547","732173","733338","2551","141098","733341","725868","2566","122042","737550","734344","738470","40957","737550","NA","Sternberg task","97","124520","103","yes","1024"
"94.2307692308","94.2307692308","1207.09615385","1207.09615385","black","experiment","legacy","legacy","legacy","0","uniform","1","undefined","1","right","103","103","103","0","0","103","103","0","0","103","103","103","0","103","0","10/22/21 19:26:51","The main experiment item","yes","Sternbergtask.osexp","C:\Users\Brian\Desktop\College - Graduate\Graduate Work\Advanced Quant\Lab 3","yes","no","mono","no","18","no","white","no","yes","768","legacy","91","11","C:/Users/Brian/Desktop/College - Graduate/Graduate Work/Advanced Quant/Lab 3/BK-subject-4.csv","legacy","4 2 6 9","Kafkaesque Koffka","3.2.8","0","n","0","right","right","right","right","NA","1018","38389","19055","1018","NA","2","legacy","4","1024","2","48000","-16","experiment","4","even","7","741851","738480","739643","2551","141098","739645","725868","2566","122042","743854","740648","744875","40957","743854","NA","Sternberg task","98","125538","104","yes","1024"
"94.2857142857","94.2857142857","1208.38095238","1208.38095238","black","experiment","legacy","legacy","legacy","0","uniform","1","undefined","1","right","104","104","104","0","0","104","104","0","0","104","104","104","0","104","0","10/22/21 19:26:51","The main experiment item","yes","Sternbergtask.osexp","C:\Users\Brian\Desktop\College - Graduate\Graduate Work\Advanced Quant\Lab 3","yes","no","mono","no","18","no","white","no","yes","768","legacy","92","11","C:/Users/Brian/Desktop/College - Graduate/Graduate Work/Advanced Quant/Lab 3/BK-subject-4.csv","legacy","8 5 7 3 6","Kafkaesque Koffka","3.2.8","0","n","0","right","right","right","right","NA","1342","38389","19055","1342","NA","2","legacy","5","1024","2","48000","-16","experiment","4","even","9","748242","744887","746033","2551","141098","746036","725868","2566","122042","750245","747039","751590","40957","750245","NA","Sternberg task","99","126880","105","yes","1024"
"94.3396226415","94.3396226415","1212.03773585","1212.03773585","black","experiment","legacy","legacy","legacy","0","uniform","1","undefined","1","right","105","105","105","0","0","105","105","0","0","105","105","105","0","105","0","10/22/21 19:26:51","The main experiment item","yes","Sternbergtask.osexp","C:\Users\Brian\Desktop\College - Graduate\Graduate Work\Advanced Quant\Lab 3","yes","no","mono","no","18","no","white","no","yes","768","legacy","93","11","C:/Users/Brian/Desktop/College - Graduate/Graduate Work/Advanced Quant/Lab 3/BK-subject-4.csv","legacy","2 3 8 5 6 7","Kafkaesque Koffka","3.2.8","0","n","0","right","right","right","right","NA","1596","38389","19055","1596","NA","2","legacy","6","1024","2","48000","-16","experiment","4","even","1","754957","751599","752748","2551","141098","752750","725868","2566","122042","756960","753754","758558","40957","756960","NA","Sternberg task","100","128476","106","yes","1024"
"94.3925233645","94.3925233645","1209.71028037","1209.71028037","black","experiment","legacy","legacy","legacy","0","uniform","1","undefined","1","left","106","106","106","0","0","106","106","0","0","106","106","106","0","106","0","10/22/21 19:26:51","The main experiment item","yes","Sternbergtask.osexp","C:\Users\Brian\Desktop\College - Graduate\Graduate Work\Advanced Quant\Lab 3","yes","no","mono","no","18","no","white","no","yes","768","legacy","94","11","C:/Users/Brian/Desktop/College - Graduate/Graduate Work/Advanced Quant/Lab 3/BK-subject-4.csv","legacy","6 1 2","Kafkaesque Koffka","3.2.8","3","y","0","left","right","right","left","NA","963","38389","19055","963","NA","2","legacy","3","1024","2","48000","-16","experiment","4","even","2","761921","758567","759712","2551","141098","759715","725868","2566","122042","763924","760718","764891","40957","763924","NA","Sternberg task","101","129439","107","yes","1024"
