"acc","accuracy","average_response_time","avg_rt","background","block","canvas_backend","clock_backend","color_backend","compensation","coordinates","correct","correct_instruction1","correct_keyboard_response","correct_response","count_ISI","count_correctFeedback","count_expSequence","count_experiment","count_experimentLoop","count_fixation","count_incorrectFeedback","count_instruction1","count_instructions2","count_keyboard_response","count_memorySet","count_new_logger","count_practiceLoop","count_probe","count_thankYou","datetime","description","disable_garbage_collection","experiment_file","experiment_path","font_bold","font_family","font_italic","font_size","font_underline","foreground","form_clicks","fullscreen","height","keyboard_backend","live_row","live_row_practiceLoop","logfile","mouse_backend","numberSet","opensesame_codename","opensesame_version","posInSet","present","repeat_cycle","response","response_instruction1","response_instructions2","response_keyboard_response","response_thankYou","response_time","response_time_instruction1","response_time_instructions2","response_time_keyboard_response","response_time_thankYou","round_decimals","sampler_backend","setSize","sound_buf_size","sound_channels","sound_freq","sound_sample_size","start","subject_nr","subject_parity","target","time_ISI","time_correctFeedback","time_expSequence","time_experiment","time_experimentLoop","time_fixation","time_incorrectFeedback","time_instruction1","time_instructions2","time_keyboard_response","time_memorySet","time_new_logger","time_practiceLoop","time_probe","time_thankYou","title","total_correct","total_response_time","total_responses","uniform_coordinates","width"
"100","100","793","793","black","practice","legacy","legacy","legacy","0","uniform","1","undefined","1","right","0","0","0","0","0","0","0","0","0","0","0","0","0","0","0","10/23/21 17:58:37","The main experiment item","yes","SternbergExperiment.osexp","C:\Users\katie\Documents\School\Quant Methods\Lab 3","no","mono","no","18","no","white","no","yes","768","legacy","0","0","C:/Users/katie/Documents/School/Quant Methods/Lab 3/KH-subject-4.csv","legacy","2 1","Lentiform Loewenfeld","3.3.9","0","n","0","right","right","NA","right","NA","793","103392","NA","793","NA","2","legacy","2","1024","2","48000","-16","experiment","1","odd","5","108722","NA","106513","2214","NA","106516","NA","2226","NA","110728","107519","111521","105620","110727","NA","Sternberg task","1","793","1","yes","1024"
"50","50","774","774","black","practice","legacy","legacy","legacy","0","uniform","0","undefined","0","left","1","1","1","0","0","1","1","0","0","1","1","1","0","1","0","10/23/21 17:58:37","The main experiment item","yes","SternbergExperiment.osexp","C:\Users\katie\Documents\School\Quant Methods\Lab 3","no","mono","no","18","no","white","no","yes","768","legacy","1","1","C:/Users/katie/Documents/School/Quant Methods/Lab 3/KH-subject-4.csv","legacy","4 8","Lentiform Loewenfeld","3.3.9","1","y","0","right","right","NA","right","NA","755","103392","NA","755","NA","2","legacy","2","1024","2","48000","-16","experiment","1","odd","4","114872","111579","112664","2214","NA","112667","NA","2226","NA","116876","113670","117631","105620","116875","NA","Sternberg task","1","1548","2","yes","1024"
"33.3333333333","33.3333333333","790.666666667","790.666666667","black","practice","legacy","legacy","legacy","0","uniform","0","undefined","0","right","2","2","2","0","0","2","2","0","0","2","2","2","0","2","0","10/23/21 17:58:37","The main experiment item","yes","SternbergExperiment.osexp","C:\Users\katie\Documents\School\Quant Methods\Lab 3","no","mono","no","18","no","white","no","yes","768","legacy","2","2","C:/Users/katie/Documents/School/Quant Methods/Lab 3/KH-subject-4.csv","legacy","3 1 9 4","Lentiform Loewenfeld","3.3.9","0","n","0","left","right","NA","left","NA","824","103392","NA","824","NA","2","legacy","4","1024","2","48000","-16","experiment","1","odd","6","120928","111579","118722","2214","NA","118724","117644","2226","NA","122930","119725","123755","105620","122930","NA","Sternberg task","1","2372","3","yes","1024"
"25","25","767","767","black","practice","legacy","legacy","legacy","0","uniform","0","undefined","0","left","3","3","3","0","0","3","3","0","0","3","3","3","0","3","0","10/23/21 17:58:37","The main experiment item","yes","SternbergExperiment.osexp","C:\Users\katie\Documents\School\Quant Methods\Lab 3","no","mono","no","18","no","white","no","yes","768","legacy","3","3","C:/Users/katie/Documents/School/Quant Methods/Lab 3/KH-subject-4.csv","legacy","1 5 2 9","Lentiform Loewenfeld","3.3.9","2","y","0","right","right","NA","right","NA","696","103392","NA","696","NA","2","legacy","4","1024","2","48000","-16","experiment","1","odd","5","127059","111579","124851","2214","NA","124853","123760","2226","NA","129063","125856","129759","105620","129062","NA","Sternberg task","1","3068","4","yes","1024"
"40","40","936.8","936.8","black","practice","legacy","legacy","legacy","0","uniform","1","undefined","1","left","4","4","4","0","0","4","4","0","0","4","4","4","0","4","0","10/23/21 17:58:37","The main experiment item","yes","SternbergExperiment.osexp","C:\Users\katie\Documents\School\Quant Methods\Lab 3","no","mono","no","18","no","white","no","yes","768","legacy","4","4","C:/Users/katie/Documents/School/Quant Methods/Lab 3/KH-subject-4.csv","legacy","2 9 4","Lentiform Loewenfeld","3.3.9","3","y","0","left","right","NA","left","NA","1616","103392","NA","1616","NA","2","legacy","3","1024","2","48000","-16","experiment","1","odd","4","133062","111579","130855","2214","NA","130857","129772","2226","NA","135065","131859","136682","105620","135065","NA","Sternberg task","2","4684","5","yes","1024"
"33.3333333333","33.3333333333","880.5","880.5","black","practice","legacy","legacy","legacy","0","uniform","0","undefined","0","right","5","5","5","0","0","5","5","0","0","5","5","5","0","5","0","10/23/21 17:58:37","The main experiment item","yes","SternbergExperiment.osexp","C:\Users\katie\Documents\School\Quant Methods\Lab 3","no","mono","no","18","no","white","no","yes","768","legacy","5","5","C:/Users/katie/Documents/School/Quant Methods/Lab 3/KH-subject-4.csv","legacy","5 7 8 4 1 2","Lentiform Loewenfeld","3.3.9","0","n","0","left","right","NA","left","NA","599","103392","NA","599","NA","2","legacy","6","1024","2","48000","-16","experiment","1","odd","6","140002","136694","137793","2214","NA","137796","129772","2226","NA","142006","138799","142606","105620","142006","NA","Sternberg task","2","5283","6","yes","1024"
"42.8571428571","42.8571428571","845.428571429","845.428571429","black","practice","legacy","legacy","legacy","0","uniform","1","undefined","1","right","6","6","6","0","0","6","6","0","0","6","6","6","0","6","0","10/23/21 17:58:37","The main experiment item","yes","SternbergExperiment.osexp","C:\Users\katie\Documents\School\Quant Methods\Lab 3","no","mono","no","18","no","white","no","yes","768","legacy","6","6","C:/Users/katie/Documents/School/Quant Methods/Lab 3/KH-subject-4.csv","legacy","4 1 5","Lentiform Loewenfeld","3.3.9","0","n","0","right","right","NA","right","NA","635","103392","NA","635","NA","2","legacy","3","1024","2","48000","-16","experiment","1","odd","2","145919","136694","143710","2214","NA","143712","142618","2226","NA","147923","144716","148558","105620","147922","NA","Sternberg task","3","5918","7","yes","1024"
"50","50","872.125","872.125","black","practice","legacy","legacy","legacy","0","uniform","1","undefined","1","right","7","7","7","0","0","7","7","0","0","7","7","7","0","7","0","10/23/21 17:58:37","The main experiment item","yes","SternbergExperiment.osexp","C:\Users\katie\Documents\School\Quant Methods\Lab 3","no","mono","no","18","no","white","no","yes","768","legacy","7","7","C:/Users/katie/Documents/School/Quant Methods/Lab 3/KH-subject-4.csv","legacy","5","Lentiform Loewenfeld","3.3.9","0","n","0","right","right","NA","right","NA","1059","103392","NA","1059","NA","2","legacy","1","1024","2","48000","-16","experiment","1","odd","3","151872","148572","149664","2214","NA","149667","142618","2226","NA","153875","150670","154934","105620","153875","NA","Sternberg task","4","6977","8","yes","1024"
"44.4444444444","44.4444444444","865.555555556","865.555555556","black","practice","legacy","legacy","legacy","0","uniform","0","undefined","0","right","8","8","8","0","0","8","8","0","0","8","8","8","0","8","0","10/23/21 17:58:37","The main experiment item","yes","SternbergExperiment.osexp","C:\Users\katie\Documents\School\Quant Methods\Lab 3","no","mono","no","18","no","white","no","yes","768","legacy","8","8","C:/Users/katie/Documents/School/Quant Methods/Lab 3/KH-subject-4.csv","legacy","9 6 7 4 5","Lentiform Loewenfeld","3.3.9","0","n","0","left","right","NA","left","NA","813","103392","NA","813","NA","2","legacy","5","1024","2","48000","-16","experiment","1","odd","3","158221","154945","156014","2214","NA","156015","142618","2226","NA","160224","157018","161038","105620","160223","NA","Sternberg task","4","7790","9","yes","1024"
"50","50","911.4","911.4","black","practice","legacy","legacy","legacy","0","uniform","1","undefined","1","left","9","9","9","0","0","9","9","0","0","9","9","9","0","9","0","10/23/21 17:58:37","The main experiment item","yes","SternbergExperiment.osexp","C:\Users\katie\Documents\School\Quant Methods\Lab 3","no","mono","no","18","no","white","no","yes","768","legacy","9","9","C:/Users/katie/Documents/School/Quant Methods/Lab 3/KH-subject-4.csv","legacy","1 7 9 8 5","Lentiform Loewenfeld","3.3.9","4","y","0","left","right","NA","left","NA","1324","103392","NA","1324","NA","2","legacy","5","1024","2","48000","-16","experiment","1","odd","8","164331","154945","162127","2214","NA","162129","161042","2226","NA","166335","163130","167659","105620","166334","NA","Sternberg task","5","9114","10","yes","1024"
"54.5454545455","54.5454545455","986.818181818","986.818181818","black","practice","legacy","legacy","legacy","0","uniform","1","undefined","1","left","10","10","10","0","0","10","10","0","0","10","10","10","0","10","0","10/23/21 17:58:37","The main experiment item","yes","SternbergExperiment.osexp","C:\Users\katie\Documents\School\Quant Methods\Lab 3","no","mono","no","18","no","white","no","yes","768","legacy","10","10","C:/Users/katie/Documents/School/Quant Methods/Lab 3/KH-subject-4.csv","legacy","6","Lentiform Loewenfeld","3.3.9","1","y","0","left","right","NA","left","NA","1741","103392","NA","1741","NA","2","legacy","1","1024","2","48000","-16","experiment","1","odd","6","170936","167664","168730","2214","NA","168732","161042","2226","NA","172939","169735","174681","105620","172939","NA","Sternberg task","6","10855","11","yes","1024"
"50","50","987.75","987.75","black","practice","legacy","legacy","legacy","0","uniform","0","undefined","0","left","11","11","11","0","0","11","11","0","0","11","11","11","0","11","0","10/23/21 17:58:37","The main experiment item","yes","SternbergExperiment.osexp","C:\Users\katie\Documents\School\Quant Methods\Lab 3","no","mono","no","18","no","white","no","yes","768","legacy","11","11","C:/Users/katie/Documents/School/Quant Methods/Lab 3/KH-subject-4.csv","legacy","4 3 1 7 9 8","Lentiform Loewenfeld","3.3.9","1","y","0","right","right","NA","right","NA","998","103392","NA","998","NA","2","legacy","6","1024","2","48000","-16","experiment","1","odd","4","177988","174685","175780","2214","NA","175782","161042","2226","NA","179991","176785","180989","105620","179991","NA","Sternberg task","6","11853","12","yes","1024"
"46.1538461538","46.1538461538","977.769230769","977.769230769","black","experiment","legacy","legacy","legacy","0","uniform","0","undefined","0","left","12","12","12","0","0","12","12","0","0","12","12","12","0","12","0","10/23/21 17:58:37","The main experiment item","yes","SternbergExperiment.osexp","C:\Users\katie\Documents\School\Quant Methods\Lab 3","no","mono","no","18","no","white","no","yes","768","legacy","0","11","C:/Users/katie/Documents/School/Quant Methods/Lab 3/KH-subject-4.csv","legacy","9 5 8 1","Lentiform Loewenfeld","3.3.9","2","y","0","right","right","right","right","NA","858","103392","59908","858","NA","2","legacy","4","1024","2","48000","-16","experiment","1","odd","5","244223","174685","242016","2214","241937","242017","181002","2226","182029","246228","243020","247086","105620","246226","NA","Sternberg task","6","12711","13","yes","1024"
"50","50","957.928571429","957.928571429","black","experiment","legacy","legacy","legacy","0","uniform","1","undefined","1","right","13","13","13","0","0","13","13","0","0","13","13","13","0","13","0","10/23/21 17:58:37","The main experiment item","yes","SternbergExperiment.osexp","C:\Users\katie\Documents\School\Quant Methods\Lab 3","no","mono","no","18","no","white","no","yes","768","legacy","1","11","C:/Users/katie/Documents/School/Quant Methods/Lab 3/KH-subject-4.csv","legacy","3 9 1","Lentiform Loewenfeld","3.3.9","0","n","0","right","right","right","right","NA","700","103392","59908","700","NA","2","legacy","3","1024","2","48000","-16","experiment","1","odd","7","250416","174685","248206","2214","241937","248208","247098","2226","182029","252419","249211","253119","105620","252419","NA","Sternberg task","7","13411","14","yes","1024"
"46.6666666667","46.6666666667","964.866666667","964.866666667","black","experiment","legacy","legacy","legacy","0","uniform","0","undefined","0","right","14","14","14","0","0","14","14","0","0","14","14","14","0","14","0","10/23/21 17:58:37","The main experiment item","yes","SternbergExperiment.osexp","C:\Users\katie\Documents\School\Quant Methods\Lab 3","no","mono","no","18","no","white","no","yes","768","legacy","2","11","C:/Users/katie/Documents/School/Quant Methods/Lab 3/KH-subject-4.csv","legacy","7 6 4 8 1 2","Lentiform Loewenfeld","3.3.9","0","n","0","left","right","right","left","NA","1062","103392","59908","1062","NA","2","legacy","6","1024","2","48000","-16","experiment","1","odd","9","256429","253132","254220","2214","241937","254223","247098","2226","182029","258433","255226","259496","105620","258433","NA","Sternberg task","7","14473","15","yes","1024"
"43.75","43.75","963.6875","963.6875","black","experiment","legacy","legacy","legacy","0","uniform","0","undefined","0","left","15","15","15","0","0","15","15","0","0","15","15","15","0","15","0","10/23/21 17:58:37","The main experiment item","yes","SternbergExperiment.osexp","C:\Users\katie\Documents\School\Quant Methods\Lab 3","no","mono","no","18","no","white","no","yes","768","legacy","3","11","C:/Users/katie/Documents/School/Quant Methods/Lab 3/KH-subject-4.csv","legacy","9 1 7 2","Lentiform Loewenfeld","3.3.9","2","y","0","right","right","right","right","NA","946","103392","59908","946","NA","2","legacy","4","1024","2","48000","-16","experiment","1","odd","1","262797","253132","260589","2214","241937","260591","259510","2226","182029","264798","261594","265745","105620","264798","NA","Sternberg task","7","15419","16","yes","1024"
"41.1764705882","41.1764705882","965.941176471","965.941176471","black","experiment","legacy","legacy","legacy","0","uniform","0","undefined","0","right","16","16","16","0","0","16","16","0","0","16","16","16","0","16","0","10/23/21 17:58:37","The main experiment item","yes","SternbergExperiment.osexp","C:\Users\katie\Documents\School\Quant Methods\Lab 3","no","mono","no","18","no","white","no","yes","768","legacy","4","11","C:/Users/katie/Documents/School/Quant Methods/Lab 3/KH-subject-4.csv","legacy","9 8 2 7 4","Lentiform Loewenfeld","3.3.9","0","n","0","left","right","right","left","NA","1002","103392","59908","1002","NA","2","legacy","5","1024","2","48000","-16","experiment","1","odd","5","269035","253132","266827","2214","241937","266829","265758","2226","182029","271038","267832","272041","105620","271038","NA","Sternberg task","7","16421","17","yes","1024"
"44.4444444444","44.4444444444","948.111111111","948.111111111","black","experiment","legacy","legacy","legacy","0","uniform","1","undefined","1","right","17","17","17","0","0","17","17","0","0","17","17","17","0","17","0","10/23/21 17:58:37","The main experiment item","yes","SternbergExperiment.osexp","C:\Users\katie\Documents\School\Quant Methods\Lab 3","no","mono","no","18","no","white","no","yes","768","legacy","5","11","C:/Users/katie/Documents/School/Quant Methods/Lab 3/KH-subject-4.csv","legacy","1 4 3 6 5","Lentiform Loewenfeld","3.3.9","0","n","0","right","right","right","right","NA","645","103392","59908","645","NA","2","legacy","5","1024","2","48000","-16","experiment","1","odd","8","275348","253132","273139","2214","241937","273141","272052","2226","182029","277353","274144","277999","105620","277351","NA","Sternberg task","8","17066","18","yes","1024"
"47.3684210526","47.3684210526","949","949","black","experiment","legacy","legacy","legacy","0","uniform","1","undefined","1","right","18","18","18","0","0","18","18","0","0","18","18","18","0","18","0","10/23/21 17:58:37","The main experiment item","yes","SternbergExperiment.osexp","C:\Users\katie\Documents\School\Quant Methods\Lab 3","no","mono","no","18","no","white","no","yes","768","legacy","6","11","C:/Users/katie/Documents/School/Quant Methods/Lab 3/KH-subject-4.csv","legacy","4 8 1 2","Lentiform Loewenfeld","3.3.9","0","n","0","right","right","right","right","NA","965","103392","59908","965","NA","2","legacy","4","1024","2","48000","-16","experiment","1","odd","7","281296","278010","279088","2214","241937","279090","272052","2226","182029","283299","280093","284264","105620","283299","NA","Sternberg task","9","18031","19","yes","1024"
"45","45","938","938","black","experiment","legacy","legacy","legacy","0","uniform","0","undefined","0","right","19","19","19","0","0","19","19","0","0","19","19","19","0","19","0","10/23/21 17:58:37","The main experiment item","yes","SternbergExperiment.osexp","C:\Users\katie\Documents\School\Quant Methods\Lab 3","no","mono","no","18","no","white","no","yes","768","legacy","7","11","C:/Users/katie/Documents/School/Quant Methods/Lab 3/KH-subject-4.csv","legacy","1 6 4 3 9 7","Lentiform Loewenfeld","3.3.9","0","n","0","left","right","right","left","NA","729","103392","59908","729","NA","2","legacy","6","1024","2","48000","-16","experiment","1","odd","8","287560","284276","285352","2214","241937","285354","272052","2226","182029","289563","286357","290293","105620","289563","NA","Sternberg task","9","18760","20","yes","1024"
"42.8571428571","42.8571428571","953","953","black","experiment","legacy","legacy","legacy","0","uniform","0","undefined","0","left","20","20","20","0","0","20","20","0","0","20","20","20","0","20","0","10/23/21 17:58:37","The main experiment item","yes","SternbergExperiment.osexp","C:\Users\katie\Documents\School\Quant Methods\Lab 3","no","mono","no","18","no","white","no","yes","768","legacy","8","11","C:/Users/katie/Documents/School/Quant Methods/Lab 3/KH-subject-4.csv","legacy","4 1 8 7 5","Lentiform Loewenfeld","3.3.9","3","y","0","right","right","right","right","NA","1253","103392","59908","1253","NA","2","legacy","5","1024","2","48000","-16","experiment","1","odd","8","293591","284276","291382","2214","241937","291385","290305","2226","182029","295595","292388","296848","105620","295595","NA","Sternberg task","9","20013","21","yes","1024"
"40.9090909091","40.9090909091","961.727272727","961.727272727","black","experiment","legacy","legacy","legacy","0","uniform","0","undefined","0","right","21","21","21","0","0","21","21","0","0","21","21","21","0","21","0","10/23/21 17:58:37","The main experiment item","yes","SternbergExperiment.osexp","C:\Users\katie\Documents\School\Quant Methods\Lab 3","no","mono","no","18","no","white","no","yes","768","legacy","9","11","C:/Users/katie/Documents/School/Quant Methods/Lab 3/KH-subject-4.csv","legacy","5","Lentiform Loewenfeld","3.3.9","0","n","0","left","right","right","left","NA","1145","103392","59908","1145","NA","2","legacy","1","1024","2","48000","-16","experiment","1","odd","8","300149","284276","297938","2214","241937","297942","296853","2226","182029","302153","298945","303298","105620","302152","NA","Sternberg task","9","21158","22","yes","1024"
"43.4782608696","43.4782608696","1000.26086957","1000.26086957","black","experiment","legacy","legacy","legacy","0","uniform","1","undefined","1","right","22","22","22","0","0","22","22","0","0","22","22","22","0","22","0","10/23/21 17:58:37","The main experiment item","yes","SternbergExperiment.osexp","C:\Users\katie\Documents\School\Quant Methods\Lab 3","no","mono","no","18","no","white","no","yes","768","legacy","10","11","C:/Users/katie/Documents/School/Quant Methods/Lab 3/KH-subject-4.csv","legacy","5 2","Lentiform Loewenfeld","3.3.9","0","n","0","right","right","right","right","NA","1848","103392","59908","1848","NA","2","legacy","2","1024","2","48000","-16","experiment","1","odd","7","306600","284276","304392","2214","241937","304395","303311","2226","182029","308604","305398","310453","105620","308603","NA","Sternberg task","10","23006","23","yes","1024"
"45.8333333333","45.8333333333","1008.5","1008.5","black","experiment","legacy","legacy","legacy","0","uniform","1","undefined","1","right","23","23","23","0","0","23","23","0","0","23","23","23","0","23","0","10/23/21 17:58:37","The main experiment item","yes","SternbergExperiment.osexp","C:\Users\katie\Documents\School\Quant Methods\Lab 3","no","mono","no","18","no","white","no","yes","768","legacy","11","11","C:/Users/katie/Documents/School/Quant Methods/Lab 3/KH-subject-4.csv","legacy","7 8 6 1","Lentiform Loewenfeld","3.3.9","0","n","0","right","right","right","right","NA","1198","103392","59908","1198","NA","2","legacy","4","1024","2","48000","-16","experiment","1","odd","3","313762","310465","311554","2214","241937","311556","303311","2226","182029","315766","312559","316964","105620","315765","NA","Sternberg task","11","24204","24","yes","1024"
"44","44","1011.68","1011.68","black","experiment","legacy","legacy","legacy","0","uniform","0","undefined","0","left","24","24","24","0","0","24","24","0","0","24","24","24","0","24","0","10/23/21 17:58:37","The main experiment item","yes","SternbergExperiment.osexp","C:\Users\katie\Documents\School\Quant Methods\Lab 3","no","mono","no","18","no","white","no","yes","768","legacy","12","11","C:/Users/katie/Documents/School/Quant Methods/Lab 3/KH-subject-4.csv","legacy","7 4 2 6 3 5","Lentiform Loewenfeld","3.3.9","6","y","0","right","right","right","right","NA","1088","103392","59908","1088","NA","2","legacy","6","1024","2","48000","-16","experiment","1","odd","5","320272","316976","318064","2214","241937","318065","303311","2226","182029","322275","319068","323364","105620","322275","NA","Sternberg task","11","25292","25","yes","1024"
"46.1538461538","46.1538461538","1027.34615385","1027.34615385","black","experiment","legacy","legacy","legacy","0","uniform","1","undefined","1","left","25","25","25","0","0","25","25","0","0","25","25","25","0","25","0","10/23/21 17:58:37","The main experiment item","yes","SternbergExperiment.osexp","C:\Users\katie\Documents\School\Quant Methods\Lab 3","no","mono","no","18","no","white","no","yes","768","legacy","13","11","C:/Users/katie/Documents/School/Quant Methods/Lab 3/KH-subject-4.csv","legacy","7","Lentiform Loewenfeld","3.3.9","1","y","0","left","right","right","left","NA","1419","103392","59908","1419","NA","2","legacy","1","1024","2","48000","-16","experiment","1","odd","7","326673","316976","324463","2214","241937","324466","323376","2226","182029","328677","325469","330097","105620","328676","NA","Sternberg task","12","26711","26","yes","1024"
"48.1481481481","48.1481481481","1040.37037037","1040.37037037","black","experiment","legacy","legacy","legacy","0","uniform","1","undefined","1","left","26","26","26","0","0","26","26","0","0","26","26","26","0","26","0","10/23/21 17:58:37","The main experiment item","yes","SternbergExperiment.osexp","C:\Users\katie\Documents\School\Quant Methods\Lab 3","no","mono","no","18","no","white","no","yes","768","legacy","14","11","C:/Users/katie/Documents/School/Quant Methods/Lab 3/KH-subject-4.csv","legacy","6 7 9 3 1 2","Lentiform Loewenfeld","3.3.9","1","y","0","left","right","right","left","NA","1379","103392","59908","1379","NA","2","legacy","6","1024","2","48000","-16","experiment","1","odd","6","333409","330110","331200","2214","241937","331203","323376","2226","182029","335412","332206","336792","105620","335412","NA","Sternberg task","13","28090","27","yes","1024"
"50","50","1029.28571429","1029.28571429","black","experiment","legacy","legacy","legacy","0","uniform","1","undefined","1","left","27","27","27","0","0","27","27","0","0","27","27","27","0","27","0","10/23/21 17:58:37","The main experiment item","yes","SternbergExperiment.osexp","C:\Users\katie\Documents\School\Quant Methods\Lab 3","no","mono","no","18","no","white","no","yes","768","legacy","15","11","C:/Users/katie/Documents/School/Quant Methods/Lab 3/KH-subject-4.csv","legacy","9 1 6 7 8","Lentiform Loewenfeld","3.3.9","1","y","0","left","right","right","left","NA","730","103392","59908","730","NA","2","legacy","5","1024","2","48000","-16","experiment","1","odd","9","340091","336805","337883","2214","241937","337884","323376","2226","182029","342095","338887","342825","105620","342095","NA","Sternberg task","14","28820","28","yes","1024"
"51.724137931","51.724137931","1020.34482759","1020.34482759","black","experiment","legacy","legacy","legacy","0","uniform","1","undefined","1","left","28","28","28","0","0","28","28","0","0","28","28","28","0","28","0","10/23/21 17:58:37","The main experiment item","yes","SternbergExperiment.osexp","C:\Users\katie\Documents\School\Quant Methods\Lab 3","no","mono","no","18","no","white","no","yes","768","legacy","16","11","C:/Users/katie/Documents/School/Quant Methods/Lab 3/KH-subject-4.csv","legacy","8","Lentiform Loewenfeld","3.3.9","1","y","0","left","right","right","left","NA","770","103392","59908","770","NA","2","legacy","1","1024","2","48000","-16","experiment","1","odd","8","346125","342838","343917","2214","241937","343919","323376","2226","182029","348129","344923","348899","105620","348129","NA","Sternberg task","15","29590","29","yes","1024"
"53.3333333333","53.3333333333","1016.13333333","1016.13333333","black","experiment","legacy","legacy","legacy","0","uniform","1","undefined","1","right","29","29","29","0","0","29","29","0","0","29","29","29","0","29","0","10/23/21 17:58:37","The main experiment item","yes","SternbergExperiment.osexp","C:\Users\katie\Documents\School\Quant Methods\Lab 3","no","mono","no","18","no","white","no","yes","768","legacy","17","11","C:/Users/katie/Documents/School/Quant Methods/Lab 3/KH-subject-4.csv","legacy","3 4 9 6 7 8","Lentiform Loewenfeld","3.3.9","0","n","0","right","right","right","right","NA","894","103392","59908","894","NA","2","legacy","6","1024","2","48000","-16","experiment","1","odd","2","352201","348912","349991","2214","241937","349993","323376","2226","182029","354204","350997","355099","105620","354204","NA","Sternberg task","16","30484","30","yes","1024"
"54.8387096774","54.8387096774","1032.90322581","1032.90322581","black","experiment","legacy","legacy","legacy","0","uniform","1","undefined","1","left","30","30","30","0","0","30","30","0","0","30","30","30","0","30","0","10/23/21 17:58:37","The main experiment item","yes","SternbergExperiment.osexp","C:\Users\katie\Documents\School\Quant Methods\Lab 3","no","mono","no","18","no","white","no","yes","768","legacy","18","11","C:/Users/katie/Documents/School/Quant Methods/Lab 3/KH-subject-4.csv","legacy","7 8 6 3 1","Lentiform Loewenfeld","3.3.9","5","y","0","left","right","right","left","NA","1536","103392","59908","1536","NA","2","legacy","5","1024","2","48000","-16","experiment","1","odd","1","358391","355105","356183","2214","241937","356185","323376","2226","182029","360394","357188","361931","105620","360394","NA","Sternberg task","17","32020","31","yes","1024"
"56.25","56.25","1056.75","1056.75","black","experiment","legacy","legacy","legacy","0","uniform","1","undefined","1","right","31","31","31","0","0","31","31","0","0","31","31","31","0","31","0","10/23/21 17:58:37","The main experiment item","yes","SternbergExperiment.osexp","C:\Users\katie\Documents\School\Quant Methods\Lab 3","no","mono","no","18","no","white","no","yes","768","legacy","19","11","C:/Users/katie/Documents/School/Quant Methods/Lab 3/KH-subject-4.csv","legacy","5 9 2 3","Lentiform Loewenfeld","3.3.9","0","n","0","right","right","right","right","NA","1796","103392","59908","1796","NA","2","legacy","4","1024","2","48000","-16","experiment","1","odd","8","365221","361943","363009","2214","241937","363014","323376","2226","182029","367223","364018","369020","105620","367222","NA","Sternberg task","18","33816","32","yes","1024"
"57.5757575758","57.5757575758","1060.84848485","1060.84848485","black","experiment","legacy","legacy","legacy","0","uniform","1","undefined","1","left","32","32","32","0","0","32","32","0","0","32","32","32","0","32","0","10/23/21 17:58:37","The main experiment item","yes","SternbergExperiment.osexp","C:\Users\katie\Documents\School\Quant Methods\Lab 3","no","mono","no","18","no","white","no","yes","768","legacy","20","11","C:/Users/katie/Documents/School/Quant Methods/Lab 3/KH-subject-4.csv","legacy","3 9 6 2","Lentiform Loewenfeld","3.3.9","4","y","0","left","right","right","left","NA","1192","103392","59908","1192","NA","2","legacy","4","1024","2","48000","-16","experiment","1","odd","2","372318","369031","370108","2214","241937","370111","323376","2226","182029","374322","371114","375515","105620","374321","NA","Sternberg task","19","35008","33","yes","1024"
"58.8235294118","58.8235294118","1070.29411765","1070.29411765","black","experiment","legacy","legacy","legacy","0","uniform","1","undefined","1","left","33","33","33","0","0","33","33","0","0","33","33","33","0","33","0","10/23/21 17:58:37","The main experiment item","yes","SternbergExperiment.osexp","C:\Users\katie\Documents\School\Quant Methods\Lab 3","no","mono","no","18","no","white","no","yes","768","legacy","21","11","C:/Users/katie/Documents/School/Quant Methods/Lab 3/KH-subject-4.csv","legacy","9 5 3 8 4","Lentiform Loewenfeld","3.3.9","1","y","0","left","right","right","left","NA","1382","103392","59908","1382","NA","2","legacy","5","1024","2","48000","-16","experiment","1","odd","9","378818","375528","376609","2214","241937","376611","323376","2226","182029","380822","377615","382205","105620","380822","NA","Sternberg task","20","36390","34","yes","1024"
"60","60","1072.65714286","1072.65714286","black","experiment","legacy","legacy","legacy","0","uniform","1","undefined","1","left","34","34","34","0","0","34","34","0","0","34","34","34","0","34","0","10/23/21 17:58:37","The main experiment item","yes","SternbergExperiment.osexp","C:\Users\katie\Documents\School\Quant Methods\Lab 3","no","mono","no","18","no","white","no","yes","768","legacy","22","11","C:/Users/katie/Documents/School/Quant Methods/Lab 3/KH-subject-4.csv","legacy","8 5 3 7 4 6","Lentiform Loewenfeld","3.3.9","6","y","0","left","right","right","left","NA","1153","103392","59908","1153","NA","2","legacy","6","1024","2","48000","-16","experiment","1","odd","6","385508","382210","383299","2214","241937","383302","323376","2226","182029","387512","384305","388666","105620","387512","NA","Sternberg task","21","37543","35","yes","1024"
"61.1111111111","61.1111111111","1067.72222222","1067.72222222","black","experiment","legacy","legacy","legacy","0","uniform","1","undefined","1","right","35","35","35","0","0","35","35","0","0","35","35","35","0","35","0","10/23/21 17:58:37","The main experiment item","yes","SternbergExperiment.osexp","C:\Users\katie\Documents\School\Quant Methods\Lab 3","no","mono","no","18","no","white","no","yes","768","legacy","23","11","C:/Users/katie/Documents/School/Quant Methods/Lab 3/KH-subject-4.csv","legacy","8 4 3 9","Lentiform Loewenfeld","3.3.9","0","n","0","right","right","right","right","NA","895","103392","59908","895","NA","2","legacy","4","1024","2","48000","-16","experiment","1","odd","5","391965","388680","389757","2214","241937","389758","323376","2226","182029","393969","390762","394865","105620","393968","NA","Sternberg task","22","38438","36","yes","1024"
"62.1621621622","62.1621621622","1082.51351351","1082.51351351","black","experiment","legacy","legacy","legacy","0","uniform","1","undefined","1","right","36","36","36","0","0","36","36","0","0","36","36","36","0","36","0","10/23/21 17:58:37","The main experiment item","yes","SternbergExperiment.osexp","C:\Users\katie\Documents\School\Quant Methods\Lab 3","no","mono","no","18","no","white","no","yes","768","legacy","24","11","C:/Users/katie/Documents/School/Quant Methods/Lab 3/KH-subject-4.csv","legacy","1 4 9 2 5","Lentiform Loewenfeld","3.3.9","0","n","0","right","right","right","right","NA","1615","103392","59908","1615","NA","2","legacy","5","1024","2","48000","-16","experiment","1","odd","7","398194","394877","395986","2214","241937","395987","323376","2226","182029","400198","396990","401813","105620","400198","NA","Sternberg task","23","40053","37","yes","1024"
"60.5263157895","60.5263157895","1082.34210526","1082.34210526","black","experiment","legacy","legacy","legacy","0","uniform","0","undefined","0","right","37","37","37","0","0","37","37","0","0","37","37","37","0","37","0","10/23/21 17:58:37","The main experiment item","yes","SternbergExperiment.osexp","C:\Users\katie\Documents\School\Quant Methods\Lab 3","no","mono","no","18","no","white","no","yes","768","legacy","25","11","C:/Users/katie/Documents/School/Quant Methods/Lab 3/KH-subject-4.csv","legacy","5 3 8 7 2 4","Lentiform Loewenfeld","3.3.9","0","n","0","left","right","right","left","NA","1076","103392","59908","1076","NA","2","legacy","6","1024","2","48000","-16","experiment","1","odd","9","405120","401826","402911","2214","241937","402914","323376","2226","182029","407123","403917","408199","105620","407123","NA","Sternberg task","23","41129","38","yes","1024"
"61.5384615385","61.5384615385","1077.05128205","1077.05128205","black","experiment","legacy","legacy","legacy","0","uniform","1","undefined","1","right","38","38","38","0","0","38","38","0","0","38","38","38","0","38","0","10/23/21 17:58:37","The main experiment item","yes","SternbergExperiment.osexp","C:\Users\katie\Documents\School\Quant Methods\Lab 3","no","mono","no","18","no","white","no","yes","768","legacy","26","11","C:/Users/katie/Documents/School/Quant Methods/Lab 3/KH-subject-4.csv","legacy","2 3 8 5 6 7","Lentiform Loewenfeld","3.3.9","0","n","0","right","right","right","right","NA","876","103392","59908","876","NA","2","legacy","6","1024","2","48000","-16","experiment","1","odd","1","411498","401826","409289","2214","241937","409292","408211","2226","182029","413501","410295","414378","105620","413501","NA","Sternberg task","24","42005","39","yes","1024"
"62.5","62.5","1079.5","1079.5","black","experiment","legacy","legacy","legacy","0","uniform","1","undefined","1","left","39","39","39","0","0","39","39","0","0","39","39","39","0","39","0","10/23/21 17:58:37","The main experiment item","yes","SternbergExperiment.osexp","C:\Users\katie\Documents\School\Quant Methods\Lab 3","no","mono","no","18","no","white","no","yes","768","legacy","27","11","C:/Users/katie/Documents/School/Quant Methods/Lab 3/KH-subject-4.csv","legacy","4 3 2 5 8","Lentiform Loewenfeld","3.3.9","2","y","0","left","right","right","left","NA","1175","103392","59908","1175","NA","2","legacy","5","1024","2","48000","-16","experiment","1","odd","3","417669","414391","415462","2214","241937","415464","408211","2226","182029","419672","416466","420848","105620","419672","NA","Sternberg task","25","43180","40","yes","1024"
"63.4146341463","63.4146341463","1084","1084","black","experiment","legacy","legacy","legacy","0","uniform","1","undefined","1","left","40","40","40","0","0","40","40","0","0","40","40","40","0","40","0","10/23/21 17:58:37","The main experiment item","yes","SternbergExperiment.osexp","C:\Users\katie\Documents\School\Quant Methods\Lab 3","no","mono","no","18","no","white","no","yes","768","legacy","28","11","C:/Users/katie/Documents/School/Quant Methods/Lab 3/KH-subject-4.csv","legacy","9 3 1 2 5","Lentiform Loewenfeld","3.3.9","4","y","0","left","right","right","left","NA","1264","103392","59908","1264","NA","2","legacy","5","1024","2","48000","-16","experiment","1","odd","2","424155","420860","421947","2214","241937","421949","408211","2226","182029","426159","422952","427423","105620","426159","NA","Sternberg task","26","44444","41","yes","1024"
"64.2857142857","64.2857142857","1087.66666667","1087.66666667","black","experiment","legacy","legacy","legacy","0","uniform","1","undefined","1","left","41","41","41","0","0","41","41","0","0","41","41","41","0","41","0","10/23/21 17:58:37","The main experiment item","yes","SternbergExperiment.osexp","C:\Users\katie\Documents\School\Quant Methods\Lab 3","no","mono","no","18","no","white","no","yes","768","legacy","29","11","C:/Users/katie/Documents/School/Quant Methods/Lab 3/KH-subject-4.csv","legacy","5 2 9 6 1 7","Lentiform Loewenfeld","3.3.9","3","y","0","left","right","right","left","NA","1238","103392","59908","1238","NA","2","legacy","6","1024","2","48000","-16","experiment","1","odd","9","430709","427428","428501","2214","241937","428503","408211","2226","182029","432711","429505","433951","105620","432711","NA","Sternberg task","27","45682","42","yes","1024"
"65.1162790698","65.1162790698","1079.72093023","1079.72093023","black","experiment","legacy","legacy","legacy","0","uniform","1","undefined","1","right","42","42","42","0","0","42","42","0","0","42","42","42","0","42","0","10/23/21 17:58:37","The main experiment item","yes","SternbergExperiment.osexp","C:\Users\katie\Documents\School\Quant Methods\Lab 3","no","mono","no","18","no","white","no","yes","768","legacy","30","11","C:/Users/katie/Documents/School/Quant Methods/Lab 3/KH-subject-4.csv","legacy","8 9","Lentiform Loewenfeld","3.3.9","0","n","0","right","right","right","right","NA","746","103392","59908","746","NA","2","legacy","2","1024","2","48000","-16","experiment","1","odd","5","437267","433966","435058","2214","241937","435061","408211","2226","182029","439272","436064","440019","105620","439272","NA","Sternberg task","28","46428","43","yes","1024"
"65.9090909091","65.9090909091","1087.31818182","1087.31818182","black","experiment","legacy","legacy","legacy","0","uniform","1","undefined","1","left","43","43","43","0","0","43","43","0","0","43","43","43","0","43","0","10/23/21 17:58:37","The main experiment item","yes","SternbergExperiment.osexp","C:\Users\katie\Documents\School\Quant Methods\Lab 3","no","mono","no","18","no","white","no","yes","768","legacy","31","11","C:/Users/katie/Documents/School/Quant Methods/Lab 3/KH-subject-4.csv","legacy","4 9 7 8 5 3","Lentiform Loewenfeld","3.3.9","4","y","0","left","right","right","left","NA","1414","103392","59908","1414","NA","2","legacy","6","1024","2","48000","-16","experiment","1","odd","8","443336","440032","441128","2214","241937","441130","408211","2226","182029","445340","442133","446755","105620","445340","NA","Sternberg task","29","47842","44","yes","1024"
"66.6666666667","66.6666666667","1079.88888889","1079.88888889","black","experiment","legacy","legacy","legacy","0","uniform","1","undefined","1","right","44","44","44","0","0","44","44","0","0","44","44","44","0","44","0","10/23/21 17:58:37","The main experiment item","yes","SternbergExperiment.osexp","C:\Users\katie\Documents\School\Quant Methods\Lab 3","no","mono","no","18","no","white","no","yes","768","legacy","32","11","C:/Users/katie/Documents/School/Quant Methods/Lab 3/KH-subject-4.csv","legacy","7 4 2 8 1 9","Lentiform Loewenfeld","3.3.9","0","n","0","right","right","right","right","NA","753","103392","59908","753","NA","2","legacy","6","1024","2","48000","-16","experiment","1","odd","5","450077","446767","447869","2214","241937","447871","408211","2226","182029","452080","448874","452834","105620","452080","NA","Sternberg task","30","48595","45","yes","1024"
"67.3913043478","67.3913043478","1073.26086957","1073.26086957","black","experiment","legacy","legacy","legacy","0","uniform","1","undefined","1","left","45","45","45","0","0","45","45","0","0","45","45","45","0","45","0","10/23/21 17:58:37","The main experiment item","yes","SternbergExperiment.osexp","C:\Users\katie\Documents\School\Quant Methods\Lab 3","no","mono","no","18","no","white","no","yes","768","legacy","33","11","C:/Users/katie/Documents/School/Quant Methods/Lab 3/KH-subject-4.csv","legacy","7 8 4 6 9 5","Lentiform Loewenfeld","3.3.9","4","y","0","left","right","right","left","NA","775","103392","59908","775","NA","2","legacy","6","1024","2","48000","-16","experiment","1","odd","6","456154","452847","453944","2214","241937","453947","408211","2226","182029","458157","454951","458933","105620","458156","NA","Sternberg task","31","49370","46","yes","1024"
"68.085106383","68.085106383","1066.72340426","1066.72340426","black","experiment","legacy","legacy","legacy","0","uniform","1","undefined","1","right","46","46","46","0","0","46","46","0","0","46","46","46","0","46","0","10/23/21 17:58:37","The main experiment item","yes","SternbergExperiment.osexp","C:\Users\katie\Documents\School\Quant Methods\Lab 3","no","mono","no","18","no","white","no","yes","768","legacy","34","11","C:/Users/katie/Documents/School/Quant Methods/Lab 3/KH-subject-4.csv","legacy","1 7 8 3 9","Lentiform Loewenfeld","3.3.9","0","n","0","right","right","right","right","NA","766","103392","59908","766","NA","2","legacy","5","1024","2","48000","-16","experiment","1","odd","2","462236","458945","460030","2214","241937","460032","408211","2226","182029","464239","461033","465006","105620","464238","NA","Sternberg task","32","50136","47","yes","1024"
"66.6666666667","66.6666666667","1056.54166667","1056.54166667","black","experiment","legacy","legacy","legacy","0","uniform","0","undefined","0","right","47","47","47","0","0","47","47","0","0","47","47","47","0","47","0","10/23/21 17:58:37","The main experiment item","yes","SternbergExperiment.osexp","C:\Users\katie\Documents\School\Quant Methods\Lab 3","no","mono","no","18","no","white","no","yes","768","legacy","35","11","C:/Users/katie/Documents/School/Quant Methods/Lab 3/KH-subject-4.csv","legacy","5 7 3","Lentiform Loewenfeld","3.3.9","0","n","0","left","right","right","left","NA","578","103392","59908","578","NA","2","legacy","3","1024","2","48000","-16","experiment","1","odd","9","468305","465018","466096","2214","241937","466099","408211","2226","182029","470309","467102","470888","105620","470308","NA","Sternberg task","32","50714","48","yes","1024"
"67.3469387755","67.3469387755","1046.73469388","1046.73469388","black","experiment","legacy","legacy","legacy","0","uniform","1","undefined","1","right","48","48","48","0","0","48","48","0","0","48","48","48","0","48","0","10/23/21 17:58:37","The main experiment item","yes","SternbergExperiment.osexp","C:\Users\katie\Documents\School\Quant Methods\Lab 3","no","mono","no","18","no","white","no","yes","768","legacy","36","11","C:/Users/katie/Documents/School/Quant Methods/Lab 3/KH-subject-4.csv","legacy","8 5 7 3 6","Lentiform Loewenfeld","3.3.9","0","n","0","right","right","right","right","NA","576","103392","59908","576","NA","2","legacy","5","1024","2","48000","-16","experiment","1","odd","9","474172","465018","471963","2214","241937","471966","470893","2226","182029","476174","472969","476751","105620","476173","NA","Sternberg task","33","51290","49","yes","1024"
"68","68","1056.68","1056.68","black","experiment","legacy","legacy","legacy","0","uniform","1","undefined","1","right","49","49","49","0","0","49","49","0","0","49","49","49","0","49","0","10/23/21 17:58:37","The main experiment item","yes","SternbergExperiment.osexp","C:\Users\katie\Documents\School\Quant Methods\Lab 3","no","mono","no","18","no","white","no","yes","768","legacy","37","11","C:/Users/katie/Documents/School/Quant Methods/Lab 3/KH-subject-4.csv","legacy","1","Lentiform Loewenfeld","3.3.9","0","n","0","right","right","right","right","NA","1544","103392","59908","1544","NA","2","legacy","1","1024","2","48000","-16","experiment","1","odd","7","480026","476754","477819","2214","241937","477822","470893","2226","182029","482029","478823","483573","105620","482029","NA","Sternberg task","34","52834","50","yes","1024"
"68.6274509804","68.6274509804","1056.80392157","1056.80392157","black","experiment","legacy","legacy","legacy","0","uniform","1","undefined","1","left","50","50","50","0","0","50","50","0","0","50","50","50","0","50","0","10/23/21 17:58:37","The main experiment item","yes","SternbergExperiment.osexp","C:\Users\katie\Documents\School\Quant Methods\Lab 3","no","mono","no","18","no","white","no","yes","768","legacy","38","11","C:/Users/katie/Documents/School/Quant Methods/Lab 3/KH-subject-4.csv","legacy","7 1 3","Lentiform Loewenfeld","3.3.9","2","y","0","left","right","right","left","NA","1063","103392","59908","1063","NA","2","legacy","3","1024","2","48000","-16","experiment","1","odd","1","486865","483578","484656","2214","241937","484658","470893","2226","182029","488868","485661","489932","105620","488868","NA","Sternberg task","35","53897","51","yes","1024"
"69.2307692308","69.2307692308","1057.46153846","1057.46153846","black","experiment","legacy","legacy","legacy","0","uniform","1","undefined","1","left","51","51","51","0","0","51","51","0","0","51","51","51","0","51","0","10/23/21 17:58:37","The main experiment item","yes","SternbergExperiment.osexp","C:\Users\katie\Documents\School\Quant Methods\Lab 3","no","mono","no","18","no","white","no","yes","768","legacy","39","11","C:/Users/katie/Documents/School/Quant Methods/Lab 3/KH-subject-4.csv","legacy","7 1 8 5 6 2","Lentiform Loewenfeld","3.3.9","2","y","0","left","right","right","left","NA","1091","103392","59908","1091","NA","2","legacy","6","1024","2","48000","-16","experiment","1","odd","1","493234","489935","491025","2214","241937","491027","470893","2226","182029","495237","492030","496329","105620","495237","NA","Sternberg task","36","54988","52","yes","1024"
"67.9245283019","67.9245283019","1052.69811321","1052.69811321","black","experiment","legacy","legacy","legacy","0","uniform","0","undefined","0","left","52","52","52","0","0","52","52","0","0","52","52","52","0","52","0","10/23/21 17:58:37","The main experiment item","yes","SternbergExperiment.osexp","C:\Users\katie\Documents\School\Quant Methods\Lab 3","no","mono","no","18","no","white","no","yes","768","legacy","40","11","C:/Users/katie/Documents/School/Quant Methods/Lab 3/KH-subject-4.csv","legacy","9 3 8 2 1 4","Lentiform Loewenfeld","3.3.9","3","y","0","right","right","right","right","NA","805","103392","59908","805","NA","2","legacy","6","1024","2","48000","-16","experiment","1","odd","8","499626","496333","497419","2214","241937","497421","470893","2226","182029","501630","498423","502437","105620","501630","NA","Sternberg task","36","55793","53","yes","1024"
"66.6666666667","66.6666666667","1047.72222222","1047.72222222","black","experiment","legacy","legacy","legacy","0","uniform","0","undefined","0","right","53","53","53","0","0","53","53","0","0","53","53","53","0","53","0","10/23/21 17:58:37","The main experiment item","yes","SternbergExperiment.osexp","C:\Users\katie\Documents\School\Quant Methods\Lab 3","no","mono","no","18","no","white","no","yes","768","legacy","41","11","C:/Users/katie/Documents/School/Quant Methods/Lab 3/KH-subject-4.csv","legacy","2 8 9 4 1","Lentiform Loewenfeld","3.3.9","0","n","0","left","right","right","left","NA","784","103392","59908","784","NA","2","legacy","5","1024","2","48000","-16","experiment","1","odd","5","505753","496333","503544","2214","241937","503547","502450","2226","182029","507756","504550","508540","105620","507756","NA","Sternberg task","36","56577","54","yes","1024"
"67.2727272727","67.2727272727","1051.07272727","1051.07272727","black","experiment","legacy","legacy","legacy","0","uniform","1","undefined","1","right","54","54","54","0","0","54","54","0","0","54","54","54","0","54","0","10/23/21 17:58:37","The main experiment item","yes","SternbergExperiment.osexp","C:\Users\katie\Documents\School\Quant Methods\Lab 3","no","mono","no","18","no","white","no","yes","768","legacy","42","11","C:/Users/katie/Documents/School/Quant Methods/Lab 3/KH-subject-4.csv","legacy","4 2 6 9","Lentiform Loewenfeld","3.3.9","0","n","0","right","right","right","right","NA","1232","103392","59908","1232","NA","2","legacy","4","1024","2","48000","-16","experiment","1","odd","7","511865","496333","509656","2214","241937","509659","508552","2226","182029","513868","510662","515101","105620","513868","NA","Sternberg task","37","57809","55","yes","1024"
"66.0714285714","66.0714285714","1046.39285714","1046.39285714","black","experiment","legacy","legacy","legacy","0","uniform","0","undefined","0","right","55","55","55","0","0","55","55","0","0","55","55","55","0","55","0","10/23/21 17:58:37","The main experiment item","yes","SternbergExperiment.osexp","C:\Users\katie\Documents\School\Quant Methods\Lab 3","no","mono","no","18","no","white","no","yes","768","legacy","43","11","C:/Users/katie/Documents/School/Quant Methods/Lab 3/KH-subject-4.csv","legacy","9 7 4 5 8","Lentiform Loewenfeld","3.3.9","0","n","0","left","right","right","left","NA","789","103392","59908","789","NA","2","legacy","5","1024","2","48000","-16","experiment","1","odd","6","518426","515105","516215","2214","241937","516219","508552","2226","182029","520430","517222","521220","105620","520429","NA","Sternberg task","37","58598","56","yes","1024"
"64.9122807018","64.9122807018","1046.43859649","1046.43859649","black","experiment","legacy","legacy","legacy","0","uniform","0","undefined","0","right","56","56","56","0","0","56","56","0","0","56","56","56","0","56","0","10/23/21 17:58:37","The main experiment item","yes","SternbergExperiment.osexp","C:\Users\katie\Documents\School\Quant Methods\Lab 3","no","mono","no","18","no","white","no","yes","768","legacy","44","11","C:/Users/katie/Documents/School/Quant Methods/Lab 3/KH-subject-4.csv","legacy","6 9 7 3 8 2","Lentiform Loewenfeld","3.3.9","0","n","0","left","right","right","left","NA","1049","103392","59908","1049","NA","2","legacy","6","1024","2","48000","-16","experiment","1","odd","5","524541","515105","522332","2214","241937","522334","521233","2226","182029","526544","523338","527594","105620","526544","NA","Sternberg task","37","59647","57","yes","1024"
"65.5172413793","65.5172413793","1052.94827586","1052.94827586","black","experiment","legacy","legacy","legacy","0","uniform","1","undefined","1","right","57","57","57","0","0","57","57","0","0","57","57","57","0","57","0","10/23/21 17:58:37","The main experiment item","yes","SternbergExperiment.osexp","C:\Users\katie\Documents\School\Quant Methods\Lab 3","no","mono","no","18","no","white","no","yes","768","legacy","45","11","C:/Users/katie/Documents/School/Quant Methods/Lab 3/KH-subject-4.csv","legacy","7 9","Lentiform Loewenfeld","3.3.9","0","n","0","right","right","right","right","NA","1424","103392","59908","1424","NA","2","legacy","2","1024","2","48000","-16","experiment","1","odd","1","530908","515105","528700","2214","241937","528701","527606","2226","182029","532911","529704","534336","105620","532911","NA","Sternberg task","38","61071","58","yes","1024"
"66.1016949153","66.1016949153","1056.22033898","1056.22033898","black","experiment","legacy","legacy","legacy","0","uniform","1","undefined","1","left","58","58","58","0","0","58","58","0","0","58","58","58","0","58","0","10/23/21 17:58:37","The main experiment item","yes","SternbergExperiment.osexp","C:\Users\katie\Documents\School\Quant Methods\Lab 3","no","mono","no","18","no","white","no","yes","768","legacy","46","11","C:/Users/katie/Documents/School/Quant Methods/Lab 3/KH-subject-4.csv","legacy","3 4","Lentiform Loewenfeld","3.3.9","1","y","0","left","right","right","left","NA","1246","103392","59908","1246","NA","2","legacy","2","1024","2","48000","-16","experiment","1","odd","3","537667","534349","535458","2214","241937","535461","527606","2226","182029","539670","536463","540917","105620","539670","NA","Sternberg task","39","62317","59","yes","1024"
"66.6666666667","66.6666666667","1057.73333333","1057.73333333","black","experiment","legacy","legacy","legacy","0","uniform","1","undefined","1","right","59","59","59","0","0","59","59","0","0","59","59","59","0","59","0","10/23/21 17:58:37","The main experiment item","yes","SternbergExperiment.osexp","C:\Users\katie\Documents\School\Quant Methods\Lab 3","no","mono","no","18","no","white","no","yes","768","legacy","47","11","C:/Users/katie/Documents/School/Quant Methods/Lab 3/KH-subject-4.csv","legacy","7 1 5 6 3","Lentiform Loewenfeld","3.3.9","0","n","0","right","right","right","right","NA","1147","103392","59908","1147","NA","2","legacy","5","1024","2","48000","-16","experiment","1","odd","8","544232","540931","542024","2214","241937","542026","527606","2226","182029","546235","543029","547383","105620","546235","NA","Sternberg task","40","63464","60","yes","1024"
"65.5737704918","65.5737704918","1052.37704918","1052.37704918","black","experiment","legacy","legacy","legacy","0","uniform","0","undefined","0","right","60","60","60","0","0","60","60","0","0","60","60","60","0","60","0","10/23/21 17:58:37","The main experiment item","yes","SternbergExperiment.osexp","C:\Users\katie\Documents\School\Quant Methods\Lab 3","no","mono","no","18","no","white","no","yes","768","legacy","48","11","C:/Users/katie/Documents/School/Quant Methods/Lab 3/KH-subject-4.csv","legacy","9 5 3 2 8 6","Lentiform Loewenfeld","3.3.9","0","n","0","left","right","right","left","NA","731","103392","59908","731","NA","2","legacy","6","1024","2","48000","-16","experiment","1","odd","7","550700","547396","548495","2214","241937","548496","527606","2226","182029","552704","549498","553436","105620","552704","NA","Sternberg task","40","64195","61","yes","1024"
"66.1290322581","66.1290322581","1050.85483871","1050.85483871","black","experiment","legacy","legacy","legacy","0","uniform","1","undefined","1","left","61","61","61","0","0","61","61","0","0","61","61","61","0","61","0","10/23/21 17:58:37","The main experiment item","yes","SternbergExperiment.osexp","C:\Users\katie\Documents\School\Quant Methods\Lab 3","no","mono","no","18","no","white","no","yes","768","legacy","49","11","C:/Users/katie/Documents/School/Quant Methods/Lab 3/KH-subject-4.csv","legacy","8 1 6","Lentiform Loewenfeld","3.3.9","3","y","0","left","right","right","left","NA","958","103392","59908","958","NA","2","legacy","3","1024","2","48000","-16","experiment","1","odd","6","556739","547396","554531","2214","241937","554533","553447","2226","182029","558742","555536","559700","105620","558741","NA","Sternberg task","41","65153","62","yes","1024"
"65.0793650794","65.0793650794","1051.25396825","1051.25396825","black","experiment","legacy","legacy","legacy","0","uniform","0","undefined","0","left","62","62","62","0","0","62","62","0","0","62","62","62","0","62","0","10/23/21 17:58:37","The main experiment item","yes","SternbergExperiment.osexp","C:\Users\katie\Documents\School\Quant Methods\Lab 3","no","mono","no","18","no","white","no","yes","768","legacy","50","11","C:/Users/katie/Documents/School/Quant Methods/Lab 3/KH-subject-4.csv","legacy","4 6 5 8","Lentiform Loewenfeld","3.3.9","1","y","0","right","right","right","right","NA","1076","103392","59908","1076","NA","2","legacy","4","1024","2","48000","-16","experiment","1","odd","4","563003","559713","560794","2214","241937","560797","553447","2226","182029","565008","561800","566085","105620","565008","NA","Sternberg task","41","66229","63","yes","1024"
"65.625","65.625","1052","1052","black","experiment","legacy","legacy","legacy","0","uniform","1","undefined","1","right","63","63","63","0","0","63","63","0","0","63","63","63","0","63","0","10/23/21 17:58:37","The main experiment item","yes","SternbergExperiment.osexp","C:\Users\katie\Documents\School\Quant Methods\Lab 3","no","mono","no","18","no","white","no","yes","768","legacy","51","11","C:/Users/katie/Documents/School/Quant Methods/Lab 3/KH-subject-4.csv","legacy","8 6 3 4 7","Lentiform Loewenfeld","3.3.9","0","n","0","right","right","right","right","NA","1099","103392","59908","1099","NA","2","legacy","5","1024","2","48000","-16","experiment","1","odd","1","569379","559713","567169","2214","241937","567173","566097","2226","182029","571382","568176","572481","105620","571381","NA","Sternberg task","42","67328","64","yes","1024"
"66.1538461538","66.1538461538","1052","1052","black","experiment","legacy","legacy","legacy","0","uniform","1","undefined","1","right","64","64","64","0","0","64","64","0","0","64","64","64","0","64","0","10/23/21 17:58:37","The main experiment item","yes","SternbergExperiment.osexp","C:\Users\katie\Documents\School\Quant Methods\Lab 3","no","mono","no","18","no","white","no","yes","768","legacy","52","11","C:/Users/katie/Documents/School/Quant Methods/Lab 3/KH-subject-4.csv","legacy","8 2 1 4 5 9","Lentiform Loewenfeld","3.3.9","0","n","0","right","right","right","right","NA","1052","103392","59908","1052","NA","2","legacy","6","1024","2","48000","-16","experiment","1","odd","7","575792","572493","573582","2214","241937","573585","566097","2226","182029","577795","574588","578848","105620","577795","NA","Sternberg task","43","68380","65","yes","1024"
"66.6666666667","66.6666666667","1050.66666667","1050.66666667","black","experiment","legacy","legacy","legacy","0","uniform","1","undefined","1","left","65","65","65","0","0","65","65","0","0","65","65","65","0","65","0","10/23/21 17:58:37","The main experiment item","yes","SternbergExperiment.osexp","C:\Users\katie\Documents\School\Quant Methods\Lab 3","no","mono","no","18","no","white","no","yes","768","legacy","53","11","C:/Users/katie/Documents/School/Quant Methods/Lab 3/KH-subject-4.csv","legacy","6 9 7 4 5 1","Lentiform Loewenfeld","3.3.9","2","y","0","left","right","right","left","NA","964","103392","59908","964","NA","2","legacy","6","1024","2","48000","-16","experiment","1","odd","9","582148","578860","579940","2214","241937","579942","566097","2226","182029","584152","580945","585116","105620","584151","NA","Sternberg task","44","69344","66","yes","1024"
"65.671641791","65.671641791","1049.98507463","1049.98507463","black","experiment","legacy","legacy","legacy","0","uniform","0","undefined","0","right","66","66","66","0","0","66","66","0","0","66","66","66","0","66","0","10/23/21 17:58:37","The main experiment item","yes","SternbergExperiment.osexp","C:\Users\katie\Documents\School\Quant Methods\Lab 3","no","mono","no","18","no","white","no","yes","768","legacy","54","11","C:/Users/katie/Documents/School/Quant Methods/Lab 3/KH-subject-4.csv","legacy","2 8 7 9 5 3","Lentiform Loewenfeld","3.3.9","0","n","0","left","right","right","left","NA","1005","103392","59908","1005","NA","2","legacy","6","1024","2","48000","-16","experiment","1","odd","6","588412","585120","586204","2214","241937","586206","566097","2226","182029","590416","587209","591422","105620","590416","NA","Sternberg task","44","70349","67","yes","1024"
"66.1764705882","66.1764705882","1055.14705882","1055.14705882","black","experiment","legacy","legacy","legacy","0","uniform","1","undefined","1","left","67","67","67","0","0","67","67","0","0","67","67","67","0","67","0","10/23/21 17:58:37","The main experiment item","yes","SternbergExperiment.osexp","C:\Users\katie\Documents\School\Quant Methods\Lab 3","no","mono","no","18","no","white","no","yes","768","legacy","55","11","C:/Users/katie/Documents/School/Quant Methods/Lab 3/KH-subject-4.csv","legacy","5 2 6","Lentiform Loewenfeld","3.3.9","2","y","0","left","right","right","left","NA","1401","103392","59908","1401","NA","2","legacy","3","1024","2","48000","-16","experiment","1","odd","2","594717","585120","592507","2214","241937","592510","591430","2226","182029","596722","593514","598125","105620","596722","NA","Sternberg task","45","71750","68","yes","1024"
"66.6666666667","66.6666666667","1056.95652174","1056.95652174","black","experiment","legacy","legacy","legacy","0","uniform","1","undefined","1","right","68","68","68","0","0","68","68","0","0","68","68","68","0","68","0","10/23/21 17:58:37","The main experiment item","yes","SternbergExperiment.osexp","C:\Users\katie\Documents\School\Quant Methods\Lab 3","no","mono","no","18","no","white","no","yes","768","legacy","56","11","C:/Users/katie/Documents/School/Quant Methods/Lab 3/KH-subject-4.csv","legacy","1 8 7","Lentiform Loewenfeld","3.3.9","0","n","0","right","right","right","right","NA","1180","103392","59908","1180","NA","2","legacy","3","1024","2","48000","-16","experiment","1","odd","4","601423","598139","599214","2214","241937","599217","591430","2226","182029","603428","600220","604609","105620","603427","NA","Sternberg task","46","72930","69","yes","1024"
"67.1428571429","67.1428571429","1057.18571429","1057.18571429","black","experiment","legacy","legacy","legacy","0","uniform","1","undefined","1","left","69","69","69","0","0","69","69","0","0","69","69","69","0","69","0","10/23/21 17:58:37","The main experiment item","yes","SternbergExperiment.osexp","C:\Users\katie\Documents\School\Quant Methods\Lab 3","no","mono","no","18","no","white","no","yes","768","legacy","57","11","C:/Users/katie/Documents/School/Quant Methods/Lab 3/KH-subject-4.csv","legacy","8 9 5 7 1 6","Lentiform Loewenfeld","3.3.9","4","y","0","left","right","right","left","NA","1073","103392","59908","1073","NA","2","legacy","6","1024","2","48000","-16","experiment","1","odd","7","607913","604614","605706","2214","241937","605707","591430","2226","182029","609916","606710","610990","105620","609916","NA","Sternberg task","47","74003","70","yes","1024"
"67.6056338028","67.6056338028","1059.15492958","1059.15492958","black","experiment","legacy","legacy","legacy","0","uniform","1","undefined","1","left","70","70","70","0","0","70","70","0","0","70","70","70","0","70","0","10/23/21 17:58:37","The main experiment item","yes","SternbergExperiment.osexp","C:\Users\katie\Documents\School\Quant Methods\Lab 3","no","mono","no","18","no","white","no","yes","768","legacy","58","11","C:/Users/katie/Documents/School/Quant Methods/Lab 3/KH-subject-4.csv","legacy","8 5 1 3 9","Lentiform Loewenfeld","3.3.9","4","y","0","left","right","right","left","NA","1197","103392","59908","1197","NA","2","legacy","5","1024","2","48000","-16","experiment","1","odd","3","614278","611003","612068","2214","241937","612071","591430","2226","182029","616282","613074","617480","105620","616281","NA","Sternberg task","48","75200","71","yes","1024"
"68.0555555556","68.0555555556","1059.11111111","1059.11111111","black","experiment","legacy","legacy","legacy","0","uniform","1","undefined","1","right","71","71","71","0","0","71","71","0","0","71","71","71","0","71","0","10/23/21 17:58:37","The main experiment item","yes","SternbergExperiment.osexp","C:\Users\katie\Documents\School\Quant Methods\Lab 3","no","mono","no","18","no","white","no","yes","768","legacy","59","11","C:/Users/katie/Documents/School/Quant Methods/Lab 3/KH-subject-4.csv","legacy","6 9 4 5 3 2","Lentiform Loewenfeld","3.3.9","0","n","0","right","right","right","right","NA","1056","103392","59908","1056","NA","2","legacy","6","1024","2","48000","-16","experiment","1","odd","8","620780","617494","618572","2214","241937","618574","591430","2226","182029","622784","619576","623842","105620","622783","NA","Sternberg task","49","76256","72","yes","1024"
"68.4931506849","68.4931506849","1054.90410959","1054.90410959","black","experiment","legacy","legacy","legacy","0","uniform","1","undefined","1","right","72","72","72","0","0","72","72","0","0","72","72","72","0","72","0","10/23/21 17:58:37","The main experiment item","yes","SternbergExperiment.osexp","C:\Users\katie\Documents\School\Quant Methods\Lab 3","no","mono","no","18","no","white","no","yes","768","legacy","60","11","C:/Users/katie/Documents/School/Quant Methods/Lab 3/KH-subject-4.csv","legacy","6 9 5","Lentiform Loewenfeld","3.3.9","0","n","0","right","right","right","right","NA","752","103392","59908","752","NA","2","legacy","3","1024","2","48000","-16","experiment","1","odd","8","627144","623855","624935","2214","241937","624937","591430","2226","182029","629147","625940","629901","105620","629147","NA","Sternberg task","50","77008","73","yes","1024"
"68.9189189189","68.9189189189","1054.47297297","1054.47297297","black","experiment","legacy","legacy","legacy","0","uniform","1","undefined","1","left","73","73","73","0","0","73","73","0","0","73","73","73","0","73","0","10/23/21 17:58:37","The main experiment item","yes","SternbergExperiment.osexp","C:\Users\katie\Documents\School\Quant Methods\Lab 3","no","mono","no","18","no","white","no","yes","768","legacy","61","11","C:/Users/katie/Documents/School/Quant Methods/Lab 3/KH-subject-4.csv","legacy","2 6 1 7 4","Lentiform Loewenfeld","3.3.9","2","y","0","left","right","right","left","NA","1023","103392","59908","1023","NA","2","legacy","5","1024","2","48000","-16","experiment","1","odd","6","633229","629915","631018","2214","241937","631022","591430","2226","182029","635232","632025","636256","105620","635232","NA","Sternberg task","51","78031","74","yes","1024"
"69.3333333333","69.3333333333","1055.50666667","1055.50666667","black","experiment","legacy","legacy","legacy","0","uniform","1","undefined","1","left","74","74","74","0","0","74","74","0","0","74","74","74","0","74","0","10/23/21 17:58:37","The main experiment item","yes","SternbergExperiment.osexp","C:\Users\katie\Documents\School\Quant Methods\Lab 3","no","mono","no","18","no","white","no","yes","768","legacy","62","11","C:/Users/katie/Documents/School/Quant Methods/Lab 3/KH-subject-4.csv","legacy","8 9 6 1","Lentiform Loewenfeld","3.3.9","2","y","0","left","right","right","left","NA","1132","103392","59908","1132","NA","2","legacy","4","1024","2","48000","-16","experiment","1","odd","9","639555","636270","637347","2214","241937","637349","591430","2226","182029","641559","638351","642692","105620","641559","NA","Sternberg task","52","79163","75","yes","1024"
"69.7368421053","69.7368421053","1055.34210526","1055.34210526","black","experiment","legacy","legacy","legacy","0","uniform","1","undefined","1","right","75","75","75","0","0","75","75","0","0","75","75","75","0","75","0","10/23/21 17:58:37","The main experiment item","yes","SternbergExperiment.osexp","C:\Users\katie\Documents\School\Quant Methods\Lab 3","no","mono","no","18","no","white","no","yes","768","legacy","63","11","C:/Users/katie/Documents/School/Quant Methods/Lab 3/KH-subject-4.csv","legacy","8 5 4 2 9 6","Lentiform Loewenfeld","3.3.9","0","n","0","right","right","right","right","NA","1043","103392","59908","1043","NA","2","legacy","6","1024","2","48000","-16","experiment","1","odd","3","646024","642705","643816","2214","241937","643819","591430","2226","182029","648028","644821","649072","105620","648028","NA","Sternberg task","53","80206","76","yes","1024"
"70.1298701299","70.1298701299","1053.50649351","1053.50649351","black","experiment","legacy","legacy","legacy","0","uniform","1","undefined","1","left","76","76","76","0","0","76","76","0","0","76","76","76","0","76","0","10/23/21 17:58:37","The main experiment item","yes","SternbergExperiment.osexp","C:\Users\katie\Documents\School\Quant Methods\Lab 3","no","mono","no","18","no","white","no","yes","768","legacy","64","11","C:/Users/katie/Documents/School/Quant Methods/Lab 3/KH-subject-4.csv","legacy","5 7 8 2 3 8","Lentiform Loewenfeld","3.3.9","5","y","0","left","right","right","left","NA","914","103392","59908","914","NA","2","legacy","6","1024","2","48000","-16","experiment","1","odd","3","652370","649078","650163","2214","241937","650164","591430","2226","182029","654373","651167","655288","105620","654373","NA","Sternberg task","54","81120","77","yes","1024"
"70.5128205128","70.5128205128","1051.3974359","1051.3974359","black","experiment","legacy","legacy","legacy","0","uniform","1","undefined","1","right","77","77","77","0","0","77","77","0","0","77","77","77","0","77","0","10/23/21 17:58:37","The main experiment item","yes","SternbergExperiment.osexp","C:\Users\katie\Documents\School\Quant Methods\Lab 3","no","mono","no","18","no","white","no","yes","768","legacy","65","11","C:/Users/katie/Documents/School/Quant Methods/Lab 3/KH-subject-4.csv","legacy","7 3 2 8","Lentiform Loewenfeld","3.3.9","0","n","0","right","right","right","right","NA","889","103392","59908","889","NA","2","legacy","4","1024","2","48000","-16","experiment","1","odd","4","658603","655302","656394","2214","241937","656397","591430","2226","182029","660606","657400","661496","105620","660606","NA","Sternberg task","55","82009","78","yes","1024"
"69.6202531646","69.6202531646","1053.06329114","1053.06329114","black","experiment","legacy","legacy","legacy","0","uniform","0","undefined","0","right","78","78","78","0","0","78","78","0","0","78","78","78","0","78","0","10/23/21 17:58:37","The main experiment item","yes","SternbergExperiment.osexp","C:\Users\katie\Documents\School\Quant Methods\Lab 3","no","mono","no","18","no","white","no","yes","768","legacy","66","11","C:/Users/katie/Documents/School/Quant Methods/Lab 3/KH-subject-4.csv","legacy","6 9 4 5 2","Lentiform Loewenfeld","3.3.9","0","n","0","left","right","right","left","NA","1183","103392","59908","1183","NA","2","legacy","5","1024","2","48000","-16","experiment","1","odd","1","664811","661502","662602","2214","241937","662605","591430","2226","182029","666814","663608","667998","105620","666814","NA","Sternberg task","55","83192","79","yes","1024"
"70","70","1062.325","1062.325","black","experiment","legacy","legacy","legacy","0","uniform","1","undefined","1","right","79","79","79","0","0","79","79","0","0","79","79","79","0","79","0","10/23/21 17:58:37","The main experiment item","yes","SternbergExperiment.osexp","C:\Users\katie\Documents\School\Quant Methods\Lab 3","no","mono","no","18","no","white","no","yes","768","legacy","67","11","C:/Users/katie/Documents/School/Quant Methods/Lab 3/KH-subject-4.csv","legacy","3 4 2","Lentiform Loewenfeld","3.3.9","0","n","0","right","right","right","right","NA","1794","103392","59908","1794","NA","2","legacy","3","1024","2","48000","-16","experiment","1","odd","5","671321","661502","669111","2214","241937","669114","668011","2226","182029","673322","670117","675116","105620","673322","NA","Sternberg task","56","84986","80","yes","1024"
"70.3703703704","70.3703703704","1061.13580247","1061.13580247","black","experiment","legacy","legacy","legacy","0","uniform","1","undefined","1","right","80","80","80","0","0","80","80","0","0","80","80","80","0","80","0","10/23/21 17:58:37","The main experiment item","yes","SternbergExperiment.osexp","C:\Users\katie\Documents\School\Quant Methods\Lab 3","no","mono","no","18","no","white","no","yes","768","legacy","68","11","C:/Users/katie/Documents/School/Quant Methods/Lab 3/KH-subject-4.csv","legacy","1 6 4","Lentiform Loewenfeld","3.3.9","0","n","0","right","right","right","right","NA","966","103392","59908","966","NA","2","legacy","3","1024","2","48000","-16","experiment","1","odd","7","678417","675129","676209","2214","241937","676211","668011","2226","182029","680421","677214","681388","105620","680421","NA","Sternberg task","57","85952","81","yes","1024"
"69.512195122","69.512195122","1056.82926829","1056.82926829","black","experiment","legacy","legacy","legacy","0","uniform","0","undefined","0","right","81","81","81","0","0","81","81","0","0","81","81","81","0","81","0","10/23/21 17:58:37","The main experiment item","yes","SternbergExperiment.osexp","C:\Users\katie\Documents\School\Quant Methods\Lab 3","no","mono","no","18","no","white","no","yes","768","legacy","69","11","C:/Users/katie/Documents/School/Quant Methods/Lab 3/KH-subject-4.csv","legacy","1 4 9 3","Lentiform Loewenfeld","3.3.9","0","n","0","left","right","right","left","NA","708","103392","59908","708","NA","2","legacy","4","1024","2","48000","-16","experiment","1","odd","5","684699","681400","682491","2214","241937","682493","668011","2226","182029","686702","683496","687411","105620","686702","NA","Sternberg task","57","86660","82","yes","1024"
"69.8795180723","69.8795180723","1058.08433735","1058.08433735","black","experiment","legacy","legacy","legacy","0","uniform","1","undefined","1","left","82","82","82","0","0","82","82","0","0","82","82","82","0","82","0","10/23/21 17:58:37","The main experiment item","yes","SternbergExperiment.osexp","C:\Users\katie\Documents\School\Quant Methods\Lab 3","no","mono","no","18","no","white","no","yes","768","legacy","70","11","C:/Users/katie/Documents/School/Quant Methods/Lab 3/KH-subject-4.csv","legacy","2 5 4 8 7","Lentiform Loewenfeld","3.3.9","3","y","0","left","right","right","left","NA","1161","103392","59908","1161","NA","2","legacy","5","1024","2","48000","-16","experiment","1","odd","4","690716","681400","688508","2214","241937","688510","687422","2226","182029","692719","689513","693881","105620","692719","NA","Sternberg task","58","87821","83","yes","1024"
"70.2380952381","70.2380952381","1060.55952381","1060.55952381","black","experiment","legacy","legacy","legacy","0","uniform","1","undefined","1","left","83","83","83","0","0","83","83","0","0","83","83","83","0","83","0","10/23/21 17:58:37","The main experiment item","yes","SternbergExperiment.osexp","C:\Users\katie\Documents\School\Quant Methods\Lab 3","no","mono","no","18","no","white","no","yes","768","legacy","71","11","C:/Users/katie/Documents/School/Quant Methods/Lab 3/KH-subject-4.csv","legacy","3 5 4 7","Lentiform Loewenfeld","3.3.9","1","y","0","left","right","right","left","NA","1266","103392","59908","1266","NA","2","legacy","4","1024","2","48000","-16","experiment","1","odd","3","697197","693885","694987","2214","241937","694991","687422","2226","182029","699201","695993","700468","105620","699200","NA","Sternberg task","59","89087","84","yes","1024"
"70.5882352941","70.5882352941","1060.29411765","1060.29411765","black","experiment","legacy","legacy","legacy","0","uniform","1","undefined","1","left","84","84","84","0","0","84","84","0","0","84","84","84","0","84","0","10/23/21 17:58:37","The main experiment item","yes","SternbergExperiment.osexp","C:\Users\katie\Documents\School\Quant Methods\Lab 3","no","mono","no","18","no","white","no","yes","768","legacy","72","11","C:/Users/katie/Documents/School/Quant Methods/Lab 3/KH-subject-4.csv","legacy","7 2 3","Lentiform Loewenfeld","3.3.9","3","y","0","left","right","right","left","NA","1038","103392","59908","1038","NA","2","legacy","3","1024","2","48000","-16","experiment","1","odd","3","703761","700481","701553","2214","241937","701555","687422","2226","182029","705764","702558","706803","105620","705764","NA","Sternberg task","60","90125","85","yes","1024"
"70.9302325581","70.9302325581","1061.65116279","1061.65116279","black","experiment","legacy","legacy","legacy","0","uniform","1","undefined","1","right","85","85","85","0","0","85","85","0","0","85","85","85","0","85","0","10/23/21 17:58:37","The main experiment item","yes","SternbergExperiment.osexp","C:\Users\katie\Documents\School\Quant Methods\Lab 3","no","mono","no","18","no","white","no","yes","768","legacy","73","11","C:/Users/katie/Documents/School/Quant Methods/Lab 3/KH-subject-4.csv","legacy","6 3 1 7 9 8","Lentiform Loewenfeld","3.3.9","0","n","0","right","right","right","right","NA","1177","103392","59908","1177","NA","2","legacy","6","1024","2","48000","-16","experiment","1","odd","4","710129","706815","707918","2214","241937","707921","687422","2226","182029","712132","708925","713310","105620","712132","NA","Sternberg task","61","91302","86","yes","1024"
"70.1149425287","70.1149425287","1057.68965517","1057.68965517","black","experiment","legacy","legacy","legacy","0","uniform","0","undefined","0","right","86","86","86","0","0","86","86","0","0","86","86","86","0","86","0","10/23/21 17:58:37","The main experiment item","yes","SternbergExperiment.osexp","C:\Users\katie\Documents\School\Quant Methods\Lab 3","no","mono","no","18","no","white","no","yes","768","legacy","74","11","C:/Users/katie/Documents/School/Quant Methods/Lab 3/KH-subject-4.csv","legacy","6 8","Lentiform Loewenfeld","3.3.9","0","n","0","left","right","right","left","NA","717","103392","59908","717","NA","2","legacy","2","1024","2","48000","-16","experiment","1","odd","9","716607","713322","714400","2214","241937","714402","687422","2226","182029","718610","715405","719328","105620","718610","NA","Sternberg task","61","92019","87","yes","1024"
"69.3181818182","69.3181818182","1061.60227273","1061.60227273","black","experiment","legacy","legacy","legacy","0","uniform","0","undefined","0","left","87","87","87","0","0","87","87","0","0","87","87","87","0","87","0","10/23/21 17:58:37","The main experiment item","yes","SternbergExperiment.osexp","C:\Users\katie\Documents\School\Quant Methods\Lab 3","no","mono","no","18","no","white","no","yes","768","legacy","75","11","C:/Users/katie/Documents/School/Quant Methods/Lab 3/KH-subject-4.csv","legacy","3 5 9 6 2 4","Lentiform Loewenfeld","3.3.9","1","y","0","right","right","right","right","NA","1402","103392","59908","1402","NA","2","legacy","6","1024","2","48000","-16","experiment","1","odd","3","722635","713322","720427","2214","241937","720429","719342","2226","182029","724637","721432","726040","105620","724636","NA","Sternberg task","61","93421","88","yes","1024"
"69.6629213483","69.6629213483","1065.39325843","1065.39325843","black","experiment","legacy","legacy","legacy","0","uniform","1","undefined","1","left","88","88","88","0","0","88","88","0","0","88","88","88","0","88","0","10/23/21 17:58:37","The main experiment item","yes","SternbergExperiment.osexp","C:\Users\katie\Documents\School\Quant Methods\Lab 3","no","mono","no","18","no","white","no","yes","768","legacy","76","11","C:/Users/katie/Documents/School/Quant Methods/Lab 3/KH-subject-4.csv","legacy","6 9 3 1","Lentiform Loewenfeld","3.3.9","4","y","0","left","right","right","left","NA","1399","103392","59908","1399","NA","2","legacy","4","1024","2","48000","-16","experiment","1","odd","1","729324","713322","727115","2214","241937","727118","726053","2226","182029","731327","728121","732727","105620","731327","NA","Sternberg task","62","94820","89","yes","1024"
"70","70","1067.45555556","1067.45555556","black","experiment","legacy","legacy","legacy","0","uniform","1","undefined","1","left","89","89","89","0","0","89","89","0","0","89","89","89","0","89","0","10/23/21 17:58:37","The main experiment item","yes","SternbergExperiment.osexp","C:\Users\katie\Documents\School\Quant Methods\Lab 3","no","mono","no","18","no","white","no","yes","768","legacy","77","11","C:/Users/katie/Documents/School/Quant Methods/Lab 3/KH-subject-4.csv","legacy","2 8 5 1","Lentiform Loewenfeld","3.3.9","4","y","0","left","right","right","left","NA","1251","103392","59908","1251","NA","2","legacy","4","1024","2","48000","-16","experiment","1","odd","1","736023","732739","733814","2214","241937","733816","726053","2226","182029","738026","734818","739278","105620","738026","NA","Sternberg task","63","96071","90","yes","1024"
"70.3296703297","70.3296703297","1072.52747253","1072.52747253","black","experiment","legacy","legacy","legacy","0","uniform","1","undefined","1","left","90","90","90","0","0","90","90","0","0","90","90","90","0","90","0","10/23/21 17:58:37","The main experiment item","yes","SternbergExperiment.osexp","C:\Users\katie\Documents\School\Quant Methods\Lab 3","no","mono","no","18","no","white","no","yes","768","legacy","78","11","C:/Users/katie/Documents/School/Quant Methods/Lab 3/KH-subject-4.csv","legacy","8 7 3","Lentiform Loewenfeld","3.3.9","1","y","0","left","right","right","left","NA","1529","103392","59908","1529","NA","2","legacy","3","1024","2","48000","-16","experiment","1","odd","8","742598","739290","740387","2214","241937","740391","726053","2226","182029","744601","741394","746131","105620","744601","NA","Sternberg task","64","97600","91","yes","1024"
"70.652173913","70.652173913","1081.57608696","1081.57608696","black","experiment","legacy","legacy","legacy","0","uniform","1","undefined","1","left","91","91","91","0","0","91","91","0","0","91","91","91","0","91","0","10/23/21 17:58:37","The main experiment item","yes","SternbergExperiment.osexp","C:\Users\katie\Documents\School\Quant Methods\Lab 3","no","mono","no","18","no","white","no","yes","768","legacy","79","11","C:/Users/katie/Documents/School/Quant Methods/Lab 3/KH-subject-4.csv","legacy","6 7 8 5","Lentiform Loewenfeld","3.3.9","3","y","0","left","right","right","left","NA","1905","103392","59908","1905","NA","2","legacy","4","1024","2","48000","-16","experiment","1","odd","8","749461","746144","747251","2214","241937","747254","726053","2226","182029","751464","748256","753370","105620","751464","NA","Sternberg task","65","99505","92","yes","1024"
"69.8924731183","69.8924731183","1080.77419355","1080.77419355","black","experiment","legacy","legacy","legacy","0","uniform","0","undefined","0","left","92","92","92","0","0","92","92","0","0","92","92","92","0","92","0","10/23/21 17:58:37","The main experiment item","yes","SternbergExperiment.osexp","C:\Users\katie\Documents\School\Quant Methods\Lab 3","no","mono","no","18","no","white","no","yes","768","legacy","80","11","C:/Users/katie/Documents/School/Quant Methods/Lab 3/KH-subject-4.csv","legacy","3 2 1 4 7","Lentiform Loewenfeld","3.3.9","2","y","0","right","right","right","right","NA","1007","103392","59908","1007","NA","2","legacy","5","1024","2","48000","-16","experiment","1","odd","2","756682","753383","754474","2214","241937","754476","726053","2226","182029","758687","755479","759695","105620","758687","NA","Sternberg task","65","100512","93","yes","1024"
"69.1489361702","69.1489361702","1087.75531915","1087.75531915","black","experiment","legacy","legacy","legacy","0","uniform","0","undefined","0","right","93","93","93","0","0","93","93","0","0","93","93","93","0","93","0","10/23/21 17:58:37","The main experiment item","yes","SternbergExperiment.osexp","C:\Users\katie\Documents\School\Quant Methods\Lab 3","no","mono","no","18","no","white","no","yes","768","legacy","81","11","C:/Users/katie/Documents/School/Quant Methods/Lab 3/KH-subject-4.csv","legacy","1 3 2 6 9","Lentiform Loewenfeld","3.3.9","0","n","0","left","right","right","left","NA","1737","103392","59908","1737","NA","2","legacy","5","1024","2","48000","-16","experiment","1","odd","5","763028","753383","760820","2214","241937","760822","759709","2226","182029","765031","761825","766768","105620","765031","NA","Sternberg task","65","102249","94","yes","1024"
"69.4736842105","69.4736842105","1089.82105263","1089.82105263","black","experiment","legacy","legacy","legacy","0","uniform","1","undefined","1","left","94","94","94","0","0","94","94","0","0","94","94","94","0","94","0","10/23/21 17:58:37","The main experiment item","yes","SternbergExperiment.osexp","C:\Users\katie\Documents\School\Quant Methods\Lab 3","no","mono","no","18","no","white","no","yes","768","legacy","82","11","C:/Users/katie/Documents/School/Quant Methods/Lab 3/KH-subject-4.csv","legacy","6 1 2","Lentiform Loewenfeld","3.3.9","3","y","0","left","right","right","left","NA","1284","103392","59908","1284","NA","2","legacy","3","1024","2","48000","-16","experiment","1","odd","2","770082","753383","767873","2214","241937","767876","766781","2226","182029","772086","768879","773371","105620","772085","NA","Sternberg task","66","103533","95","yes","1024"
"69.7916666667","69.7916666667","1092.09375","1092.09375","black","experiment","legacy","legacy","legacy","0","uniform","1","undefined","1","right","95","95","95","0","0","95","95","0","0","95","95","95","0","95","0","10/23/21 17:58:37","The main experiment item","yes","SternbergExperiment.osexp","C:\Users\katie\Documents\School\Quant Methods\Lab 3","no","mono","no","18","no","white","no","yes","768","legacy","83","11","C:/Users/katie/Documents/School/Quant Methods/Lab 3/KH-subject-4.csv","legacy","2 8 9","Lentiform Loewenfeld","3.3.9","0","n","0","right","right","right","right","NA","1308","103392","59908","1308","NA","2","legacy","3","1024","2","48000","-16","experiment","1","odd","6","776676","773384","774466","2214","241937","774469","766781","2226","182029","778679","775472","779988","105620","778679","NA","Sternberg task","67","104841","96","yes","1024"
"70.1030927835","70.1030927835","1091.64948454","1091.64948454","black","experiment","legacy","legacy","legacy","0","uniform","1","undefined","1","left","96","96","96","0","0","96","96","0","0","96","96","96","0","96","0","10/23/21 17:58:37","The main experiment item","yes","SternbergExperiment.osexp","C:\Users\katie\Documents\School\Quant Methods\Lab 3","no","mono","no","18","no","white","no","yes","768","legacy","84","11","C:/Users/katie/Documents/School/Quant Methods/Lab 3/KH-subject-4.csv","legacy","8 3","Lentiform Loewenfeld","3.3.9","2","y","0","left","right","right","left","NA","1049","103392","59908","1049","NA","2","legacy","2","1024","2","48000","-16","experiment","1","odd","3","783312","780001","781103","2214","241937","781105","766781","2226","182029","785314","782109","786364","105620","785314","NA","Sternberg task","68","105890","97","yes","1024"
"70.4081632653","70.4081632653","1089.1122449","1089.1122449","black","experiment","legacy","legacy","legacy","0","uniform","1","undefined","1","right","97","97","97","0","0","97","97","0","0","97","97","97","0","97","0","10/23/21 17:58:37","The main experiment item","yes","SternbergExperiment.osexp","C:\Users\katie\Documents\School\Quant Methods\Lab 3","no","mono","no","18","no","white","no","yes","768","legacy","85","11","C:/Users/katie/Documents/School/Quant Methods/Lab 3/KH-subject-4.csv","legacy","7 9 1 6","Lentiform Loewenfeld","3.3.9","0","n","0","right","right","right","right","NA","843","103392","59908","843","NA","2","legacy","4","1024","2","48000","-16","experiment","1","odd","4","789675","786376","787466","2214","241937","787469","766781","2226","182029","791678","788472","792523","105620","791678","NA","Sternberg task","69","106733","98","yes","1024"
"70.7070707071","70.7070707071","1093.64646465","1093.64646465","black","experiment","legacy","legacy","legacy","0","uniform","1","undefined","1","left","98","98","98","0","0","98","98","0","0","98","98","98","0","98","0","10/23/21 17:58:37","The main experiment item","yes","SternbergExperiment.osexp","C:\Users\katie\Documents\School\Quant Methods\Lab 3","no","mono","no","18","no","white","no","yes","768","legacy","86","11","C:/Users/katie/Documents/School/Quant Methods/Lab 3/KH-subject-4.csv","legacy","6 8 9 3 4 9","Lentiform Loewenfeld","3.3.9","5","y","0","left","right","right","left","NA","1538","103392","59908","1538","NA","2","legacy","6","1024","2","48000","-16","experiment","1","odd","4","795818","792527","793612","2214","241937","793614","766781","2226","182029","797822","794617","799361","105620","797822","NA","Sternberg task","70","108271","99","yes","1024"
"71","71","1093.89","1093.89","black","experiment","legacy","legacy","legacy","0","uniform","1","undefined","1","left","99","99","99","0","0","99","99","0","0","99","99","99","0","99","0","10/23/21 17:58:37","The main experiment item","yes","SternbergExperiment.osexp","C:\Users\katie\Documents\School\Quant Methods\Lab 3","no","mono","no","18","no","white","no","yes","768","legacy","87","11","C:/Users/katie/Documents/School/Quant Methods/Lab 3/KH-subject-4.csv","legacy","5 7 3 6 2","Lentiform Loewenfeld","3.3.9","5","y","0","left","right","right","left","NA","1118","103392","59908","1118","NA","2","legacy","5","1024","2","48000","-16","experiment","1","odd","2","802669","799374","800459","2214","241937","800461","766781","2226","182029","804672","801466","805791","105620","804672","NA","Sternberg task","71","109389","100","yes","1024"
"71.2871287129","71.2871287129","1093.56435644","1093.56435644","black","experiment","legacy","legacy","legacy","0","uniform","1","undefined","1","right","100","100","100","0","0","100","100","0","0","100","100","100","0","100","0","10/23/21 17:58:37","The main experiment item","yes","SternbergExperiment.osexp","C:\Users\katie\Documents\School\Quant Methods\Lab 3","no","mono","no","18","no","white","no","yes","768","legacy","88","11","C:/Users/katie/Documents/School/Quant Methods/Lab 3/KH-subject-4.csv","legacy","6 2 9 3 8 4","Lentiform Loewenfeld","3.3.9","0","n","0","right","right","right","right","NA","1061","103392","59908","1061","NA","2","legacy","6","1024","2","48000","-16","experiment","1","odd","1","809096","805795","806886","2214","241937","806888","766781","2226","182029","811099","807892","812161","105620","811099","NA","Sternberg task","72","110450","101","yes","1024"
"71.568627451","71.568627451","1093.82352941","1093.82352941","black","experiment","legacy","legacy","legacy","0","uniform","1","undefined","1","left","101","101","101","0","0","101","101","0","0","101","101","101","0","101","0","10/23/21 17:58:37","The main experiment item","yes","SternbergExperiment.osexp","C:\Users\katie\Documents\School\Quant Methods\Lab 3","no","mono","no","18","no","white","no","yes","768","legacy","89","11","C:/Users/katie/Documents/School/Quant Methods/Lab 3/KH-subject-4.csv","legacy","4 1 5","Lentiform Loewenfeld","3.3.9","2","y","0","left","right","right","left","NA","1120","103392","59908","1120","NA","2","legacy","3","1024","2","48000","-16","experiment","1","odd","1","815450","812167","813243","2214","241937","813244","766781","2226","182029","817453","814247","818575","105620","817452","NA","Sternberg task","73","111570","102","yes","1024"
"71.8446601942","71.8446601942","1094.59223301","1094.59223301","black","experiment","legacy","legacy","legacy","0","uniform","1","undefined","1","left","102","102","102","0","0","102","102","0","0","102","102","102","0","102","0","10/23/21 17:58:37","The main experiment item","yes","SternbergExperiment.osexp","C:\Users\katie\Documents\School\Quant Methods\Lab 3","no","mono","no","18","no","white","no","yes","768","legacy","90","11","C:/Users/katie/Documents/School/Quant Methods/Lab 3/KH-subject-4.csv","legacy","1 4 9 3 2 5","Lentiform Loewenfeld","3.3.9","3","y","0","left","right","right","left","NA","1173","103392","59908","1173","NA","2","legacy","6","1024","2","48000","-16","experiment","1","odd","9","821881","818589","819671","2214","241937","819673","766781","2226","182029","823884","820677","825058","105620","823884","NA","Sternberg task","74","112743","103","yes","1024"
"71.1538461538","71.1538461538","1098.10576923","1098.10576923","black","experiment","legacy","legacy","legacy","0","uniform","0","undefined","0","right","103","103","103","0","0","103","103","0","0","103","103","103","0","103","0","10/23/21 17:58:37","The main experiment item","yes","SternbergExperiment.osexp","C:\Users\katie\Documents\School\Quant Methods\Lab 3","no","mono","no","18","no","white","no","yes","768","legacy","91","11","C:/Users/katie/Documents/School/Quant Methods/Lab 3/KH-subject-4.csv","legacy","1 7 5 2 9","Lentiform Loewenfeld","3.3.9","0","n","0","left","right","right","left","NA","1460","103392","59908","1460","NA","2","legacy","5","1024","2","48000","-16","experiment","1","odd","3","828380","825071","826170","2214","241937","826174","766781","2226","182029","830384","827177","831845","105620","830384","NA","Sternberg task","74","114203","104","yes","1024"
"71.4285714286","71.4285714286","1098.68571429","1098.68571429","black","experiment","legacy","legacy","legacy","0","uniform","1","undefined","1","right","104","104","104","0","0","104","104","0","0","104","104","104","0","104","0","10/23/21 17:58:37","The main experiment item","yes","SternbergExperiment.osexp","C:\Users\katie\Documents\School\Quant Methods\Lab 3","no","mono","no","18","no","white","no","yes","768","legacy","92","11","C:/Users/katie/Documents/School/Quant Methods/Lab 3/KH-subject-4.csv","legacy","1 5 3 2 8","Lentiform Loewenfeld","3.3.9","0","n","0","right","right","right","right","NA","1159","103392","59908","1159","NA","2","legacy","5","1024","2","48000","-16","experiment","1","odd","4","835144","825071","832937","2214","241937","832938","831857","2226","182029","837147","833941","838306","105620","837146","NA","Sternberg task","75","115362","105","yes","1024"
"71.6981132075","71.6981132075","1098.90566038","1098.90566038","black","experiment","legacy","legacy","legacy","0","uniform","1","undefined","1","left","105","105","105","0","0","105","105","0","0","105","105","105","0","105","0","10/23/21 17:58:37","The main experiment item","yes","SternbergExperiment.osexp","C:\Users\katie\Documents\School\Quant Methods\Lab 3","no","mono","no","18","no","white","no","yes","768","legacy","93","11","C:/Users/katie/Documents/School/Quant Methods/Lab 3/KH-subject-4.csv","legacy","2 3 7 4","Lentiform Loewenfeld","3.3.9","1","y","0","left","right","right","left","NA","1122","103392","59908","1122","NA","2","legacy","4","1024","2","48000","-16","experiment","1","odd","2","841640","838319","839433","2214","241937","839435","831857","2226","182029","843644","840437","844767","105620","843644","NA","Sternberg task","76","116484","106","yes","1024"
"71.9626168224","71.9626168224","1099.94392523","1099.94392523","black","experiment","legacy","legacy","legacy","0","uniform","1","undefined","1","left","106","106","106","0","0","106","106","0","0","106","106","106","0","106","0","10/23/21 17:58:37","The main experiment item","yes","SternbergExperiment.osexp","C:\Users\katie\Documents\School\Quant Methods\Lab 3","no","mono","no","18","no","white","no","yes","768","legacy","94","11","C:/Users/katie/Documents/School/Quant Methods/Lab 3/KH-subject-4.csv","legacy","3 4 9 6 2 9","Lentiform Loewenfeld","3.3.9","5","y","0","left","right","right","left","NA","1210","103392","59908","1210","NA","2","legacy","6","1024","2","48000","-16","experiment","1","odd","2","848054","844779","845843","2214","241937","845847","831857","2226","182029","850057","846850","851268","105620","850057","NA","Sternberg task","77","117694","107","yes","1024"
"72.2222222222","72.2222222222","1099.52777778","1099.52777778","black","experiment","legacy","legacy","legacy","0","uniform","1","undefined","1","left","107","107","107","0","0","107","107","0","0","107","107","107","0","107","0","10/23/21 17:58:37","The main experiment item","yes","SternbergExperiment.osexp","C:\Users\katie\Documents\School\Quant Methods\Lab 3","no","mono","no","18","no","white","no","yes","768","legacy","95","11","C:/Users/katie/Documents/School/Quant Methods/Lab 3/KH-subject-4.csv","legacy","9 4 2","Lentiform Loewenfeld","3.3.9","1","y","0","left","right","right","left","NA","1055","103392","59908","1055","NA","2","legacy","3","1024","2","48000","-16","experiment","1","odd","9","854569","851281","852361","2214","241937","852363","831857","2226","182029","856572","853366","857628","105620","856572","NA","Sternberg task","78","118749","108","yes","1024"
"72.4770642202","72.4770642202","1098.41284404","1098.41284404","black","experiment","legacy","legacy","legacy","0","uniform","1","undefined","1","left","108","108","108","0","0","108","108","0","0","108","108","108","0","108","0","10/23/21 17:58:37","The main experiment item","yes","SternbergExperiment.osexp","C:\Users\katie\Documents\School\Quant Methods\Lab 3","no","mono","no","18","no","white","no","yes","768","legacy","96","11","C:/Users/katie/Documents/School/Quant Methods/Lab 3/KH-subject-4.csv","legacy","8 9 5 6 7","Lentiform Loewenfeld","3.3.9","1","y","0","left","right","right","left","NA","978","103392","59908","978","NA","2","legacy","5","1024","2","48000","-16","experiment","1","odd","8","860950","857643","858742","2214","241937","858745","831857","2226","182029","862954","859747","863934","105620","862953","NA","Sternberg task","79","119727","109","yes","1024"
"72.7272727273","72.7272727273","1100.44545455","1100.44545455","black","experiment","legacy","legacy","legacy","0","uniform","1","undefined","1","left","109","109","109","0","0","109","109","0","0","109","109","109","0","109","0","10/23/21 17:58:37","The main experiment item","yes","SternbergExperiment.osexp","C:\Users\katie\Documents\School\Quant Methods\Lab 3","no","mono","no","18","no","white","no","yes","768","legacy","97","11","C:/Users/katie/Documents/School/Quant Methods/Lab 3/KH-subject-4.csv","legacy","3 9 7 6 4","Lentiform Loewenfeld","3.3.9","3","y","0","left","right","right","left","NA","1322","103392","59908","1322","NA","2","legacy","5","1024","2","48000","-16","experiment","1","odd","7","867232","863944","865023","2214","241937","865026","831857","2226","182029","869236","866029","870559","105620","869236","NA","Sternberg task","80","121049","110","yes","1024"
"72.972972973","72.972972973","1099.13513514","1099.13513514","black","experiment","legacy","legacy","legacy","0","uniform","1","undefined","1","right","110","110","110","0","0","110","110","0","0","110","110","110","0","110","0","10/23/21 17:58:37","The main experiment item","yes","SternbergExperiment.osexp","C:\Users\katie\Documents\School\Quant Methods\Lab 3","no","mono","no","18","no","white","no","yes","768","legacy","98","11","C:/Users/katie/Documents/School/Quant Methods/Lab 3/KH-subject-4.csv","legacy","8 4 3 5","Lentiform Loewenfeld","3.3.9","0","n","0","right","right","right","right","NA","955","103392","59908","955","NA","2","legacy","4","1024","2","48000","-16","experiment","1","odd","6","873861","870573","871652","2214","241937","871654","831857","2226","182029","875863","872657","876819","105620","875863","NA","Sternberg task","81","122004","111","yes","1024"
"73.2142857143","73.2142857143","1097.17857143","1097.17857143","black","experiment","legacy","legacy","legacy","0","uniform","1","undefined","1","left","111","111","111","0","0","111","111","0","0","111","111","111","0","111","0","10/23/21 17:58:37","The main experiment item","yes","SternbergExperiment.osexp","C:\Users\katie\Documents\School\Quant Methods\Lab 3","no","mono","no","18","no","white","no","yes","768","legacy","99","11","C:/Users/katie/Documents/School/Quant Methods/Lab 3/KH-subject-4.csv","legacy","2 3","Lentiform Loewenfeld","3.3.9","1","y","0","left","right","right","left","NA","880","103392","59908","880","NA","2","legacy","2","1024","2","48000","-16","experiment","1","odd","2","880123","876832","877914","2214","241937","877916","831857","2226","182029","882127","878919","883009","105620","882126","NA","Sternberg task","82","122884","112","yes","1024"
"73.4513274336","73.4513274336","1097.0619469","1097.0619469","black","experiment","legacy","legacy","legacy","0","uniform","1","undefined","1","right","112","112","112","0","0","112","112","0","0","112","112","112","0","112","0","10/23/21 17:58:37","The main experiment item","yes","SternbergExperiment.osexp","C:\Users\katie\Documents\School\Quant Methods\Lab 3","no","mono","no","18","no","white","no","yes","768","legacy","100","11","C:/Users/katie/Documents/School/Quant Methods/Lab 3/KH-subject-4.csv","legacy","2 6 4 3 9","Lentiform Loewenfeld","3.3.9","0","n","0","right","right","right","right","NA","1084","103392","59908","1084","NA","2","legacy","5","1024","2","48000","-16","experiment","1","odd","1","886311","883022","884102","2214","241937","884105","831857","2226","182029","888314","885108","889400","105620","888314","NA","Sternberg task","83","123968","113","yes","1024"
