acc,accuracy,average_response_time,avg_rt,background,block,canvas_backend,clock_backend,color_backend,compensation,coordinates,correct,correct_instruction1,correct_keyboard_response,correct_response,count_ISI,count_correctFeedback,count_expSequence,count_experiment,count_experimentLoop,count_fixation,count_incorrectFeedback,count_instruction1,count_instructions2,count_keyboard_response,count_logger,count_memorySet,count_practiceLoop,count_probe,count_thankYou,datetime,description,disable_garbage_collection,experiment_file,experiment_path,font_bold,font_family,font_italic,font_size,font_underline,foreground,form_clicks,fullscreen,height,keyboard_backend,live_row,live_row_practiceLoop,logfile,mouse_backend,numberSet,opensesame_codename,opensesame_version,posInSet,present,repeat_cycle,response,response_instruction1,response_instructions2,response_keyboard_response,response_thankYou,response_time,response_time_instruction1,response_time_instructions2,response_time_keyboard_response,response_time_thankYou,round_decimals,sampler_backend,setSize,sound_buf_size,sound_channels,sound_freq,sound_sample_size,start,subject_nr,subject_parity,target,time_ISI,time_correctFeedback,time_expSequence,time_experiment,time_experimentLoop,time_fixation,time_incorrectFeedback,time_instruction1,time_instructions2,time_keyboard_response,time_logger,time_memorySet,time_practiceLoop,time_probe,time_thankYou,title,total_correct,total_response_time,total_responses,uniform_coordinates,width
100,100,1238,1238,black,practice,legacy,legacy,legacy,0,uniform,1,undefined,1,right,0,0,0,0,0,0,0,0,0,0,0,0,0,0,0,10/23/19 15:20,The main experiment item,yes,Sternbergtask SL.osexp,C:/Users/Sarah Linan/Desktop,no,mono,no,18,no,white,no,yes,768,legacy,0,0,C:/Users/Sarah Linan/Desktop/subject-S1.csv,legacy,2 1,Kafkaesque Koffka,3.2.8,0,n,0,right,right,NA,right,NA,1238,66882,NA,1238,NA,2,legacy,2,1024,2,48000,-16,experiment,1,odd,5,72343,NA,70136,2357,NA,70139,NA,2364,NA,74348,75586,71141,69247,74348,NA,Sternberg task,1,1238,1,yes,1024
100,100,1256.5,1256.5,black,practice,legacy,legacy,legacy,0,uniform,1,undefined,1,left,1,1,1,0,0,1,1,0,0,1,1,1,0,1,0,10/23/19 15:20,The main experiment item,yes,Sternbergtask SL.osexp,C:/Users/Sarah Linan/Desktop,no,mono,no,18,no,white,no,yes,768,legacy,1,1,C:/Users/Sarah Linan/Desktop/subject-S1.csv,legacy,4 8,Kafkaesque Koffka,3.2.8,1,y,0,left,right,NA,left,NA,1275,66882,NA,1275,NA,2,legacy,2,1024,2,48000,-16,experiment,1,odd,4,79068,75703,76862,2357,NA,76865,NA,2364,NA,81070,82345,77867,69247,81070,NA,Sternberg task,2,2513,2,yes,1024
66.66666667,66.66666667,1240.666667,1240.666667,black,practice,legacy,legacy,legacy,0,uniform,0,undefined,0,left,2,2,2,0,0,2,2,0,0,2,2,2,0,2,0,10/23/19 15:20,The main experiment item,yes,Sternbergtask SL.osexp,C:/Users/Sarah Linan/Desktop,no,mono,no,18,no,white,no,yes,768,legacy,2,2,C:/Users/Sarah Linan/Desktop/subject-S1.csv,legacy,1 5 2 9,Kafkaesque Koffka,3.2.8,2,y,0,right,right,NA,right,NA,1209,66882,NA,1209,NA,2,legacy,4,1024,2,48000,-16,experiment,1,odd,5,85878,82484,83671,2357,NA,83674,NA,2364,NA,87881,89091,84676,69247,87881,NA,Sternberg task,2,3722,3,yes,1024
75,75,1336.25,1336.25,black,practice,legacy,legacy,legacy,0,uniform,1,undefined,1,right,3,3,3,0,0,3,3,0,0,3,3,3,0,3,0,10/23/19 15:20,The main experiment item,yes,Sternbergtask SL.osexp,C:/Users/Sarah Linan/Desktop,no,mono,no,18,no,white,no,yes,768,legacy,3,3,C:/Users/Sarah Linan/Desktop/subject-S1.csv,legacy,9 6 7 4 5,Kafkaesque Koffka,3.2.8,0,n,0,right,right,NA,right,NA,1623,66882,NA,1623,NA,2,legacy,5,1024,2,48000,-16,experiment,1,odd,3,92500,82484,90293,2357,NA,90296,89130,2364,NA,94503,96126,91298,69247,94503,NA,Sternberg task,3,5345,4,yes,1024
80,80,1174,1174,black,practice,legacy,legacy,legacy,0,uniform,1,undefined,1,left,4,4,4,0,0,4,4,0,0,4,4,4,0,4,0,10/23/19 15:20,The main experiment item,yes,Sternbergtask SL.osexp,C:/Users/Sarah Linan/Desktop,no,mono,no,18,no,white,no,yes,768,legacy,4,4,C:/Users/Sarah Linan/Desktop/subject-S1.csv,legacy,4 3 1 7 9 8,Kafkaesque Koffka,3.2.8,1,y,0,left,right,NA,left,NA,525,66882,NA,525,NA,2,legacy,6,1024,2,48000,-16,experiment,1,odd,4,99556,96174,97349,2357,NA,97352,89130,2364,NA,101559,102085,98354,69247,101558,NA,Sternberg task,4,5870,5,yes,1024
66.66666667,66.66666667,1160.833333,1160.833333,black,practice,legacy,legacy,legacy,0,uniform,0,undefined,0,left,5,5,5,0,0,5,5,0,0,5,5,5,0,5,0,10/23/19 15:20,The main experiment item,yes,Sternbergtask SL.osexp,C:/Users/Sarah Linan/Desktop,no,mono,no,18,no,white,no,yes,768,legacy,5,5,C:/Users/Sarah Linan/Desktop/subject-S1.csv,legacy,6,Kafkaesque Koffka,3.2.8,1,y,0,right,right,NA,right,NA,1095,66882,NA,1095,NA,2,legacy,1,1024,2,48000,-16,experiment,1,odd,6,105547,102172,103337,2357,NA,103339,89130,2364,NA,107548,108644,104345,69247,107548,NA,Sternberg task,4,6965,6,yes,1024
71.42857143,71.42857143,1117.428571,1117.428571,black,practice,legacy,legacy,legacy,0,uniform,1,undefined,1,left,6,6,6,0,0,6,6,0,0,6,6,6,0,6,0,10/23/19 15:20,The main experiment item,yes,Sternbergtask SL.osexp,C:/Users/Sarah Linan/Desktop,no,mono,no,18,no,white,no,yes,768,legacy,6,6,C:/Users/Sarah Linan/Desktop/subject-S1.csv,legacy,2 9 4,Kafkaesque Koffka,3.2.8,3,y,0,left,right,NA,left,NA,857,66882,NA,857,NA,2,legacy,3,1024,2,48000,-16,experiment,1,odd,4,112099,102172,109889,2357,NA,109892,108731,2364,NA,114103,114960,110894,69247,114103,NA,Sternberg task,5,7822,7,yes,1024
75,75,1181.375,1181.375,black,practice,legacy,legacy,legacy,0,uniform,1,undefined,1,right,7,7,7,0,0,7,7,0,0,7,7,7,0,7,0,10/23/19 15:20,The main experiment item,yes,Sternbergtask SL.osexp,C:/Users/Sarah Linan/Desktop,no,mono,no,18,no,white,no,yes,768,legacy,7,7,C:/Users/Sarah Linan/Desktop/subject-S1.csv,legacy,5 7 8 4 1 2,Kafkaesque Koffka,3.2.8,0,n,0,right,right,NA,right,NA,1629,66882,NA,1629,NA,2,legacy,6,1024,2,48000,-16,experiment,1,odd,6,118418,115036,116208,2357,NA,116211,108731,2364,NA,120419,122048,117216,69247,120419,NA,Sternberg task,6,9451,8,yes,1024
77.77777778,77.77777778,1177.111111,1177.111111,black,practice,legacy,legacy,legacy,0,uniform,1,undefined,1,right,8,8,8,0,0,8,8,0,0,8,8,8,0,8,0,10/23/19 15:20,The main experiment item,yes,Sternbergtask SL.osexp,C:/Users/Sarah Linan/Desktop,no,mono,no,18,no,white,no,yes,768,legacy,8,8,C:/Users/Sarah Linan/Desktop/subject-S1.csv,legacy,3 1 9 4,Kafkaesque Koffka,3.2.8,0,n,0,right,right,NA,right,NA,1143,66882,NA,1143,NA,2,legacy,4,1024,2,48000,-16,experiment,1,odd,6,125443,122078,123233,2357,NA,123236,108731,2364,NA,127445,128589,124240,69247,127445,NA,Sternberg task,7,10594,9,yes,1024
80,80,1206.3,1206.3,black,practice,legacy,legacy,legacy,0,uniform,1,undefined,1,left,9,9,9,0,0,9,9,0,0,9,9,9,0,9,0,10/23/19 15:20,The main experiment item,yes,Sternbergtask SL.osexp,C:/Users/Sarah Linan/Desktop,no,mono,no,18,no,white,no,yes,768,legacy,9,9,C:/Users/Sarah Linan/Desktop/subject-S1.csv,legacy,1 7 9 8 5,Kafkaesque Koffka,3.2.8,4,y,0,left,right,NA,left,NA,1469,66882,NA,1469,NA,2,legacy,5,1024,2,48000,-16,experiment,1,odd,8,132105,128724,129897,2357,NA,129900,108731,2364,NA,134107,135576,130903,69247,134107,NA,Sternberg task,8,12063,10,yes,1024
81.81818182,81.81818182,1187.727273,1187.727273,black,practice,legacy,legacy,legacy,0,uniform,1,undefined,1,right,10,10,10,0,0,10,10,0,0,10,10,10,0,10,0,10/23/19 15:20,The main experiment item,yes,Sternbergtask SL.osexp,C:/Users/Sarah Linan/Desktop,no,mono,no,18,no,white,no,yes,768,legacy,10,10,C:/Users/Sarah Linan/Desktop/subject-S1.csv,legacy,4 1 5,Kafkaesque Koffka,3.2.8,0,n,0,right,right,NA,right,NA,1002,66882,NA,1002,NA,2,legacy,3,1024,2,48000,-16,experiment,1,odd,2,139004,135618,136794,2357,NA,136796,108731,2364,NA,141007,142009,137798,69247,141006,NA,Sternberg task,9,13065,11,yes,1024
75,75,1255.416667,1255.416667,black,practice,legacy,legacy,legacy,0,uniform,0,undefined,0,right,11,11,11,0,0,11,11,0,0,11,11,11,0,11,0,10/23/19 15:20,The main experiment item,yes,Sternbergtask SL.osexp,C:/Users/Sarah Linan/Desktop,no,mono,no,18,no,white,no,yes,768,legacy,11,11,C:/Users/Sarah Linan/Desktop/subject-S1.csv,legacy,5,Kafkaesque Koffka,3.2.8,0,n,0,None,right,NA,None,NA,2000,66882,NA,2000,NA,2,legacy,1,1024,2,48000,-16,experiment,1,odd,3,145472,142106,143264,2357,NA,143267,108731,2364,NA,147475,149475,144269,69247,147474,NA,Sternberg task,9,15065,12,yes,1024
76.92307692,76.92307692,1276.153846,1276.153846,black,experiment,legacy,legacy,legacy,0,uniform,1,undefined,1,left,12,12,12,0,0,12,12,0,0,12,12,12,0,12,0,10/23/19 15:20,The main experiment item,yes,Sternbergtask SL.osexp,C:/Users/Sarah Linan/Desktop,no,mono,no,18,no,white,no,yes,768,legacy,0,11,C:/Users/Sarah Linan/Desktop/subject-S1.csv,legacy,6 7 9 3 1 2,Kafkaesque Koffka,3.2.8,1,y,0,left,right,left,left,NA,1525,66882,8189,1525,NA,2,legacy,6,1024,2,48000,-16,experiment,1,odd,6,161160,142106,158953,2357,158722,158956,149510,2364,150532,163163,164688,159958,69247,163163,NA,Sternberg task,10,16590,13,yes,1024
78.57142857,78.57142857,1259.642857,1259.642857,black,experiment,legacy,legacy,legacy,0,uniform,1,undefined,1,right,13,13,13,0,0,13,13,0,0,13,13,13,0,13,0,10/23/19 15:20,The main experiment item,yes,Sternbergtask SL.osexp,C:/Users/Sarah Linan/Desktop,no,mono,no,18,no,white,no,yes,768,legacy,1,11,C:/Users/Sarah Linan/Desktop/subject-S1.csv,legacy,6 9 7 3 8 2,Kafkaesque Koffka,3.2.8,0,n,0,right,right,left,right,NA,1045,66882,8189,1045,NA,2,legacy,6,1024,2,48000,-16,experiment,1,odd,5,168098,164722,165891,2357,158722,165894,149510,2364,150532,170100,171146,166896,69247,170100,NA,Sternberg task,11,17635,14,yes,1024
80,80,1259.666667,1259.666667,black,experiment,legacy,legacy,legacy,0,uniform,1,undefined,1,left,14,14,14,0,0,14,14,0,0,14,14,14,0,14,0,10/23/19 15:20,The main experiment item,yes,Sternbergtask SL.osexp,C:/Users/Sarah Linan/Desktop,no,mono,no,18,no,white,no,yes,768,legacy,2,11,C:/Users/Sarah Linan/Desktop/subject-S1.csv,legacy,9 5 8 1,Kafkaesque Koffka,3.2.8,2,y,0,left,right,left,left,NA,1260,66882,8189,1260,NA,2,legacy,4,1024,2,48000,-16,experiment,1,odd,5,174535,171178,172325,2357,158722,172328,149510,2364,150532,176537,177798,173333,69247,176537,NA,Sternberg task,12,18895,15,yes,1024
75,75,1296.375,1296.375,black,experiment,legacy,legacy,legacy,0,uniform,0,undefined,0,right,15,15,15,0,0,15,15,0,0,15,15,15,0,15,0,10/23/19 15:20,The main experiment item,yes,Sternbergtask SL.osexp,C:/Users/Sarah Linan/Desktop,no,mono,no,18,no,white,no,yes,768,legacy,3,11,C:/Users/Sarah Linan/Desktop/subject-S1.csv,legacy,7 6 4 8 1 2,Kafkaesque Koffka,3.2.8,0,n,0,left,right,left,left,NA,1847,66882,8189,1847,NA,2,legacy,6,1024,2,48000,-16,experiment,1,odd,9,181279,177919,179072,2357,158722,179075,149510,2364,150532,183282,185130,180077,69247,183282,NA,Sternberg task,12,20742,16,yes,1024
70.58823529,70.58823529,1297.352941,1297.352941,black,experiment,legacy,legacy,legacy,0,uniform,0,undefined,0,right,16,16,16,0,0,16,16,0,0,16,16,16,0,16,0,10/23/19 15:20,The main experiment item,yes,Sternbergtask SL.osexp,C:/Users/Sarah Linan/Desktop,no,mono,no,18,no,white,no,yes,768,legacy,4,11,C:/Users/Sarah Linan/Desktop/subject-S1.csv,legacy,7 8 6 1,Kafkaesque Koffka,3.2.8,0,n,0,left,right,left,left,NA,1313,66882,8189,1313,NA,2,legacy,4,1024,2,48000,-16,experiment,1,odd,3,188604,177919,186398,2357,158722,186400,185216,2364,150532,190606,191919,187402,69247,190606,NA,Sternberg task,12,22055,17,yes,1024
72.22222222,72.22222222,1294.277778,1294.277778,black,experiment,legacy,legacy,legacy,0,uniform,1,undefined,1,right,17,17,17,0,0,17,17,0,0,17,17,17,0,17,0,10/23/19 15:20,The main experiment item,yes,Sternbergtask SL.osexp,C:/Users/Sarah Linan/Desktop,no,mono,no,18,no,white,no,yes,768,legacy,5,11,C:/Users/Sarah Linan/Desktop/subject-S1.csv,legacy,8 4 3 5,Kafkaesque Koffka,3.2.8,0,n,0,right,right,left,right,NA,1242,66882,8189,1242,NA,2,legacy,4,1024,2,48000,-16,experiment,1,odd,6,195415,177919,193207,2357,158722,193209,192043,2364,150532,197417,198660,194213,69247,197417,NA,Sternberg task,13,23297,18,yes,1024
68.42105263,68.42105263,1331.421053,1331.421053,black,experiment,legacy,legacy,legacy,0,uniform,0,undefined,0,right,18,18,18,0,0,18,18,0,0,18,18,18,0,18,0,10/23/19 15:20,The main experiment item,yes,Sternbergtask SL.osexp,C:/Users/Sarah Linan/Desktop,no,mono,no,18,no,white,no,yes,768,legacy,6,11,C:/Users/Sarah Linan/Desktop/subject-S1.csv,legacy,9,Kafkaesque Koffka,3.2.8,0,n,0,None,right,left,None,NA,2000,66882,8189,2000,NA,2,legacy,1,1024,2,48000,-16,experiment,1,odd,6,202060,198704,199852,2357,158722,199855,192043,2364,150532,204062,206063,200857,69247,204062,NA,Sternberg task,13,25297,19,yes,1024
65,65,1364.85,1364.85,black,experiment,legacy,legacy,legacy,0,uniform,0,undefined,0,right,19,19,19,0,0,19,19,0,0,19,19,19,0,19,0,10/23/19 15:20,The main experiment item,yes,Sternbergtask SL.osexp,C:/Users/Sarah Linan/Desktop,no,mono,no,18,no,white,no,yes,768,legacy,7,11,C:/Users/Sarah Linan/Desktop/subject-S1.csv,legacy,8 5 4 2 9 6,Kafkaesque Koffka,3.2.8,0,n,0,None,right,left,None,NA,2000,66882,8189,2000,NA,2,legacy,6,1024,2,48000,-16,experiment,1,odd,3,209596,198704,207388,2357,158722,207391,206221,2364,150532,211598,213598,208394,69247,211598,NA,Sternberg task,13,27297,20,yes,1024
66.66666667,66.66666667,1342.952381,1342.952381,black,experiment,legacy,legacy,legacy,0,uniform,1,undefined,1,left,20,20,20,0,0,20,20,0,0,20,20,20,0,20,0,10/23/19 15:20,The main experiment item,yes,Sternbergtask SL.osexp,C:/Users/Sarah Linan/Desktop,no,mono,no,18,no,white,no,yes,768,legacy,8,11,C:/Users/Sarah Linan/Desktop/subject-S1.csv,legacy,2 4 8 5 1 3,Kafkaesque Koffka,3.2.8,1,y,0,left,right,left,left,NA,905,66882,8189,905,NA,2,legacy,6,1024,2,48000,-16,experiment,1,odd,2,217033,198704,214826,2357,158722,214829,213671,2364,150532,219035,219941,215831,69247,219035,NA,Sternberg task,14,28202,21,yes,1024
63.63636364,63.63636364,1336,1336,black,experiment,legacy,legacy,legacy,0,uniform,0,undefined,0,left,21,21,21,0,0,21,21,0,0,21,21,21,0,21,0,10/23/19 15:20,The main experiment item,yes,Sternbergtask SL.osexp,C:/Users/Sarah Linan/Desktop,no,mono,no,18,no,white,no,yes,768,legacy,9,11,C:/Users/Sarah Linan/Desktop/subject-S1.csv,legacy,4 9 7 8 5 3,Kafkaesque Koffka,3.2.8,4,y,0,right,right,left,right,NA,1190,66882,8189,1190,NA,2,legacy,6,1024,2,48000,-16,experiment,1,odd,8,223347,219973,221139,2357,158722,221142,213671,2364,150532,225349,226540,222144,69247,225349,NA,Sternberg task,14,29392,22,yes,1024
65.2173913,65.2173913,1330.782609,1330.782609,black,experiment,legacy,legacy,legacy,0,uniform,1,undefined,1,right,22,22,22,0,0,22,22,0,0,22,22,22,0,22,0,10/23/19 15:20,The main experiment item,yes,Sternbergtask SL.osexp,C:/Users/Sarah Linan/Desktop,no,mono,no,18,no,white,no,yes,768,legacy,10,11,C:/Users/Sarah Linan/Desktop/subject-S1.csv,legacy,9 7 4 5 8,Kafkaesque Koffka,3.2.8,0,n,0,right,right,left,right,NA,1216,66882,8189,1216,NA,2,legacy,5,1024,2,48000,-16,experiment,1,odd,6,229942,219973,227734,2357,158722,227738,226585,2364,150532,231944,233161,228740,69247,231944,NA,Sternberg task,15,30608,23,yes,1024
66.66666667,66.66666667,1312.291667,1312.291667,black,experiment,legacy,legacy,legacy,0,uniform,1,undefined,1,right,23,23,23,0,0,23,23,0,0,23,23,23,0,23,0,10/23/19 15:20,The main experiment item,yes,Sternbergtask SL.osexp,C:/Users/Sarah Linan/Desktop,no,mono,no,18,no,white,no,yes,768,legacy,11,11,C:/Users/Sarah Linan/Desktop/subject-S1.csv,legacy,1 7 5 2,Kafkaesque Koffka,3.2.8,0,n,0,right,right,left,right,NA,887,66882,8189,887,NA,2,legacy,4,1024,2,48000,-16,experiment,1,odd,3,236580,233199,234370,2357,158722,234374,226585,2364,150532,238583,239470,235376,69247,238583,NA,Sternberg task,16,31495,24,yes,1024
68,68,1307.36,1307.36,black,experiment,legacy,legacy,legacy,0,uniform,1,undefined,1,left,24,24,24,0,0,24,24,0,0,24,24,24,0,24,0,10/23/19 15:20,The main experiment item,yes,Sternbergtask SL.osexp,C:/Users/Sarah Linan/Desktop,no,mono,no,18,no,white,no,yes,768,legacy,12,11,C:/Users/Sarah Linan/Desktop/subject-S1.csv,legacy,8,Kafkaesque Koffka,3.2.8,1,y,0,left,right,left,left,NA,1189,66882,8189,1189,NA,2,legacy,1,1024,2,48000,-16,experiment,1,odd,8,242873,239502,240665,2357,158722,240667,226585,2364,150532,244876,246066,241670,69247,244876,NA,Sternberg task,17,32684,25,yes,1024
69.23076923,69.23076923,1299.884615,1299.884615,black,experiment,legacy,legacy,legacy,0,uniform,1,undefined,1,right,25,25,25,0,0,25,25,0,0,25,25,25,0,25,0,10/23/19 15:20,The main experiment item,yes,Sternbergtask SL.osexp,C:/Users/Sarah Linan/Desktop,no,mono,no,18,no,white,no,yes,768,legacy,13,11,C:/Users/Sarah Linan/Desktop/subject-S1.csv,legacy,1 7 8 3 9,Kafkaesque Koffka,3.2.8,0,n,0,right,right,left,right,NA,1113,66882,8189,1113,NA,2,legacy,5,1024,2,48000,-16,experiment,1,odd,2,249555,246183,247347,2357,158722,247349,226585,2364,150532,251557,252671,248352,69247,251557,NA,Sternberg task,18,33797,26,yes,1024
66.66666667,66.66666667,1325.814815,1325.814815,black,experiment,legacy,legacy,legacy,0,uniform,0,undefined,0,right,26,26,26,0,0,26,26,0,0,26,26,26,0,26,0,10/23/19 15:20,The main experiment item,yes,Sternbergtask SL.osexp,C:/Users/Sarah Linan/Desktop,no,mono,no,18,no,white,no,yes,768,legacy,14,11,C:/Users/Sarah Linan/Desktop/subject-S1.csv,legacy,4 1,Kafkaesque Koffka,3.2.8,0,n,0,None,right,left,None,NA,2000,66882,8189,2000,NA,2,legacy,2,1024,2,48000,-16,experiment,1,odd,6,256118,252745,253911,2357,158722,253913,226585,2364,150532,258120,260120,254915,69247,258120,NA,Sternberg task,18,35797,27,yes,1024
67.85714286,67.85714286,1320.642857,1320.642857,black,experiment,legacy,legacy,legacy,0,uniform,1,undefined,1,right,27,27,27,0,0,27,27,0,0,27,27,27,0,27,0,10/23/19 15:20,The main experiment item,yes,Sternbergtask SL.osexp,C:/Users/Sarah Linan/Desktop,no,mono,no,18,no,white,no,yes,768,legacy,15,11,C:/Users/Sarah Linan/Desktop/subject-S1.csv,legacy,3 9 8 1 6 4,Kafkaesque Koffka,3.2.8,0,n,0,right,right,left,right,NA,1181,66882,8189,1181,NA,2,legacy,6,1024,2,48000,-16,experiment,1,odd,7,263614,252745,261404,2357,158722,261406,260241,2364,150532,265617,266798,262410,69247,265617,NA,Sternberg task,19,36978,28,yes,1024
68.96551724,68.96551724,1301,1301,black,experiment,legacy,legacy,legacy,0,uniform,1,undefined,1,left,28,28,28,0,0,28,28,0,0,28,28,28,0,28,0,10/23/19 15:20,The main experiment item,yes,Sternbergtask SL.osexp,C:/Users/Sarah Linan/Desktop,no,mono,no,18,no,white,no,yes,768,legacy,16,11,C:/Users/Sarah Linan/Desktop/subject-S1.csv,legacy,9 1 7 2,Kafkaesque Koffka,3.2.8,2,y,0,left,right,left,left,NA,751,66882,8189,751,NA,2,legacy,4,1024,2,48000,-16,experiment,1,odd,1,270221,266860,268014,2357,158722,268016,260241,2364,150532,272224,272976,269018,69247,272224,NA,Sternberg task,20,37729,29,yes,1024
70,70,1298.333333,1298.333333,black,experiment,legacy,legacy,legacy,0,uniform,1,undefined,1,right,29,29,29,0,0,29,29,0,0,29,29,29,0,29,0,10/23/19 15:20,The main experiment item,yes,Sternbergtask SL.osexp,C:/Users/Sarah Linan/Desktop,no,mono,no,18,no,white,no,yes,768,legacy,17,11,C:/Users/Sarah Linan/Desktop/subject-S1.csv,legacy,1 3 2 6 9,Kafkaesque Koffka,3.2.8,0,n,0,right,right,left,right,NA,1221,66882,8189,1221,NA,2,legacy,5,1024,2,48000,-16,experiment,1,odd,5,276424,273037,274215,2357,158722,274218,260241,2364,150532,278426,279648,275222,69247,278426,NA,Sternberg task,21,38950,30,yes,1024
70.96774194,70.96774194,1289.645161,1289.645161,black,experiment,legacy,legacy,legacy,0,uniform,1,undefined,1,left,30,30,30,0,0,30,30,0,0,30,30,30,0,30,0,10/23/19 15:20,The main experiment item,yes,Sternbergtask SL.osexp,C:/Users/Sarah Linan/Desktop,no,mono,no,18,no,white,no,yes,768,legacy,18,11,C:/Users/Sarah Linan/Desktop/subject-S1.csv,legacy,6 7 8 5,Kafkaesque Koffka,3.2.8,3,y,0,left,right,left,left,NA,1029,66882,8189,1029,NA,2,legacy,4,1024,2,48000,-16,experiment,1,odd,8,283037,279682,280829,2357,158722,280832,260241,2364,150532,285039,286068,281835,69247,285039,NA,Sternberg task,22,39979,31,yes,1024
71.875,71.875,1279.28125,1279.28125,black,experiment,legacy,legacy,legacy,0,uniform,1,undefined,1,left,31,31,31,0,0,31,31,0,0,31,31,31,0,31,0,10/23/19 15:20,The main experiment item,yes,Sternbergtask SL.osexp,C:/Users/Sarah Linan/Desktop,no,mono,no,18,no,white,no,yes,768,legacy,19,11,C:/Users/Sarah Linan/Desktop/subject-S1.csv,legacy,9 4 2,Kafkaesque Koffka,3.2.8,1,y,0,left,right,left,left,NA,958,66882,8189,958,NA,2,legacy,3,1024,2,48000,-16,experiment,1,odd,9,289489,286102,287282,2357,158722,287284,260241,2364,150532,291491,292450,288286,69247,291491,NA,Sternberg task,23,40937,32,yes,1024
72.72727273,72.72727273,1270.575758,1270.575758,black,experiment,legacy,legacy,legacy,0,uniform,1,undefined,1,right,32,32,32,0,0,32,32,0,0,32,32,32,0,32,0,10/23/19 15:20,The main experiment item,yes,Sternbergtask SL.osexp,C:/Users/Sarah Linan/Desktop,no,mono,no,18,no,white,no,yes,768,legacy,20,11,C:/Users/Sarah Linan/Desktop/subject-S1.csv,legacy,1 6 4,Kafkaesque Koffka,3.2.8,0,n,0,right,right,left,right,NA,992,66882,8189,992,NA,2,legacy,3,1024,2,48000,-16,experiment,1,odd,7,295897,292537,293691,2357,158722,293693,260241,2364,150532,297902,298896,294695,69247,297902,NA,Sternberg task,24,41929,33,yes,1024
73.52941176,73.52941176,1272.529412,1272.529412,black,experiment,legacy,legacy,legacy,0,uniform,1,undefined,1,right,33,33,33,0,0,33,33,0,0,33,33,33,0,33,0,10/23/19 15:20,The main experiment item,yes,Sternbergtask SL.osexp,C:/Users/Sarah Linan/Desktop,no,mono,no,18,no,white,no,yes,768,legacy,21,11,C:/Users/Sarah Linan/Desktop/subject-S1.csv,legacy,8 5 7 3 6,Kafkaesque Koffka,3.2.8,0,n,0,right,right,left,right,NA,1337,66882,8189,1337,NA,2,legacy,5,1024,2,48000,-16,experiment,1,odd,9,302360,298986,300151,2357,158722,300153,260241,2364,150532,304361,305698,301156,69247,304361,NA,Sternberg task,25,43266,34,yes,1024
71.42857143,71.42857143,1288.485714,1288.485714,black,experiment,legacy,legacy,legacy,0,uniform,0,undefined,0,left,34,34,34,0,0,34,34,0,0,34,34,34,0,34,0,10/23/19 15:20,The main experiment item,yes,Sternbergtask SL.osexp,C:/Users/Sarah Linan/Desktop,no,mono,no,18,no,white,no,yes,768,legacy,22,11,C:/Users/Sarah Linan/Desktop/subject-S1.csv,legacy,3 5 9 6 2 4,Kafkaesque Koffka,3.2.8,1,y,0,right,right,left,right,NA,1831,66882,8189,1831,NA,2,legacy,6,1024,2,48000,-16,experiment,1,odd,3,309163,305774,306953,2357,158722,306956,260241,2364,150532,311166,312997,307959,69247,311166,NA,Sternberg task,25,45097,35,yes,1024
69.44444444,69.44444444,1308.25,1308.25,black,experiment,legacy,legacy,legacy,0,uniform,0,undefined,0,left,35,35,35,0,0,35,35,0,0,35,35,35,0,35,0,10/23/19 15:20,The main experiment item,yes,Sternbergtask SL.osexp,C:/Users/Sarah Linan/Desktop,no,mono,no,18,no,white,no,yes,768,legacy,23,11,C:/Users/Sarah Linan/Desktop/subject-S1.csv,legacy,3 9 7 6 4,Kafkaesque Koffka,3.2.8,3,y,0,None,right,left,None,NA,2000,66882,8189,2000,NA,2,legacy,5,1024,2,48000,-16,experiment,1,odd,7,316442,305774,314236,2357,158722,314238,313074,2364,150532,318444,320444,315240,69247,318444,NA,Sternberg task,25,47097,36,yes,1024
70.27027027,70.27027027,1298.378378,1298.378378,black,experiment,legacy,legacy,legacy,0,uniform,1,undefined,1,left,36,36,36,0,0,36,36,0,0,36,36,36,0,36,0,10/23/19 15:20,The main experiment item,yes,Sternbergtask SL.osexp,C:/Users/Sarah Linan/Desktop,no,mono,no,18,no,white,no,yes,768,legacy,24,11,C:/Users/Sarah Linan/Desktop/subject-S1.csv,legacy,4 6 5 8,Kafkaesque Koffka,3.2.8,1,y,0,left,right,left,left,NA,943,66882,8189,943,NA,2,legacy,4,1024,2,48000,-16,experiment,1,odd,4,323938,305774,321731,2357,158722,321733,320552,2364,150532,325941,326884,322735,69247,325941,NA,Sternberg task,26,48040,37,yes,1024
68.42105263,68.42105263,1283.105263,1283.105263,black,experiment,legacy,legacy,legacy,0,uniform,0,undefined,0,left,37,37,37,0,0,37,37,0,0,37,37,37,0,37,0,10/23/19 15:20,The main experiment item,yes,Sternbergtask SL.osexp,C:/Users/Sarah Linan/Desktop,no,mono,no,18,no,white,no,yes,768,legacy,25,11,C:/Users/Sarah Linan/Desktop/subject-S1.csv,legacy,9 3 1 2 5,Kafkaesque Koffka,3.2.8,4,y,0,right,right,left,right,NA,718,66882,8189,718,NA,2,legacy,5,1024,2,48000,-16,experiment,1,odd,2,330294,326905,328086,2357,158722,328089,320552,2364,150532,332297,333016,329092,69247,332297,NA,Sternberg task,26,48758,38,yes,1024
69.23076923,69.23076923,1273.666667,1273.666667,black,experiment,legacy,legacy,legacy,0,uniform,1,undefined,1,right,38,38,38,0,0,38,38,0,0,38,38,38,0,38,0,10/23/19 15:20,The main experiment item,yes,Sternbergtask SL.osexp,C:/Users/Sarah Linan/Desktop,no,mono,no,18,no,white,no,yes,768,legacy,26,11,C:/Users/Sarah Linan/Desktop/subject-S1.csv,legacy,9 8 2 7 4,Kafkaesque Koffka,3.2.8,0,n,0,right,right,left,right,NA,915,66882,8189,915,NA,2,legacy,5,1024,2,48000,-16,experiment,1,odd,5,336389,326905,334182,2357,158722,334185,333042,2364,150532,338392,339308,335187,69247,338392,NA,Sternberg task,27,49673,39,yes,1024
70,70,1263.325,1263.325,black,experiment,legacy,legacy,legacy,0,uniform,1,undefined,1,right,39,39,39,0,0,39,39,0,0,39,39,39,0,39,0,10/23/19 15:20,The main experiment item,yes,Sternbergtask SL.osexp,C:/Users/Sarah Linan/Desktop,no,mono,no,18,no,white,no,yes,768,legacy,27,11,C:/Users/Sarah Linan/Desktop/subject-S1.csv,legacy,4 8 1 2,Kafkaesque Koffka,3.2.8,0,n,0,right,right,left,right,NA,860,66882,8189,860,NA,2,legacy,4,1024,2,48000,-16,experiment,1,odd,7,342740,339389,340534,2357,158722,340536,333042,2364,150532,344743,345604,341538,69247,344743,NA,Sternberg task,28,50533,40,yes,1024
70.73170732,70.73170732,1263.365854,1263.365854,black,experiment,legacy,legacy,legacy,0,uniform,1,undefined,1,right,40,40,40,0,0,40,40,0,0,40,40,40,0,40,0,10/23/19 15:20,The main experiment item,yes,Sternbergtask SL.osexp,C:/Users/Sarah Linan/Desktop,no,mono,no,18,no,white,no,yes,768,legacy,28,11,C:/Users/Sarah Linan/Desktop/subject-S1.csv,legacy,2 8 9 4 1,Kafkaesque Koffka,3.2.8,0,n,0,right,right,left,right,NA,1265,66882,8189,1265,NA,2,legacy,5,1024,2,48000,-16,experiment,1,odd,5,349010,345635,346804,2357,158722,346806,333042,2364,150532,351013,352278,347808,69247,351012,NA,Sternberg task,29,51798,41,yes,1024
71.42857143,71.42857143,1268.690476,1268.690476,black,experiment,legacy,legacy,legacy,0,uniform,1,undefined,1,left,41,41,41,0,0,41,41,0,0,41,41,41,0,41,0,10/23/19 15:20,The main experiment item,yes,Sternbergtask SL.osexp,C:/Users/Sarah Linan/Desktop,no,mono,no,18,no,white,no,yes,768,legacy,29,11,C:/Users/Sarah Linan/Desktop/subject-S1.csv,legacy,5 7 8 2 3 8,Kafkaesque Koffka,3.2.8,5,y,0,left,right,left,left,NA,1487,66882,8189,1487,NA,2,legacy,6,1024,2,48000,-16,experiment,1,odd,3,355682,352316,353475,2357,158722,353478,333042,2364,150532,357684,359172,354480,69247,357684,NA,Sternberg task,30,53285,42,yes,1024
69.76744186,69.76744186,1266.209302,1266.209302,black,experiment,legacy,legacy,legacy,0,uniform,0,undefined,0,right,42,42,42,0,0,42,42,0,0,42,42,42,0,42,0,10/23/19 15:20,The main experiment item,yes,Sternbergtask SL.osexp,C:/Users/Sarah Linan/Desktop,no,mono,no,18,no,white,no,yes,768,legacy,30,11,C:/Users/Sarah Linan/Desktop/subject-S1.csv,legacy,1 6 4 3 9 7,Kafkaesque Koffka,3.2.8,0,n,0,left,right,left,left,NA,1162,66882,8189,1162,NA,2,legacy,6,1024,2,48000,-16,experiment,1,odd,8,362587,359217,360380,2357,158722,360382,333042,2364,150532,364589,365752,361384,69247,364589,NA,Sternberg task,30,54447,43,yes,1024
68.18181818,68.18181818,1282.886364,1282.886364,black,experiment,legacy,legacy,legacy,0,uniform,0,undefined,0,left,43,43,43,0,0,43,43,0,0,43,43,43,0,43,0,10/23/19 15:20,The main experiment item,yes,Sternbergtask SL.osexp,C:/Users/Sarah Linan/Desktop,no,mono,no,18,no,white,no,yes,768,legacy,31,11,C:/Users/Sarah Linan/Desktop/subject-S1.csv,legacy,8 9 6 1,Kafkaesque Koffka,3.2.8,2,y,0,None,right,left,None,NA,2000,66882,8189,2000,NA,2,legacy,4,1024,2,48000,-16,experiment,1,odd,9,369138,359217,366932,2357,158722,366934,365784,2364,150532,371141,373141,367936,69247,371140,NA,Sternberg task,30,56447,44,yes,1024
66.66666667,66.66666667,1277.533333,1277.533333,black,experiment,legacy,legacy,legacy,0,uniform,0,undefined,0,right,44,44,44,0,0,44,44,0,0,44,44,44,0,44,0,10/23/19 15:20,The main experiment item,yes,Sternbergtask SL.osexp,C:/Users/Sarah Linan/Desktop,no,mono,no,18,no,white,no,yes,768,legacy,32,11,C:/Users/Sarah Linan/Desktop/subject-S1.csv,legacy,7 4 2 8 1 9,Kafkaesque Koffka,3.2.8,0,n,0,left,right,left,left,NA,1042,66882,8189,1042,NA,2,legacy,6,1024,2,48000,-16,experiment,1,odd,5,376584,359217,374378,2357,158722,374380,373208,2364,150532,378586,379629,375382,69247,378586,NA,Sternberg task,30,57489,45,yes,1024
67.39130435,67.39130435,1277.195652,1277.195652,black,experiment,legacy,legacy,legacy,0,uniform,1,undefined,1,right,45,45,45,0,0,45,45,0,0,45,45,45,0,45,0,10/23/19 15:20,The main experiment item,yes,Sternbergtask SL.osexp,C:/Users/Sarah Linan/Desktop,no,mono,no,18,no,white,no,yes,768,legacy,33,11,C:/Users/Sarah Linan/Desktop/subject-S1.csv,legacy,2 8 6 3 1,Kafkaesque Koffka,3.2.8,0,n,0,right,right,left,right,NA,1262,66882,8189,1262,NA,2,legacy,5,1024,2,48000,-16,experiment,1,odd,7,383000,359217,380793,2357,158722,380796,379653,2364,150532,385002,386264,381798,69247,385002,NA,Sternberg task,31,58751,46,yes,1024
68.08510638,68.08510638,1277.787234,1277.787234,black,experiment,legacy,legacy,legacy,0,uniform,1,undefined,1,left,46,46,46,0,0,46,46,0,0,46,46,46,0,46,0,10/23/19 15:20,The main experiment item,yes,Sternbergtask SL.osexp,C:/Users/Sarah Linan/Desktop,no,mono,no,18,no,white,no,yes,768,legacy,34,11,C:/Users/Sarah Linan/Desktop/subject-S1.csv,legacy,9 5 3 8 4,Kafkaesque Koffka,3.2.8,1,y,0,left,right,left,left,NA,1305,66882,8189,1305,NA,2,legacy,5,1024,2,48000,-16,experiment,1,odd,9,389702,386334,387490,2357,158722,387492,379653,2364,150532,391706,393012,388497,69247,391706,NA,Sternberg task,32,60056,47,yes,1024
68.75,68.75,1270.729167,1270.729167,black,experiment,legacy,legacy,legacy,0,uniform,1,undefined,1,right,47,47,47,0,0,47,47,0,0,47,47,47,0,47,0,10/23/19 15:20,The main experiment item,yes,Sternbergtask SL.osexp,C:/Users/Sarah Linan/Desktop,no,mono,no,18,no,white,no,yes,768,legacy,35,11,C:/Users/Sarah Linan/Desktop/subject-S1.csv,legacy,2 6 4 3 9,Kafkaesque Koffka,3.2.8,0,n,0,right,right,left,right,NA,939,66882,8189,939,NA,2,legacy,5,1024,2,48000,-16,experiment,1,odd,1,396461,393092,394251,2357,158722,394253,379653,2364,150532,398467,399406,395257,69247,398466,NA,Sternberg task,33,60995,48,yes,1024
67.34693878,67.34693878,1277.673469,1277.673469,black,experiment,legacy,legacy,legacy,0,uniform,0,undefined,0,right,48,48,48,0,0,48,48,0,0,48,48,48,0,48,0,10/23/19 15:20,The main experiment item,yes,Sternbergtask SL.osexp,C:/Users/Sarah Linan/Desktop,no,mono,no,18,no,white,no,yes,768,legacy,36,11,C:/Users/Sarah Linan/Desktop/subject-S1.csv,legacy,4 2 7 6 1 3,Kafkaesque Koffka,3.2.8,0,n,0,left,right,left,left,NA,1611,66882,8189,1611,NA,2,legacy,6,1024,2,48000,-16,experiment,1,odd,8,402862,399494,400650,2357,158722,400653,379653,2364,150532,404865,406477,401658,69247,404865,NA,Sternberg task,33,62606,49,yes,1024
68,68,1282.92,1282.92,black,experiment,legacy,legacy,legacy,0,uniform,1,undefined,1,right,49,49,49,0,0,49,49,0,0,49,49,49,0,49,0,10/23/19 15:20,The main experiment item,yes,Sternbergtask SL.osexp,C:/Users/Sarah Linan/Desktop,no,mono,no,18,no,white,no,yes,768,legacy,37,11,C:/Users/Sarah Linan/Desktop/subject-S1.csv,legacy,1,Kafkaesque Koffka,3.2.8,0,n,0,right,right,left,right,NA,1540,66882,8189,1540,NA,2,legacy,1,1024,2,48000,-16,experiment,1,odd,7,409930,399494,407719,2357,158722,407722,406562,2364,150532,411934,413475,408726,69247,411934,NA,Sternberg task,34,64146,50,yes,1024
68.62745098,68.62745098,1284.196078,1284.196078,black,experiment,legacy,legacy,legacy,0,uniform,1,undefined,1,right,50,50,50,0,0,50,50,0,0,50,50,50,0,50,0,10/23/19 15:20,The main experiment item,yes,Sternbergtask SL.osexp,C:/Users/Sarah Linan/Desktop,no,mono,no,18,no,white,no,yes,768,legacy,38,11,C:/Users/Sarah Linan/Desktop/subject-S1.csv,legacy,3 4 9 6 7 8,Kafkaesque Koffka,3.2.8,0,n,0,right,right,left,right,NA,1348,66882,8189,1348,NA,2,legacy,6,1024,2,48000,-16,experiment,1,odd,2,416927,413563,414715,2357,158722,414717,406562,2364,150532,418929,420278,415722,69247,418929,NA,Sternberg task,35,65494,51,yes,1024
69.23076923,69.23076923,1276.923077,1276.923077,black,experiment,legacy,legacy,legacy,0,uniform,1,undefined,1,left,51,51,51,0,0,51,51,0,0,51,51,51,0,51,0,10/23/19 15:20,The main experiment item,yes,Sternbergtask SL.osexp,C:/Users/Sarah Linan/Desktop,no,mono,no,18,no,white,no,yes,768,legacy,39,11,C:/Users/Sarah Linan/Desktop/subject-S1.csv,legacy,8 3,Kafkaesque Koffka,3.2.8,2,y,0,left,right,left,left,NA,906,66882,8189,906,NA,2,legacy,2,1024,2,48000,-16,experiment,1,odd,3,423730,420364,421520,2357,158722,421522,406562,2364,150532,425733,426640,422526,69247,425733,NA,Sternberg task,36,66400,52,yes,1024
69.81132075,69.81132075,1273.792453,1273.792453,black,experiment,legacy,legacy,legacy,0,uniform,1,undefined,1,left,52,52,52,0,0,52,52,0,0,52,52,52,0,52,0,10/23/19 15:20,The main experiment item,yes,Sternbergtask SL.osexp,C:/Users/Sarah Linan/Desktop,no,mono,no,18,no,white,no,yes,768,legacy,40,11,C:/Users/Sarah Linan/Desktop/subject-S1.csv,legacy,6 8 9 3 4 9,Kafkaesque Koffka,3.2.8,5,y,0,left,right,left,left,NA,1111,66882,8189,1111,NA,2,legacy,6,1024,2,48000,-16,experiment,1,odd,4,430086,426722,427875,2357,158722,427878,406562,2364,150532,432093,433205,428882,69247,432092,NA,Sternberg task,37,67511,53,yes,1024
70.37037037,70.37037037,1266.537037,1266.537037,black,experiment,legacy,legacy,legacy,0,uniform,1,undefined,1,left,53,53,53,0,0,53,53,0,0,53,53,53,0,53,0,10/23/19 15:20,The main experiment item,yes,Sternbergtask SL.osexp,C:/Users/Sarah Linan/Desktop,no,mono,no,18,no,white,no,yes,768,legacy,41,11,C:/Users/Sarah Linan/Desktop/subject-S1.csv,legacy,2 8 5 1,Kafkaesque Koffka,3.2.8,4,y,0,left,right,left,left,NA,882,66882,8189,882,NA,2,legacy,4,1024,2,48000,-16,experiment,1,odd,1,436649,433290,434438,2357,158722,434440,406562,2364,150532,438653,439536,435445,69247,438653,NA,Sternberg task,38,68393,54,yes,1024
69.09090909,69.09090909,1264.945455,1264.945455,black,experiment,legacy,legacy,legacy,0,uniform,0,undefined,0,right,54,54,54,0,0,54,54,0,0,54,54,54,0,54,0,10/23/19 15:20,The main experiment item,yes,Sternbergtask SL.osexp,C:/Users/Sarah Linan/Desktop,no,mono,no,18,no,white,no,yes,768,legacy,42,11,C:/Users/Sarah Linan/Desktop/subject-S1.csv,legacy,9 5 3 2 8 6,Kafkaesque Koffka,3.2.8,0,n,0,left,right,left,left,NA,1179,66882,8189,1179,NA,2,legacy,6,1024,2,48000,-16,experiment,1,odd,7,442994,439626,440783,2357,158722,440786,406562,2364,150532,444998,446177,441790,69247,444998,NA,Sternberg task,38,69572,55,yes,1024
69.64285714,69.64285714,1260.714286,1260.714286,black,experiment,legacy,legacy,legacy,0,uniform,1,undefined,1,right,55,55,55,0,0,55,55,0,0,55,55,55,0,55,0,10/23/19 15:20,The main experiment item,yes,Sternbergtask SL.osexp,C:/Users/Sarah Linan/Desktop,no,mono,no,18,no,white,no,yes,768,legacy,43,11,C:/Users/Sarah Linan/Desktop/subject-S1.csv,legacy,6 9 4 5 3 2,Kafkaesque Koffka,3.2.8,0,n,0,right,right,left,right,NA,1028,66882,8189,1028,NA,2,legacy,6,1024,2,48000,-16,experiment,1,odd,8,449624,439626,447413,2357,158722,447416,446260,2364,150532,451628,452657,448420,69247,451628,NA,Sternberg task,39,70600,56,yes,1024
70.1754386,70.1754386,1256.824561,1256.824561,black,experiment,legacy,legacy,legacy,0,uniform,1,undefined,1,right,56,56,56,0,0,56,56,0,0,56,56,56,0,56,0,10/23/19 15:20,The main experiment item,yes,Sternbergtask SL.osexp,C:/Users/Sarah Linan/Desktop,no,mono,no,18,no,white,no,yes,768,legacy,44,11,C:/Users/Sarah Linan/Desktop/subject-S1.csv,legacy,1 5 3 2 8,Kafkaesque Koffka,3.2.8,0,n,0,right,right,left,right,NA,1039,66882,8189,1039,NA,2,legacy,5,1024,2,48000,-16,experiment,1,odd,4,456104,452741,453895,2357,158722,453897,446260,2364,150532,458108,459148,454900,69247,458108,NA,Sternberg task,40,71639,57,yes,1024
70.68965517,70.68965517,1250.344828,1250.344828,black,experiment,legacy,legacy,legacy,0,uniform,1,undefined,1,left,57,57,57,0,0,57,57,0,0,57,57,57,0,57,0,10/23/19 15:20,The main experiment item,yes,Sternbergtask SL.osexp,C:/Users/Sarah Linan/Desktop,no,mono,no,18,no,white,no,yes,768,legacy,45,11,C:/Users/Sarah Linan/Desktop/subject-S1.csv,legacy,7 6,Kafkaesque Koffka,3.2.8,2,y,0,left,right,left,left,NA,881,66882,8189,881,NA,2,legacy,2,1024,2,48000,-16,experiment,1,odd,6,462588,459230,460377,2357,158722,460379,446260,2364,150532,464593,465475,461384,69247,464593,NA,Sternberg task,41,72520,58,yes,1024
71.18644068,71.18644068,1244.40678,1244.40678,black,experiment,legacy,legacy,legacy,0,uniform,1,undefined,1,left,58,58,58,0,0,58,58,0,0,58,58,58,0,58,0,10/23/19 15:20,The main experiment item,yes,Sternbergtask SL.osexp,C:/Users/Sarah Linan/Desktop,no,mono,no,18,no,white,no,yes,768,legacy,46,11,C:/Users/Sarah Linan/Desktop/subject-S1.csv,legacy,5 2 6,Kafkaesque Koffka,3.2.8,2,y,0,left,right,left,left,NA,900,66882,8189,900,NA,2,legacy,3,1024,2,48000,-16,experiment,1,odd,2,468925,465566,466716,2357,158722,466718,446260,2364,150532,470927,471828,467722,69247,470927,NA,Sternberg task,42,73420,59,yes,1024
71.66666667,71.66666667,1250.8,1250.8,black,experiment,legacy,legacy,legacy,0,uniform,1,undefined,1,right,59,59,59,0,0,59,59,0,0,59,59,59,0,59,0,10/23/19 15:20,The main experiment item,yes,Sternbergtask SL.osexp,C:/Users/Sarah Linan/Desktop,no,mono,no,18,no,white,no,yes,768,legacy,47,11,C:/Users/Sarah Linan/Desktop/subject-S1.csv,legacy,6 8 4,Kafkaesque Koffka,3.2.8,0,n,0,right,right,left,right,NA,1628,66882,8189,1628,NA,2,legacy,3,1024,2,48000,-16,experiment,1,odd,1,475264,471912,473053,2357,158722,473055,446260,2364,150532,477268,478897,474059,69247,477268,NA,Sternberg task,43,75048,60,yes,1024
72.13114754,72.13114754,1245.409836,1245.409836,black,experiment,legacy,legacy,legacy,0,uniform,1,undefined,1,right,60,60,60,0,0,60,60,0,0,60,60,60,0,60,0,10/23/19 15:20,The main experiment item,yes,Sternbergtask SL.osexp,C:/Users/Sarah Linan/Desktop,no,mono,no,18,no,white,no,yes,768,legacy,48,11,C:/Users/Sarah Linan/Desktop/subject-S1.csv,legacy,2 3 8 5 6 7,Kafkaesque Koffka,3.2.8,0,n,0,right,right,left,right,NA,922,66882,8189,922,NA,2,legacy,6,1024,2,48000,-16,experiment,1,odd,1,482285,478934,480074,2357,158722,480076,446260,2364,150532,484289,485212,481080,69247,484289,NA,Sternberg task,44,75970,61,yes,1024
72.58064516,72.58064516,1246.241935,1246.241935,black,experiment,legacy,legacy,legacy,0,uniform,1,undefined,1,right,61,61,61,0,0,61,61,0,0,61,61,61,0,61,0,10/23/19 15:20,The main experiment item,yes,Sternbergtask SL.osexp,C:/Users/Sarah Linan/Desktop,no,mono,no,18,no,white,no,yes,768,legacy,49,11,C:/Users/Sarah Linan/Desktop/subject-S1.csv,legacy,5,Kafkaesque Koffka,3.2.8,0,n,0,right,right,left,right,NA,1297,66882,8189,1297,NA,2,legacy,1,1024,2,48000,-16,experiment,1,odd,8,488658,485292,486450,2357,158722,486451,446260,2364,150532,490662,491960,487454,69247,490662,NA,Sternberg task,45,77267,62,yes,1024
71.42857143,71.42857143,1247.68254,1247.68254,black,experiment,legacy,legacy,legacy,0,uniform,0,undefined,0,left,62,62,62,0,0,62,62,0,0,62,62,62,0,62,0,10/23/19 15:20,The main experiment item,yes,Sternbergtask SL.osexp,C:/Users/Sarah Linan/Desktop,no,mono,no,18,no,white,no,yes,768,legacy,50,11,C:/Users/Sarah Linan/Desktop/subject-S1.csv,legacy,7 4 2 6 3 5,Kafkaesque Koffka,3.2.8,6,y,0,right,right,left,right,NA,1337,66882,8189,1337,NA,2,legacy,6,1024,2,48000,-16,experiment,1,odd,5,495394,492028,493184,2357,158722,493186,446260,2364,150532,497398,498735,494190,69247,497398,NA,Sternberg task,45,78604,63,yes,1024
71.875,71.875,1244.9375,1244.9375,black,experiment,legacy,legacy,legacy,0,uniform,1,undefined,1,right,63,63,63,0,0,63,63,0,0,63,63,63,0,63,0,10/23/19 15:20,The main experiment item,yes,Sternbergtask SL.osexp,C:/Users/Sarah Linan/Desktop,no,mono,no,18,no,white,no,yes,768,legacy,51,11,C:/Users/Sarah Linan/Desktop/subject-S1.csv,legacy,7 9 1 6,Kafkaesque Koffka,3.2.8,0,n,0,right,right,left,right,NA,1072,66882,8189,1072,NA,2,legacy,4,1024,2,48000,-16,experiment,1,odd,4,502184,492028,499975,2357,158722,499977,498818,2364,150532,504188,505261,500979,69247,504188,NA,Sternberg task,46,79676,64,yes,1024
72.30769231,72.30769231,1243.476923,1243.476923,black,experiment,legacy,legacy,legacy,0,uniform,1,undefined,1,left,64,64,64,0,0,64,64,0,0,64,64,64,0,64,0,10/23/19 15:20,The main experiment item,yes,Sternbergtask SL.osexp,C:/Users/Sarah Linan/Desktop,no,mono,no,18,no,white,no,yes,768,legacy,52,11,C:/Users/Sarah Linan/Desktop/subject-S1.csv,legacy,8 9 5 7 1 6,Kafkaesque Koffka,3.2.8,4,y,0,left,right,left,left,NA,1150,66882,8189,1150,NA,2,legacy,6,1024,2,48000,-16,experiment,1,odd,7,508698,505342,506488,2357,158722,506491,498818,2364,150532,510702,511853,507494,69247,510702,NA,Sternberg task,47,80826,65,yes,1024
72.72727273,72.72727273,1239.939394,1239.939394,black,experiment,legacy,legacy,legacy,0,uniform,1,undefined,1,left,65,65,65,0,0,65,65,0,0,65,65,65,0,65,0,10/23/19 15:20,The main experiment item,yes,Sternbergtask SL.osexp,C:/Users/Sarah Linan/Desktop,no,mono,no,18,no,white,no,yes,768,legacy,53,11,C:/Users/Sarah Linan/Desktop/subject-S1.csv,legacy,7 8 4 6 9 5,Kafkaesque Koffka,3.2.8,4,y,0,left,right,left,left,NA,1010,66882,8189,1010,NA,2,legacy,6,1024,2,48000,-16,experiment,1,odd,6,515304,511944,513095,2357,158722,513098,498818,2364,150532,517308,518319,514102,69247,517308,NA,Sternberg task,48,81836,66,yes,1024
73.13432836,73.13432836,1239.955224,1239.955224,black,experiment,legacy,legacy,legacy,0,uniform,1,undefined,1,left,66,66,66,0,0,66,66,0,0,66,66,66,0,66,0,10/23/19 15:20,The main experiment item,yes,Sternbergtask SL.osexp,C:/Users/Sarah Linan/Desktop,no,mono,no,18,no,white,no,yes,768,legacy,54,11,C:/Users/Sarah Linan/Desktop/subject-S1.csv,legacy,7 8 6 3 1,Kafkaesque Koffka,3.2.8,5,y,0,left,right,left,left,NA,1241,66882,8189,1241,NA,2,legacy,5,1024,2,48000,-16,experiment,1,odd,1,521753,518402,519544,2357,158722,519547,498818,2364,150532,523758,525000,520551,69247,523758,NA,Sternberg task,49,83077,67,yes,1024
73.52941176,73.52941176,1233.514706,1233.514706,black,experiment,legacy,legacy,legacy,0,uniform,1,undefined,1,left,67,67,67,0,0,67,67,0,0,67,67,67,0,67,0,10/23/19 15:20,The main experiment item,yes,Sternbergtask SL.osexp,C:/Users/Sarah Linan/Desktop,no,mono,no,18,no,white,no,yes,768,legacy,55,11,C:/Users/Sarah Linan/Desktop/subject-S1.csv,legacy,9 6 2 4 1,Kafkaesque Koffka,3.2.8,4,y,0,left,right,left,left,NA,802,66882,8189,802,NA,2,legacy,5,1024,2,48000,-16,experiment,1,odd,4,528454,525092,526244,2357,158722,526246,498818,2364,150532,530458,531260,527250,69247,530458,NA,Sternberg task,50,83879,68,yes,1024
73.91304348,73.91304348,1227.753623,1227.753623,black,experiment,legacy,legacy,legacy,0,uniform,1,undefined,1,right,68,68,68,0,0,68,68,0,0,68,68,68,0,68,0,10/23/19 15:20,The main experiment item,yes,Sternbergtask SL.osexp,C:/Users/Sarah Linan/Desktop,no,mono,no,18,no,white,no,yes,768,legacy,56,11,C:/Users/Sarah Linan/Desktop/subject-S1.csv,legacy,7 9,Kafkaesque Koffka,3.2.8,0,n,0,right,right,left,right,NA,836,66882,8189,836,NA,2,legacy,2,1024,2,48000,-16,experiment,1,odd,1,534710,531349,532501,2357,158722,532503,498818,2364,150532,536714,537550,533506,69247,536714,NA,Sternberg task,51,84715,69,yes,1024
74.28571429,74.28571429,1225.057143,1225.057143,black,experiment,legacy,legacy,legacy,0,uniform,1,undefined,1,left,69,69,69,0,0,69,69,0,0,69,69,69,0,69,0,10/23/19 15:20,The main experiment item,yes,Sternbergtask SL.osexp,C:/Users/Sarah Linan/Desktop,no,mono,no,18,no,white,no,yes,768,legacy,57,11,C:/Users/Sarah Linan/Desktop/subject-S1.csv,legacy,9 3 8 2 1 4,Kafkaesque Koffka,3.2.8,3,y,0,left,right,left,left,NA,1039,66882,8189,1039,NA,2,legacy,6,1024,2,48000,-16,experiment,1,odd,8,540997,537640,538787,2357,158722,538789,498818,2364,150532,543002,544042,539792,69247,543001,NA,Sternberg task,52,85754,70,yes,1024
74.64788732,74.64788732,1220.140845,1220.140845,black,experiment,legacy,legacy,legacy,0,uniform,1,undefined,1,left,70,70,70,0,0,70,70,0,0,70,70,70,0,70,0,10/23/19 15:20,The main experiment item,yes,Sternbergtask SL.osexp,C:/Users/Sarah Linan/Desktop,no,mono,no,18,no,white,no,yes,768,legacy,58,11,C:/Users/Sarah Linan/Desktop/subject-S1.csv,legacy,3 4,Kafkaesque Koffka,3.2.8,1,y,0,left,right,left,left,NA,876,66882,8189,876,NA,2,legacy,2,1024,2,48000,-16,experiment,1,odd,3,547494,544131,545284,2357,158722,545285,498818,2364,150532,549498,550375,546289,69247,549498,NA,Sternberg task,53,86630,71,yes,1024
75,75,1214.388889,1214.388889,black,experiment,legacy,legacy,legacy,0,uniform,1,undefined,1,left,71,71,71,0,0,71,71,0,0,71,71,71,0,71,0,10/23/19 15:20,The main experiment item,yes,Sternbergtask SL.osexp,C:/Users/Sarah Linan/Desktop,no,mono,no,18,no,white,no,yes,768,legacy,59,11,C:/Users/Sarah Linan/Desktop/subject-S1.csv,legacy,6 2,Kafkaesque Koffka,3.2.8,1,y,0,left,right,left,left,NA,806,66882,8189,806,NA,2,legacy,2,1024,2,48000,-16,experiment,1,odd,6,553832,550467,551621,2357,158722,551624,498818,2364,150532,555836,556643,552628,69247,555836,NA,Sternberg task,54,87436,72,yes,1024
75.34246575,75.34246575,1206.712329,1206.712329,black,experiment,legacy,legacy,legacy,0,uniform,1,undefined,1,left,72,72,72,0,0,72,72,0,0,72,72,72,0,72,0,10/23/19 15:20,The main experiment item,yes,Sternbergtask SL.osexp,C:/Users/Sarah Linan/Desktop,no,mono,no,18,no,white,no,yes,768,legacy,60,11,C:/Users/Sarah Linan/Desktop/subject-S1.csv,legacy,2 3 7 4,Kafkaesque Koffka,3.2.8,1,y,0,left,right,left,left,NA,654,66882,8189,654,NA,2,legacy,4,1024,2,48000,-16,experiment,1,odd,2,560174,556805,557963,2357,158722,557966,498818,2364,150532,562179,562833,558970,69247,562179,NA,Sternberg task,55,88090,73,yes,1024
75.67567568,75.67567568,1199.945946,1199.945946,black,experiment,legacy,legacy,legacy,0,uniform,1,undefined,1,right,73,73,73,0,0,73,73,0,0,73,73,73,0,73,0,10/23/19 15:20,The main experiment item,yes,Sternbergtask SL.osexp,C:/Users/Sarah Linan/Desktop,no,mono,no,18,no,white,no,yes,768,legacy,61,11,C:/Users/Sarah Linan/Desktop/subject-S1.csv,legacy,6 8,Kafkaesque Koffka,3.2.8,0,n,0,right,right,left,right,NA,706,66882,8189,706,NA,2,legacy,2,1024,2,48000,-16,experiment,1,odd,9,566271,562914,564061,2357,158722,564063,498818,2364,150532,568275,568982,565067,69247,568275,NA,Sternberg task,56,88796,74,yes,1024
76,76,1192.853333,1192.853333,black,experiment,legacy,legacy,legacy,0,uniform,1,undefined,1,left,74,74,74,0,0,74,74,0,0,74,74,74,0,74,0,10/23/19 15:20,The main experiment item,yes,Sternbergtask SL.osexp,C:/Users/Sarah Linan/Desktop,no,mono,no,18,no,white,no,yes,768,legacy,62,11,C:/Users/Sarah Linan/Desktop/subject-S1.csv,legacy,8 9 5 6 7,Kafkaesque Koffka,3.2.8,1,y,0,left,right,left,left,NA,668,66882,8189,668,NA,2,legacy,5,1024,2,48000,-16,experiment,1,odd,8,572437,569075,570227,2357,158722,570229,498818,2364,150532,574441,575109,571233,69247,574441,NA,Sternberg task,57,89464,75,yes,1024
75,75,1190.578947,1190.578947,black,experiment,legacy,legacy,legacy,0,uniform,0,undefined,0,right,75,75,75,0,0,75,75,0,0,75,75,75,0,75,0,10/23/19 15:20,The main experiment item,yes,Sternbergtask SL.osexp,C:/Users/Sarah Linan/Desktop,no,mono,no,18,no,white,no,yes,768,legacy,63,11,C:/Users/Sarah Linan/Desktop/subject-S1.csv,legacy,3 9 1,Kafkaesque Koffka,3.2.8,0,n,0,left,right,left,left,NA,1020,66882,8189,1020,NA,2,legacy,3,1024,2,48000,-16,experiment,1,odd,7,578559,575198,576350,2357,158722,576353,498818,2364,150532,580564,581585,577355,69247,580563,NA,Sternberg task,57,90484,76,yes,1024
75.32467532,75.32467532,1193.779221,1193.779221,black,experiment,legacy,legacy,legacy,0,uniform,1,undefined,1,right,76,76,76,0,0,76,76,0,0,76,76,76,0,76,0,10/23/19 15:20,The main experiment item,yes,Sternbergtask SL.osexp,C:/Users/Sarah Linan/Desktop,no,mono,no,18,no,white,no,yes,768,legacy,64,11,C:/Users/Sarah Linan/Desktop/subject-S1.csv,legacy,4 2 6 9,Kafkaesque Koffka,3.2.8,0,n,0,right,right,left,right,NA,1437,66882,8189,1437,NA,2,legacy,4,1024,2,48000,-16,experiment,1,odd,7,585025,575198,582814,2357,158722,582817,581665,2364,150532,587030,588468,583821,69247,587030,NA,Sternberg task,58,91921,77,yes,1024
74.35897436,74.35897436,1204.115385,1204.115385,black,experiment,legacy,legacy,legacy,0,uniform,0,undefined,0,right,77,77,77,0,0,77,77,0,0,77,77,77,0,77,0,10/23/19 15:20,The main experiment item,yes,Sternbergtask SL.osexp,C:/Users/Sarah Linan/Desktop,no,mono,no,18,no,white,no,yes,768,legacy,65,11,C:/Users/Sarah Linan/Desktop/subject-S1.csv,legacy,1 4 9 3,Kafkaesque Koffka,3.2.8,0,n,0,None,right,left,None,NA,2000,66882,8189,2000,NA,2,legacy,4,1024,2,48000,-16,experiment,1,odd,5,591850,588500,589642,2357,158722,589644,581665,2364,150532,593854,595854,590648,69247,593854,NA,Sternberg task,58,93921,78,yes,1024
74.6835443,74.6835443,1194.949367,1194.949367,black,experiment,legacy,legacy,legacy,0,uniform,1,undefined,1,left,78,78,78,0,0,78,78,0,0,78,78,78,0,78,0,10/23/19 15:20,The main experiment item,yes,Sternbergtask SL.osexp,C:/Users/Sarah Linan/Desktop,no,mono,no,18,no,white,no,yes,768,legacy,66,11,C:/Users/Sarah Linan/Desktop/subject-S1.csv,legacy,7 1 8 5 6 2,Kafkaesque Koffka,3.2.8,2,y,0,left,right,left,left,NA,480,66882,8189,480,NA,2,legacy,6,1024,2,48000,-16,experiment,1,odd,1,599309,588500,597098,2357,158722,597101,595945,2364,150532,601313,601794,598105,69247,601313,NA,Sternberg task,59,94401,79,yes,1024
75,75,1188.1875,1188.1875,black,experiment,legacy,legacy,legacy,0,uniform,1,undefined,1,left,79,79,79,0,0,79,79,0,0,79,79,79,0,79,0,10/23/19 15:20,The main experiment item,yes,Sternbergtask SL.osexp,C:/Users/Sarah Linan/Desktop,no,mono,no,18,no,white,no,yes,768,legacy,67,11,C:/Users/Sarah Linan/Desktop/subject-S1.csv,legacy,3 5 7 1,Kafkaesque Koffka,3.2.8,3,y,0,left,right,left,left,NA,654,66882,8189,654,NA,2,legacy,4,1024,2,48000,-16,experiment,1,odd,7,605199,601836,602988,2357,158722,602991,595945,2364,150532,607203,607858,603995,69247,607203,NA,Sternberg task,60,95055,80,yes,1024
75.30864198,75.30864198,1181.814815,1181.814815,black,experiment,legacy,legacy,legacy,0,uniform,1,undefined,1,left,80,80,80,0,0,80,80,0,0,80,80,80,0,80,0,10/23/19 15:20,The main experiment item,yes,Sternbergtask SL.osexp,C:/Users/Sarah Linan/Desktop,no,mono,no,18,no,white,no,yes,768,legacy,68,11,C:/Users/Sarah Linan/Desktop/subject-S1.csv,legacy,8 5 1 3 9,Kafkaesque Koffka,3.2.8,4,y,0,left,right,left,left,NA,672,66882,8189,672,NA,2,legacy,5,1024,2,48000,-16,experiment,1,odd,3,611301,607939,609090,2357,158722,609093,595945,2364,150532,613305,613978,610097,69247,613305,NA,Sternberg task,61,95727,81,yes,1024
75.6097561,75.6097561,1179.670732,1179.670732,black,experiment,legacy,legacy,legacy,0,uniform,1,undefined,1,right,81,81,81,0,0,81,81,0,0,81,81,81,0,81,0,10/23/19 15:20,The main experiment item,yes,Sternbergtask SL.osexp,C:/Users/Sarah Linan/Desktop,no,mono,no,18,no,white,no,yes,768,legacy,69,11,C:/Users/Sarah Linan/Desktop/subject-S1.csv,legacy,5 2,Kafkaesque Koffka,3.2.8,0,n,0,right,right,left,right,NA,1006,66882,8189,1006,NA,2,legacy,2,1024,2,48000,-16,experiment,1,odd,7,617425,614065,615215,2357,158722,615217,595945,2364,150532,619429,620437,616221,69247,619429,NA,Sternberg task,62,96733,82,yes,1024
75.90361446,75.90361446,1180.168675,1180.168675,black,experiment,legacy,legacy,legacy,0,uniform,1,undefined,1,right,82,82,82,0,0,82,82,0,0,82,82,82,0,82,0,10/23/19 15:20,The main experiment item,yes,Sternbergtask SL.osexp,C:/Users/Sarah Linan/Desktop,no,mono,no,18,no,white,no,yes,768,legacy,70,11,C:/Users/Sarah Linan/Desktop/subject-S1.csv,legacy,8 6 3 4 7,Kafkaesque Koffka,3.2.8,0,n,0,right,right,left,right,NA,1221,66882,8189,1221,NA,2,legacy,5,1024,2,48000,-16,experiment,1,odd,1,623887,620521,621675,2357,158722,621678,595945,2364,150532,625892,627115,622682,69247,625892,NA,Sternberg task,63,97954,83,yes,1024
76.19047619,76.19047619,1175.702381,1175.702381,black,experiment,legacy,legacy,legacy,0,uniform,1,undefined,1,right,83,83,83,0,0,83,83,0,0,83,83,83,0,83,0,10/23/19 15:20,The main experiment item,yes,Sternbergtask SL.osexp,C:/Users/Sarah Linan/Desktop,no,mono,no,18,no,white,no,yes,768,legacy,71,11,C:/Users/Sarah Linan/Desktop/subject-S1.csv,legacy,2 5 1 4,Kafkaesque Koffka,3.2.8,0,n,0,right,right,left,right,NA,805,66882,8189,805,NA,2,legacy,4,1024,2,48000,-16,experiment,1,odd,6,630552,627200,628342,2357,158722,628344,595945,2364,150532,632556,633362,629348,69247,632556,NA,Sternberg task,64,98759,84,yes,1024
76.47058824,76.47058824,1171.458824,1171.458824,black,experiment,legacy,legacy,legacy,0,uniform,1,undefined,1,left,84,84,84,0,0,84,84,0,0,84,84,84,0,84,0,10/23/19 15:20,The main experiment item,yes,Sternbergtask SL.osexp,C:/Users/Sarah Linan/Desktop,no,mono,no,18,no,white,no,yes,768,legacy,72,11,C:/Users/Sarah Linan/Desktop/subject-S1.csv,legacy,6 9 3 1,Kafkaesque Koffka,3.2.8,4,y,0,left,right,left,left,NA,815,66882,8189,815,NA,2,legacy,4,1024,2,48000,-16,experiment,1,odd,1,636811,633447,634600,2357,158722,634602,595945,2364,150532,638815,639631,635607,69247,638815,NA,Sternberg task,65,99574,85,yes,1024
75.58139535,75.58139535,1169.337209,1169.337209,black,experiment,legacy,legacy,legacy,0,uniform,0,undefined,0,left,85,85,85,0,0,85,85,0,0,85,85,85,0,85,0,10/23/19 15:20,The main experiment item,yes,Sternbergtask SL.osexp,C:/Users/Sarah Linan/Desktop,no,mono,no,18,no,white,no,yes,768,legacy,73,11,C:/Users/Sarah Linan/Desktop/subject-S1.csv,legacy,6 9 7 4 5 1,Kafkaesque Koffka,3.2.8,2,y,0,right,right,left,right,NA,989,66882,8189,989,NA,2,legacy,6,1024,2,48000,-16,experiment,1,odd,9,643087,639727,640875,2357,158722,640878,595945,2364,150532,645092,646082,641882,69247,645092,NA,Sternberg task,65,100563,86,yes,1024
75.86206897,75.86206897,1165.103448,1165.103448,black,experiment,legacy,legacy,legacy,0,uniform,1,undefined,1,left,86,86,86,0,0,86,86,0,0,86,86,86,0,86,0,10/23/19 15:20,The main experiment item,yes,Sternbergtask SL.osexp,C:/Users/Sarah Linan/Desktop,no,mono,no,18,no,white,no,yes,768,legacy,74,11,C:/Users/Sarah Linan/Desktop/subject-S1.csv,legacy,4 1 5,Kafkaesque Koffka,3.2.8,2,y,0,left,right,left,left,NA,801,66882,8189,801,NA,2,legacy,3,1024,2,48000,-16,experiment,1,odd,1,649516,639727,647303,2357,158722,647306,646163,2364,150532,651520,652323,648311,69247,651520,NA,Sternberg task,66,101364,87,yes,1024
75,75,1160.465909,1160.465909,black,experiment,legacy,legacy,legacy,0,uniform,0,undefined,0,left,87,87,87,0,0,87,87,0,0,87,87,87,0,87,0,10/23/19 15:20,The main experiment item,yes,Sternbergtask SL.osexp,C:/Users/Sarah Linan/Desktop,no,mono,no,18,no,white,no,yes,768,legacy,75,11,C:/Users/Sarah Linan/Desktop/subject-S1.csv,legacy,8 5 4 7 3 1,Kafkaesque Koffka,3.2.8,2,y,0,right,right,left,right,NA,757,66882,8189,757,NA,2,legacy,6,1024,2,48000,-16,experiment,1,odd,5,655709,652352,653499,2357,158722,653501,646163,2364,150532,657713,658471,654505,69247,657713,NA,Sternberg task,66,102121,88,yes,1024
74.15730337,74.15730337,1169.898876,1169.898876,black,experiment,legacy,legacy,legacy,0,uniform,0,undefined,0,right,88,88,88,0,0,88,88,0,0,88,88,88,0,88,0,10/23/19 15:20,The main experiment item,yes,Sternbergtask SL.osexp,C:/Users/Sarah Linan/Desktop,no,mono,no,18,no,white,no,yes,768,legacy,76,11,C:/Users/Sarah Linan/Desktop/subject-S1.csv,legacy,1 7 5 2 9,Kafkaesque Koffka,3.2.8,0,n,0,None,right,left,None,NA,2000,66882,8189,2000,NA,2,legacy,5,1024,2,48000,-16,experiment,1,odd,3,661919,652352,659710,2357,158722,659712,658556,2364,150532,663922,665923,660716,69247,663922,NA,Sternberg task,66,104121,89,yes,1024
74.44444444,74.44444444,1163.266667,1163.266667,black,experiment,legacy,legacy,legacy,0,uniform,1,undefined,1,left,89,89,89,0,0,89,89,0,0,89,89,89,0,89,0,10/23/19 15:20,The main experiment item,yes,Sternbergtask SL.osexp,C:/Users/Sarah Linan/Desktop,no,mono,no,18,no,white,no,yes,768,legacy,77,11,C:/Users/Sarah Linan/Desktop/subject-S1.csv,legacy,7 1 3,Kafkaesque Koffka,3.2.8,2,y,0,left,right,left,left,NA,573,66882,8189,573,NA,2,legacy,3,1024,2,48000,-16,experiment,1,odd,1,669304,652352,667094,2357,158722,667096,665956,2364,150532,671308,671883,668100,69247,671308,NA,Sternberg task,67,104694,90,yes,1024
74.72527473,74.72527473,1159.747253,1159.747253,black,experiment,legacy,legacy,legacy,0,uniform,1,undefined,1,left,90,90,90,0,0,90,90,0,0,90,90,90,0,90,0,10/23/19 15:20,The main experiment item,yes,Sternbergtask SL.osexp,C:/Users/Sarah Linan/Desktop,no,mono,no,18,no,white,no,yes,768,legacy,78,11,C:/Users/Sarah Linan/Desktop/subject-S1.csv,legacy,9 8 4,Kafkaesque Koffka,3.2.8,1,y,0,left,right,left,left,NA,843,66882,8189,843,NA,2,legacy,3,1024,2,48000,-16,experiment,1,odd,9,675350,671969,673140,2357,158722,673142,665956,2364,150532,677353,678197,674146,69247,677353,NA,Sternberg task,68,105537,91,yes,1024
75,75,1160.728261,1160.728261,black,experiment,legacy,legacy,legacy,0,uniform,1,undefined,1,right,91,91,91,0,0,91,91,0,0,91,91,91,0,91,0,10/23/19 15:20,The main experiment item,yes,Sternbergtask SL.osexp,C:/Users/Sarah Linan/Desktop,no,mono,no,18,no,white,no,yes,768,legacy,79,11,C:/Users/Sarah Linan/Desktop/subject-S1.csv,legacy,6 2 9 3 8 4,Kafkaesque Koffka,3.2.8,0,n,0,right,right,left,right,NA,1250,66882,8189,1250,NA,2,legacy,6,1024,2,48000,-16,experiment,1,odd,1,681650,678283,679439,2357,158722,679442,665956,2364,150532,683655,684907,680446,69247,683654,NA,Sternberg task,69,106787,92,yes,1024
75.2688172,75.2688172,1158.150538,1158.150538,black,experiment,legacy,legacy,legacy,0,uniform,1,undefined,1,left,92,92,92,0,0,92,92,0,0,92,92,92,0,92,0,10/23/19 15:20,The main experiment item,yes,Sternbergtask SL.osexp,C:/Users/Sarah Linan/Desktop,no,mono,no,18,no,white,no,yes,768,legacy,80,11,C:/Users/Sarah Linan/Desktop/subject-S1.csv,legacy,4 3 2 5 8,Kafkaesque Koffka,3.2.8,2,y,0,left,right,left,left,NA,921,66882,8189,921,NA,2,legacy,5,1024,2,48000,-16,experiment,1,odd,3,688288,684939,686078,2357,158722,686081,665956,2364,150532,690293,691216,687085,69247,690292,NA,Sternberg task,70,107708,93,yes,1024
75.53191489,75.53191489,1152.840426,1152.840426,black,experiment,legacy,legacy,legacy,0,uniform,1,undefined,1,right,93,93,93,0,0,93,93,0,0,93,93,93,0,93,0,10/23/19 15:20,The main experiment item,yes,Sternbergtask SL.osexp,C:/Users/Sarah Linan/Desktop,no,mono,no,18,no,white,no,yes,768,legacy,81,11,C:/Users/Sarah Linan/Desktop/subject-S1.csv,legacy,5 3 2 6 9 8,Kafkaesque Koffka,3.2.8,0,n,0,right,right,left,right,NA,659,66882,8189,659,NA,2,legacy,6,1024,2,48000,-16,experiment,1,odd,4,694594,691241,692384,2357,158722,692386,665956,2364,150532,696598,697259,693390,69247,696598,NA,Sternberg task,71,108367,94,yes,1024
75.78947368,75.78947368,1146.4,1146.4,black,experiment,legacy,legacy,legacy,0,uniform,1,undefined,1,left,94,94,94,0,0,94,94,0,0,94,94,94,0,94,0,10/23/19 15:20,The main experiment item,yes,Sternbergtask SL.osexp,C:/Users/Sarah Linan/Desktop,no,mono,no,18,no,white,no,yes,768,legacy,82,11,C:/Users/Sarah Linan/Desktop/subject-S1.csv,legacy,2 5 4 8 7,Kafkaesque Koffka,3.2.8,3,y,0,left,right,left,left,NA,541,66882,8189,541,NA,2,legacy,5,1024,2,48000,-16,experiment,1,odd,4,700706,697345,698494,2357,158722,698497,665956,2364,150532,702710,703253,699501,69247,702710,NA,Sternberg task,72,108908,95,yes,1024
75,75,1138.833333,1138.833333,black,experiment,legacy,legacy,legacy,0,uniform,0,undefined,0,right,95,95,95,0,0,95,95,0,0,95,95,95,0,95,0,10/23/19 15:20,The main experiment item,yes,Sternbergtask SL.osexp,C:/Users/Sarah Linan/Desktop,no,mono,no,18,no,white,no,yes,768,legacy,83,11,C:/Users/Sarah Linan/Desktop/subject-S1.csv,legacy,5 9 2 3,Kafkaesque Koffka,3.2.8,0,n,0,left,right,left,left,NA,420,66882,8189,420,NA,2,legacy,4,1024,2,48000,-16,experiment,1,odd,8,706637,703278,704425,2357,158722,704428,665956,2364,150532,708641,709062,705432,69247,708641,NA,Sternberg task,72,109328,96,yes,1024
75.25773196,75.25773196,1132.773196,1132.773196,black,experiment,legacy,legacy,legacy,0,uniform,1,undefined,1,right,96,96,96,0,0,96,96,0,0,96,96,96,0,96,0,10/23/19 15:20,The main experiment item,yes,Sternbergtask SL.osexp,C:/Users/Sarah Linan/Desktop,no,mono,no,18,no,white,no,yes,768,legacy,84,11,C:/Users/Sarah Linan/Desktop/subject-S1.csv,legacy,2 7 5,Kafkaesque Koffka,3.2.8,0,n,0,right,right,left,right,NA,551,66882,8189,551,NA,2,legacy,3,1024,2,48000,-16,experiment,1,odd,8,712517,703278,710306,2357,158722,710309,709150,2364,150532,714522,715075,711313,69247,714522,NA,Sternberg task,73,109879,97,yes,1024
75.51020408,75.51020408,1126.112245,1126.112245,black,experiment,legacy,legacy,legacy,0,uniform,1,undefined,1,right,97,97,97,0,0,97,97,0,0,97,97,97,0,97,0,10/23/19 15:20,The main experiment item,yes,Sternbergtask SL.osexp,C:/Users/Sarah Linan/Desktop,no,mono,no,18,no,white,no,yes,768,legacy,85,11,C:/Users/Sarah Linan/Desktop/subject-S1.csv,legacy,7 1 5 6 3,Kafkaesque Koffka,3.2.8,0,n,0,right,right,left,right,NA,480,66882,8189,480,NA,2,legacy,5,1024,2,48000,-16,experiment,1,odd,8,718526,715163,716316,2357,158722,716318,709150,2364,150532,720530,721011,717322,69247,720530,NA,Sternberg task,74,110359,98,yes,1024
75.75757576,75.75757576,1120.787879,1120.787879,black,experiment,legacy,legacy,legacy,0,uniform,1,undefined,1,right,98,98,98,0,0,98,98,0,0,98,98,98,0,98,0,10/23/19 15:20,The main experiment item,yes,Sternbergtask SL.osexp,C:/Users/Sarah Linan/Desktop,no,mono,no,18,no,white,no,yes,768,legacy,86,11,C:/Users/Sarah Linan/Desktop/subject-S1.csv,legacy,8 2 1 4 5 9,Kafkaesque Koffka,3.2.8,0,n,0,right,right,left,right,NA,599,66882,8189,599,NA,2,legacy,6,1024,2,48000,-16,experiment,1,odd,7,724464,721099,722255,2357,158722,722257,709150,2364,150532,726470,727069,723261,69247,726470,NA,Sternberg task,75,110958,99,yes,1024
75,75,1121.51,1121.51,black,experiment,legacy,legacy,legacy,0,uniform,0,undefined,0,right,99,99,99,0,0,99,99,0,0,99,99,99,0,99,0,10/23/19 15:20,The main experiment item,yes,Sternbergtask SL.osexp,C:/Users/Sarah Linan/Desktop,no,mono,no,18,no,white,no,yes,768,legacy,87,11,C:/Users/Sarah Linan/Desktop/subject-S1.csv,legacy,5 3 8 7 2 4,Kafkaesque Koffka,3.2.8,0,n,0,left,right,left,left,NA,1193,66882,8189,1193,NA,2,legacy,6,1024,2,48000,-16,experiment,1,odd,9,730515,727157,728303,2357,158722,728306,709150,2364,150532,732519,733713,729310,69247,732519,NA,Sternberg task,75,112151,100,yes,1024
75.24752475,75.24752475,1125.118812,1125.118812,black,experiment,legacy,legacy,legacy,0,uniform,1,undefined,1,left,100,100,100,0,0,100,100,0,0,100,100,100,0,100,0,10/23/19 15:20,The main experiment item,yes,Sternbergtask SL.osexp,C:/Users/Sarah Linan/Desktop,no,mono,no,18,no,white,no,yes,768,legacy,88,11,C:/Users/Sarah Linan/Desktop/subject-S1.csv,legacy,9 1 6 7 8,Kafkaesque Koffka,3.2.8,1,y,0,left,right,left,left,NA,1486,66882,8189,1486,NA,2,legacy,5,1024,2,48000,-16,experiment,1,odd,9,737172,727157,734961,2357,158722,734963,733803,2364,150532,739176,740663,735967,69247,739176,NA,Sternberg task,76,113637,101,yes,1024
75.49019608,75.49019608,1125.490196,1125.490196,black,experiment,legacy,legacy,legacy,0,uniform,1,undefined,1,left,101,101,101,0,0,101,101,0,0,101,101,101,0,101,0,10/23/19 15:20,The main experiment item,yes,Sternbergtask SL.osexp,C:/Users/Sarah Linan/Desktop,no,mono,no,18,no,white,no,yes,768,legacy,89,11,C:/Users/Sarah Linan/Desktop/subject-S1.csv,legacy,2 3,Kafkaesque Koffka,3.2.8,1,y,0,left,right,left,left,NA,1163,66882,8189,1163,NA,2,legacy,2,1024,2,48000,-16,experiment,1,odd,2,744088,740726,741876,2357,158722,741879,733803,2364,150532,746092,747255,742884,69247,746092,NA,Sternberg task,77,114800,102,yes,1024
74.75728155,74.75728155,1133.980583,1133.980583,black,experiment,legacy,legacy,legacy,0,uniform,0,undefined,0,left,102,102,102,0,0,102,102,0,0,102,102,102,0,102,0,10/23/19 15:20,The main experiment item,yes,Sternbergtask SL.osexp,C:/Users/Sarah Linan/Desktop,no,mono,no,18,no,white,no,yes,768,legacy,90,11,C:/Users/Sarah Linan/Desktop/subject-S1.csv,legacy,8 7 3,Kafkaesque Koffka,3.2.8,1,y,0,None,right,left,None,NA,2000,66882,8189,2000,NA,2,legacy,3,1024,2,48000,-16,experiment,1,odd,8,750693,747338,748481,2357,158722,748484,733803,2364,150532,752697,754698,749488,69247,752697,NA,Sternberg task,77,116800,103,yes,1024
74.03846154,74.03846154,1142.307692,1142.307692,black,experiment,legacy,legacy,legacy,0,uniform,0,undefined,0,right,103,103,103,0,0,103,103,0,0,103,103,103,0,103,0,10/23/19 15:20,The main experiment item,yes,Sternbergtask SL.osexp,C:/Users/Sarah Linan/Desktop,no,mono,no,18,no,white,no,yes,768,legacy,91,11,C:/Users/Sarah Linan/Desktop/subject-S1.csv,legacy,6 9 5,Kafkaesque Koffka,3.2.8,0,n,0,None,right,left,None,NA,2000,66882,8189,2000,NA,2,legacy,3,1024,2,48000,-16,experiment,1,odd,8,758141,747338,755931,2357,158722,755933,754784,2364,150532,760146,762147,756937,69247,760145,NA,Sternberg task,77,118800,104,yes,1024
74.28571429,74.28571429,1140.295238,1140.295238,black,experiment,legacy,legacy,legacy,0,uniform,1,undefined,1,left,104,104,104,0,0,104,104,0,0,104,104,104,0,104,0,10/23/19 15:20,The main experiment item,yes,Sternbergtask SL.osexp,C:/Users/Sarah Linan/Desktop,no,mono,no,18,no,white,no,yes,768,legacy,92,11,C:/Users/Sarah Linan/Desktop/subject-S1.csv,legacy,4 6 2 5 1,Kafkaesque Koffka,3.2.8,5,y,0,left,right,left,left,NA,931,66882,8189,931,NA,2,legacy,5,1024,2,48000,-16,experiment,1,odd,1,765646,747338,763436,2357,158722,763438,762285,2364,150532,767650,768581,764442,69247,767650,NA,Sternberg task,78,119731,105,yes,1024
73.58490566,73.58490566,1147.235849,1147.235849,black,experiment,legacy,legacy,legacy,0,uniform,0,undefined,0,right,105,105,105,0,0,105,105,0,0,105,105,105,0,105,0,10/23/19 15:20,The main experiment item,yes,Sternbergtask SL.osexp,C:/Users/Sarah Linan/Desktop,no,mono,no,18,no,white,no,yes,768,legacy,93,11,C:/Users/Sarah Linan/Desktop/subject-S1.csv,legacy,1 8 7,Kafkaesque Koffka,3.2.8,0,n,0,left,right,left,left,NA,1876,66882,8189,1876,NA,2,legacy,3,1024,2,48000,-16,experiment,1,odd,4,772022,768664,769812,2357,158722,769814,762285,2364,150532,774026,775902,770818,69247,774026,NA,Sternberg task,78,121607,106,yes,1024
72.89719626,72.89719626,1148.71028,1148.71028,black,experiment,legacy,legacy,legacy,0,uniform,0,undefined,0,left,106,106,106,0,0,106,106,0,0,106,106,106,0,106,0,10/23/19 15:20,The main experiment item,yes,Sternbergtask SL.osexp,C:/Users/Sarah Linan/Desktop,no,mono,no,18,no,white,no,yes,768,legacy,94,11,C:/Users/Sarah Linan/Desktop/subject-S1.csv,legacy,3 5 4 7,Kafkaesque Koffka,3.2.8,1,y,0,right,right,left,right,NA,1305,66882,8189,1305,NA,2,legacy,4,1024,2,48000,-16,experiment,1,odd,3,779345,768664,777135,2357,158722,777137,775987,2364,150532,781348,782655,778142,69247,781348,NA,Sternberg task,78,122912,107,yes,1024
73.14814815,73.14814815,1144.972222,1144.972222,black,experiment,legacy,legacy,legacy,0,uniform,1,undefined,1,left,107,107,107,0,0,107,107,0,0,107,107,107,0,107,0,10/23/19 15:20,The main experiment item,yes,Sternbergtask SL.osexp,C:/Users/Sarah Linan/Desktop,no,mono,no,18,no,white,no,yes,768,legacy,95,11,C:/Users/Sarah Linan/Desktop/subject-S1.csv,legacy,4 7 6 8 2 3,Kafkaesque Koffka,3.2.8,6,y,0,left,right,left,left,NA,745,66882,8189,745,NA,2,legacy,6,1024,2,48000,-16,experiment,1,odd,3,786108,768664,783898,2357,158722,783901,782744,2364,150532,788114,788860,784905,69247,788113,NA,Sternberg task,79,123657,108,yes,1024
73.39449541,73.39449541,1143.642202,1143.642202,black,experiment,legacy,legacy,legacy,0,uniform,1,undefined,1,right,108,108,108,0,0,108,108,0,0,108,108,108,0,108,0,10/23/19 15:20,The main experiment item,yes,Sternbergtask SL.osexp,C:/Users/Sarah Linan/Desktop,no,mono,no,18,no,white,no,yes,768,legacy,96,11,C:/Users/Sarah Linan/Desktop/subject-S1.csv,legacy,2 8 7 9 5 3,Kafkaesque Koffka,3.2.8,0,n,0,right,right,left,right,NA,1000,66882,8189,1000,NA,2,legacy,6,1024,2,48000,-16,experiment,1,odd,6,792306,788947,790096,2357,158722,790098,782744,2364,150532,794312,795314,791102,69247,794311,NA,Sternberg task,80,124657,109,yes,1024
72.72727273,72.72727273,1151.427273,1151.427273,black,experiment,legacy,legacy,legacy,0,uniform,0,undefined,0,right,109,109,109,0,0,109,109,0,0,109,109,109,0,109,0,10/23/19 15:20,The main experiment item,yes,Sternbergtask SL.osexp,C:/Users/Sarah Linan/Desktop,no,mono,no,18,no,white,no,yes,768,legacy,97,11,C:/Users/Sarah Linan/Desktop/subject-S1.csv,legacy,5 7 3,Kafkaesque Koffka,3.2.8,0,n,0,None,right,left,None,NA,2000,66882,8189,2000,NA,2,legacy,3,1024,2,48000,-16,experiment,1,odd,9,798754,795403,796543,2357,158722,796546,782744,2364,150532,800759,802760,797550,69247,800758,NA,Sternberg task,80,126657,110,yes,1024
72.97297297,72.97297297,1148.126126,1148.126126,black,experiment,legacy,legacy,legacy,0,uniform,1,undefined,1,right,110,110,110,0,0,110,110,0,0,110,110,110,0,110,0,10/23/19 15:20,The main experiment item,yes,Sternbergtask SL.osexp,C:/Users/Sarah Linan/Desktop,no,mono,no,18,no,white,no,yes,768,legacy,98,11,C:/Users/Sarah Linan/Desktop/subject-S1.csv,legacy,3 4 2,Kafkaesque Koffka,3.2.8,0,n,0,right,right,left,right,NA,785,66882,8189,785,NA,2,legacy,3,1024,2,48000,-16,experiment,1,odd,5,806211,795403,804002,2357,158722,804004,802848,2364,150532,808216,809002,805008,69247,808215,NA,Sternberg task,81,127442,111,yes,1024
72.32142857,72.32142857,1143.375,1143.375,black,experiment,legacy,legacy,legacy,0,uniform,0,undefined,0,left,111,111,111,0,0,111,111,0,0,111,111,111,0,111,0,10/23/19 15:20,The main experiment item,yes,Sternbergtask SL.osexp,C:/Users/Sarah Linan/Desktop,no,mono,no,18,no,white,no,yes,768,legacy,99,11,C:/Users/Sarah Linan/Desktop/subject-S1.csv,legacy,4,Kafkaesque Koffka,3.2.8,1,y,0,right,right,left,right,NA,616,66882,8189,616,NA,2,legacy,1,1024,2,48000,-16,experiment,1,odd,4,812440,809084,810232,2357,158722,810233,802848,2364,150532,814443,815060,811237,69247,814443,NA,Sternberg task,81,128058,112,yes,1024
72.56637168,72.56637168,1141.99115,1141.99115,black,experiment,legacy,legacy,legacy,0,uniform,1,undefined,1,left,112,112,112,0,0,112,112,0,0,112,112,112,0,112,0,10/23/19 15:20,The main experiment item,yes,Sternbergtask SL.osexp,C:/Users/Sarah Linan/Desktop,no,mono,no,18,no,white,no,yes,768,legacy,100,11,C:/Users/Sarah Linan/Desktop/subject-S1.csv,legacy,2 6 1 7 4,Kafkaesque Koffka,3.2.8,2,y,0,left,right,left,left,NA,987,66882,8189,987,NA,2,legacy,5,1024,2,48000,-16,experiment,1,odd,6,818487,809084,816278,2357,158722,816280,815095,2364,150532,820491,821479,817283,69247,820491,NA,Sternberg task,82,129045,113,yes,1024
72.80701754,72.80701754,1140.973684,1140.973684,black,experiment,legacy,legacy,legacy,0,uniform,1,undefined,1,right,113,113,113,0,0,113,113,0,0,113,113,113,0,113,0,10/23/19 15:20,The main experiment item,yes,Sternbergtask SL.osexp,C:/Users/Sarah Linan/Desktop,no,mono,no,18,no,white,no,yes,768,legacy,101,11,C:/Users/Sarah Linan/Desktop/subject-S1.csv,legacy,8 4 3 9,Kafkaesque Koffka,3.2.8,0,n,0,right,right,left,right,NA,1026,66882,8189,1026,NA,2,legacy,4,1024,2,48000,-16,experiment,1,odd,5,824927,821566,822716,2357,158722,822718,815095,2364,150532,826931,827959,823722,69247,826931,NA,Sternberg task,83,130071,114,yes,1024
73.04347826,73.04347826,1135.478261,1135.478261,black,experiment,legacy,legacy,legacy,0,uniform,1,undefined,1,left,114,114,114,0,0,114,114,0,0,114,114,114,0,114,0,10/23/19 15:20,The main experiment item,yes,Sternbergtask SL.osexp,C:/Users/Sarah Linan/Desktop,no,mono,no,18,no,white,no,yes,768,legacy,102,11,C:/Users/Sarah Linan/Desktop/subject-S1.csv,legacy,1 4 9 3 2 5,Kafkaesque Koffka,3.2.8,3,y,0,left,right,left,left,NA,509,66882,8189,509,NA,2,legacy,6,1024,2,48000,-16,experiment,1,odd,9,831402,828046,829191,2357,158722,829194,815095,2364,150532,833406,833917,830198,69247,833406,NA,Sternberg task,84,130580,115,yes,1024
72.4137931,72.4137931,1132.508621,1132.508621,black,experiment,legacy,legacy,legacy,0,uniform,0,undefined,0,left,115,115,115,0,0,115,115,0,0,115,115,115,0,115,0,10/23/19 15:20,The main experiment item,yes,Sternbergtask SL.osexp,C:/Users/Sarah Linan/Desktop,no,mono,no,18,no,white,no,yes,768,legacy,103,11,C:/Users/Sarah Linan/Desktop/subject-S1.csv,legacy,4 1 8 7 5,Kafkaesque Koffka,3.2.8,3,y,0,right,right,left,right,NA,791,66882,8189,791,NA,2,legacy,5,1024,2,48000,-16,experiment,1,odd,8,837361,834004,835151,2357,158722,835153,815095,2364,150532,839366,840159,836157,69247,839366,NA,Sternberg task,84,131371,116,yes,1024
72.64957265,72.64957265,1137.905983,1137.905983,black,experiment,legacy,legacy,legacy,0,uniform,1,undefined,1,right,116,116,116,0,0,116,116,0,0,116,116,116,0,116,0,10/23/19 15:20,The main experiment item,yes,Sternbergtask SL.osexp,C:/Users/Sarah Linan/Desktop,no,mono,no,18,no,white,no,yes,768,legacy,104,11,C:/Users/Sarah Linan/Desktop/subject-S1.csv,legacy,7 3 2 8,Kafkaesque Koffka,3.2.8,0,n,0,right,right,left,right,NA,1764,66882,8189,1764,NA,2,legacy,4,1024,2,48000,-16,experiment,1,odd,4,843610,834004,841399,2357,158722,841402,840250,2364,150532,845615,847380,842406,69247,845614,NA,Sternberg task,85,133135,117,yes,1024
72.88135593,72.88135593,1136.822034,1136.822034,black,experiment,legacy,legacy,legacy,0,uniform,1,undefined,1,left,117,117,117,0,0,117,117,0,0,117,117,117,0,117,0,10/23/19 15:20,The main experiment item,yes,Sternbergtask SL.osexp,C:/Users/Sarah Linan/Desktop,no,mono,no,18,no,white,no,yes,768,legacy,105,11,C:/Users/Sarah Linan/Desktop/subject-S1.csv,legacy,3 4 9 6 2 9,Kafkaesque Koffka,3.2.8,5,y,0,left,right,left,left,NA,1010,66882,8189,1010,NA,2,legacy,6,1024,2,48000,-16,experiment,1,odd,2,850823,847462,848613,2357,158722,848615,840250,2364,150532,852828,853839,849618,69247,852827,NA,Sternberg task,86,134145,118,yes,1024
72.26890756,72.26890756,1134.226891,1134.226891,black,experiment,legacy,legacy,legacy,0,uniform,0,undefined,0,right,118,118,118,0,0,118,118,0,0,118,118,118,0,118,0,10/23/19 15:20,The main experiment item,yes,Sternbergtask SL.osexp,C:/Users/Sarah Linan/Desktop,no,mono,no,18,no,white,no,yes,768,legacy,106,11,C:/Users/Sarah Linan/Desktop/subject-S1.csv,legacy,2 8 9,Kafkaesque Koffka,3.2.8,0,n,0,left,right,left,left,NA,828,66882,8189,828,NA,2,legacy,3,1024,2,48000,-16,experiment,1,odd,6,857286,853931,855076,2357,158722,855078,840250,2364,150532,859290,860119,856082,69247,859290,NA,Sternberg task,86,134973,119,yes,1024
72.5,72.5,1133.141667,1133.141667,black,experiment,legacy,legacy,legacy,0,uniform,1,undefined,1,left,119,119,119,0,0,119,119,0,0,119,119,119,0,119,0,10/23/19 15:20,The main experiment item,yes,Sternbergtask SL.osexp,C:/Users/Sarah Linan/Desktop,no,mono,no,18,no,white,no,yes,768,legacy,107,11,C:/Users/Sarah Linan/Desktop/subject-S1.csv,legacy,5 2 9 6 1 7,Kafkaesque Koffka,3.2.8,3,y,0,left,right,left,left,NA,1004,66882,8189,1004,NA,2,legacy,6,1024,2,48000,-16,experiment,1,odd,9,863506,853931,861295,2357,158722,861297,860144,2364,150532,865510,866516,862301,69247,865509,NA,Sternberg task,87,135977,120,yes,1024
71.90082645,71.90082645,1130.975207,1130.975207,black,experiment,legacy,legacy,legacy,0,uniform,0,undefined,0,right,120,120,120,0,0,120,120,0,0,120,120,120,0,120,0,10/23/19 15:20,The main experiment item,yes,Sternbergtask SL.osexp,C:/Users/Sarah Linan/Desktop,no,mono,no,18,no,white,no,yes,768,legacy,108,11,C:/Users/Sarah Linan/Desktop/subject-S1.csv,legacy,6 9 4 5 2,Kafkaesque Koffka,3.2.8,0,n,0,left,right,left,left,NA,871,66882,8189,871,NA,2,legacy,5,1024,2,48000,-16,experiment,1,odd,1,869964,866601,867753,2357,158722,867755,860144,2364,150532,871967,872839,868759,69247,871967,NA,Sternberg task,87,136848,121,yes,1024
72.13114754,72.13114754,1125.704918,1125.704918,black,experiment,legacy,legacy,legacy,0,uniform,1,undefined,1,right,121,121,121,0,0,121,121,0,0,121,121,121,0,121,0,10/23/19 15:20,The main experiment item,yes,Sternbergtask SL.osexp,C:/Users/Sarah Linan/Desktop,no,mono,no,18,no,white,no,yes,768,legacy,109,11,C:/Users/Sarah Linan/Desktop/subject-S1.csv,legacy,7 1 8 4 9 3,Kafkaesque Koffka,3.2.8,0,n,0,right,right,left,right,NA,488,66882,8189,488,NA,2,legacy,6,1024,2,48000,-16,experiment,1,odd,6,876303,866601,874093,2357,158722,874095,872946,2364,150532,878308,878798,875099,69247,878307,NA,Sternberg task,88,137336,122,yes,1024
71.54471545,71.54471545,1132.813008,1132.813008,black,experiment,legacy,legacy,legacy,0,uniform,0,undefined,0,right,122,122,122,0,0,122,122,0,0,122,122,122,0,122,0,10/23/19 15:20,The main experiment item,yes,Sternbergtask SL.osexp,C:/Users/Sarah Linan/Desktop,no,mono,no,18,no,white,no,yes,768,legacy,110,11,C:/Users/Sarah Linan/Desktop/subject-S1.csv,legacy,1 4 9 2 5,Kafkaesque Koffka,3.2.8,0,n,0,None,right,left,None,NA,2000,66882,8189,2000,NA,2,legacy,5,1024,2,48000,-16,experiment,1,odd,7,882267,878906,880058,2357,158722,880060,872946,2364,150532,884270,886271,881064,69247,884269,NA,Sternberg task,88,139336,123,yes,1024
71.77419355,71.77419355,1129.064516,1129.064516,black,experiment,legacy,legacy,legacy,0,uniform,1,undefined,1,left,123,123,123,0,0,123,123,0,0,123,123,123,0,123,0,10/23/19 15:20,The main experiment item,yes,Sternbergtask SL.osexp,C:/Users/Sarah Linan/Desktop,no,mono,no,18,no,white,no,yes,768,legacy,111,11,C:/Users/Sarah Linan/Desktop/subject-S1.csv,legacy,7 2 3,Kafkaesque Koffka,3.2.8,3,y,0,left,right,left,left,NA,668,66882,8189,668,NA,2,legacy,3,1024,2,48000,-16,experiment,1,odd,3,889724,878906,887514,2357,158722,887516,886361,2364,150532,891728,892398,888520,69247,891728,NA,Sternberg task,89,140004,124,yes,1024
72,72,1126.168,1126.168,black,experiment,legacy,legacy,legacy,0,uniform,1,undefined,1,left,124,124,124,0,0,124,124,0,0,124,124,124,0,124,0,10/23/19 15:20,The main experiment item,yes,Sternbergtask SL.osexp,C:/Users/Sarah Linan/Desktop,no,mono,no,18,no,white,no,yes,768,legacy,112,11,C:/Users/Sarah Linan/Desktop/subject-S1.csv,legacy,6 1 2,Kafkaesque Koffka,3.2.8,3,y,0,left,right,left,left,NA,767,66882,8189,767,NA,2,legacy,3,1024,2,48000,-16,experiment,1,odd,2,895855,892487,893646,2357,158722,893648,886361,2364,150532,897861,898630,894651,69247,897860,NA,Sternberg task,90,140771,125,yes,1024
72.22222222,72.22222222,1120.52381,1120.52381,black,experiment,legacy,legacy,legacy,0,uniform,1,undefined,1,left,125,125,125,0,0,125,125,0,0,125,125,125,0,125,0,10/23/19 15:20,The main experiment item,yes,Sternbergtask SL.osexp,C:/Users/Sarah Linan/Desktop,no,mono,no,18,no,white,no,yes,768,legacy,113,11,C:/Users/Sarah Linan/Desktop/subject-S1.csv,legacy,3 2 1 4 7,Kafkaesque Koffka,3.2.8,2,y,0,left,right,left,left,NA,415,66882,8189,415,NA,2,legacy,5,1024,2,48000,-16,experiment,1,odd,2,902084,898722,899872,2357,158722,899874,886361,2364,150532,904090,904506,900879,69247,904089,NA,Sternberg task,91,141186,126,yes,1024
72.44094488,72.44094488,1121.023622,1121.023622,black,experiment,legacy,legacy,legacy,0,uniform,1,undefined,1,left,126,126,126,0,0,126,126,0,0,126,126,126,0,126,0,10/23/19 15:20,The main experiment item,yes,Sternbergtask SL.osexp,C:/Users/Sarah Linan/Desktop,no,mono,no,18,no,white,no,yes,768,legacy,114,11,C:/Users/Sarah Linan/Desktop/subject-S1.csv,legacy,7,Kafkaesque Koffka,3.2.8,1,y,0,left,right,left,left,NA,1184,66882,8189,1184,NA,2,legacy,1,1024,2,48000,-16,experiment,1,odd,7,907900,904546,905691,2357,158722,905693,886361,2364,150532,909906,911092,906697,69247,909905,NA,Sternberg task,92,142370,127,yes,1024
72.65625,72.65625,1118.945313,1118.945313,black,experiment,legacy,legacy,legacy,0,uniform,1,undefined,1,right,127,127,127,0,0,127,127,0,0,127,127,127,0,127,0,10/23/19 15:20,The main experiment item,yes,Sternbergtask SL.osexp,C:/Users/Sarah Linan/Desktop,no,mono,no,18,no,white,no,yes,768,legacy,115,11,C:/Users/Sarah Linan/Desktop/subject-S1.csv,legacy,1 4 3 6 5,Kafkaesque Koffka,3.2.8,0,n,0,right,right,left,right,NA,855,66882,8189,855,NA,2,legacy,5,1024,2,48000,-16,experiment,1,odd,8,914551,911181,912340,2357,158722,912342,886361,2364,150532,916555,917412,913347,69247,916554,NA,Sternberg task,93,143225,128,yes,1024
72.86821705,72.86821705,1116.782946,1116.782946,black,experiment,legacy,legacy,legacy,0,uniform,1,undefined,1,left,128,128,128,0,0,128,128,0,0,128,128,128,0,128,0,10/23/19 15:20,The main experiment item,yes,Sternbergtask SL.osexp,C:/Users/Sarah Linan/Desktop,no,mono,no,18,no,white,no,yes,768,legacy,116,11,C:/Users/Sarah Linan/Desktop/subject-S1.csv,legacy,2 4 6 9,Kafkaesque Koffka,3.2.8,3,y,0,left,right,left,left,NA,840,66882,8189,840,NA,2,legacy,4,1024,2,48000,-16,experiment,1,odd,6,920851,917495,918640,2357,158722,918643,886361,2364,150532,922855,923696,919647,69247,922855,NA,Sternberg task,94,144065,129,yes,1024
73.07692308,73.07692308,1115.3,1115.3,black,experiment,legacy,legacy,legacy,0,uniform,1,undefined,1,right,129,129,129,0,0,129,129,0,0,129,129,129,0,129,0,10/23/19 15:20,The main experiment item,yes,Sternbergtask SL.osexp,C:/Users/Sarah Linan/Desktop,no,mono,no,18,no,white,no,yes,768,legacy,117,11,C:/Users/Sarah Linan/Desktop/subject-S1.csv,legacy,6 7 5 9,Kafkaesque Koffka,3.2.8,0,n,0,right,right,left,right,NA,924,66882,8189,924,NA,2,legacy,4,1024,2,48000,-16,experiment,1,odd,2,927146,923786,924937,2357,158722,924939,886361,2364,150532,929152,930078,925942,69247,929152,NA,Sternberg task,95,144989,130,yes,1024
73.28244275,73.28244275,1112.870229,1112.870229,black,experiment,legacy,legacy,legacy,0,uniform,1,undefined,1,right,130,130,130,0,0,130,130,0,0,130,130,130,0,130,0,10/23/19 15:20,The main experiment item,yes,Sternbergtask SL.osexp,C:/Users/Sarah Linan/Desktop,no,mono,no,18,no,white,no,yes,768,legacy,118,11,C:/Users/Sarah Linan/Desktop/subject-S1.csv,legacy,7 1,Kafkaesque Koffka,3.2.8,0,n,0,right,right,left,right,NA,797,66882,8189,797,NA,2,legacy,2,1024,2,48000,-16,experiment,1,odd,8,933529,930166,931317,2357,158722,931320,886361,2364,150532,935535,936334,932324,69247,935533,NA,Sternberg task,96,145786,131,yes,1024
73.48484848,73.48484848,1114.318182,1114.318182,black,experiment,legacy,legacy,legacy,0,uniform,1,undefined,1,left,131,131,131,0,0,131,131,0,0,131,131,131,0,131,0,10/23/19 15:20,The main experiment item,yes,Sternbergtask SL.osexp,C:/Users/Sarah Linan/Desktop,no,mono,no,18,no,white,no,yes,768,legacy,119,11,C:/Users/Sarah Linan/Desktop/subject-S1.csv,legacy,3 9 6 2,Kafkaesque Koffka,3.2.8,4,y,0,left,right,left,left,NA,1304,66882,8189,1304,NA,2,legacy,4,1024,2,48000,-16,experiment,1,odd,2,939781,936423,937571,2357,158722,937573,886361,2364,150532,941784,943090,938577,69247,941784,NA,Sternberg task,97,147090,132,yes,1024
73.68421053,73.68421053,1111.458647,1111.458647,black,experiment,legacy,legacy,legacy,0,uniform,1,undefined,1,left,132,132,132,0,0,132,132,0,0,132,132,132,0,132,0,10/23/19 15:20,The main experiment item,yes,Sternbergtask SL.osexp,C:/Users/Sarah Linan/Desktop,no,mono,no,18,no,white,no,yes,768,legacy,120,11,C:/Users/Sarah Linan/Desktop/subject-S1.csv,legacy,6 5,Kafkaesque Koffka,3.2.8,2,y,0,left,right,left,left,NA,734,66882,8189,734,NA,2,legacy,2,1024,2,48000,-16,experiment,1,odd,5,946542,943180,944332,2357,158722,944334,886361,2364,150532,948548,949284,945338,69247,948547,NA,Sternberg task,98,147824,133,yes,1024
73.88059701,73.88059701,1111.059701,1111.059701,black,experiment,legacy,legacy,legacy,0,uniform,1,undefined,1,right,133,133,133,0,0,133,133,0,0,133,133,133,0,133,0,10/23/19 15:20,The main experiment item,yes,Sternbergtask SL.osexp,C:/Users/Sarah Linan/Desktop,no,mono,no,18,no,white,no,yes,768,legacy,121,11,C:/Users/Sarah Linan/Desktop/subject-S1.csv,legacy,6 3 1 7 9 8,Kafkaesque Koffka,3.2.8,0,n,0,right,right,left,right,NA,1058,66882,8189,1058,NA,2,legacy,6,1024,2,48000,-16,experiment,1,odd,4,952696,949347,950486,2357,158722,950489,886361,2364,150532,954700,955760,951492,69247,954700,NA,Sternberg task,99,148882,134,yes,1024
73.33333333,73.33333333,1117.422222,1117.422222,black,experiment,legacy,legacy,legacy,0,uniform,0,undefined,0,left,134,134,134,0,0,134,134,0,0,134,134,134,0,134,0,10/23/19 15:20,The main experiment item,yes,Sternbergtask SL.osexp,C:/Users/Sarah Linan/Desktop,no,mono,no,18,no,white,no,yes,768,legacy,122,11,C:/Users/Sarah Linan/Desktop/subject-S1.csv,legacy,8 5 3 7 4 6,Kafkaesque Koffka,3.2.8,6,y,0,right,right,left,right,NA,1970,66882,8189,1970,NA,2,legacy,6,1024,2,48000,-16,experiment,1,odd,6,959220,955852,957009,2357,158722,957012,886361,2364,150532,961225,963196,958016,69247,961223,NA,Sternberg task,99,150852,135,yes,1024
73.52941176,73.52941176,1114.529412,1114.529412,black,experiment,legacy,legacy,legacy,0,uniform,1,undefined,1,left,135,135,135,0,0,135,135,0,0,135,135,135,0,135,0,10/23/19 15:20,The main experiment item,yes,Sternbergtask SL.osexp,C:/Users/Sarah Linan/Desktop,no,mono,no,18,no,white,no,yes,768,legacy,123,11,C:/Users/Sarah Linan/Desktop/subject-S1.csv,legacy,5 7 3 6 2,Kafkaesque Koffka,3.2.8,5,y,0,left,right,left,left,NA,724,66882,8189,724,NA,2,legacy,5,1024,2,48000,-16,experiment,1,odd,2,966647,955852,964437,2357,158722,964439,963285,2364,150532,968652,969378,965443,69247,968651,NA,Sternberg task,100,151576,136,yes,1024
73.72262774,73.72262774,1116.218978,1116.218978,black,experiment,legacy,legacy,legacy,0,uniform,1,undefined,1,left,136,136,136,0,0,136,136,0,0,136,136,136,0,136,0,10/23/19 15:20,The main experiment item,yes,Sternbergtask SL.osexp,C:/Users/Sarah Linan/Desktop,no,mono,no,18,no,white,no,yes,768,legacy,124,11,C:/Users/Sarah Linan/Desktop/subject-S1.csv,legacy,8 1 6,Kafkaesque Koffka,3.2.8,3,y,0,left,right,left,left,NA,1346,66882,8189,1346,NA,2,legacy,3,1024,2,48000,-16,experiment,1,odd,6,972830,969464,970619,2357,158722,970620,963285,2364,150532,974834,976183,971626,69247,974834,NA,Sternberg task,101,152922,137,yes,1024
73.91304348,73.91304348,1120.811594,1120.811594,black,experiment,legacy,legacy,legacy,0,uniform,1,undefined,1,right,137,137,137,0,0,137,137,0,0,137,137,137,0,137,0,10/23/19 15:20,The main experiment item,yes,Sternbergtask SL.osexp,C:/Users/Sarah Linan/Desktop,no,mono,no,18,no,white,no,yes,768,legacy,125,11,C:/Users/Sarah Linan/Desktop/subject-S1.csv,legacy,8 9,Kafkaesque Koffka,3.2.8,0,n,0,right,right,left,right,NA,1750,66882,8189,1750,NA,2,legacy,2,1024,2,48000,-16,experiment,1,odd,5,979618,976266,977408,2357,158722,977410,963285,2364,150532,981621,983373,978414,69247,981621,NA,Sternberg task,102,154672,138,yes,1024