"acc","accuracy","average_response_time","avg_rt","background","block","canvas_backend","clock_backend","color_backend","correct","correct_instruction1","correct_new_keyboard_response","correct_response","count_ISI","count_correctFeedback","count_experiment","count_experimentLoop","count_expsequence","count_fixation","count_incorrectFeedback","count_instruction1","count_instructions2","count_memoryset","count_new_keyboard_response","count_new_logger","count_practiceLoop","count_probe","count_thankyou","datetime","description","disable_garbage_collection","experiment_file","experiment_path","font_bold","font_family","font_italic","font_size","font_underline","foreground","form_clicks","fullscreen","height","keyboard_backend","live_row","live_row_practiceLoop","logfile","mouse_backend","numberSet","opensesame_codename","opensesame_version","posInSet","present","repeat_cycle","response","response_instruction1","response_instructions2","response_new_keyboard_response","response_thankyou","response_time","response_time_instruction1","response_time_instructions2","response_time_new_keyboard_response","response_time_thankyou","round_decimals","sampler_backend","setSize","sound_buf_size","sound_channels","sound_freq","sound_sample_size","start","subject_nr","subject_parity","target","time_ISI","time_correctFeedback","time_experiment","time_experimentLoop","time_expsequence","time_fixation","time_incorrectFeedback","time_instruction1","time_instructions2","time_memoryset","time_new_keyboard_response","time_new_logger","time_practiceLoop","time_probe","time_thankyou","title","total_correct","total_response_time","total_responses","width"
"100","100","461","461","#3d3846","practice","legacy","legacy","legacy","1","undefined","1","left","0","0","0","0","0","0","0","0","0","0","0","0","0","0","0","Sat Oct 21 14:54:49 2023","The main experiment item","True","SternbergTask.osexp","C:\Users\katjo\OneDrive\Desktop","False","mono","False","18","no","white","no","yes","768","legacy","0","0","C:/Users/katjo/OneDrive/Desktop/KEJ-subject-4.csv","legacy","6","Melodramatic Milgram","4.0.5","1","y","0","left","left","NA","left","NA","461.0","394","NA","461","NA","2","legacy","1","1024","2","48000","-16","experiment","4","even","6","7975","NA","4808","NA","5772","5773","NA","4814","NA","6774","9977","10438","5209","9976","NA","Sternberg Task","1","461.0","1","1024"
"100","100","529","529","#3d3846","practice","legacy","legacy","legacy","1","undefined","1","right","1","1","0","0","1","1","1","0","0","1","1","1","0","1","0","Sat Oct 21 14:54:49 2023","The main experiment item","True","SternbergTask.osexp","C:\Users\katjo\OneDrive\Desktop","False","mono","False","18","no","white","no","yes","768","legacy","1","1","C:/Users/katjo/OneDrive/Desktop/KEJ-subject-4.csv","legacy","4 1 5","Melodramatic Milgram","4.0.5","0","n","0","right","left","NA","right","NA","597.0","394","NA","597","NA","2","legacy","3","1024","2","48000","-16","experiment","4","even","2","13728","10482","4808","NA","11526","11527","NA","4814","NA","12527","15728","16325","5209","15728","NA","Sternberg Task","2","1058.0","2","1024"
"100","100","505","505","#3d3846","practice","legacy","legacy","legacy","1","undefined","1","left","2","2","0","0","2","2","2","0","0","2","2","2","0","2","0","Sat Oct 21 14:54:49 2023","The main experiment item","True","SternbergTask.osexp","C:\Users\katjo\OneDrive\Desktop","False","mono","False","18","no","white","no","yes","768","legacy","2","2","C:/Users/katjo/OneDrive/Desktop/KEJ-subject-4.csv","legacy","4 8","Melodramatic Milgram","4.0.5","1","y","0","left","left","NA","left","NA","457.0","394","NA","457","NA","2","legacy","2","1024","2","48000","-16","experiment","4","even","4","19569","16328","4808","NA","17366","17367","NA","4814","NA","18368","21570","22028","5209","21570","NA","Sternberg Task","3","1515.0","3","1024"
"100","100","636","636","#3d3846","practice","legacy","legacy","legacy","1","undefined","1","left","3","3","0","0","3","3","3","0","0","3","3","3","0","3","0","Sat Oct 21 14:54:49 2023","The main experiment item","True","SternbergTask.osexp","C:\Users\katjo\OneDrive\Desktop","False","mono","False","18","no","white","no","yes","768","legacy","3","3","C:/Users/katjo/OneDrive/Desktop/KEJ-subject-4.csv","legacy","1 7 9 8 5","Melodramatic Milgram","4.0.5","4","y","0","left","left","NA","left","NA","1032.0","394","NA","1032","NA","2","legacy","5","1024","2","48000","-16","experiment","4","even","8","25295","22037","4808","NA","23093","23094","NA","4814","NA","24094","27297","28329","5209","27296","NA","Sternberg Task","4","2547.0","4","1024"
"100","100","605","605","#3d3846","practice","legacy","legacy","legacy","1","undefined","1","left","4","4","0","0","4","4","4","0","0","4","4","4","0","4","0","Sat Oct 21 14:54:49 2023","The main experiment item","True","SternbergTask.osexp","C:\Users\katjo\OneDrive\Desktop","False","mono","False","18","no","white","no","yes","768","legacy","4","4","C:/Users/katjo/OneDrive/Desktop/KEJ-subject-4.csv","legacy","1 5 2 9","Melodramatic Milgram","4.0.5","2","y","0","left","left","NA","left","NA","480.0","394","NA","480","NA","2","legacy","4","1024","2","48000","-16","experiment","4","even","5","31578","28337","4808","NA","29375","29377","NA","4814","NA","30377","33579","34059","5209","33579","NA","Sternberg Task","5","3027.0","5","1024"
"100","100","590","590","#3d3846","practice","legacy","legacy","legacy","1","undefined","1","right","5","5","0","0","5","5","5","0","0","5","5","5","0","5","0","Sat Oct 21 14:54:49 2023","The main experiment item","True","SternbergTask.osexp","C:\Users\katjo\OneDrive\Desktop","False","mono","False","18","no","white","no","yes","768","legacy","5","5","C:/Users/katjo/OneDrive/Desktop/KEJ-subject-4.csv","legacy","2 1","Melodramatic Milgram","4.0.5","0","n","0","right","left","NA","right","NA","514.0","394","NA","514","NA","2","legacy","2","1024","2","48000","-16","experiment","4","even","5","37316","34062","4808","NA","35114","35115","NA","4814","NA","36115","39316","39830","5209","39316","NA","Sternberg Task","6","3541.0","6","1024"
"100","100","589","589","#3d3846","practice","legacy","legacy","legacy","1","undefined","1","left","6","6","0","0","6","6","6","0","0","6","6","6","0","6","0","Sat Oct 21 14:54:49 2023","The main experiment item","True","SternbergTask.osexp","C:\Users\katjo\OneDrive\Desktop","False","mono","False","18","no","white","no","yes","768","legacy","6","6","C:/Users/katjo/OneDrive/Desktop/KEJ-subject-4.csv","legacy","2 9 4","Melodramatic Milgram","4.0.5","3","y","0","left","left","NA","left","NA","587.0","394","NA","587","NA","2","legacy","3","1024","2","48000","-16","experiment","4","even","4","43103","39838","4808","NA","40900","40901","NA","4814","NA","41902","45104","45691","5209","45104","NA","Sternberg Task","7","4128.0","7","1024"
"100","100","593","593","#3d3846","practice","legacy","legacy","legacy","1","undefined","1","right","7","7","0","0","7","7","7","0","0","7","7","7","0","7","0","Sat Oct 21 14:54:49 2023","The main experiment item","True","SternbergTask.osexp","C:\Users\katjo\OneDrive\Desktop","False","mono","False","18","no","white","no","yes","768","legacy","7","7","C:/Users/katjo/OneDrive/Desktop/KEJ-subject-4.csv","legacy","5 7 8 4 1 2","Melodramatic Milgram","4.0.5","0","n","0","right","left","NA","right","NA","622.0","394","NA","622","NA","2","legacy","6","1024","2","48000","-16","experiment","4","even","6","48958","45699","4808","NA","46756","46757","NA","4814","NA","47757","50958","51580","5209","50958","NA","Sternberg Task","8","4750.0","8","1024"
"100","100","635","635","#3d3846","practice","legacy","legacy","legacy","1","undefined","1","right","8","8","0","0","8","8","8","0","0","8","8","8","0","8","0","Sat Oct 21 14:54:49 2023","The main experiment item","True","SternbergTask.osexp","C:\Users\katjo\OneDrive\Desktop","False","mono","False","18","no","white","no","yes","768","legacy","8","8","C:/Users/katjo/OneDrive/Desktop/KEJ-subject-4.csv","legacy","9 6 7 4 5","Melodramatic Milgram","4.0.5","0","n","0","right","left","NA","right","NA","965.0","394","NA","965","NA","2","legacy","5","1024","2","48000","-16","experiment","4","even","3","54830","51588","4808","NA","52628","52629","NA","4814","NA","53629","56830","57796","5209","56830","NA","Sternberg Task","9","5715.0","9","1024"
"90","90","583","583","#3d3846","practice","legacy","legacy","legacy","0","undefined","0","right","9","9","0","0","9","9","9","0","0","9","9","9","0","9","0","Sat Oct 21 14:54:49 2023","The main experiment item","True","SternbergTask.osexp","C:\Users\katjo\OneDrive\Desktop","False","mono","False","18","no","white","no","yes","768","legacy","9","9","C:/Users/katjo/OneDrive/Desktop/KEJ-subject-4.csv","legacy","3 1 9 4","Melodramatic Milgram","4.0.5","0","n","0","left","left","NA","left","NA","121.0","394","NA","121","NA","2","legacy","4","1024","2","48000","-16","experiment","4","even","6","61055","57801","4808","NA","58853","58854","NA","4814","NA","59854","63055","63177","5209","63055","NA","Sternberg Task","9","5836.0","10","1024"
"81","81","562","562","#3d3846","practice","legacy","legacy","legacy","0","undefined","0","left","10","10","0","0","10","10","10","0","0","10","10","10","0","10","0","Sat Oct 21 14:54:49 2023","The main experiment item","True","SternbergTask.osexp","C:\Users\katjo\OneDrive\Desktop","False","mono","False","18","no","white","no","yes","768","legacy","10","10","C:/Users/katjo/OneDrive/Desktop/KEJ-subject-4.csv","legacy","4 3 1 7 9 8","Melodramatic Milgram","4.0.5","1","y","0","right","left","NA","right","NA","348.0","394","NA","348","NA","2","legacy","6","1024","2","48000","-16","experiment","4","even","4","66425","57801","4808","NA","64222","64223","63185","4814","NA","65224","68426","68775","5209","68426","NA","Sternberg Task","9","6184.0","11","1024"
"83","83","558","558","#3d3846","practice","legacy","legacy","legacy","1","undefined","1","right","11","11","0","0","11","11","11","0","0","11","11","11","0","11","0","Sat Oct 21 14:54:49 2023","The main experiment item","True","SternbergTask.osexp","C:\Users\katjo\OneDrive\Desktop","False","mono","False","18","no","white","no","yes","768","legacy","11","11","C:/Users/katjo/OneDrive/Desktop/KEJ-subject-4.csv","legacy","5","Melodramatic Milgram","4.0.5","0","n","0","right","left","NA","right","NA","517.0","394","NA","517","NA","2","legacy","1","1024","2","48000","-16","experiment","4","even","3","72022","57801","4808","NA","69820","69821","68783","4814","NA","70821","74022","74540","5209","74022","NA","Sternberg Task","10","6701.0","12","1024"
"84","84","526","526","#3d3846","experiment","legacy","legacy","legacy","1","undefined","1","right","12","12","0","0","12","12","12","0","0","12","12","12","0","12","0","Sat Oct 21 14:54:49 2023","The main experiment item","True","SternbergTask.osexp","C:\Users\katjo\OneDrive\Desktop","False","mono","False","18","no","white","no","yes","768","legacy","0","11","C:/Users/katjo/OneDrive/Desktop/KEJ-subject-4.csv","legacy","6 7 5 9","Melodramatic Milgram","4.0.5","0","n","0","right","left","right","right","NA","140.0","394","734","140","NA","2","legacy","4","1024","2","48000","-16","experiment","4","even","2","78599","74547","4808","76283","76397","76398","68783","4814","75548","77398","80602","80743","5209","80601","NA","Sternberg Task","11","6841.0","13","1024"
"78","78","631","631","#3d3846","experiment","legacy","legacy","legacy","0","undefined","0","left","13","13","0","0","13","13","13","0","0","13","13","13","0","13","0","Sat Oct 21 14:54:49 2023","The main experiment item","True","SternbergTask.osexp","C:\Users\katjo\OneDrive\Desktop","False","mono","False","18","no","white","no","yes","768","legacy","1","11","C:/Users/katjo/OneDrive/Desktop/KEJ-subject-4.csv","legacy","3 5 4 7","Melodramatic Milgram","4.0.5","1","y","0","None","left","right","None","NA","2000.0","394","734","2000","NA","2","legacy","4","1024","2","48000","-16","experiment","4","even","3","84011","80770","4808","76283","81809","81810","68783","4814","75548","82810","86012","88012","5209","86012","NA","Sternberg Task","11","8841.0","14","1024"
"80","80","609","609","#3d3846","experiment","legacy","legacy","legacy","1","undefined","1","left","14","14","0","0","14","14","14","0","0","14","14","14","0","14","0","Sat Oct 21 14:54:49 2023","The main experiment item","True","SternbergTask.osexp","C:\Users\katjo\OneDrive\Desktop","False","mono","False","18","no","white","no","yes","768","legacy","2","11","C:/Users/katjo/OneDrive/Desktop/KEJ-subject-4.csv","legacy","9 3 1 2 5","Melodramatic Milgram","4.0.5","4","y","0","left","left","right","left","NA","304.0","394","734","304","NA","2","legacy","5","1024","2","48000","-16","experiment","4","even","2","91273","80770","4808","76283","89070","89071","88020","4814","75548","90072","93275","93580","5209","93274","NA","Sternberg Task","12","9145.0","15","1024"
"75","75","574","574","#3d3846","experiment","legacy","legacy","legacy","0","undefined","0","right","15","15","0","0","15","15","15","0","0","15","15","15","0","15","0","Sat Oct 21 14:54:49 2023","The main experiment item","True","SternbergTask.osexp","C:\Users\katjo\OneDrive\Desktop","False","mono","False","18","no","white","no","yes","768","legacy","3","11","C:/Users/katjo/OneDrive/Desktop/KEJ-subject-4.csv","legacy","5","Melodramatic Milgram","4.0.5","0","n","0","left","left","right","left","NA","51.0","394","734","51","NA","2","legacy","1","1024","2","48000","-16","experiment","4","even","8","96831","93587","4808","76283","94628","94630","88020","4814","75548","95630","98833","98885","5209","98832","NA","Sternberg Task","12","9196.0","16","1024"
"70","70","547","547","#3d3846","experiment","legacy","legacy","legacy","0","undefined","0","left","16","16","0","0","16","16","16","0","0","16","16","16","0","16","0","Sat Oct 21 14:54:49 2023","The main experiment item","True","SternbergTask.osexp","C:\Users\katjo\OneDrive\Desktop","False","mono","False","18","no","white","no","yes","768","legacy","4","11","C:/Users/katjo/OneDrive/Desktop/KEJ-subject-4.csv","legacy","8","Melodramatic Milgram","4.0.5","1","y","0","right","left","right","right","NA","119.0","394","734","119","NA","2","legacy","1","1024","2","48000","-16","experiment","4","even","8","102138","93587","4808","76283","99935","99936","98893","4814","75548","100937","104140","104260","5209","104138","NA","Sternberg Task","12","9315.0","17","1024"
"72","72","545","545","#3d3846","experiment","legacy","legacy","legacy","1","undefined","1","left","17","17","0","0","17","17","17","0","0","17","17","17","0","17","0","Sat Oct 21 14:54:49 2023","The main experiment item","True","SternbergTask.osexp","C:\Users\katjo\OneDrive\Desktop","False","mono","False","18","no","white","no","yes","768","legacy","5","11","C:/Users/katjo/OneDrive/Desktop/KEJ-subject-4.csv","legacy","5 2 6","Melodramatic Milgram","4.0.5","2","y","0","left","left","right","left","NA","496.0","394","734","496","NA","2","legacy","3","1024","2","48000","-16","experiment","4","even","2","107509","93587","4808","76283","105307","105308","104268","4814","75548","106309","109510","110007","5209","109509","NA","Sternberg Task","13","9811.0","18","1024"
"73","73","553","553","#3d3846","experiment","legacy","legacy","legacy","1","undefined","1","left","18","18","0","0","18","18","18","0","0","18","18","18","0","18","0","Sat Oct 21 14:54:49 2023","The main experiment item","True","SternbergTask.osexp","C:\Users\katjo\OneDrive\Desktop","False","mono","False","18","no","white","no","yes","768","legacy","6","11","C:/Users/katjo/OneDrive/Desktop/KEJ-subject-4.csv","legacy","6 9 3 1","Melodramatic Milgram","4.0.5","4","y","0","left","left","right","left","NA","713.0","394","734","713","NA","2","legacy","4","1024","2","48000","-16","experiment","4","even","1","113255","110014","4808","76283","111052","111053","104268","4814","75548","112054","115255","115969","5209","115255","NA","Sternberg Task","14","10524.0","19","1024"
"75","75","567","567","#3d3846","experiment","legacy","legacy","legacy","1","undefined","1","left","19","19","0","0","19","19","19","0","0","19","19","19","0","19","0","Sat Oct 21 14:54:49 2023","The main experiment item","True","SternbergTask.osexp","C:\Users\katjo\OneDrive\Desktop","False","mono","False","18","no","white","no","yes","768","legacy","7","11","C:/Users/katjo/OneDrive/Desktop/KEJ-subject-4.csv","legacy","3 5 9 6 2 4","Melodramatic Milgram","4.0.5","1","y","0","left","left","right","left","NA","828.0","394","734","828","NA","2","legacy","6","1024","2","48000","-16","experiment","4","even","3","119252","115995","4808","76283","117049","117050","104268","4814","75548","118051","121252","122081","5209","121252","NA","Sternberg Task","15","11352.0","20","1024"
"71","71","540","540","#3d3846","experiment","legacy","legacy","legacy","0","undefined","0","left","20","20","0","0","20","20","20","0","0","20","20","20","0","20","0","Sat Oct 21 14:54:49 2023","The main experiment item","True","SternbergTask.osexp","C:\Users\katjo\OneDrive\Desktop","False","mono","False","18","no","white","no","yes","768","legacy","8","11","C:/Users/katjo/OneDrive/Desktop/KEJ-subject-4.csv","legacy","6 1 2","Melodramatic Milgram","4.0.5","3","y","0","right","left","right","right","NA","4.0","394","734","4","NA","2","legacy","3","1024","2","48000","-16","experiment","4","even","2","125333","122089","4808","76283","123131","123132","104268","4814","75548","124132","127335","127340","5209","127334","NA","Sternberg Task","15","11356.0","21","1024"
"72","72","578","578","#3d3846","experiment","legacy","legacy","legacy","1","undefined","1","left","21","21","0","0","21","21","21","0","0","21","21","21","0","21","0","Sat Oct 21 14:54:49 2023","The main experiment item","True","SternbergTask.osexp","C:\Users\katjo\OneDrive\Desktop","False","mono","False","18","no","white","no","yes","768","legacy","9","11","C:/Users/katjo/OneDrive/Desktop/KEJ-subject-4.csv","legacy","9 1 7 2","Melodramatic Milgram","4.0.5","2","y","0","left","left","right","left","NA","1376.0","394","734","1376","NA","2","legacy","4","1024","2","48000","-16","experiment","4","even","1","130588","122089","4808","76283","128386","128387","127347","4814","75548","129387","132588","133964","5209","132588","NA","Sternberg Task","16","12732.0","22","1024"
"69","69","624","624","#3d3846","experiment","legacy","legacy","legacy","0","undefined","0","left","22","22","0","0","22","22","22","0","0","22","22","22","0","22","0","Sat Oct 21 14:54:49 2023","The main experiment item","True","SternbergTask.osexp","C:\Users\katjo\OneDrive\Desktop","False","mono","False","18","no","white","no","yes","768","legacy","10","11","C:/Users/katjo/OneDrive/Desktop/KEJ-subject-4.csv","legacy","7 4 2 6 3 5","Melodramatic Milgram","4.0.5","6","y","0","right","left","right","right","NA","1641.0","394","734","1641","NA","2","legacy","6","1024","2","48000","-16","experiment","4","even","5","137216","133972","4808","76283","135012","135013","127347","4814","75548","136014","139216","140858","5209","139216","NA","Sternberg Task","16","14373.0","23","1024"
"70","70","622","622","#3d3846","experiment","legacy","legacy","legacy","1","undefined","1","left","23","23","0","0","23","23","23","0","0","23","23","23","0","23","0","Sat Oct 21 14:54:49 2023","The main experiment item","True","SternbergTask.osexp","C:\Users\katjo\OneDrive\Desktop","False","mono","False","18","no","white","no","yes","768","legacy","11","11","C:/Users/katjo/OneDrive/Desktop/KEJ-subject-4.csv","legacy","9 5 8 1","Melodramatic Milgram","4.0.5","2","y","0","left","left","right","left","NA","572.0","394","734","572","NA","2","legacy","4","1024","2","48000","-16","experiment","4","even","5","144137","133972","4808","76283","141934","141935","140885","4814","75548","142936","146137","146710","5209","146137","NA","Sternberg Task","17","14945.0","24","1024"
"72","72","628","628","#3d3846","experiment","legacy","legacy","legacy","1","undefined","1","left","24","24","0","0","24","24","24","0","0","24","24","24","0","24","0","Sat Oct 21 14:54:49 2023","The main experiment item","True","SternbergTask.osexp","C:\Users\katjo\OneDrive\Desktop","False","mono","False","18","no","white","no","yes","768","legacy","12","11","C:/Users/katjo/OneDrive/Desktop/KEJ-subject-4.csv","legacy","2 4 8 5 1 3","Melodramatic Milgram","4.0.5","1","y","0","left","left","right","left","NA","769.0","394","734","769","NA","2","legacy","6","1024","2","48000","-16","experiment","4","even","2","149955","146713","4808","76283","147753","147754","140885","4814","75548","148754","151955","152724","5209","151955","NA","Sternberg Task","18","15714.0","25","1024"
"73","73","626","626","#3d3846","experiment","legacy","legacy","legacy","1","undefined","1","left","25","25","0","0","25","25","25","0","0","25","25","25","0","25","0","Sat Oct 21 14:54:49 2023","The main experiment item","True","SternbergTask.osexp","C:\Users\katjo\OneDrive\Desktop","False","mono","False","18","no","white","no","yes","768","legacy","13","11","C:/Users/katjo/OneDrive/Desktop/KEJ-subject-4.csv","legacy","9 4 2","Melodramatic Milgram","4.0.5","1","y","0","left","left","right","left","NA","587.0","394","734","587","NA","2","legacy","3","1024","2","48000","-16","experiment","4","even","9","155995","152752","4808","76283","153792","153793","140885","4814","75548","154794","157997","158585","5209","157996","NA","Sternberg Task","19","16301.0","26","1024"
"74","74","629","629","#3d3846","experiment","legacy","legacy","legacy","1","undefined","1","left","26","26","0","0","26","26","26","0","0","26","26","26","0","26","0","Sat Oct 21 14:54:49 2023","The main experiment item","True","SternbergTask.osexp","C:\Users\katjo\OneDrive\Desktop","False","mono","False","18","no","white","no","yes","768","legacy","14","11","C:/Users/katjo/OneDrive/Desktop/KEJ-subject-4.csv","legacy","6 7 8 5","Melodramatic Milgram","4.0.5","3","y","0","left","left","right","left","NA","705.0","394","734","705","NA","2","legacy","4","1024","2","48000","-16","experiment","4","even","8","161851","158611","4808","76283","159649","159651","140885","4814","75548","160651","163851","164556","5209","163851","NA","Sternberg Task","20","17006.0","27","1024"
"75","75","635","635","#3d3846","experiment","legacy","legacy","legacy","1","undefined","1","right","27","27","0","0","27","27","27","0","0","27","27","27","0","27","0","Sat Oct 21 14:54:49 2023","The main experiment item","True","SternbergTask.osexp","C:\Users\katjo\OneDrive\Desktop","False","mono","False","18","no","white","no","yes","768","legacy","15","11","C:/Users/katjo/OneDrive/Desktop/KEJ-subject-4.csv","legacy","1 4 9 2 5","Melodramatic Milgram","4.0.5","0","n","0","right","left","right","right","NA","778.0","394","734","778","NA","2","legacy","5","1024","2","48000","-16","experiment","4","even","7","167818","164564","4808","76283","165616","165617","140885","4814","75548","166617","169818","170596","5209","169818","NA","Sternberg Task","21","17784.0","28","1024"
"75","75","620","620","#3d3846","experiment","legacy","legacy","legacy","1","undefined","1","right","28","28","0","0","28","28","28","0","0","28","28","28","0","28","0","Sat Oct 21 14:54:49 2023","The main experiment item","True","SternbergTask.osexp","C:\Users\katjo\OneDrive\Desktop","False","mono","False","18","no","white","no","yes","768","legacy","16","11","C:/Users/katjo/OneDrive/Desktop/KEJ-subject-4.csv","legacy","7 9 1 6","Melodramatic Milgram","4.0.5","0","n","0","right","left","right","right","NA","223.0","394","734","223","NA","2","legacy","4","1024","2","48000","-16","experiment","4","even","4","173858","170601","4808","76283","171656","171657","140885","4814","75548","172657","175858","176082","5209","175858","NA","Sternberg Task","22","18007.0","29","1024"
"73","73","617","617","#3d3846","experiment","legacy","legacy","legacy","0","undefined","0","right","29","29","0","0","29","29","29","0","0","29","29","29","0","29","0","Sat Oct 21 14:54:49 2023","The main experiment item","True","SternbergTask.osexp","C:\Users\katjo\OneDrive\Desktop","False","mono","False","18","no","white","no","yes","768","legacy","17","11","C:/Users/katjo/OneDrive/Desktop/KEJ-subject-4.csv","legacy","9 7 4 5 8","Melodramatic Milgram","4.0.5","0","n","0","left","left","right","left","NA","513.0","394","734","513","NA","2","legacy","5","1024","2","48000","-16","experiment","4","even","6","179366","176108","4808","76283","177163","177164","140885","4814","75548","178165","181366","181880","5209","181366","NA","Sternberg Task","22","18520.0","30","1024"
"74","74","616","616","#3d3846","experiment","legacy","legacy","legacy","1","undefined","1","left","30","30","0","0","30","30","30","0","0","30","30","30","0","30","0","Sat Oct 21 14:54:49 2023","The main experiment item","True","SternbergTask.osexp","C:\Users\katjo\OneDrive\Desktop","False","mono","False","18","no","white","no","yes","768","legacy","18","11","C:/Users/katjo/OneDrive/Desktop/KEJ-subject-4.csv","legacy","6 7 9 3 1 2","Melodramatic Milgram","4.0.5","1","y","0","left","left","right","left","NA","594.0","394","734","594","NA","2","legacy","6","1024","2","48000","-16","experiment","4","even","6","185135","176108","4808","76283","182932","182933","181888","4814","75548","183934","187136","187731","5209","187136","NA","Sternberg Task","23","19114.0","31","1024"
"75","75","614","614","#3d3846","experiment","legacy","legacy","legacy","1","undefined","1","right","31","31","0","0","31","31","31","0","0","31","31","31","0","31","0","Sat Oct 21 14:54:49 2023","The main experiment item","True","SternbergTask.osexp","C:\Users\katjo\OneDrive\Desktop","False","mono","False","18","no","white","no","yes","768","legacy","19","11","C:/Users/katjo/OneDrive/Desktop/KEJ-subject-4.csv","legacy","9","Melodramatic Milgram","4.0.5","0","n","0","right","left","right","right","NA","545.0","394","734","545","NA","2","legacy","1","1024","2","48000","-16","experiment","4","even","6","190995","187739","4808","76283","188793","188794","181888","4814","75548","189795","192997","193543","5209","192997","NA","Sternberg Task","24","19659.0","32","1024"
"75","75","614","614","#3d3846","experiment","legacy","legacy","legacy","1","undefined","1","right","32","32","0","0","32","32","32","0","0","32","32","32","0","32","0","Sat Oct 21 14:54:49 2023","The main experiment item","True","SternbergTask.osexp","C:\Users\katjo\OneDrive\Desktop","False","mono","False","18","no","white","no","yes","768","legacy","20","11","C:/Users/katjo/OneDrive/Desktop/KEJ-subject-4.csv","legacy","2 3 8 5 6 7","Melodramatic Milgram","4.0.5","0","n","0","right","left","right","right","NA","611.0","394","734","611","NA","2","legacy","6","1024","2","48000","-16","experiment","4","even","1","196792","193550","4808","76283","194589","194590","181888","4814","75548","195591","198792","199404","5209","198792","NA","Sternberg Task","25","20270.0","33","1024"
"76","76","614","614","#3d3846","experiment","legacy","legacy","legacy","1","undefined","1","left","33","33","0","0","33","33","33","0","0","33","33","33","0","33","0","Sat Oct 21 14:54:49 2023","The main experiment item","True","SternbergTask.osexp","C:\Users\katjo\OneDrive\Desktop","False","mono","False","18","no","white","no","yes","768","legacy","21","11","C:/Users/katjo/OneDrive/Desktop/KEJ-subject-4.csv","legacy","7 1 3","Melodramatic Milgram","4.0.5","2","y","0","left","left","right","left","NA","619.0","394","734","619","NA","2","legacy","3","1024","2","48000","-16","experiment","4","even","1","202655","199412","4808","76283","200452","200453","181888","4814","75548","201454","204655","205275","5209","204655","NA","Sternberg Task","26","20889.0","34","1024"
"77","77","617","617","#3d3846","experiment","legacy","legacy","legacy","1","undefined","1","right","34","34","0","0","34","34","34","0","0","34","34","34","0","34","0","Sat Oct 21 14:54:49 2023","The main experiment item","True","SternbergTask.osexp","C:\Users\katjo\OneDrive\Desktop","False","mono","False","18","no","white","no","yes","768","legacy","22","11","C:/Users/katjo/OneDrive/Desktop/KEJ-subject-4.csv","legacy","5 7 3","Melodramatic Milgram","4.0.5","0","n","0","right","left","right","right","NA","732.0","394","734","732","NA","2","legacy","3","1024","2","48000","-16","experiment","4","even","9","208523","205283","4808","76283","206321","206322","181888","4814","75548","207322","210525","211257","5209","210525","NA","Sternberg Task","27","21621.0","35","1024"
"75","75","620","620","#3d3846","experiment","legacy","legacy","legacy","0","undefined","0","right","35","35","0","0","35","35","35","0","0","35","35","35","0","35","0","Sat Oct 21 14:54:49 2023","The main experiment item","True","SternbergTask.osexp","C:\Users\katjo\OneDrive\Desktop","False","mono","False","18","no","white","no","yes","768","legacy","23","11","C:/Users/katjo/OneDrive/Desktop/KEJ-subject-4.csv","legacy","5 9 2 3","Melodramatic Milgram","4.0.5","0","n","0","left","left","right","left","NA","703.0","394","734","703","NA","2","legacy","4","1024","2","48000","-16","experiment","4","even","8","214507","211265","4808","76283","212305","212306","181888","4814","75548","213306","216508","217211","5209","216507","NA","Sternberg Task","27","22324.0","36","1024"
"75","75","606","606","#3d3846","experiment","legacy","legacy","legacy","1","undefined","1","right","36","36","0","0","36","36","36","0","0","36","36","36","0","36","0","Sat Oct 21 14:54:49 2023","The main experiment item","True","SternbergTask.osexp","C:\Users\katjo\OneDrive\Desktop","False","mono","False","18","no","white","no","yes","768","legacy","24","11","C:/Users/katjo/OneDrive/Desktop/KEJ-subject-4.csv","legacy","1 7 5 2","Melodramatic Milgram","4.0.5","0","n","0","right","left","right","right","NA","133.0","394","734","133","NA","2","legacy","4","1024","2","48000","-16","experiment","4","even","3","220465","211265","4808","76283","218261","218262","217219","4814","75548","219263","222467","222600","5209","222466","NA","Sternberg Task","28","22457.0","37","1024"
"76","76","608","608","#3d3846","experiment","legacy","legacy","legacy","1","undefined","1","right","37","37","0","0","37","37","37","0","0","37","37","37","0","37","0","Sat Oct 21 14:54:49 2023","The main experiment item","True","SternbergTask.osexp","C:\Users\katjo\OneDrive\Desktop","False","mono","False","18","no","white","no","yes","768","legacy","25","11","C:/Users/katjo/OneDrive/Desktop/KEJ-subject-4.csv","legacy","1 4 3 6 5","Melodramatic Milgram","4.0.5","0","n","0","right","left","right","right","NA","675.0","394","734","675","NA","2","legacy","5","1024","2","48000","-16","experiment","4","even","8","225869","222627","4808","76283","223666","223667","217219","4814","75548","224668","227870","228546","5209","227869","NA","Sternberg Task","29","23132.0","38","1024"
"74","74","599","599","#3d3846","experiment","legacy","legacy","legacy","0","undefined","0","right","38","38","0","0","38","38","38","0","0","38","38","38","0","38","0","Sat Oct 21 14:54:49 2023","The main experiment item","True","SternbergTask.osexp","C:\Users\katjo\OneDrive\Desktop","False","mono","False","18","no","white","no","yes","768","legacy","26","11","C:/Users/katjo/OneDrive/Desktop/KEJ-subject-4.csv","legacy","1 7 8 3 9","Melodramatic Milgram","4.0.5","0","n","0","left","left","right","left","NA","255.0","394","734","255","NA","2","legacy","5","1024","2","48000","-16","experiment","4","even","2","231817","228554","4808","76283","229615","229616","217219","4814","75548","230616","233817","234073","5209","233817","NA","Sternberg Task","29","23387.0","39","1024"
"75","75","595","595","#3d3846","experiment","legacy","legacy","legacy","1","undefined","1","right","39","39","0","0","39","39","39","0","0","39","39","39","0","39","0","Sat Oct 21 14:54:49 2023","The main experiment item","True","SternbergTask.osexp","C:\Users\katjo\OneDrive\Desktop","False","mono","False","18","no","white","no","yes","768","legacy","27","11","C:/Users/katjo/OneDrive/Desktop/KEJ-subject-4.csv","legacy","1 6 4 3 9 7","Melodramatic Milgram","4.0.5","0","n","0","right","left","right","right","NA","441.0","394","734","441","NA","2","legacy","6","1024","2","48000","-16","experiment","4","even","8","237336","228554","4808","76283","235133","235134","234081","4814","75548","236135","239337","239778","5209","239337","NA","Sternberg Task","30","23828.0","40","1024"
"73","73","589","589","#3d3846","experiment","legacy","legacy","legacy","0","undefined","0","left","40","40","0","0","40","40","40","0","0","40","40","40","0","40","0","Sat Oct 21 14:54:49 2023","The main experiment item","True","SternbergTask.osexp","C:\Users\katjo\OneDrive\Desktop","False","mono","False","18","no","white","no","yes","768","legacy","28","11","C:/Users/katjo/OneDrive/Desktop/KEJ-subject-4.csv","legacy","8 5 1 3 9","Melodramatic Milgram","4.0.5","4","y","0","right","left","right","right","NA","350.0","394","734","350","NA","2","legacy","5","1024","2","48000","-16","experiment","4","even","3","243036","239786","4808","76283","240834","240835","234081","4814","75548","241835","245037","245387","5209","245037","NA","Sternberg Task","30","24178.0","41","1024"
"73","73","577","577","#3d3846","experiment","legacy","legacy","legacy","1","undefined","1","left","41","41","0","0","41","41","41","0","0","41","41","41","0","41","0","Sat Oct 21 14:54:49 2023","The main experiment item","True","SternbergTask.osexp","C:\Users\katjo\OneDrive\Desktop","False","mono","False","18","no","white","no","yes","768","legacy","29","11","C:/Users/katjo/OneDrive/Desktop/KEJ-subject-4.csv","legacy","5 2 9 6 1 7","Melodramatic Milgram","4.0.5","3","y","0","left","left","right","left","NA","76.0","394","734","76","NA","2","legacy","6","1024","2","48000","-16","experiment","4","even","9","248655","239786","4808","76283","246453","246454","245414","4814","75548","247455","250655","250732","5209","250655","NA","Sternberg Task","31","24254.0","42","1024"
"72","72","570","570","#3d3846","experiment","legacy","legacy","legacy","0","undefined","0","left","42","42","0","0","42","42","42","0","0","42","42","42","0","42","0","Sat Oct 21 14:54:49 2023","The main experiment item","True","SternbergTask.osexp","C:\Users\katjo\OneDrive\Desktop","False","mono","False","18","no","white","no","yes","768","legacy","30","11","C:/Users/katjo/OneDrive/Desktop/KEJ-subject-4.csv","legacy","7 8 4 6 9 5","Melodramatic Milgram","4.0.5","4","y","0","right","left","right","right","NA","285.0","394","734","285","NA","2","legacy","6","1024","2","48000","-16","experiment","4","even","6","253979","250739","4808","76283","251777","251778","245414","4814","75548","252778","255979","256265","5209","255979","NA","Sternberg Task","31","24539.0","43","1024"
"72","72","557","557","#3d3846","experiment","legacy","legacy","legacy","1","undefined","1","left","43","43","0","0","43","43","43","0","0","43","43","43","0","43","0","Sat Oct 21 14:54:49 2023","The main experiment item","True","SternbergTask.osexp","C:\Users\katjo\OneDrive\Desktop","False","mono","False","18","no","white","no","yes","768","legacy","31","11","C:/Users/katjo/OneDrive/Desktop/KEJ-subject-4.csv","legacy","3 9 7 6 4","Melodramatic Milgram","4.0.5","3","y","0","left","left","right","left","NA","3.0","394","734","3","NA","2","legacy","5","1024","2","48000","-16","experiment","4","even","7","259513","250739","4808","76283","257310","257311","256273","4814","75548","258312","261514","261519","5209","261514","NA","Sternberg Task","32","24542.0","44","1024"
"71","71","553","553","#3d3846","experiment","legacy","legacy","legacy","0","undefined","0","left","44","44","0","0","44","44","44","0","0","44","44","44","0","44","0","Sat Oct 21 14:54:49 2023","The main experiment item","True","SternbergTask.osexp","C:\Users\katjo\OneDrive\Desktop","False","mono","False","18","no","white","no","yes","768","legacy","32","11","C:/Users/katjo/OneDrive/Desktop/KEJ-subject-4.csv","legacy","2 3","Melodramatic Milgram","4.0.5","1","y","0","right","left","right","right","NA","369.0","394","734","369","NA","2","legacy","2","1024","2","48000","-16","experiment","4","even","2","264766","261528","4808","76283","262565","262565","256273","4814","75548","263565","266767","267137","5209","266766","NA","Sternberg Task","32","24911.0","45","1024"
"69","69","558","558","#3d3846","experiment","legacy","legacy","legacy","0","undefined","0","right","45","45","0","0","45","45","45","0","0","45","45","45","0","45","0","Sat Oct 21 14:54:49 2023","The main experiment item","True","SternbergTask.osexp","C:\Users\katjo\OneDrive\Desktop","False","mono","False","18","no","white","no","yes","768","legacy","33","11","C:/Users/katjo/OneDrive/Desktop/KEJ-subject-4.csv","legacy","1 7 5 2 9","Melodramatic Milgram","4.0.5","0","n","0","left","left","right","left","NA","778.0","394","734","778","NA","2","legacy","5","1024","2","48000","-16","experiment","4","even","3","270399","261528","4808","76283","268198","268198","267145","4814","75548","269198","272400","273178","5209","272400","NA","Sternberg Task","32","25689.0","46","1024"
"68","68","551","551","#3d3846","experiment","legacy","legacy","legacy","0","undefined","0","left","46","46","0","0","46","46","46","0","0","46","46","46","0","46","0","Sat Oct 21 14:54:49 2023","The main experiment item","True","SternbergTask.osexp","C:\Users\katjo\OneDrive\Desktop","False","mono","False","18","no","white","no","yes","768","legacy","34","11","C:/Users/katjo/OneDrive/Desktop/KEJ-subject-4.csv","legacy","8 9 5 6 7","Melodramatic Milgram","4.0.5","1","y","0","right","left","right","right","NA","226.0","394","734","226","NA","2","legacy","5","1024","2","48000","-16","experiment","4","even","8","276437","261528","4808","76283","274235","274236","273186","4814","75548","275236","278439","278666","5209","278438","NA","Sternberg Task","32","25915.0","47","1024"
"66","66","553","553","#3d3846","experiment","legacy","legacy","legacy","0","undefined","0","right","47","47","0","0","47","47","47","0","0","47","47","47","0","47","0","Sat Oct 21 14:54:49 2023","The main experiment item","True","SternbergTask.osexp","C:\Users\katjo\OneDrive\Desktop","False","mono","False","18","no","white","no","yes","768","legacy","35","11","C:/Users/katjo/OneDrive/Desktop/KEJ-subject-4.csv","legacy","8 4 3 9","Melodramatic Milgram","4.0.5","0","n","0","left","left","right","left","NA","646.0","394","734","646","NA","2","legacy","4","1024","2","48000","-16","experiment","4","even","5","281921","261528","4808","76283","279719","279720","278674","4814","75548","280720","283921","284568","5209","283921","NA","Sternberg Task","32","26561.0","48","1024"
"67","67","549","549","#3d3846","experiment","legacy","legacy","legacy","1","undefined","1","right","48","48","0","0","48","48","48","0","0","48","48","48","0","48","0","Sat Oct 21 14:54:49 2023","The main experiment item","True","SternbergTask.osexp","C:\Users\katjo\OneDrive\Desktop","False","mono","False","18","no","white","no","yes","768","legacy","36","11","C:/Users/katjo/OneDrive/Desktop/KEJ-subject-4.csv","legacy","1 8 7","Melodramatic Milgram","4.0.5","0","n","0","right","left","right","right","NA","383.0","394","734","383","NA","2","legacy","3","1024","2","48000","-16","experiment","4","even","4","287816","261528","4808","76283","285613","285614","284575","4814","75548","286615","289816","290200","5209","289816","NA","Sternberg Task","33","26944.0","49","1024"
"68","68","547","547","#3d3846","experiment","legacy","legacy","legacy","1","undefined","1","left","49","49","0","0","49","49","49","0","0","49","49","49","0","49","0","Sat Oct 21 14:54:49 2023","The main experiment item","True","SternbergTask.osexp","C:\Users\katjo\OneDrive\Desktop","False","mono","False","18","no","white","no","yes","768","legacy","37","11","C:/Users/katjo/OneDrive/Desktop/KEJ-subject-4.csv","legacy","6 5","Melodramatic Milgram","4.0.5","2","y","0","left","left","right","left","NA","432.0","394","734","432","NA","2","legacy","2","1024","2","48000","-16","experiment","4","even","5","293459","290208","4808","76283","291258","291258","284575","4814","75548","292258","295460","295893","5209","295460","NA","Sternberg Task","34","27376.0","50","1024"
"66","66","549","549","#3d3846","experiment","legacy","legacy","legacy","0","undefined","0","left","50","50","0","0","50","50","50","0","0","50","50","50","0","50","0","Sat Oct 21 14:54:49 2023","The main experiment item","True","SternbergTask.osexp","C:\Users\katjo\OneDrive\Desktop","False","mono","False","18","no","white","no","yes","768","legacy","38","11","C:/Users/katjo/OneDrive/Desktop/KEJ-subject-4.csv","legacy","4","Melodramatic Milgram","4.0.5","1","y","0","right","left","right","right","NA","626.0","394","734","626","NA","2","legacy","1","1024","2","48000","-16","experiment","4","even","4","299160","295919","4808","76283","296957","296958","284575","4814","75548","297959","301160","301786","5209","301160","NA","Sternberg Task","34","28002.0","51","1024"
"65","65","551","551","#3d3846","experiment","legacy","legacy","legacy","0","undefined","0","right","51","51","0","0","51","51","51","0","0","51","51","51","0","51","0","Sat Oct 21 14:54:49 2023","The main experiment item","True","SternbergTask.osexp","C:\Users\katjo\OneDrive\Desktop","False","mono","False","18","no","white","no","yes","768","legacy","39","11","C:/Users/katjo/OneDrive/Desktop/KEJ-subject-4.csv","legacy","6 9 4 5 3 2","Melodramatic Milgram","4.0.5","0","n","0","left","left","right","left","NA","687.0","394","734","687","NA","2","legacy","6","1024","2","48000","-16","experiment","4","even","8","305034","295919","4808","76283","302831","302832","301791","4814","75548","303833","307035","307723","5209","307035","NA","Sternberg Task","34","28689.0","52","1024"
"66","66","547","547","#3d3846","experiment","legacy","legacy","legacy","1","undefined","1","right","52","52","0","0","52","52","52","0","0","52","52","52","0","52","0","Sat Oct 21 14:54:49 2023","The main experiment item","True","SternbergTask.osexp","C:\Users\katjo\OneDrive\Desktop","False","mono","False","18","no","white","no","yes","768","legacy","40","11","C:/Users/katjo/OneDrive/Desktop/KEJ-subject-4.csv","legacy","1 3 2 6 9","Melodramatic Milgram","4.0.5","0","n","0","right","left","right","right","NA","308.0","394","734","308","NA","2","legacy","5","1024","2","48000","-16","experiment","4","even","5","310976","295919","4808","76283","308773","308774","307730","4814","75548","309774","312976","313285","5209","312976","NA","Sternberg Task","35","28997.0","53","1024"
"66","66","546","546","#3d3846","experiment","legacy","legacy","legacy","1","undefined","1","left","53","53","0","0","53","53","53","0","0","53","53","53","0","53","0","Sat Oct 21 14:54:49 2023","The main experiment item","True","SternbergTask.osexp","C:\Users\katjo\OneDrive\Desktop","False","mono","False","18","no","white","no","yes","768","legacy","41","11","C:/Users/katjo/OneDrive/Desktop/KEJ-subject-4.csv","legacy","2 5 4 8 7","Melodramatic Milgram","4.0.5","3","y","0","left","left","right","left","NA","513.0","394","734","513","NA","2","legacy","5","1024","2","48000","-16","experiment","4","even","4","316564","313312","4808","76283","314362","314363","307730","4814","75548","315363","318564","319078","5209","318564","NA","Sternberg Task","36","29510.0","54","1024"
"67","67","546","546","#3d3846","experiment","legacy","legacy","legacy","1","undefined","1","left","54","54","0","0","54","54","54","0","0","54","54","54","0","54","0","Sat Oct 21 14:54:49 2023","The main experiment item","True","SternbergTask.osexp","C:\Users\katjo\OneDrive\Desktop","False","mono","False","18","no","white","no","yes","768","legacy","42","11","C:/Users/katjo/OneDrive/Desktop/KEJ-subject-4.csv","legacy","7 1 8 5 6 2","Melodramatic Milgram","4.0.5","2","y","0","left","left","right","left","NA","537.0","394","734","537","NA","2","legacy","6","1024","2","48000","-16","experiment","4","even","1","322327","319086","4808","76283","320125","320126","307730","4814","75548","321126","324328","324866","5209","324328","NA","Sternberg Task","37","30047.0","55","1024"
"67","67","554","554","#3d3846","experiment","legacy","legacy","legacy","1","undefined","1","left","55","55","0","0","55","55","55","0","0","55","55","55","0","55","0","Sat Oct 21 14:54:49 2023","The main experiment item","True","SternbergTask.osexp","C:\Users\katjo\OneDrive\Desktop","False","mono","False","18","no","white","no","yes","768","legacy","43","11","C:/Users/katjo/OneDrive/Desktop/KEJ-subject-4.csv","legacy","6 9 7 4 5 1","Melodramatic Milgram","4.0.5","2","y","0","left","left","right","left","NA","1017.0","394","734","1017","NA","2","legacy","6","1024","2","48000","-16","experiment","4","even","9","328109","324869","4808","76283","325907","325908","307730","4814","75548","326908","330110","331128","5209","330110","NA","Sternberg Task","38","31064.0","56","1024"
"68","68","577","577","#3d3846","experiment","legacy","legacy","legacy","1","undefined","1","right","56","56","0","0","56","56","56","0","0","56","56","56","0","56","0","Sat Oct 21 14:54:49 2023","The main experiment item","True","SternbergTask.osexp","C:\Users\katjo\OneDrive\Desktop","False","mono","False","18","no","white","no","yes","768","legacy","44","11","C:/Users/katjo/OneDrive/Desktop/KEJ-subject-4.csv","legacy","6 3 1 7 9 8","Melodramatic Milgram","4.0.5","0","n","0","right","left","right","right","NA","1842.0","394","734","1842","NA","2","legacy","6","1024","2","48000","-16","experiment","4","even","4","334379","331137","4808","76283","332176","332177","307730","4814","75548","333177","336379","338222","5209","336379","NA","Sternberg Task","39","32906.0","57","1024"
"67","67","571","571","#3d3846","experiment","legacy","legacy","legacy","0","undefined","0","right","57","57","0","0","57","57","57","0","0","57","57","57","0","57","0","Sat Oct 21 14:54:49 2023","The main experiment item","True","SternbergTask.osexp","C:\Users\katjo\OneDrive\Desktop","False","mono","False","18","no","white","no","yes","768","legacy","45","11","C:/Users/katjo/OneDrive/Desktop/KEJ-subject-4.csv","legacy","5 3 2 6 9 8","Melodramatic Milgram","4.0.5","0","n","0","left","left","right","left","NA","219.0","394","734","219","NA","2","legacy","6","1024","2","48000","-16","experiment","4","even","4","341486","338230","4808","76283","339284","339285","307730","4814","75548","340285","343487","343707","5209","343486","NA","Sternberg Task","39","33125.0","58","1024"
"66","66","595","595","#3d3846","experiment","legacy","legacy","legacy","0","undefined","0","left","58","58","0","0","58","58","58","0","0","58","58","58","0","58","0","Sat Oct 21 14:54:49 2023","The main experiment item","True","SternbergTask.osexp","C:\Users\katjo\OneDrive\Desktop","False","mono","False","18","no","white","no","yes","768","legacy","46","11","C:/Users/katjo/OneDrive/Desktop/KEJ-subject-4.csv","legacy","8 9 6 1","Melodramatic Milgram","4.0.5","2","y","0","None","left","right","None","NA","2000.0","394","734","2000","NA","2","legacy","4","1024","2","48000","-16","experiment","4","even","9","346958","338230","4808","76283","344756","344757","343715","4814","75548","345757","348959","350959","5209","348959","NA","Sternberg Task","39","35125.0","59","1024"
"66","66","594","594","#3d3846","experiment","legacy","legacy","legacy","1","undefined","1","right","59","59","0","0","59","59","59","0","0","59","59","59","0","59","0","Sat Oct 21 14:54:49 2023","The main experiment item","True","SternbergTask.osexp","C:\Users\katjo\OneDrive\Desktop","False","mono","False","18","no","white","no","yes","768","legacy","47","11","C:/Users/katjo/OneDrive/Desktop/KEJ-subject-4.csv","legacy","8 4 3 5","Melodramatic Milgram","4.0.5","0","n","0","right","left","right","right","NA","544.0","394","734","544","NA","2","legacy","4","1024","2","48000","-16","experiment","4","even","6","354222","338230","4808","76283","352020","352021","350967","4814","75548","353021","356224","356769","5209","356223","NA","Sternberg Task","40","35669.0","60","1024"
"67","67","593","593","#3d3846","experiment","legacy","legacy","legacy","1","undefined","1","left","60","60","0","0","60","60","60","0","0","60","60","60","0","60","0","Sat Oct 21 14:54:49 2023","The main experiment item","True","SternbergTask.osexp","C:\Users\katjo\OneDrive\Desktop","False","mono","False","18","no","white","no","yes","768","legacy","48","11","C:/Users/katjo/OneDrive/Desktop/KEJ-subject-4.csv","legacy","3 2 1 4 7","Melodramatic Milgram","4.0.5","2","y","0","left","left","right","left","NA","522.0","394","734","522","NA","2","legacy","5","1024","2","48000","-16","experiment","4","even","2","360029","356777","4808","76283","357826","357826","350967","4814","75548","358827","362032","362555","5209","362031","NA","Sternberg Task","41","36191.0","61","1024"
"66","66","593","593","#3d3846","experiment","legacy","legacy","legacy","0","undefined","0","right","61","61","0","0","61","61","61","0","0","61","61","61","0","61","0","Sat Oct 21 14:54:49 2023","The main experiment item","True","SternbergTask.osexp","C:\Users\katjo\OneDrive\Desktop","False","mono","False","18","no","white","no","yes","768","legacy","49","11","C:/Users/katjo/OneDrive/Desktop/KEJ-subject-4.csv","legacy","8 6 3 4 7","Melodramatic Milgram","4.0.5","0","n","0","left","left","right","left","NA","599.0","394","734","599","NA","2","legacy","5","1024","2","48000","-16","experiment","4","even","1","365827","362563","4808","76283","363624","363625","350967","4814","75548","364626","367828","368428","5209","367828","NA","Sternberg Task","41","36790.0","62","1024"
"66","66","591","591","#3d3846","experiment","legacy","legacy","legacy","1","undefined","1","left","62","62","0","0","62","62","62","0","0","62","62","62","0","62","0","Sat Oct 21 14:54:49 2023","The main experiment item","True","SternbergTask.osexp","C:\Users\katjo\OneDrive\Desktop","False","mono","False","18","no","white","no","yes","768","legacy","50","11","C:/Users/katjo/OneDrive/Desktop/KEJ-subject-4.csv","legacy","3 4","Melodramatic Milgram","4.0.5","1","y","0","left","left","right","left","NA","497.0","394","734","497","NA","2","legacy","2","1024","2","48000","-16","experiment","4","even","3","371674","362563","4808","76283","369471","369472","368435","4814","75548","370473","373674","374172","5209","373674","NA","Sternberg Task","42","37287.0","63","1024"
"67","67","590","590","#3d3846","experiment","legacy","legacy","legacy","1","undefined","1","right","63","63","0","0","63","63","63","0","0","63","63","63","0","63","0","Sat Oct 21 14:54:49 2023","The main experiment item","True","SternbergTask.osexp","C:\Users\katjo\OneDrive\Desktop","False","mono","False","18","no","white","no","yes","768","legacy","51","11","C:/Users/katjo/OneDrive/Desktop/KEJ-subject-4.csv","legacy","8 5 7 3 6","Melodramatic Milgram","4.0.5","0","n","0","right","left","right","right","NA","518.0","394","734","518","NA","2","legacy","5","1024","2","48000","-16","experiment","4","even","9","377433","374180","4808","76283","375230","375231","368435","4814","75548","376232","379434","379952","5209","379434","NA","Sternberg Task","43","37805.0","64","1024"
"67","67","590","590","#3d3846","experiment","legacy","legacy","legacy","1","undefined","1","right","64","64","0","0","64","64","64","0","0","64","64","64","0","64","0","Sat Oct 21 14:54:49 2023","The main experiment item","True","SternbergTask.osexp","C:\Users\katjo\OneDrive\Desktop","False","mono","False","18","no","white","no","yes","768","legacy","52","11","C:/Users/katjo/OneDrive/Desktop/KEJ-subject-4.csv","legacy","6 2 9 3 8 4","Melodramatic Milgram","4.0.5","0","n","0","right","left","right","right","NA","563.0","394","734","563","NA","2","legacy","6","1024","2","48000","-16","experiment","4","even","1","383201","379960","4808","76283","380998","380998","368435","4814","75548","381999","385201","385765","5209","385201","NA","Sternberg Task","44","38368.0","65","1024"
"68","68","589","589","#3d3846","experiment","legacy","legacy","legacy","1","undefined","1","left","65","65","0","0","65","65","65","0","0","65","65","65","0","65","0","Sat Oct 21 14:54:49 2023","The main experiment item","True","SternbergTask.osexp","C:\Users\katjo\OneDrive\Desktop","False","mono","False","18","no","white","no","yes","768","legacy","53","11","C:/Users/katjo/OneDrive/Desktop/KEJ-subject-4.csv","legacy","7 6","Melodramatic Milgram","4.0.5","2","y","0","left","left","right","left","NA","553.0","394","734","553","NA","2","legacy","2","1024","2","48000","-16","experiment","4","even","6","389013","385773","4808","76283","386811","386811","368435","4814","75548","387812","391014","391568","5209","391013","NA","Sternberg Task","45","38921.0","66","1024"
"68","68","587","587","#3d3846","experiment","legacy","legacy","legacy","1","undefined","1","left","66","66","0","0","66","66","66","0","0","66","66","66","0","66","0","Sat Oct 21 14:54:49 2023","The main experiment item","True","SternbergTask.osexp","C:\Users\katjo\OneDrive\Desktop","False","mono","False","18","no","white","no","yes","768","legacy","54","11","C:/Users/katjo/OneDrive/Desktop/KEJ-subject-4.csv","legacy","2 3 7 4","Melodramatic Milgram","4.0.5","1","y","0","left","left","right","left","NA","457.0","394","734","457","NA","2","legacy","4","1024","2","48000","-16","experiment","4","even","2","394835","391594","4808","76283","392634","392634","368435","4814","75548","393634","396835","397293","5209","396835","NA","Sternberg Task","46","39378.0","67","1024"
"69","69","586","586","#3d3846","experiment","legacy","legacy","legacy","1","undefined","1","right","67","67","0","0","67","67","67","0","0","67","67","67","0","67","0","Sat Oct 21 14:54:49 2023","The main experiment item","True","SternbergTask.osexp","C:\Users\katjo\OneDrive\Desktop","False","mono","False","18","no","white","no","yes","768","legacy","55","11","C:/Users/katjo/OneDrive/Desktop/KEJ-subject-4.csv","legacy","2 8 7 9 5 3","Melodramatic Milgram","4.0.5","0","n","0","right","left","right","right","NA","472.0","394","734","472","NA","2","legacy","6","1024","2","48000","-16","experiment","4","even","6","400562","397301","4808","76283","398360","398360","368435","4814","75548","399361","402562","403035","5209","402562","NA","Sternberg Task","47","39850.0","68","1024"
"69","69","590","590","#3d3846","experiment","legacy","legacy","legacy","1","undefined","1","right","68","68","0","0","68","68","68","0","0","68","68","68","0","68","0","Sat Oct 21 14:54:49 2023","The main experiment item","True","SternbergTask.osexp","C:\Users\katjo\OneDrive\Desktop","False","mono","False","18","no","white","no","yes","768","legacy","56","11","C:/Users/katjo/OneDrive/Desktop/KEJ-subject-4.csv","legacy","2 8 9","Melodramatic Milgram","4.0.5","0","n","0","right","left","right","right","NA","900.0","394","734","900","NA","2","legacy","3","1024","2","48000","-16","experiment","4","even","6","406302","403042","4808","76283","404100","404101","368435","4814","75548","405101","408302","409203","5209","408302","NA","Sternberg Task","48","40750.0","69","1024"
"68","68","589","589","#3d3846","experiment","legacy","legacy","legacy","0","undefined","0","right","69","69","0","0","69","69","69","0","0","69","69","69","0","69","0","Sat Oct 21 14:54:49 2023","The main experiment item","True","SternbergTask.osexp","C:\Users\katjo\OneDrive\Desktop","False","mono","False","18","no","white","no","yes","768","legacy","57","11","C:/Users/katjo/OneDrive/Desktop/KEJ-subject-4.csv","legacy","7 9","Melodramatic Milgram","4.0.5","0","n","0","left","left","right","left","NA","492.0","394","734","492","NA","2","legacy","2","1024","2","48000","-16","experiment","4","even","1","412470","409229","4808","76283","410267","410268","368435","4814","75548","411268","414470","414964","5209","414470","NA","Sternberg Task","48","41242.0","70","1024"
"69","69","589","589","#3d3846","experiment","legacy","legacy","legacy","1","undefined","1","right","70","70","0","0","70","70","70","0","0","70","70","70","0","70","0","Sat Oct 21 14:54:49 2023","The main experiment item","True","SternbergTask.osexp","C:\Users\katjo\OneDrive\Desktop","False","mono","False","18","no","white","no","yes","768","legacy","58","11","C:/Users/katjo/OneDrive/Desktop/KEJ-subject-4.csv","legacy","4 8 1 2","Melodramatic Milgram","4.0.5","0","n","0","right","left","right","right","NA","596.0","394","734","596","NA","2","legacy","4","1024","2","48000","-16","experiment","4","even","7","418246","409229","4808","76283","416043","416044","414990","4814","75548","417045","420246","420843","5209","420246","NA","Sternberg Task","49","41838.0","71","1024"
"69","69","586","586","#3d3846","experiment","legacy","legacy","legacy","1","undefined","1","left","71","71","0","0","71","71","71","0","0","71","71","71","0","71","0","Sat Oct 21 14:54:49 2023","The main experiment item","True","SternbergTask.osexp","C:\Users\katjo\OneDrive\Desktop","False","mono","False","18","no","white","no","yes","768","legacy","59","11","C:/Users/katjo/OneDrive/Desktop/KEJ-subject-4.csv","legacy","5 7 3 6 2","Melodramatic Milgram","4.0.5","5","y","0","left","left","right","left","NA","385.0","394","734","385","NA","2","legacy","5","1024","2","48000","-16","experiment","4","even","2","424092","420852","4808","76283","421887","421890","414990","4814","75548","422890","426092","426478","5209","426092","NA","Sternberg Task","50","42223.0","72","1024"
"69","69","586","586","#3d3846","experiment","legacy","legacy","legacy","1","undefined","1","right","72","72","0","0","72","72","72","0","0","72","72","72","0","72","0","Sat Oct 21 14:54:49 2023","The main experiment item","True","SternbergTask.osexp","C:\Users\katjo\OneDrive\Desktop","False","mono","False","18","no","white","no","yes","768","legacy","60","11","C:/Users/katjo/OneDrive/Desktop/KEJ-subject-4.csv","legacy","1 6 4","Melodramatic Milgram","4.0.5","0","n","0","right","left","right","right","NA","570.0","394","734","570","NA","2","legacy","3","1024","2","48000","-16","experiment","4","even","7","429746","426505","4808","76283","427543","427544","414990","4814","75548","428545","431746","432317","5209","431746","NA","Sternberg Task","51","42793.0","73","1024"
"68","68","585","585","#3d3846","experiment","legacy","legacy","legacy","0","undefined","0","left","73","73","0","0","73","73","73","0","0","73","73","73","0","73","0","Sat Oct 21 14:54:49 2023","The main experiment item","True","SternbergTask.osexp","C:\Users\katjo\OneDrive\Desktop","False","mono","False","18","no","white","no","yes","768","legacy","61","11","C:/Users/katjo/OneDrive/Desktop/KEJ-subject-4.csv","legacy","3 4 9 6 2 9","Melodramatic Milgram","4.0.5","5","y","0","right","left","right","right","NA","531.0","394","734","531","NA","2","legacy","6","1024","2","48000","-16","experiment","4","even","2","435567","432325","4808","76283","433365","433366","414990","4814","75548","434366","437568","438100","5209","437568","NA","Sternberg Task","51","43324.0","74","1024"
"68","68","578","578","#3d3846","experiment","legacy","legacy","legacy","0","undefined","0","right","74","74","0","0","74","74","74","0","0","74","74","74","0","74","0","Sat Oct 21 14:54:49 2023","The main experiment item","True","SternbergTask.osexp","C:\Users\katjo\OneDrive\Desktop","False","mono","False","18","no","white","no","yes","768","legacy","62","11","C:/Users/katjo/OneDrive/Desktop/KEJ-subject-4.csv","legacy","8 9","Melodramatic Milgram","4.0.5","0","n","0","left","left","right","left","NA","82.0","394","734","82","NA","2","legacy","2","1024","2","48000","-16","experiment","4","even","5","441353","432325","4808","76283","439151","439152","438108","4814","75548","440152","443354","443437","5209","443353","NA","Sternberg Task","51","43406.0","75","1024"
"68","68","573","573","#3d3846","experiment","legacy","legacy","legacy","1","undefined","1","right","75","75","0","0","75","75","75","0","0","75","75","75","0","75","0","Sat Oct 21 14:54:49 2023","The main experiment item","True","SternbergTask.osexp","C:\Users\katjo\OneDrive\Desktop","False","mono","False","18","no","white","no","yes","768","legacy","63","11","C:/Users/katjo/OneDrive/Desktop/KEJ-subject-4.csv","legacy","7 1 8 4 9 3","Melodramatic Milgram","4.0.5","0","n","0","right","left","right","right","NA","208.0","394","734","208","NA","2","legacy","6","1024","2","48000","-16","experiment","4","even","6","446679","432325","4808","76283","444477","444478","443440","4814","75548","445478","448681","448890","5209","448680","NA","Sternberg Task","52","43614.0","76","1024"
"68","68","572","572","#3d3846","experiment","legacy","legacy","legacy","1","undefined","1","left","76","76","0","0","76","76","76","0","0","76","76","76","0","76","0","Sat Oct 21 14:54:49 2023","The main experiment item","True","SternbergTask.osexp","C:\Users\katjo\OneDrive\Desktop","False","mono","False","18","no","white","no","yes","768","legacy","64","11","C:/Users/katjo/OneDrive/Desktop/KEJ-subject-4.csv","legacy","4 3 2 5 8","Melodramatic Milgram","4.0.5","2","y","0","left","left","right","left","NA","444.0","394","734","444","NA","2","legacy","5","1024","2","48000","-16","experiment","4","even","3","452167","448916","4808","76283","449965","449965","443440","4814","75548","450966","454167","454612","5209","454167","NA","Sternberg Task","53","44058.0","77","1024"
"69","69","567","567","#3d3846","experiment","legacy","legacy","legacy","1","undefined","1","right","77","77","0","0","77","77","77","0","0","77","77","77","0","77","0","Sat Oct 21 14:54:49 2023","The main experiment item","True","SternbergTask.osexp","C:\Users\katjo\OneDrive\Desktop","False","mono","False","18","no","white","no","yes","768","legacy","65","11","C:/Users/katjo/OneDrive/Desktop/KEJ-subject-4.csv","legacy","7 1 5 6 3","Melodramatic Milgram","4.0.5","0","n","0","right","left","right","right","NA","215.0","394","734","215","NA","2","legacy","5","1024","2","48000","-16","experiment","4","even","8","457860","454619","4808","76283","455657","455658","443440","4814","75548","456659","459860","460076","5209","459860","NA","Sternberg Task","54","44273.0","78","1024"
"69","69","566","566","#3d3846","experiment","legacy","legacy","legacy","1","undefined","1","left","78","78","0","0","78","78","78","0","0","78","78","78","0","78","0","Sat Oct 21 14:54:49 2023","The main experiment item","True","SternbergTask.osexp","C:\Users\katjo\OneDrive\Desktop","False","mono","False","18","no","white","no","yes","768","legacy","66","11","C:/Users/katjo/OneDrive/Desktop/KEJ-subject-4.csv","legacy","7 2 3","Melodramatic Milgram","4.0.5","3","y","0","left","left","right","left","NA","480.0","394","734","480","NA","2","legacy","3","1024","2","48000","-16","experiment","4","even","3","463322","460084","4808","76283","461120","461121","443440","4814","75548","462121","465322","465803","5209","465322","NA","Sternberg Task","55","44753.0","79","1024"
"68","68","565","565","#3d3846","experiment","legacy","legacy","legacy","0","undefined","0","right","79","79","0","0","79","79","79","0","0","79","79","79","0","79","0","Sat Oct 21 14:54:49 2023","The main experiment item","True","SternbergTask.osexp","C:\Users\katjo\OneDrive\Desktop","False","mono","False","18","no","white","no","yes","768","legacy","67","11","C:/Users/katjo/OneDrive/Desktop/KEJ-subject-4.csv","legacy","6 9 4 5 2","Melodramatic Milgram","4.0.5","0","n","0","left","left","right","left","NA","467.0","394","734","467","NA","2","legacy","5","1024","2","48000","-16","experiment","4","even","1","469051","465811","4808","76283","466849","466850","443440","4814","75548","467850","471051","471519","5209","471051","NA","Sternberg Task","55","45220.0","80","1024"
"69","69","564","564","#3d3846","experiment","legacy","legacy","legacy","1","undefined","1","right","80","80","0","0","80","80","80","0","0","80","80","80","0","80","0","Sat Oct 21 14:54:49 2023","The main experiment item","True","SternbergTask.osexp","C:\Users\katjo\OneDrive\Desktop","False","mono","False","18","no","white","no","yes","768","legacy","68","11","C:/Users/katjo/OneDrive/Desktop/KEJ-subject-4.csv","legacy","6 8","Melodramatic Milgram","4.0.5","0","n","0","right","left","right","right","NA","512.0","394","734","512","NA","2","legacy","2","1024","2","48000","-16","experiment","4","even","9","474769","465811","4808","76283","472567","472568","471527","4814","75548","473568","476769","477282","5209","476769","NA","Sternberg Task","56","45732.0","81","1024"
"69","69","564","564","#3d3846","experiment","legacy","legacy","legacy","1","undefined","1","right","81","81","0","0","81","81","81","0","0","81","81","81","0","81","0","Sat Oct 21 14:54:49 2023","The main experiment item","True","SternbergTask.osexp","C:\Users\katjo\OneDrive\Desktop","False","mono","False","18","no","white","no","yes","768","legacy","69","11","C:/Users/katjo/OneDrive/Desktop/KEJ-subject-4.csv","legacy","9 8 2 7 4","Melodramatic Milgram","4.0.5","0","n","0","right","left","right","right","NA","552.0","394","734","552","NA","2","legacy","5","1024","2","48000","-16","experiment","4","even","5","480543","477290","4808","76283","478341","478342","471527","4814","75548","479342","482545","483098","5209","482544","NA","Sternberg Task","57","46284.0","82","1024"
"69","69","565","565","#3d3846","experiment","legacy","legacy","legacy","1","undefined","1","right","82","82","0","0","82","82","82","0","0","82","82","82","0","82","0","Sat Oct 21 14:54:49 2023","The main experiment item","True","SternbergTask.osexp","C:\Users\katjo\OneDrive\Desktop","False","mono","False","18","no","white","no","yes","768","legacy","70","11","C:/Users/katjo/OneDrive/Desktop/KEJ-subject-4.csv","legacy","3 4 2","Melodramatic Milgram","4.0.5","0","n","0","right","left","right","right","NA","613.0","394","734","613","NA","2","legacy","3","1024","2","48000","-16","experiment","4","even","5","486346","483105","4808","76283","484144","484145","471527","4814","75548","485145","488348","488961","5209","488347","NA","Sternberg Task","58","46897.0","83","1024"
"70","70","565","565","#3d3846","experiment","legacy","legacy","legacy","1","undefined","1","right","83","83","0","0","83","83","83","0","0","83","83","83","0","83","0","Sat Oct 21 14:54:49 2023","The main experiment item","True","SternbergTask.osexp","C:\Users\katjo\OneDrive\Desktop","False","mono","False","18","no","white","no","yes","768","legacy","71","11","C:/Users/katjo/OneDrive/Desktop/KEJ-subject-4.csv","legacy","2 5 1 4","Melodramatic Milgram","4.0.5","0","n","0","right","left","right","right","NA","603.0","394","734","603","NA","2","legacy","4","1024","2","48000","-16","experiment","4","even","6","492267","488988","4808","76283","490064","490065","471527","4814","75548","491065","494267","494871","5209","494267","NA","Sternberg Task","59","47500.0","84","1024"
"69","69","569","569","#3d3846","experiment","legacy","legacy","legacy","0","undefined","0","left","84","84","0","0","84","84","84","0","0","84","84","84","0","84","0","Sat Oct 21 14:54:49 2023","The main experiment item","True","SternbergTask.osexp","C:\Users\katjo\OneDrive\Desktop","False","mono","False","18","no","white","no","yes","768","legacy","72","11","C:/Users/katjo/OneDrive/Desktop/KEJ-subject-4.csv","legacy","9 1 6 7 8","Melodramatic Milgram","4.0.5","1","y","0","right","left","right","right","NA","920.0","394","734","920","NA","2","legacy","5","1024","2","48000","-16","experiment","4","even","9","498122","494878","4808","76283","495918","495919","471527","4814","75548","496920","500122","501043","5209","500122","NA","Sternberg Task","59","48420.0","85","1024"
"69","69","569","569","#3d3846","experiment","legacy","legacy","legacy","1","undefined","1","left","85","85","0","0","85","85","85","0","0","85","85","85","0","85","0","Sat Oct 21 14:54:49 2023","The main experiment item","True","SternbergTask.osexp","C:\Users\katjo\OneDrive\Desktop","False","mono","False","18","no","white","no","yes","768","legacy","73","11","C:/Users/katjo/OneDrive/Desktop/KEJ-subject-4.csv","legacy","8 9 5 7 1 6","Melodramatic Milgram","4.0.5","4","y","0","left","left","right","left","NA","591.0","394","734","591","NA","2","legacy","6","1024","2","48000","-16","experiment","4","even","7","504306","494878","4808","76283","502104","502105","501051","4814","75548","503105","506306","506898","5209","506306","NA","Sternberg Task","60","49011.0","86","1024"
"70","70","571","571","#3d3846","experiment","legacy","legacy","legacy","1","undefined","1","left","86","86","0","0","86","86","86","0","0","86","86","86","0","86","0","Sat Oct 21 14:54:49 2023","The main experiment item","True","SternbergTask.osexp","C:\Users\katjo\OneDrive\Desktop","False","mono","False","18","no","white","no","yes","768","legacy","74","11","C:/Users/katjo/OneDrive/Desktop/KEJ-subject-4.csv","legacy","2 4 6 9","Melodramatic Milgram","4.0.5","3","y","0","left","left","right","left","NA","682.0","394","734","682","NA","2","legacy","4","1024","2","48000","-16","experiment","4","even","6","510166","506924","4808","76283","507965","507965","501051","4814","75548","508965","512167","512850","5209","512167","NA","Sternberg Task","61","49693.0","87","1024"
"70","70","571","571","#3d3846","experiment","legacy","legacy","legacy","1","undefined","1","right","87","87","0","0","87","87","87","0","0","87","87","87","0","87","0","Sat Oct 21 14:54:49 2023","The main experiment item","True","SternbergTask.osexp","C:\Users\katjo\OneDrive\Desktop","False","mono","False","18","no","white","no","yes","768","legacy","75","11","C:/Users/katjo/OneDrive/Desktop/KEJ-subject-4.csv","legacy","7 3 2 8","Melodramatic Milgram","4.0.5","0","n","0","right","left","right","right","NA","599.0","394","734","599","NA","2","legacy","4","1024","2","48000","-16","experiment","4","even","4","516106","512858","4808","76283","513903","513904","501051","4814","75548","514905","518106","518706","5209","518106","NA","Sternberg Task","62","50292.0","88","1024"
"69","69","572","572","#3d3846","experiment","legacy","legacy","legacy","0","undefined","0","left","88","88","0","0","88","88","88","0","0","88","88","88","0","88","0","Sat Oct 21 14:54:49 2023","The main experiment item","True","SternbergTask.osexp","C:\Users\katjo\OneDrive\Desktop","False","mono","False","18","no","white","no","yes","768","legacy","76","11","C:/Users/katjo/OneDrive/Desktop/KEJ-subject-4.csv","legacy","8 5 4 7 3 1","Melodramatic Milgram","4.0.5","2","y","0","right","left","right","right","NA","664.0","394","734","664","NA","2","legacy","6","1024","2","48000","-16","experiment","4","even","5","521977","518732","4808","76283","519775","519776","501051","4814","75548","520776","523978","524643","5209","523978","NA","Sternberg Task","62","50956.0","89","1024"
"70","70","573","573","#3d3846","experiment","legacy","legacy","legacy","1","undefined","1","right","89","89","0","0","89","89","89","0","0","89","89","89","0","89","0","Sat Oct 21 14:54:49 2023","The main experiment item","True","SternbergTask.osexp","C:\Users\katjo\OneDrive\Desktop","False","mono","False","18","no","white","no","yes","768","legacy","77","11","C:/Users/katjo/OneDrive/Desktop/KEJ-subject-4.csv","legacy","8 5 4 2 9 6","Melodramatic Milgram","4.0.5","0","n","0","right","left","right","right","NA","644.0","394","734","644","NA","2","legacy","6","1024","2","48000","-16","experiment","4","even","3","527905","518732","4808","76283","525703","525704","524664","4814","75548","526704","529906","530550","5209","529906","NA","Sternberg Task","63","51600.0","90","1024"
"70","70","567","567","#3d3846","experiment","legacy","legacy","legacy","1","undefined","1","left","90","90","0","0","90","90","90","0","0","90","90","90","0","90","0","Sat Oct 21 14:54:49 2023","The main experiment item","True","SternbergTask.osexp","C:\Users\katjo\OneDrive\Desktop","False","mono","False","18","no","white","no","yes","768","legacy","78","11","C:/Users/katjo/OneDrive/Desktop/KEJ-subject-4.csv","legacy","9 5 3 8 4","Melodramatic Milgram","4.0.5","1","y","0","left","left","right","left","NA","28.0","394","734","28","NA","2","legacy","5","1024","2","48000","-16","experiment","4","even","9","533798","530558","4808","76283","531596","531597","524664","4814","75548","532597","535799","535828","5209","535798","NA","Sternberg Task","64","51628.0","91","1024"
"70","70","566","566","#3d3846","experiment","legacy","legacy","legacy","1","undefined","1","left","91","91","0","0","91","91","91","0","0","91","91","91","0","91","0","Sat Oct 21 14:54:49 2023","The main experiment item","True","SternbergTask.osexp","C:\Users\katjo\OneDrive\Desktop","False","mono","False","18","no","white","no","yes","768","legacy","79","11","C:/Users/katjo/OneDrive/Desktop/KEJ-subject-4.csv","legacy","6 2","Melodramatic Milgram","4.0.5","1","y","0","left","left","right","left","NA","455.0","394","734","455","NA","2","legacy","2","1024","2","48000","-16","experiment","4","even","6","539102","535836","4808","76283","536900","536901","524664","4814","75548","537901","541102","541558","5209","541102","NA","Sternberg Task","65","52083.0","92","1024"
"70","70","570","570","#3d3846","experiment","legacy","legacy","legacy","1","undefined","1","right","92","92","0","0","92","92","92","0","0","92","92","92","0","92","0","Sat Oct 21 14:54:49 2023","The main experiment item","True","SternbergTask.osexp","C:\Users\katjo\OneDrive\Desktop","False","mono","False","18","no","white","no","yes","768","legacy","80","11","C:/Users/katjo/OneDrive/Desktop/KEJ-subject-4.csv","legacy","5 3 8 7 2 4","Melodramatic Milgram","4.0.5","0","n","0","right","left","right","right","NA","971.0","394","734","971","NA","2","legacy","6","1024","2","48000","-16","experiment","4","even","9","544829","541585","4808","76283","542626","542627","524664","4814","75548","543628","546829","547801","5209","546829","NA","Sternberg Task","66","53054.0","93","1024"
"71","71","573","573","#3d3846","experiment","legacy","legacy","legacy","1","undefined","1","right","93","93","0","0","93","93","93","0","0","93","93","93","0","93","0","Sat Oct 21 14:54:49 2023","The main experiment item","True","SternbergTask.osexp","C:\Users\katjo\OneDrive\Desktop","False","mono","False","18","no","white","no","yes","768","legacy","81","11","C:/Users/katjo/OneDrive/Desktop/KEJ-subject-4.csv","legacy","4 1","Melodramatic Milgram","4.0.5","0","n","0","right","left","right","right","NA","808.0","394","734","808","NA","2","legacy","2","1024","2","48000","-16","experiment","4","even","6","551079","547827","4808","76283","548876","548877","524664","4814","75548","549878","553079","553888","5209","553079","NA","Sternberg Task","67","53862.0","94","1024"
"71","71","574","574","#3d3846","experiment","legacy","legacy","legacy","1","undefined","1","left","94","94","0","0","94","94","94","0","0","94","94","94","0","94","0","Sat Oct 21 14:54:49 2023","The main experiment item","True","SternbergTask.osexp","C:\Users\katjo\OneDrive\Desktop","False","mono","False","18","no","white","no","yes","768","legacy","82","11","C:/Users/katjo/OneDrive/Desktop/KEJ-subject-4.csv","legacy","4 7 6 8 2 3","Melodramatic Milgram","4.0.5","6","y","0","left","left","right","left","NA","757.0","394","734","757","NA","2","legacy","6","1024","2","48000","-16","experiment","4","even","3","557146","553893","4808","76283","554944","554944","524664","4814","75548","555945","559147","559905","5209","559147","NA","Sternberg Task","68","54619.0","95","1024"
"71","71","575","575","#3d3846","experiment","legacy","legacy","legacy","1","undefined","1","right","95","95","0","0","95","95","95","0","0","95","95","95","0","95","0","Sat Oct 21 14:54:49 2023","The main experiment item","True","SternbergTask.osexp","C:\Users\katjo\OneDrive\Desktop","False","mono","False","18","no","white","no","yes","768","legacy","83","11","C:/Users/katjo/OneDrive/Desktop/KEJ-subject-4.csv","legacy","7 4 2 8 1 9","Melodramatic Milgram","4.0.5","0","n","0","right","left","right","right","NA","657.0","394","734","657","NA","2","legacy","6","1024","2","48000","-16","experiment","4","even","5","563156","559913","4808","76283","560954","560955","524664","4814","75548","561955","565156","565814","5209","565156","NA","Sternberg Task","69","55276.0","96","1024"
"72","72","587","587","#3d3846","experiment","legacy","legacy","legacy","1","undefined","1","right","96","96","0","0","96","96","96","0","0","96","96","96","0","96","0","Sat Oct 21 14:54:49 2023","The main experiment item","True","SternbergTask.osexp","C:\Users\katjo\OneDrive\Desktop","False","mono","False","18","no","white","no","yes","768","legacy","84","11","C:/Users/katjo/OneDrive/Desktop/KEJ-subject-4.csv","legacy","2 8 9 4 1","Melodramatic Milgram","4.0.5","0","n","0","right","left","right","right","NA","1703.0","394","734","1703","NA","2","legacy","5","1024","2","48000","-16","experiment","4","even","5","569076","565822","4808","76283","566874","566875","524664","4814","75548","567875","571076","572780","5209","571076","NA","Sternberg Task","70","56979.0","97","1024"
"72","72","590","590","#3d3846","experiment","legacy","legacy","legacy","1","undefined","1","left","97","97","0","0","97","97","97","0","0","97","97","97","0","97","0","Sat Oct 21 14:54:49 2023","The main experiment item","True","SternbergTask.osexp","C:\Users\katjo\OneDrive\Desktop","False","mono","False","18","no","white","no","yes","768","legacy","85","11","C:/Users/katjo/OneDrive/Desktop/KEJ-subject-4.csv","legacy","8 3","Melodramatic Milgram","4.0.5","2","y","0","left","left","right","left","NA","932.0","394","734","932","NA","2","legacy","2","1024","2","48000","-16","experiment","4","even","3","576037","572787","4808","76283","573836","573836","524664","4814","75548","574836","578037","578970","5209","578037","NA","Sternberg Task","71","57911.0","98","1024"
"71","71","593","593","#3d3846","experiment","legacy","legacy","legacy","0","undefined","0","left","98","98","0","0","98","98","98","0","0","98","98","98","0","98","0","Sat Oct 21 14:54:49 2023","The main experiment item","True","SternbergTask.osexp","C:\Users\katjo\OneDrive\Desktop","False","mono","False","18","no","white","no","yes","768","legacy","86","11","C:/Users/katjo/OneDrive/Desktop/KEJ-subject-4.csv","legacy","5 7 8 2 3 8","Melodramatic Milgram","4.0.5","5","y","0","right","left","right","right","NA","808.0","394","734","808","NA","2","legacy","6","1024","2","48000","-16","experiment","4","even","3","582259","578996","4808","76283","580056","580057","524664","4814","75548","581058","584259","585069","5209","584259","NA","Sternberg Task","71","58719.0","99","1024"
"72","72","591","591","#3d3846","experiment","legacy","legacy","legacy","1","undefined","1","left","99","99","0","0","99","99","99","0","0","99","99","99","0","99","0","Sat Oct 21 14:54:49 2023","The main experiment item","True","SternbergTask.osexp","C:\Users\katjo\OneDrive\Desktop","False","mono","False","18","no","white","no","yes","768","legacy","87","11","C:/Users/katjo/OneDrive/Desktop/KEJ-subject-4.csv","legacy","9 6 2 4 1","Melodramatic Milgram","4.0.5","4","y","0","left","left","right","left","NA","384.0","394","734","384","NA","2","legacy","5","1024","2","48000","-16","experiment","4","even","4","588313","578996","4808","76283","586111","586112","585073","4814","75548","587112","590314","590699","5209","590313","NA","Sternberg Task","72","59103.0","100","1024"
"72","72","588","588","#3d3846","experiment","legacy","legacy","legacy","1","undefined","1","left","100","100","0","0","100","100","100","0","0","100","100","100","0","100","0","Sat Oct 21 14:54:49 2023","The main experiment item","True","SternbergTask.osexp","C:\Users\katjo\OneDrive\Desktop","False","mono","False","18","no","white","no","yes","768","legacy","88","11","C:/Users/katjo/OneDrive/Desktop/KEJ-subject-4.csv","legacy","9 3 8 2 1 4","Melodramatic Milgram","4.0.5","3","y","0","left","left","right","left","NA","289.0","394","734","289","NA","2","legacy","6","1024","2","48000","-16","experiment","4","even","8","593946","590702","4808","76283","591743","591744","585073","4814","75548","592745","595947","596237","5209","595947","NA","Sternberg Task","73","59392.0","101","1024"
"72","72","583","583","#3d3846","experiment","legacy","legacy","legacy","1","undefined","1","right","101","101","0","0","101","101","101","0","0","101","101","101","0","101","0","Sat Oct 21 14:54:49 2023","The main experiment item","True","SternbergTask.osexp","C:\Users\katjo\OneDrive\Desktop","False","mono","False","18","no","white","no","yes","768","legacy","89","11","C:/Users/katjo/OneDrive/Desktop/KEJ-subject-4.csv","legacy","6 9 5","Melodramatic Milgram","4.0.5","0","n","0","right","left","right","right","NA","95.0","394","734","95","NA","2","legacy","3","1024","2","48000","-16","experiment","4","even","8","599506","596264","4808","76283","597303","597304","585073","4814","75548","598305","601507","601603","5209","601507","NA","Sternberg Task","74","59487.0","102","1024"
"71","71","578","578","#3d3846","experiment","legacy","legacy","legacy","0","undefined","0","left","102","102","0","0","102","102","102","0","0","102","102","102","0","102","0","Sat Oct 21 14:54:49 2023","The main experiment item","True","SternbergTask.osexp","C:\Users\katjo\OneDrive\Desktop","False","mono","False","18","no","white","no","yes","768","legacy","90","11","C:/Users/katjo/OneDrive/Desktop/KEJ-subject-4.csv","legacy","8 5 3 7 4 6","Melodramatic Milgram","4.0.5","6","y","0","right","left","right","right","NA","135.0","394","734","135","NA","2","legacy","6","1024","2","48000","-16","experiment","4","even","6","604849","601611","4808","76283","602647","602648","585073","4814","75548","603648","606850","606986","5209","606849","NA","Sternberg Task","74","59622.0","103","1024"
"71","71","592","592","#3d3846","experiment","legacy","legacy","legacy","0","undefined","0","right","103","103","0","0","103","103","103","0","0","103","103","103","0","103","0","Sat Oct 21 14:54:49 2023","The main experiment item","True","SternbergTask.osexp","C:\Users\katjo\OneDrive\Desktop","False","mono","False","18","no","white","no","yes","768","legacy","91","11","C:/Users/katjo/OneDrive/Desktop/KEJ-subject-4.csv","legacy","9 5 3 2 8 6","Melodramatic Milgram","4.0.5","0","n","0","None","left","right","None","NA","2001.0","394","734","2001","NA","2","legacy","6","1024","2","48000","-16","experiment","4","even","7","610266","601611","4808","76283","608065","608066","607013","4814","75548","609066","612266","614267","5209","612266","NA","Sternberg Task","74","61623.0","104","1024"
"71","71","587","587","#3d3846","experiment","legacy","legacy","legacy","1","undefined","1","right","104","104","0","0","104","104","104","0","0","104","104","104","0","104","0","Sat Oct 21 14:54:49 2023","The main experiment item","True","SternbergTask.osexp","C:\Users\katjo\OneDrive\Desktop","False","mono","False","18","no","white","no","yes","768","legacy","92","11","C:/Users/katjo/OneDrive/Desktop/KEJ-subject-4.csv","legacy","1 5 3 2 8","Melodramatic Milgram","4.0.5","0","n","0","right","left","right","right","NA","106.0","394","734","106","NA","2","legacy","5","1024","2","48000","-16","experiment","4","even","4","617534","601611","4808","76283","615331","615332","614294","4814","75548","616333","619536","619643","5209","619535","NA","Sternberg Task","75","61729.0","105","1024"
"71","71","584","584","#3d3846","experiment","legacy","legacy","legacy","1","undefined","1","right","105","105","0","0","105","105","105","0","0","105","105","105","0","105","0","Sat Oct 21 14:54:49 2023","The main experiment item","True","SternbergTask.osexp","C:\Users\katjo\OneDrive\Desktop","False","mono","False","18","no","white","no","yes","768","legacy","93","11","C:/Users/katjo/OneDrive/Desktop/KEJ-subject-4.csv","legacy","6 9 7 3 8 2","Melodramatic Milgram","4.0.5","0","n","0","right","left","right","right","NA","182.0","394","734","182","NA","2","legacy","6","1024","2","48000","-16","experiment","4","even","5","622911","619669","4808","76283","620709","620709","614294","4814","75548","621710","624914","625097","5209","624913","NA","Sternberg Task","76","61911.0","106","1024"
"71","71","583","583","#3d3846","experiment","legacy","legacy","legacy","1","undefined","1","left","106","106","0","0","106","106","106","0","0","106","106","106","0","106","0","Sat Oct 21 14:54:49 2023","The main experiment item","True","SternbergTask.osexp","C:\Users\katjo\OneDrive\Desktop","False","mono","False","18","no","white","no","yes","768","legacy","94","11","C:/Users/katjo/OneDrive/Desktop/KEJ-subject-4.csv","legacy","3 9 6 2","Melodramatic Milgram","4.0.5","4","y","0","left","left","right","left","NA","513.0","394","734","513","NA","2","legacy","4","1024","2","48000","-16","experiment","4","even","2","628365","625105","4808","76283","626162","626163","614294","4814","75548","627164","630366","630880","5209","630366","NA","Sternberg Task","77","62424.0","107","1024"
"72","72","582","582","#3d3846","experiment","legacy","legacy","legacy","1","undefined","1","left","107","107","0","0","107","107","107","0","0","107","107","107","0","107","0","Sat Oct 21 14:54:49 2023","The main experiment item","True","SternbergTask.osexp","C:\Users\katjo\OneDrive\Desktop","False","mono","False","18","no","white","no","yes","768","legacy","95","11","C:/Users/katjo/OneDrive/Desktop/KEJ-subject-4.csv","legacy","4 6 5 8","Melodramatic Milgram","4.0.5","1","y","0","left","left","right","left","NA","433.0","394","734","433","NA","2","legacy","4","1024","2","48000","-16","experiment","4","even","4","634138","630883","4808","76283","631935","631936","614294","4814","75548","632937","636139","636574","5209","636139","NA","Sternberg Task","78","62857.0","108","1024"
"72","72","584","584","#3d3846","experiment","legacy","legacy","legacy","1","undefined","1","right","108","108","0","0","108","108","108","0","0","108","108","108","0","108","0","Sat Oct 21 14:54:49 2023","The main experiment item","True","SternbergTask.osexp","C:\Users\katjo\OneDrive\Desktop","False","mono","False","18","no","white","no","yes","768","legacy","96","11","C:/Users/katjo/OneDrive/Desktop/KEJ-subject-4.csv","legacy","3 9 8 1 6 4","Melodramatic Milgram","4.0.5","0","n","0","right","left","right","right","NA","804.0","394","734","804","NA","2","legacy","6","1024","2","48000","-16","experiment","4","even","7","639850","636600","4808","76283","637649","637649","614294","4814","75548","638649","641851","642656","5209","641851","NA","Sternberg Task","79","63661.0","109","1024"
"72","72","589","589","#3d3846","experiment","legacy","legacy","legacy","1","undefined","1","left","109","109","0","0","109","109","109","0","0","109","109","109","0","109","0","Sat Oct 21 14:54:49 2023","The main experiment item","True","SternbergTask.osexp","C:\Users\katjo\OneDrive\Desktop","False","mono","False","18","no","white","no","yes","768","legacy","97","11","C:/Users/katjo/OneDrive/Desktop/KEJ-subject-4.csv","legacy","8 7 3","Melodramatic Milgram","4.0.5","1","y","0","left","left","right","left","NA","1163.0","394","734","1163","NA","2","legacy","3","1024","2","48000","-16","experiment","4","even","8","645921","642664","4808","76283","643719","643720","614294","4814","75548","644720","647921","649085","5209","647921","NA","Sternberg Task","80","64824.0","110","1024"
"72","72","602","602","#3d3846","experiment","legacy","legacy","legacy","0","undefined","0","right","110","110","0","0","110","110","110","0","0","110","110","110","0","110","0","Sat Oct 21 14:54:49 2023","The main experiment item","True","SternbergTask.osexp","C:\Users\katjo\OneDrive\Desktop","False","mono","False","18","no","white","no","yes","768","legacy","98","11","C:/Users/katjo/OneDrive/Desktop/KEJ-subject-4.csv","legacy","3 4 9 6 7 8","Melodramatic Milgram","4.0.5","0","n","0","None","left","right","None","NA","2000.0","394","734","2000","NA","2","legacy","6","1024","2","48000","-16","experiment","4","even","2","652333","649093","4808","76283","650130","650131","614294","4814","75548","651132","654335","656335","5209","654334","NA","Sternberg Task","80","66824.0","111","1024"
"72","72","606","606","#3d3846","experiment","legacy","legacy","legacy","1","undefined","1","left","111","111","0","0","111","111","111","0","0","111","111","111","0","111","0","Sat Oct 21 14:54:49 2023","The main experiment item","True","SternbergTask.osexp","C:\Users\katjo\OneDrive\Desktop","False","mono","False","18","no","white","no","yes","768","legacy","99","11","C:/Users/katjo/OneDrive/Desktop/KEJ-subject-4.csv","legacy","4 1 8 7 5","Melodramatic Milgram","4.0.5","3","y","0","left","left","right","left","NA","1087.0","394","734","1087","NA","2","legacy","5","1024","2","48000","-16","experiment","4","even","8","659582","649093","4808","76283","657380","657381","656343","4814","75548","658381","661583","662671","5209","661582","NA","Sternberg Task","81","67911.0","112","1024"
"72","72","615","615","#3d3846","experiment","legacy","legacy","legacy","1","undefined","1","left","112","112","0","0","112","112","112","0","0","112","112","112","0","112","0","Sat Oct 21 14:54:49 2023","The main experiment item","True","SternbergTask.osexp","C:\Users\katjo\OneDrive\Desktop","False","mono","False","18","no","white","no","yes","768","legacy","100","11","C:/Users/katjo/OneDrive/Desktop/KEJ-subject-4.csv","legacy","9 8 4","Melodramatic Milgram","4.0.5","1","y","0","left","left","right","left","NA","1664.0","394","734","1664","NA","2","legacy","3","1024","2","48000","-16","experiment","4","even","9","665928","662679","4808","76283","663726","663727","656343","4814","75548","664728","667930","669596","5209","667930","NA","Sternberg Task","82","69575.0","113","1024"
"71","71","615","615","#3d3846","experiment","legacy","legacy","legacy","0","undefined","0","left","113","113","0","0","113","113","113","0","0","113","113","113","0","113","0","Sat Oct 21 14:54:49 2023","The main experiment item","True","SternbergTask.osexp","C:\Users\katjo\OneDrive\Desktop","False","mono","False","18","no","white","no","yes","768","legacy","101","11","C:/Users/katjo/OneDrive/Desktop/KEJ-subject-4.csv","legacy","7","Melodramatic Milgram","4.0.5","1","y","0","right","left","right","right","NA","548.0","394","734","548","NA","2","legacy","1","1024","2","48000","-16","experiment","4","even","7","672872","669622","4808","76283","670669","670670","656343","4814","75548","671671","674873","675422","5209","674873","NA","Sternberg Task","82","70123.0","114","1024"
"71","71","611","611","#3d3846","experiment","legacy","legacy","legacy","0","undefined","0","right","114","114","0","0","114","114","114","0","0","114","114","114","0","114","0","Sat Oct 21 14:54:49 2023","The main experiment item","True","SternbergTask.osexp","C:\Users\katjo\OneDrive\Desktop","False","mono","False","18","no","white","no","yes","768","legacy","102","11","C:/Users/katjo/OneDrive/Desktop/KEJ-subject-4.csv","legacy","7 6 4 8 1 2","Melodramatic Milgram","4.0.5","0","n","0","left","left","right","left","NA","159.0","394","734","159","NA","2","legacy","6","1024","2","48000","-16","experiment","4","even","9","678690","669622","4808","76283","676487","676488","675448","4814","75548","677489","680690","680850","5209","680690","NA","Sternberg Task","82","70282.0","115","1024"
"71","71","606","606","#3d3846","experiment","legacy","legacy","legacy","1","undefined","1","right","115","115","0","0","115","115","115","0","0","115","115","115","0","115","0","Sat Oct 21 14:54:49 2023","The main experiment item","True","SternbergTask.osexp","C:\Users\katjo\OneDrive\Desktop","False","mono","False","18","no","white","no","yes","768","legacy","103","11","C:/Users/katjo/OneDrive/Desktop/KEJ-subject-4.csv","legacy","5 2","Melodramatic Milgram","4.0.5","0","n","0","right","left","right","right","NA","44.0","394","734","44","NA","2","legacy","2","1024","2","48000","-16","experiment","4","even","7","684097","669622","4808","76283","681895","681896","680858","4814","75548","682896","686098","686143","5209","686097","NA","Sternberg Task","83","70326.0","116","1024"
"70","70","618","618","#3d3846","experiment","legacy","legacy","legacy","0","undefined","0","right","116","116","0","0","116","116","116","0","0","116","116","116","0","116","0","Sat Oct 21 14:54:49 2023","The main experiment item","True","SternbergTask.osexp","C:\Users\katjo\OneDrive\Desktop","False","mono","False","18","no","white","no","yes","768","legacy","104","11","C:/Users/katjo/OneDrive/Desktop/KEJ-subject-4.csv","legacy","3 9 1","Melodramatic Milgram","4.0.5","0","n","0","None","left","right","None","NA","2000.0","394","734","2000","NA","2","legacy","3","1024","2","48000","-16","experiment","4","even","7","689389","686151","4808","76283","687187","687188","680858","4814","75548","688188","691390","693390","5209","691389","NA","Sternberg Task","83","72326.0","117","1024"
"71","71","613","613","#3d3846","experiment","legacy","legacy","legacy","1","undefined","1","left","117","117","0","0","117","117","117","0","0","117","117","117","0","117","0","Sat Oct 21 14:54:49 2023","The main experiment item","True","SternbergTask.osexp","C:\Users\katjo\OneDrive\Desktop","False","mono","False","18","no","white","no","yes","768","legacy","105","11","C:/Users/katjo/OneDrive/Desktop/KEJ-subject-4.csv","legacy","1 4 9 3 2 5","Melodramatic Milgram","4.0.5","3","y","0","left","left","right","left","NA","40.0","394","734","40","NA","2","legacy","6","1024","2","48000","-16","experiment","4","even","9","696638","686151","4808","76283","694435","694436","693398","4814","75548","695437","698638","698679","5209","698638","NA","Sternberg Task","84","72366.0","118","1024"
"70","70","624","624","#3d3846","experiment","legacy","legacy","legacy","0","undefined","0","left","118","118","0","0","118","118","118","0","0","118","118","118","0","118","0","Sat Oct 21 14:54:49 2023","The main experiment item","True","SternbergTask.osexp","C:\Users\katjo\OneDrive\Desktop","False","mono","False","18","no","white","no","yes","768","legacy","106","11","C:/Users/katjo/OneDrive/Desktop/KEJ-subject-4.csv","legacy","4 9 7 8 5 3","Melodramatic Milgram","4.0.5","4","y","0","None","left","right","None","NA","2000.0","394","734","2000","NA","2","legacy","6","1024","2","48000","-16","experiment","4","even","8","701925","698687","4808","76283","699723","699724","693398","4814","75548","700724","703925","705926","5209","703925","NA","Sternberg Task","84","74366.0","119","1024"
"70","70","621","621","#3d3846","experiment","legacy","legacy","legacy","1","undefined","1","left","119","119","0","0","119","119","119","0","0","119","119","119","0","119","0","Sat Oct 21 14:54:49 2023","The main experiment item","True","SternbergTask.osexp","C:\Users\katjo\OneDrive\Desktop","False","mono","False","18","no","white","no","yes","768","legacy","107","11","C:/Users/katjo/OneDrive/Desktop/KEJ-subject-4.csv","legacy","7 8 6 3 1","Melodramatic Milgram","4.0.5","5","y","0","left","left","right","left","NA","238.0","394","734","238","NA","2","legacy","5","1024","2","48000","-16","experiment","4","even","1","709189","698687","4808","76283","706987","706987","705933","4814","75548","707988","711189","711428","5209","711189","NA","Sternberg Task","85","74604.0","120","1024"
"71","71","621","621","#3d3846","experiment","legacy","legacy","legacy","1","undefined","1","left","120","120","0","0","120","120","120","0","0","120","120","120","0","120","0","Sat Oct 21 14:54:49 2023","The main experiment item","True","SternbergTask.osexp","C:\Users\katjo\OneDrive\Desktop","False","mono","False","18","no","white","no","yes","768","legacy","108","11","C:/Users/katjo/OneDrive/Desktop/KEJ-subject-4.csv","legacy","2 8 5 1","Melodramatic Milgram","4.0.5","4","y","0","left","left","right","left","NA","590.0","394","734","590","NA","2","legacy","4","1024","2","48000","-16","experiment","4","even","1","714677","711436","4808","76283","712474","712475","705933","4814","75548","713475","716677","717268","5209","716677","NA","Sternberg Task","86","75194.0","121","1024"
"70","70","621","621","#3d3846","experiment","legacy","legacy","legacy","0","undefined","0","right","121","121","0","0","121","121","121","0","0","121","121","121","0","121","0","Sat Oct 21 14:54:49 2023","The main experiment item","True","SternbergTask.osexp","C:\Users\katjo\OneDrive\Desktop","False","mono","False","18","no","white","no","yes","768","legacy","109","11","C:/Users/katjo/OneDrive/Desktop/KEJ-subject-4.csv","legacy","8 2 1 4 5 9","Melodramatic Milgram","4.0.5","0","n","0","left","left","right","left","NA","575.0","394","734","575","NA","2","legacy","6","1024","2","48000","-16","experiment","4","even","7","720526","717276","4808","76283","718324","718325","705933","4814","75548","719326","722527","723103","5209","722526","NA","Sternberg Task","86","75769.0","122","1024"
"70","70","627","627","#3d3846","experiment","legacy","legacy","legacy","1","undefined","1","right","122","122","0","0","122","122","122","0","0","122","122","122","0","122","0","Sat Oct 21 14:54:49 2023","The main experiment item","True","SternbergTask.osexp","C:\Users\katjo\OneDrive\Desktop","False","mono","False","18","no","white","no","yes","768","legacy","110","11","C:/Users/katjo/OneDrive/Desktop/KEJ-subject-4.csv","legacy","2 8 6 3 1","Melodramatic Milgram","4.0.5","0","n","0","right","left","right","right","NA","1400.0","394","734","1400","NA","2","legacy","5","1024","2","48000","-16","experiment","4","even","7","726383","717276","4808","76283","724181","724182","723130","4814","75548","725182","728384","729785","5209","728383","NA","Sternberg Task","87","77169.0","123","1024"
"70","70","627","627","#3d3846","experiment","legacy","legacy","legacy","1","undefined","1","right","123","123","0","0","123","123","123","0","0","123","123","123","0","123","0","Sat Oct 21 14:54:49 2023","The main experiment item","True","SternbergTask.osexp","C:\Users\katjo\OneDrive\Desktop","False","mono","False","18","no","white","no","yes","768","legacy","111","11","C:/Users/katjo/OneDrive/Desktop/KEJ-subject-4.csv","legacy","4 2 6 9","Melodramatic Milgram","4.0.5","0","n","0","right","left","right","right","NA","662.0","394","734","662","NA","2","legacy","4","1024","2","48000","-16","experiment","4","even","7","733050","729793","4808","76283","730848","730849","723130","4814","75548","731849","735051","735714","5209","735051","NA","Sternberg Task","88","77831.0","124","1024"
"70","70","636","636","#3d3846","experiment","legacy","legacy","legacy","0","undefined","0","right","124","124","0","0","124","124","124","0","0","124","124","124","0","124","0","Sat Oct 21 14:54:49 2023","The main experiment item","True","SternbergTask.osexp","C:\Users\katjo\OneDrive\Desktop","False","mono","False","18","no","white","no","yes","768","legacy","112","11","C:/Users/katjo/OneDrive/Desktop/KEJ-subject-4.csv","legacy","4 2 7 6 1 3","Melodramatic Milgram","4.0.5","0","n","0","left","left","right","left","NA","1687.0","394","734","1687","NA","2","legacy","6","1024","2","48000","-16","experiment","4","even","8","738968","735722","4808","76283","736766","736767","723130","4814","75548","737767","740969","742657","5209","740969","NA","Sternberg Task","88","79518.0","125","1024"
"70","70","645","645","#3d3846","experiment","legacy","legacy","legacy","1","undefined","1","right","125","125","0","0","125","125","125","0","0","125","125","125","0","125","0","Sat Oct 21 14:54:49 2023","The main experiment item","True","SternbergTask.osexp","C:\Users\katjo\OneDrive\Desktop","False","mono","False","18","no","white","no","yes","768","legacy","113","11","C:/Users/katjo/OneDrive/Desktop/KEJ-subject-4.csv","legacy","7 1","Melodramatic Milgram","4.0.5","0","n","0","right","left","right","right","NA","1850.0","394","734","1850","NA","2","legacy","2","1024","2","48000","-16","experiment","4","even","8","745931","735722","4808","76283","743728","743729","742684","4814","75548","744730","747931","749783","5209","747931","NA","Sternberg Task","89","81368.0","126","1024"
