"acc","accuracy","average_response_time","avg_rt","background","block","canvas_backend","clock_backend","color_backend","correct","correct_instruction1","correct_keyboard_response","correct_response","count_ISI","count_correctFeedback","count_expSequence","count_experiment","count_experimentLoop","count_fixation","count_incorrectFeedback","count_instruction1","count_instructions2","count_keyboard_response","count_logger","count_memorySet","count_practiceLoop","count_probe","count_thankYou","datetime","description","disable_garbage_collection","experiment_file","experiment_path","font_bold","font_family","font_italic","font_size","font_underline","foreground","form_clicks","fullscreen","height","keyboard_backend","live_row","live_row_practiceLoop","logfile","mouse_backend","numberSet","opensesame_codename","opensesame_version","posInSet","present","repeat_cycle","response","response_instruction1","response_instructions2","response_keyboard_response","response_thankYou","response_time","response_time_instruction1","response_time_instructions2","response_time_keyboard_response","response_time_thankYou","round_decimals","sampler_backend","setSize","sound_buf_size","sound_channels","sound_freq","sound_sample_size","start","subject_nr","subject_parity","target","time_ISI","time_correctFeedback","time_expSequence","time_experiment","time_experimentLoop","time_fixation","time_incorrectFeedback","time_instruction1","time_instructions2","time_keyboard_response","time_logger","time_memorySet","time_practiceLoop","time_probe","time_thankYou","title","total_correct","total_response_time","total_responses","width"
"100","100","549","549","#3d3846","practice","legacy","legacy","legacy","1","undefined","1","right","0","0","0","0","0","0","0","0","0","0","0","0","0","0","0","Thu Oct 12 15:34:22 2023","The main experiment item","False","SternbergTask.osexp","C:/Users/juzal/OneDrive/Documents/Masters of Equine Science/Advanced Quantitative Methods and Experiment Design","False","mono","False","18","no","white","no","yes","768","legacy","0","0","C:/Users/juzal/OneDrive/Documents/Masters of Equine Science/Advanced Quantitative Methods and Experiment Design/CH-subject-1.csv","legacy","5","Melodramatic Milgram","4.0.5","0","n","0","right","right","NA","right","NA","549.0","5877","NA","549","NA","2","legacy","1","1024","2","48000","-16","experiment","1","odd","3","10497","NA","8295","2062","NA","8296","NA","2065","NA","12497","13047","9296","7944","12497","NA","Sternberg Task","1","549.0","1","1024"
"100","100","732","732","#3d3846","practice","legacy","legacy","legacy","1","undefined","1","left","1","1","1","0","0","1","1","0","0","1","1","1","0","1","0","Thu Oct 12 15:34:22 2023","The main experiment item","False","SternbergTask.osexp","C:/Users/juzal/OneDrive/Documents/Masters of Equine Science/Advanced Quantitative Methods and Experiment Design","False","mono","False","18","no","white","no","yes","768","legacy","1","1","C:/Users/juzal/OneDrive/Documents/Masters of Equine Science/Advanced Quantitative Methods and Experiment Design/CH-subject-1.csv","legacy","1 7 9 8 5","Melodramatic Milgram","4.0.5","4","y","0","left","right","NA","left","NA","915.0","5877","NA","915","NA","2","legacy","5","1024","2","48000","-16","experiment","1","odd","8","16348","13102","14145","2062","NA","14146","NA","2065","NA","18349","19265","15147","7944","18348","NA","Sternberg Task","2","1464.0","2","1024"
"100","100","802","802","#3d3846","practice","legacy","legacy","legacy","1","undefined","1","right","2","2","2","0","0","2","2","0","0","2","2","2","0","2","0","Thu Oct 12 15:34:22 2023","The main experiment item","False","SternbergTask.osexp","C:/Users/juzal/OneDrive/Documents/Masters of Equine Science/Advanced Quantitative Methods and Experiment Design","False","mono","False","18","no","white","no","yes","768","legacy","2","2","C:/Users/juzal/OneDrive/Documents/Masters of Equine Science/Advanced Quantitative Methods and Experiment Design/CH-subject-1.csv","legacy","9 6 7 4 5","Melodramatic Milgram","4.0.5","0","n","0","right","right","NA","right","NA","943.0","5877","NA","943","NA","2","legacy","5","1024","2","48000","-16","experiment","1","odd","3","22544","19312","20342","2062","NA","20343","NA","2065","NA","24544","25488","21343","7944","24544","NA","Sternberg Task","3","2407.0","3","1024"
"100","100","855","855","#3d3846","practice","legacy","legacy","legacy","1","undefined","1","left","3","3","3","0","0","3","3","0","0","3","3","3","0","3","0","Thu Oct 12 15:34:22 2023","The main experiment item","False","SternbergTask.osexp","C:/Users/juzal/OneDrive/Documents/Masters of Equine Science/Advanced Quantitative Methods and Experiment Design","False","mono","False","18","no","white","no","yes","768","legacy","3","3","C:/Users/juzal/OneDrive/Documents/Masters of Equine Science/Advanced Quantitative Methods and Experiment Design/CH-subject-1.csv","legacy","1 5 2 9","Melodramatic Milgram","4.0.5","2","y","0","left","right","NA","left","NA","1013.0","5877","NA","1013","NA","2","legacy","4","1024","2","48000","-16","experiment","1","odd","5","28763","25534","26560","2062","NA","26561","NA","2065","NA","30763","31776","27561","7944","30763","NA","Sternberg Task","4","3420.0","4","1024"
"100","100","781","781","#3d3846","practice","legacy","legacy","legacy","1","undefined","1","right","4","4","4","0","0","4","4","0","0","4","4","4","0","4","0","Thu Oct 12 15:34:22 2023","The main experiment item","False","SternbergTask.osexp","C:/Users/juzal/OneDrive/Documents/Masters of Equine Science/Advanced Quantitative Methods and Experiment Design","False","mono","False","18","no","white","no","yes","768","legacy","4","4","C:/Users/juzal/OneDrive/Documents/Masters of Equine Science/Advanced Quantitative Methods and Experiment Design/CH-subject-1.csv","legacy","4 1 5","Melodramatic Milgram","4.0.5","0","n","0","right","right","NA","right","NA","486.0","5877","NA","486","NA","2","legacy","3","1024","2","48000","-16","experiment","1","odd","2","35054","31823","32851","2062","NA","32852","NA","2065","NA","37054","37541","33853","7944","37054","NA","Sternberg Task","5","3906.0","5","1024"
"100","100","744","744","#3d3846","practice","legacy","legacy","legacy","1","undefined","1","left","5","5","5","0","0","5","5","0","0","5","5","5","0","5","0","Thu Oct 12 15:34:22 2023","The main experiment item","False","SternbergTask.osexp","C:/Users/juzal/OneDrive/Documents/Masters of Equine Science/Advanced Quantitative Methods and Experiment Design","False","mono","False","18","no","white","no","yes","768","legacy","5","5","C:/Users/juzal/OneDrive/Documents/Masters of Equine Science/Advanced Quantitative Methods and Experiment Design/CH-subject-1.csv","legacy","6","Melodramatic Milgram","4.0.5","1","y","0","left","right","NA","left","NA","559.0","5877","NA","559","NA","2","legacy","1","1024","2","48000","-16","experiment","1","odd","6","40816","37588","38614","2062","NA","38615","NA","2065","NA","42816","43376","39615","7944","42816","NA","Sternberg Task","6","4465.0","6","1024"
"100","100","719","719","#3d3846","practice","legacy","legacy","legacy","1","undefined","1","left","6","6","6","0","0","6","6","0","0","6","6","6","0","6","0","Thu Oct 12 15:34:22 2023","The main experiment item","False","SternbergTask.osexp","C:/Users/juzal/OneDrive/Documents/Masters of Equine Science/Advanced Quantitative Methods and Experiment Design","False","mono","False","18","no","white","no","yes","768","legacy","6","6","C:/Users/juzal/OneDrive/Documents/Masters of Equine Science/Advanced Quantitative Methods and Experiment Design/CH-subject-1.csv","legacy","4 8","Melodramatic Milgram","4.0.5","1","y","0","left","right","NA","left","NA","569.0","5877","NA","569","NA","2","legacy","2","1024","2","48000","-16","experiment","1","odd","4","46651","43423","44449","2062","NA","44450","NA","2065","NA","48652","49221","45450","7944","48652","NA","Sternberg Task","7","5034.0","7","1024"
"100","100","706","706","#3d3846","practice","legacy","legacy","legacy","1","undefined","1","right","7","7","7","0","0","7","7","0","0","7","7","7","0","7","0","Thu Oct 12 15:34:22 2023","The main experiment item","False","SternbergTask.osexp","C:/Users/juzal/OneDrive/Documents/Masters of Equine Science/Advanced Quantitative Methods and Experiment Design","False","mono","False","18","no","white","no","yes","768","legacy","7","7","C:/Users/juzal/OneDrive/Documents/Masters of Equine Science/Advanced Quantitative Methods and Experiment Design/CH-subject-1.csv","legacy","5 7 8 4 1 2","Melodramatic Milgram","4.0.5","0","n","0","right","right","NA","right","NA","621.0","5877","NA","621","NA","2","legacy","6","1024","2","48000","-16","experiment","1","odd","6","52505","49267","50303","2062","NA","50304","NA","2065","NA","54505","55126","51304","7944","54505","NA","Sternberg Task","8","5655.0","8","1024"
"100","100","741","741","#3d3846","practice","legacy","legacy","legacy","1","undefined","1","right","8","8","8","0","0","8","8","0","0","8","8","8","0","8","0","Thu Oct 12 15:34:22 2023","The main experiment item","False","SternbergTask.osexp","C:/Users/juzal/OneDrive/Documents/Masters of Equine Science/Advanced Quantitative Methods and Experiment Design","False","mono","False","18","no","white","no","yes","768","legacy","8","8","C:/Users/juzal/OneDrive/Documents/Masters of Equine Science/Advanced Quantitative Methods and Experiment Design/CH-subject-1.csv","legacy","2 1","Melodramatic Milgram","4.0.5","0","n","0","right","right","NA","right","NA","1018.0","5877","NA","1018","NA","2","legacy","2","1024","2","48000","-16","experiment","1","odd","5","58397","55170","56195","2062","NA","56196","NA","2065","NA","60397","61416","57196","7944","60397","NA","Sternberg Task","9","6673.0","9","1024"
"100","100","742","742","#3d3846","practice","legacy","legacy","legacy","1","undefined","1","right","9","9","9","0","0","9","9","0","0","9","9","9","0","9","0","Thu Oct 12 15:34:22 2023","The main experiment item","False","SternbergTask.osexp","C:/Users/juzal/OneDrive/Documents/Masters of Equine Science/Advanced Quantitative Methods and Experiment Design","False","mono","False","18","no","white","no","yes","768","legacy","9","9","C:/Users/juzal/OneDrive/Documents/Masters of Equine Science/Advanced Quantitative Methods and Experiment Design/CH-subject-1.csv","legacy","3 1 9 4","Melodramatic Milgram","4.0.5","0","n","0","right","right","NA","right","NA","748.0","5877","NA","748","NA","2","legacy","4","1024","2","48000","-16","experiment","1","odd","6","64649","61420","62446","2062","NA","62447","NA","2065","NA","66649","67397","63448","7944","66649","NA","Sternberg Task","10","7421.0","10","1024"
"100","100","736","736","#3d3846","practice","legacy","legacy","legacy","1","undefined","1","left","10","10","10","0","0","10","10","0","0","10","10","10","0","10","0","Thu Oct 12 15:34:22 2023","The main experiment item","False","SternbergTask.osexp","C:/Users/juzal/OneDrive/Documents/Masters of Equine Science/Advanced Quantitative Methods and Experiment Design","False","mono","False","18","no","white","no","yes","768","legacy","10","10","C:/Users/juzal/OneDrive/Documents/Masters of Equine Science/Advanced Quantitative Methods and Experiment Design/CH-subject-1.csv","legacy","2 9 4","Melodramatic Milgram","4.0.5","3","y","0","left","right","NA","left","NA","682.0","5877","NA","682","NA","2","legacy","3","1024","2","48000","-16","experiment","1","odd","4","70661","67434","68460","2062","NA","68461","NA","2065","NA","72661","73343","69461","7944","72661","NA","Sternberg Task","11","8103.0","11","1024"
"100","100","733","733","#3d3846","practice","legacy","legacy","legacy","1","undefined","1","left","11","11","11","0","0","11","11","0","0","11","11","11","0","11","0","Thu Oct 12 15:34:22 2023","The main experiment item","False","SternbergTask.osexp","C:/Users/juzal/OneDrive/Documents/Masters of Equine Science/Advanced Quantitative Methods and Experiment Design","False","mono","False","18","no","white","no","yes","768","legacy","11","11","C:/Users/juzal/OneDrive/Documents/Masters of Equine Science/Advanced Quantitative Methods and Experiment Design/CH-subject-1.csv","legacy","4 3 1 7 9 8","Melodramatic Milgram","4.0.5","1","y","0","left","right","NA","left","NA","704.0","5877","NA","704","NA","2","legacy","6","1024","2","48000","-16","experiment","1","odd","4","76615","73384","74413","2062","NA","74414","NA","2065","NA","78615","79320","75414","7944","78615","NA","Sternberg Task","12","8807.0","12","1024"
"100","100","731","731","#3d3846","experiment","legacy","legacy","legacy","1","undefined","1","left","12","12","12","0","0","12","12","0","0","12","12","12","0","12","0","Thu Oct 12 15:34:22 2023","The main experiment item","False","SternbergTask.osexp","C:/Users/juzal/OneDrive/Documents/Masters of Equine Science/Advanced Quantitative Methods and Experiment Design","False","mono","False","18","no","white","no","yes","768","legacy","0","11","C:/Users/juzal/OneDrive/Documents/Masters of Equine Science/Advanced Quantitative Methods and Experiment Design/CH-subject-1.csv","legacy","3 5 4 7","Melodramatic Milgram","4.0.5","1","y","0","left","right","right","left","NA","708.0","5877","2003","708","NA","2","legacy","4","1024","2","48000","-16","experiment","1","odd","3","84618","79325","82415","2062","82330","82416","NA","2065","80326","86618","87327","83417","7944","86618","NA","Sternberg Task","13","9515.0","13","1024"
"100","100","710","710","#3d3846","experiment","legacy","legacy","legacy","1","undefined","1","left","13","13","13","0","0","13","13","0","0","13","13","13","0","13","0","Thu Oct 12 15:34:22 2023","The main experiment item","False","SternbergTask.osexp","C:/Users/juzal/OneDrive/Documents/Masters of Equine Science/Advanced Quantitative Methods and Experiment Design","False","mono","False","18","no","white","no","yes","768","legacy","1","11","C:/Users/juzal/OneDrive/Documents/Masters of Equine Science/Advanced Quantitative Methods and Experiment Design/CH-subject-1.csv","legacy","4 6 5 8","Melodramatic Milgram","4.0.5","1","y","0","left","right","right","left","NA","431.0","5877","2003","431","NA","2","legacy","4","1024","2","48000","-16","experiment","1","odd","4","90604","87375","88402","2062","82330","88402","NA","2065","80326","92604","93036","89402","7944","92604","NA","Sternberg Task","14","9946.0","14","1024"
"100","100","712","712","#3d3846","experiment","legacy","legacy","legacy","1","undefined","1","right","14","14","14","0","0","14","14","0","0","14","14","14","0","14","0","Thu Oct 12 15:34:22 2023","The main experiment item","False","SternbergTask.osexp","C:/Users/juzal/OneDrive/Documents/Masters of Equine Science/Advanced Quantitative Methods and Experiment Design","False","mono","False","18","no","white","no","yes","768","legacy","2","11","C:/Users/juzal/OneDrive/Documents/Masters of Equine Science/Advanced Quantitative Methods and Experiment Design/CH-subject-1.csv","legacy","7 8 6 1","Melodramatic Milgram","4.0.5","0","n","0","right","right","right","right","NA","737.0","5877","2003","737","NA","2","legacy","4","1024","2","48000","-16","experiment","1","odd","3","96270","93040","94067","2062","82330","94068","NA","2065","80326","98270","99007","95069","7944","98270","NA","Sternberg Task","15","10683.0","15","1024"
"100","100","712","712","#3d3846","experiment","legacy","legacy","legacy","1","undefined","1","right","15","15","15","0","0","15","15","0","0","15","15","15","0","15","0","Thu Oct 12 15:34:22 2023","The main experiment item","False","SternbergTask.osexp","C:/Users/juzal/OneDrive/Documents/Masters of Equine Science/Advanced Quantitative Methods and Experiment Design","False","mono","False","18","no","white","no","yes","768","legacy","3","11","C:/Users/juzal/OneDrive/Documents/Masters of Equine Science/Advanced Quantitative Methods and Experiment Design/CH-subject-1.csv","legacy","8 5 7 3 6","Melodramatic Milgram","4.0.5","0","n","0","right","right","right","right","NA","711.0","5877","2003","711","NA","2","legacy","5","1024","2","48000","-16","experiment","1","odd","9","102277","99048","100075","2062","82330","100075","NA","2065","80326","104277","104988","101076","7944","104277","NA","Sternberg Task","16","11394.0","16","1024"
"100","100","708","708","#3d3846","experiment","legacy","legacy","legacy","1","undefined","1","right","16","16","16","0","0","16","16","0","0","16","16","16","0","16","0","Thu Oct 12 15:34:22 2023","The main experiment item","False","SternbergTask.osexp","C:/Users/juzal/OneDrive/Documents/Masters of Equine Science/Advanced Quantitative Methods and Experiment Design","False","mono","False","18","no","white","no","yes","768","legacy","4","11","C:/Users/juzal/OneDrive/Documents/Masters of Equine Science/Advanced Quantitative Methods and Experiment Design/CH-subject-1.csv","legacy","1 6 4 3 9 7","Melodramatic Milgram","4.0.5","0","n","0","right","right","right","right","NA","651.0","5877","2003","651","NA","2","legacy","6","1024","2","48000","-16","experiment","1","odd","8","108248","105016","106047","2062","82330","106047","NA","2065","80326","110248","110900","107047","7944","110248","NA","Sternberg Task","17","12045.0","17","1024"
"100","100","707","707","#3d3846","experiment","legacy","legacy","legacy","1","undefined","1","left","17","17","17","0","0","17","17","0","0","17","17","17","0","17","0","Thu Oct 12 15:34:22 2023","The main experiment item","False","SternbergTask.osexp","C:/Users/juzal/OneDrive/Documents/Masters of Equine Science/Advanced Quantitative Methods and Experiment Design","False","mono","False","18","no","white","no","yes","768","legacy","5","11","C:/Users/juzal/OneDrive/Documents/Masters of Equine Science/Advanced Quantitative Methods and Experiment Design/CH-subject-1.csv","legacy","3 5 9 6 2 4","Melodramatic Milgram","4.0.5","1","y","0","left","right","right","left","NA","688.0","5877","2003","688","NA","2","legacy","6","1024","2","48000","-16","experiment","1","odd","3","114172","110943","111971","2062","82330","111971","NA","2065","80326","116172","116861","112971","7944","116172","NA","Sternberg Task","18","12733.0","18","1024"
"100","100","697","697","#3d3846","experiment","legacy","legacy","legacy","1","undefined","1","right","18","18","18","0","0","18","18","0","0","18","18","18","0","18","0","Thu Oct 12 15:34:22 2023","The main experiment item","False","SternbergTask.osexp","C:/Users/juzal/OneDrive/Documents/Masters of Equine Science/Advanced Quantitative Methods and Experiment Design","False","mono","False","18","no","white","no","yes","768","legacy","6","11","C:/Users/juzal/OneDrive/Documents/Masters of Equine Science/Advanced Quantitative Methods and Experiment Design/CH-subject-1.csv","legacy","2 3 8 5 6 7","Melodramatic Milgram","4.0.5","0","n","0","right","right","right","right","NA","521.0","5877","2003","521","NA","2","legacy","6","1024","2","48000","-16","experiment","1","odd","1","120134","116905","117931","2062","82330","117932","NA","2065","80326","122134","122655","118932","7944","122134","NA","Sternberg Task","19","13254.0","19","1024"
"100","100","692","692","#3d3846","experiment","legacy","legacy","legacy","1","undefined","1","left","19","19","19","0","0","19","19","0","0","19","19","19","0","19","0","Thu Oct 12 15:34:22 2023","The main experiment item","False","SternbergTask.osexp","C:/Users/juzal/OneDrive/Documents/Masters of Equine Science/Advanced Quantitative Methods and Experiment Design","False","mono","False","18","no","white","no","yes","768","legacy","7","11","C:/Users/juzal/OneDrive/Documents/Masters of Equine Science/Advanced Quantitative Methods and Experiment Design/CH-subject-1.csv","legacy","9 8 4","Melodramatic Milgram","4.0.5","1","y","0","left","right","right","left","NA","589.0","5877","2003","589","NA","2","legacy","3","1024","2","48000","-16","experiment","1","odd","9","125931","122702","123728","2062","82330","123729","NA","2065","80326","127931","128521","124730","7944","127931","NA","Sternberg Task","20","13843.0","20","1024"
"100","100","680","680","#3d3846","experiment","legacy","legacy","legacy","1","undefined","1","right","20","20","20","0","0","20","20","0","0","20","20","20","0","20","0","Thu Oct 12 15:34:22 2023","The main experiment item","False","SternbergTask.osexp","C:/Users/juzal/OneDrive/Documents/Masters of Equine Science/Advanced Quantitative Methods and Experiment Design","False","mono","False","18","no","white","no","yes","768","legacy","8","11","C:/Users/juzal/OneDrive/Documents/Masters of Equine Science/Advanced Quantitative Methods and Experiment Design/CH-subject-1.csv","legacy","9","Melodramatic Milgram","4.0.5","0","n","0","right","right","right","right","NA","452.0","5877","2003","452","NA","2","legacy","1","1024","2","48000","-16","experiment","1","odd","6","131752","128525","129550","2062","82330","129551","NA","2065","80326","133752","134204","130551","7944","133752","NA","Sternberg Task","21","14295.0","21","1024"
"95","95","674","674","#3d3846","experiment","legacy","legacy","legacy","0","undefined","0","left","21","21","21","0","0","21","21","0","0","21","21","21","0","21","0","Thu Oct 12 15:34:22 2023","The main experiment item","False","SternbergTask.osexp","C:/Users/juzal/OneDrive/Documents/Masters of Equine Science/Advanced Quantitative Methods and Experiment Design","False","mono","False","18","no","white","no","yes","768","legacy","9","11","C:/Users/juzal/OneDrive/Documents/Masters of Equine Science/Advanced Quantitative Methods and Experiment Design/CH-subject-1.csv","legacy","4 3 2 5 8","Melodramatic Milgram","4.0.5","2","y","0","right","right","right","right","NA","541.0","5877","2003","541","NA","2","legacy","5","1024","2","48000","-16","experiment","1","odd","3","137473","134244","135271","2062","82330","135272","NA","2065","80326","139473","140015","136272","7944","139473","NA","Sternberg Task","21","14836.0","22","1024"
"95","95","671","671","#3d3846","experiment","legacy","legacy","legacy","1","undefined","1","right","22","22","22","0","0","22","22","0","0","22","22","22","0","22","0","Thu Oct 12 15:34:22 2023","The main experiment item","False","SternbergTask.osexp","C:/Users/juzal/OneDrive/Documents/Masters of Equine Science/Advanced Quantitative Methods and Experiment Design","False","mono","False","18","no","white","no","yes","768","legacy","10","11","C:/Users/juzal/OneDrive/Documents/Masters of Equine Science/Advanced Quantitative Methods and Experiment Design/CH-subject-1.csv","legacy","2 8 9 4 1","Melodramatic Milgram","4.0.5","0","n","0","right","right","right","right","NA","614.0","5877","2003","614","NA","2","legacy","5","1024","2","48000","-16","experiment","1","odd","5","143276","134244","141073","2062","82330","141074","140044","2065","80326","145276","145890","142074","7944","145276","NA","Sternberg Task","22","15450.0","23","1024"
"95","95","674","674","#3d3846","experiment","legacy","legacy","legacy","1","undefined","1","left","23","23","23","0","0","23","23","0","0","23","23","23","0","23","0","Thu Oct 12 15:34:22 2023","The main experiment item","False","SternbergTask.osexp","C:/Users/juzal/OneDrive/Documents/Masters of Equine Science/Advanced Quantitative Methods and Experiment Design","False","mono","False","18","no","white","no","yes","768","legacy","11","11","C:/Users/juzal/OneDrive/Documents/Masters of Equine Science/Advanced Quantitative Methods and Experiment Design/CH-subject-1.csv","legacy","6 9 3 1","Melodramatic Milgram","4.0.5","4","y","0","left","right","right","left","NA","727.0","5877","2003","727","NA","2","legacy","4","1024","2","48000","-16","experiment","1","odd","1","149159","145924","146956","2062","82330","146957","140044","2065","80326","151159","151887","147958","7944","151159","NA","Sternberg Task","23","16177.0","24","1024"
"96","96","669","669","#3d3846","experiment","legacy","legacy","legacy","1","undefined","1","left","24","24","24","0","0","24","24","0","0","24","24","24","0","24","0","Thu Oct 12 15:34:22 2023","The main experiment item","False","SternbergTask.osexp","C:/Users/juzal/OneDrive/Documents/Masters of Equine Science/Advanced Quantitative Methods and Experiment Design","False","mono","False","18","no","white","no","yes","768","legacy","12","11","C:/Users/juzal/OneDrive/Documents/Masters of Equine Science/Advanced Quantitative Methods and Experiment Design/CH-subject-1.csv","legacy","4","Melodramatic Milgram","4.0.5","1","y","0","left","right","right","left","NA","565.0","5877","2003","565","NA","2","legacy","1","1024","2","48000","-16","experiment","1","odd","4","155146","151918","152944","2062","82330","152945","140044","2065","80326","157146","157712","153945","7944","157146","NA","Sternberg Task","24","16742.0","25","1024"
"96","96","667","667","#3d3846","experiment","legacy","legacy","legacy","1","undefined","1","right","25","25","25","0","0","25","25","0","0","25","25","25","0","25","0","Thu Oct 12 15:34:22 2023","The main experiment item","False","SternbergTask.osexp","C:/Users/juzal/OneDrive/Documents/Masters of Equine Science/Advanced Quantitative Methods and Experiment Design","False","mono","False","18","no","white","no","yes","768","legacy","13","11","C:/Users/juzal/OneDrive/Documents/Masters of Equine Science/Advanced Quantitative Methods and Experiment Design/CH-subject-1.csv","legacy","9 5 3 2 8 6","Melodramatic Milgram","4.0.5","0","n","0","right","right","right","right","NA","605.0","5877","2003","605","NA","2","legacy","6","1024","2","48000","-16","experiment","1","odd","7","160987","157758","158785","2062","82330","158786","140044","2065","80326","162987","163592","159786","7944","162987","NA","Sternberg Task","25","17347.0","26","1024"
"96","96","678","678","#3d3846","experiment","legacy","legacy","legacy","1","undefined","1","left","26","26","26","0","0","26","26","0","0","26","26","26","0","26","0","Thu Oct 12 15:34:22 2023","The main experiment item","False","SternbergTask.osexp","C:/Users/juzal/OneDrive/Documents/Masters of Equine Science/Advanced Quantitative Methods and Experiment Design","False","mono","False","18","no","white","no","yes","768","legacy","14","11","C:/Users/juzal/OneDrive/Documents/Masters of Equine Science/Advanced Quantitative Methods and Experiment Design/CH-subject-1.csv","legacy","2 5 4 8 7","Melodramatic Milgram","4.0.5","3","y","0","left","right","right","left","NA","971.0","5877","2003","971","NA","2","legacy","5","1024","2","48000","-16","experiment","1","odd","4","166859","163630","164656","2062","82330","164657","140044","2065","80326","168859","169830","165657","7944","168859","NA","Sternberg Task","26","18318.0","27","1024"
"96","96","678","678","#3d3846","experiment","legacy","legacy","legacy","1","undefined","1","left","27","27","27","0","0","27","27","0","0","27","27","27","0","27","0","Thu Oct 12 15:34:22 2023","The main experiment item","False","SternbergTask.osexp","C:/Users/juzal/OneDrive/Documents/Masters of Equine Science/Advanced Quantitative Methods and Experiment Design","False","mono","False","18","no","white","no","yes","768","legacy","15","11","C:/Users/juzal/OneDrive/Documents/Masters of Equine Science/Advanced Quantitative Methods and Experiment Design/CH-subject-1.csv","legacy","6 7 8 5","Melodramatic Milgram","4.0.5","3","y","0","left","right","right","left","NA","683.0","5877","2003","683","NA","2","legacy","4","1024","2","48000","-16","experiment","1","odd","8","173103","169874","170901","2062","82330","170902","140044","2065","80326","175103","175786","171902","7944","175103","NA","Sternberg Task","27","19001.0","28","1024"
"96","96","674","674","#3d3846","experiment","legacy","legacy","legacy","1","undefined","1","left","28","28","28","0","0","28","28","0","0","28","28","28","0","28","0","Thu Oct 12 15:34:22 2023","The main experiment item","False","SternbergTask.osexp","C:/Users/juzal/OneDrive/Documents/Masters of Equine Science/Advanced Quantitative Methods and Experiment Design","False","mono","False","18","no","white","no","yes","768","legacy","16","11","C:/Users/juzal/OneDrive/Documents/Masters of Equine Science/Advanced Quantitative Methods and Experiment Design/CH-subject-1.csv","legacy","5 2 6","Melodramatic Milgram","4.0.5","2","y","0","left","right","right","left","NA","556.0","5877","2003","556","NA","2","legacy","3","1024","2","48000","-16","experiment","1","odd","2","179060","175831","176858","2062","82330","176858","140044","2065","80326","181060","181618","177859","7944","181060","NA","Sternberg Task","28","19557.0","29","1024"
"96","96","670","670","#3d3846","experiment","legacy","legacy","legacy","1","undefined","1","left","29","29","29","0","0","29","29","0","0","29","29","29","0","29","0","Thu Oct 12 15:34:22 2023","The main experiment item","False","SternbergTask.osexp","C:/Users/juzal/OneDrive/Documents/Masters of Equine Science/Advanced Quantitative Methods and Experiment Design","False","mono","False","18","no","white","no","yes","768","legacy","17","11","C:/Users/juzal/OneDrive/Documents/Masters of Equine Science/Advanced Quantitative Methods and Experiment Design/CH-subject-1.csv","legacy","6 1 2","Melodramatic Milgram","4.0.5","3","y","0","left","right","right","left","NA","551.0","5877","2003","551","NA","2","legacy","3","1024","2","48000","-16","experiment","1","odd","2","184900","181671","182697","2062","82330","182698","140044","2065","80326","186900","187452","183699","7944","186900","NA","Sternberg Task","29","20108.0","30","1024"
"96","96","681","681","#3d3846","experiment","legacy","legacy","legacy","1","undefined","1","left","30","30","30","0","0","30","30","0","0","30","30","30","0","30","0","Thu Oct 12 15:34:22 2023","The main experiment item","False","SternbergTask.osexp","C:/Users/juzal/OneDrive/Documents/Masters of Equine Science/Advanced Quantitative Methods and Experiment Design","False","mono","False","18","no","white","no","yes","768","legacy","18","11","C:/Users/juzal/OneDrive/Documents/Masters of Equine Science/Advanced Quantitative Methods and Experiment Design/CH-subject-1.csv","legacy","6 8 9 3 4 9","Melodramatic Milgram","4.0.5","5","y","0","left","right","right","left","NA","1004.0","5877","2003","1004","NA","2","legacy","6","1024","2","48000","-16","experiment","1","odd","4","190685","187456","188483","2062","82330","188484","140044","2065","80326","192685","193690","189484","7944","192685","NA","Sternberg Task","30","21112.0","31","1024"
"96","96","677","677","#3d3846","experiment","legacy","legacy","legacy","1","undefined","1","left","31","31","31","0","0","31","31","0","0","31","31","31","0","31","0","Thu Oct 12 15:34:22 2023","The main experiment item","False","SternbergTask.osexp","C:/Users/juzal/OneDrive/Documents/Masters of Equine Science/Advanced Quantitative Methods and Experiment Design","False","mono","False","18","no","white","no","yes","768","legacy","19","11","C:/Users/juzal/OneDrive/Documents/Masters of Equine Science/Advanced Quantitative Methods and Experiment Design/CH-subject-1.csv","legacy","3 4","Melodramatic Milgram","4.0.5","1","y","0","left","right","right","left","NA","556.0","5877","2003","556","NA","2","legacy","2","1024","2","48000","-16","experiment","1","odd","3","196968","193732","194765","2062","82330","194766","140044","2065","80326","198968","199525","195767","7944","198968","NA","Sternberg Task","31","21668.0","32","1024"
"96","96","675","675","#3d3846","experiment","legacy","legacy","legacy","1","undefined","1","left","32","32","32","0","0","32","32","0","0","32","32","32","0","32","0","Thu Oct 12 15:34:22 2023","The main experiment item","False","SternbergTask.osexp","C:/Users/juzal/OneDrive/Documents/Masters of Equine Science/Advanced Quantitative Methods and Experiment Design","False","mono","False","18","no","white","no","yes","768","legacy","20","11","C:/Users/juzal/OneDrive/Documents/Masters of Equine Science/Advanced Quantitative Methods and Experiment Design/CH-subject-1.csv","legacy","8","Melodramatic Milgram","4.0.5","1","y","0","left","right","right","left","NA","627.0","5877","2003","627","NA","2","legacy","1","1024","2","48000","-16","experiment","1","odd","8","202808","199578","200607","2062","82330","200607","140044","2065","80326","204808","205435","201607","7944","204808","NA","Sternberg Task","32","22295.0","33","1024"
"97","97","682","682","#3d3846","experiment","legacy","legacy","legacy","1","undefined","1","left","33","33","33","0","0","33","33","0","0","33","33","33","0","33","0","Thu Oct 12 15:34:22 2023","The main experiment item","False","SternbergTask.osexp","C:/Users/juzal/OneDrive/Documents/Masters of Equine Science/Advanced Quantitative Methods and Experiment Design","False","mono","False","18","no","white","no","yes","768","legacy","21","11","C:/Users/juzal/OneDrive/Documents/Masters of Equine Science/Advanced Quantitative Methods and Experiment Design/CH-subject-1.csv","legacy","3 4 9 6 2 9","Melodramatic Milgram","4.0.5","5","y","0","left","right","right","left","NA","900.0","5877","2003","900","NA","2","legacy","6","1024","2","48000","-16","experiment","1","odd","2","208712","205484","206510","2062","82330","206511","140044","2065","80326","210712","211613","207511","7944","210712","NA","Sternberg Task","33","23195.0","34","1024"
"97","97","678","678","#3d3846","experiment","legacy","legacy","legacy","1","undefined","1","left","34","34","34","0","0","34","34","0","0","34","34","34","0","34","0","Thu Oct 12 15:34:22 2023","The main experiment item","False","SternbergTask.osexp","C:/Users/juzal/OneDrive/Documents/Masters of Equine Science/Advanced Quantitative Methods and Experiment Design","False","mono","False","18","no","white","no","yes","768","legacy","22","11","C:/Users/juzal/OneDrive/Documents/Masters of Equine Science/Advanced Quantitative Methods and Experiment Design/CH-subject-1.csv","legacy","8 9 5 6 7","Melodramatic Milgram","4.0.5","1","y","0","left","right","right","left","NA","546.0","5877","2003","546","NA","2","legacy","5","1024","2","48000","-16","experiment","1","odd","8","214886","211657","212683","2062","82330","212684","140044","2065","80326","216886","217433","213685","7944","216886","NA","Sternberg Task","34","23741.0","35","1024"
"97","97","676","676","#3d3846","experiment","legacy","legacy","legacy","1","undefined","1","right","35","35","35","0","0","35","35","0","0","35","35","35","0","35","0","Thu Oct 12 15:34:22 2023","The main experiment item","False","SternbergTask.osexp","C:/Users/juzal/OneDrive/Documents/Masters of Equine Science/Advanced Quantitative Methods and Experiment Design","False","mono","False","18","no","white","no","yes","768","legacy","23","11","C:/Users/juzal/OneDrive/Documents/Masters of Equine Science/Advanced Quantitative Methods and Experiment Design/CH-subject-1.csv","legacy","5 2","Melodramatic Milgram","4.0.5","0","n","0","right","right","right","right","NA","598.0","5877","2003","598","NA","2","legacy","2","1024","2","48000","-16","experiment","1","odd","7","220708","217480","218506","2062","82330","218507","140044","2065","80326","222709","223308","219507","7944","222709","NA","Sternberg Task","35","24339.0","36","1024"
"97","97","680","680","#3d3846","experiment","legacy","legacy","legacy","1","undefined","1","left","36","36","36","0","0","36","36","0","0","36","36","36","0","36","0","Thu Oct 12 15:34:22 2023","The main experiment item","False","SternbergTask.osexp","C:/Users/juzal/OneDrive/Documents/Masters of Equine Science/Advanced Quantitative Methods and Experiment Design","False","mono","False","18","no","white","no","yes","768","legacy","24","11","C:/Users/juzal/OneDrive/Documents/Masters of Equine Science/Advanced Quantitative Methods and Experiment Design/CH-subject-1.csv","legacy","8 9 5 7 1 6","Melodramatic Milgram","4.0.5","4","y","0","left","right","right","left","NA","829.0","5877","2003","829","NA","2","legacy","6","1024","2","48000","-16","experiment","1","odd","7","226585","223356","224383","2062","82330","224384","140044","2065","80326","228585","229415","225384","7944","228585","NA","Sternberg Task","36","25168.0","37","1024"
"97","97","678","678","#3d3846","experiment","legacy","legacy","legacy","1","undefined","1","left","37","37","37","0","0","37","37","0","0","37","37","37","0","37","0","Thu Oct 12 15:34:22 2023","The main experiment item","False","SternbergTask.osexp","C:/Users/juzal/OneDrive/Documents/Masters of Equine Science/Advanced Quantitative Methods and Experiment Design","False","mono","False","18","no","white","no","yes","768","legacy","25","11","C:/Users/juzal/OneDrive/Documents/Masters of Equine Science/Advanced Quantitative Methods and Experiment Design/CH-subject-1.csv","legacy","6 2","Melodramatic Milgram","4.0.5","1","y","0","left","right","right","left","NA","598.0","5877","2003","598","NA","2","legacy","2","1024","2","48000","-16","experiment","1","odd","6","232691","229462","230489","2062","82330","230490","140044","2065","80326","234691","235290","231490","7944","234691","NA","Sternberg Task","37","25766.0","38","1024"
"97","97","675","675","#3d3846","experiment","legacy","legacy","legacy","1","undefined","1","right","38","38","38","0","0","38","38","0","0","38","38","38","0","38","0","Thu Oct 12 15:34:22 2023","The main experiment item","False","SternbergTask.osexp","C:/Users/juzal/OneDrive/Documents/Masters of Equine Science/Advanced Quantitative Methods and Experiment Design","False","mono","False","18","no","white","no","yes","768","legacy","26","11","C:/Users/juzal/OneDrive/Documents/Masters of Equine Science/Advanced Quantitative Methods and Experiment Design/CH-subject-1.csv","legacy","7 1 5 6 3","Melodramatic Milgram","4.0.5","0","n","0","right","right","right","right","NA","569.0","5877","2003","569","NA","2","legacy","5","1024","2","48000","-16","experiment","1","odd","8","238556","235317","236354","2062","82330","236355","140044","2065","80326","240556","241125","237355","7944","240556","NA","Sternberg Task","38","26335.0","39","1024"
"97","97","670","670","#3d3846","experiment","legacy","legacy","legacy","1","undefined","1","left","39","39","39","0","0","39","39","0","0","39","39","39","0","39","0","Thu Oct 12 15:34:22 2023","The main experiment item","False","SternbergTask.osexp","C:/Users/juzal/OneDrive/Documents/Masters of Equine Science/Advanced Quantitative Methods and Experiment Design","False","mono","False","18","no","white","no","yes","768","legacy","27","11","C:/Users/juzal/OneDrive/Documents/Masters of Equine Science/Advanced Quantitative Methods and Experiment Design/CH-subject-1.csv","legacy","9 6 2 4 1","Melodramatic Milgram","4.0.5","4","y","0","left","right","right","left","NA","480.0","5877","2003","480","NA","2","legacy","5","1024","2","48000","-16","experiment","1","odd","4","244378","241151","242176","2062","82330","242177","140044","2065","80326","246378","246859","243177","7944","246378","NA","Sternberg Task","39","26815.0","40","1024"
"97","97","671","671","#3d3846","experiment","legacy","legacy","legacy","1","undefined","1","right","40","40","40","0","0","40","40","0","0","40","40","40","0","40","0","Thu Oct 12 15:34:22 2023","The main experiment item","False","SternbergTask.osexp","C:/Users/juzal/OneDrive/Documents/Masters of Equine Science/Advanced Quantitative Methods and Experiment Design","False","mono","False","18","no","white","no","yes","768","legacy","28","11","C:/Users/juzal/OneDrive/Documents/Masters of Equine Science/Advanced Quantitative Methods and Experiment Design/CH-subject-1.csv","legacy","1","Melodramatic Milgram","4.0.5","0","n","0","right","right","right","right","NA","711.0","5877","2003","711","NA","2","legacy","1","1024","2","48000","-16","experiment","1","odd","7","250118","246888","247914","2062","82330","247917","140044","2065","80326","252119","252830","248917","7944","252119","NA","Sternberg Task","40","27526.0","41","1024"
"97","97","668","668","#3d3846","experiment","legacy","legacy","legacy","1","undefined","1","left","41","41","41","0","0","41","41","0","0","41","41","41","0","41","0","Thu Oct 12 15:34:22 2023","The main experiment item","False","SternbergTask.osexp","C:/Users/juzal/OneDrive/Documents/Masters of Equine Science/Advanced Quantitative Methods and Experiment Design","False","mono","False","18","no","white","no","yes","768","legacy","29","11","C:/Users/juzal/OneDrive/Documents/Masters of Equine Science/Advanced Quantitative Methods and Experiment Design/CH-subject-1.csv","legacy","2 4 6 9","Melodramatic Milgram","4.0.5","3","y","0","left","right","right","left","NA","536.0","5877","2003","536","NA","2","legacy","4","1024","2","48000","-16","experiment","1","odd","6","256097","252869","253896","2062","82330","253896","140044","2065","80326","258098","258635","254896","7944","258098","NA","Sternberg Task","41","28062.0","42","1024"
"97","97","682","682","#3d3846","experiment","legacy","legacy","legacy","1","undefined","1","right","42","42","42","0","0","42","42","0","0","42","42","42","0","42","0","Thu Oct 12 15:34:22 2023","The main experiment item","False","SternbergTask.osexp","C:/Users/juzal/OneDrive/Documents/Masters of Equine Science/Advanced Quantitative Methods and Experiment Design","False","mono","False","18","no","white","no","yes","768","legacy","30","11","C:/Users/juzal/OneDrive/Documents/Masters of Equine Science/Advanced Quantitative Methods and Experiment Design/CH-subject-1.csv","legacy","1 5 3 2 8","Melodramatic Milgram","4.0.5","0","n","0","right","right","right","right","NA","1306.0","5877","2003","1306","NA","2","legacy","5","1024","2","48000","-16","experiment","1","odd","4","261919","258687","259714","2062","82330","259717","140044","2065","80326","263919","265226","260718","7944","263919","NA","Sternberg Task","42","29368.0","43","1024"
"97","97","684","684","#3d3846","experiment","legacy","legacy","legacy","1","undefined","1","right","43","43","43","0","0","43","43","0","0","43","43","43","0","43","0","Thu Oct 12 15:34:22 2023","The main experiment item","False","SternbergTask.osexp","C:/Users/juzal/OneDrive/Documents/Masters of Equine Science/Advanced Quantitative Methods and Experiment Design","False","mono","False","18","no","white","no","yes","768","legacy","31","11","C:/Users/juzal/OneDrive/Documents/Masters of Equine Science/Advanced Quantitative Methods and Experiment Design/CH-subject-1.csv","legacy","2 8 6 3 1","Melodramatic Milgram","4.0.5","0","n","0","right","right","right","right","NA","758.0","5877","2003","758","NA","2","legacy","5","1024","2","48000","-16","experiment","1","odd","7","268494","265266","266292","2062","82330","266293","140044","2065","80326","270494","271252","267293","7944","270494","NA","Sternberg Task","43","30126.0","44","1024"
"97","97","691","691","#3d3846","experiment","legacy","legacy","legacy","1","undefined","1","left","44","44","44","0","0","44","44","0","0","44","44","44","0","44","0","Thu Oct 12 15:34:22 2023","The main experiment item","False","SternbergTask.osexp","C:/Users/juzal/OneDrive/Documents/Masters of Equine Science/Advanced Quantitative Methods and Experiment Design","False","mono","False","18","no","white","no","yes","768","legacy","32","11","C:/Users/juzal/OneDrive/Documents/Masters of Equine Science/Advanced Quantitative Methods and Experiment Design/CH-subject-1.csv","legacy","5 7 8 2 3 8","Melodramatic Milgram","4.0.5","5","y","0","left","right","right","left","NA","975.0","5877","2003","975","NA","2","legacy","6","1024","2","48000","-16","experiment","1","odd","3","274485","271256","272283","2062","82330","272284","140044","2065","80326","276485","277461","273284","7944","276485","NA","Sternberg Task","44","31101.0","45","1024"
"97","97","695","695","#3d3846","experiment","legacy","legacy","legacy","1","undefined","1","left","45","45","45","0","0","45","45","0","0","45","45","45","0","45","0","Thu Oct 12 15:34:22 2023","The main experiment item","False","SternbergTask.osexp","C:/Users/juzal/OneDrive/Documents/Masters of Equine Science/Advanced Quantitative Methods and Experiment Design","False","mono","False","18","no","white","no","yes","768","legacy","33","11","C:/Users/juzal/OneDrive/Documents/Masters of Equine Science/Advanced Quantitative Methods and Experiment Design/CH-subject-1.csv","legacy","8 5 4 7 3 1","Melodramatic Milgram","4.0.5","2","y","0","left","right","right","left","NA","880.0","5877","2003","880","NA","2","legacy","6","1024","2","48000","-16","experiment","1","odd","5","280748","277509","278545","2062","82330","278546","140044","2065","80326","282748","283629","279546","7944","282748","NA","Sternberg Task","45","31981.0","46","1024"
"97","97","713","713","#3d3846","experiment","legacy","legacy","legacy","1","undefined","1","right","46","46","46","0","0","46","46","0","0","46","46","46","0","46","0","Thu Oct 12 15:34:22 2023","The main experiment item","False","SternbergTask.osexp","C:/Users/juzal/OneDrive/Documents/Masters of Equine Science/Advanced Quantitative Methods and Experiment Design","False","mono","False","18","no","white","no","yes","768","legacy","34","11","C:/Users/juzal/OneDrive/Documents/Masters of Equine Science/Advanced Quantitative Methods and Experiment Design/CH-subject-1.csv","legacy","8 9","Melodramatic Milgram","4.0.5","0","n","0","right","right","right","right","NA","1575.0","5877","2003","1575","NA","2","legacy","2","1024","2","48000","-16","experiment","1","odd","5","286911","283675","284709","2062","82330","284710","140044","2065","80326","288911","290487","285710","7944","288911","NA","Sternberg Task","46","33556.0","47","1024"
"97","97","714","714","#3d3846","experiment","legacy","legacy","legacy","1","undefined","1","right","47","47","47","0","0","47","47","0","0","47","47","47","0","47","0","Thu Oct 12 15:34:22 2023","The main experiment item","False","SternbergTask.osexp","C:/Users/juzal/OneDrive/Documents/Masters of Equine Science/Advanced Quantitative Methods and Experiment Design","False","mono","False","18","no","white","no","yes","768","legacy","35","11","C:/Users/juzal/OneDrive/Documents/Masters of Equine Science/Advanced Quantitative Methods and Experiment Design/CH-subject-1.csv","legacy","1 7 8 3 9","Melodramatic Milgram","4.0.5","0","n","0","right","right","right","right","NA","752.0","5877","2003","752","NA","2","legacy","5","1024","2","48000","-16","experiment","1","odd","2","293751","290522","291549","2062","82330","291550","140044","2065","80326","295751","296503","292551","7944","295751","NA","Sternberg Task","47","34308.0","48","1024"
"97","97","727","727","#3d3846","experiment","legacy","legacy","legacy","1","undefined","1","right","48","48","48","0","0","48","48","0","0","48","48","48","0","48","0","Thu Oct 12 15:34:22 2023","The main experiment item","False","SternbergTask.osexp","C:/Users/juzal/OneDrive/Documents/Masters of Equine Science/Advanced Quantitative Methods and Experiment Design","False","mono","False","18","no","white","no","yes","768","legacy","36","11","C:/Users/juzal/OneDrive/Documents/Masters of Equine Science/Advanced Quantitative Methods and Experiment Design/CH-subject-1.csv","legacy","8 5 4 2 9 6","Melodramatic Milgram","4.0.5","0","n","0","right","right","right","right","NA","1349.0","5877","2003","1349","NA","2","legacy","6","1024","2","48000","-16","experiment","1","odd","3","299770","296541","297567","2062","82330","297568","140044","2065","80326","301770","303120","298569","7944","301770","NA","Sternberg Task","48","35657.0","49","1024"
"98","98","729","729","#3d3846","experiment","legacy","legacy","legacy","1","undefined","1","left","49","49","49","0","0","49","49","0","0","49","49","49","0","49","0","Thu Oct 12 15:34:22 2023","The main experiment item","False","SternbergTask.osexp","C:/Users/juzal/OneDrive/Documents/Masters of Equine Science/Advanced Quantitative Methods and Experiment Design","False","mono","False","18","no","white","no","yes","768","legacy","37","11","C:/Users/juzal/OneDrive/Documents/Masters of Equine Science/Advanced Quantitative Methods and Experiment Design/CH-subject-1.csv","legacy","8 9 6 1","Melodramatic Milgram","4.0.5","2","y","0","left","right","right","left","NA","805.0","5877","2003","805","NA","2","legacy","4","1024","2","48000","-16","experiment","1","odd","9","306381","303152","304178","2062","82330","304179","140044","2065","80326","308381","309187","305180","7944","308381","NA","Sternberg Task","49","36462.0","50","1024"
"98","98","734","734","#3d3846","experiment","legacy","legacy","legacy","1","undefined","1","left","50","50","50","0","0","50","50","0","0","50","50","50","0","50","0","Thu Oct 12 15:34:22 2023","The main experiment item","False","SternbergTask.osexp","C:/Users/juzal/OneDrive/Documents/Masters of Equine Science/Advanced Quantitative Methods and Experiment Design","False","mono","False","18","no","white","no","yes","768","legacy","38","11","C:/Users/juzal/OneDrive/Documents/Masters of Equine Science/Advanced Quantitative Methods and Experiment Design/CH-subject-1.csv","legacy","4 9 7 8 5 3","Melodramatic Milgram","4.0.5","4","y","0","left","right","right","left","NA","975.0","5877","2003","975","NA","2","legacy","6","1024","2","48000","-16","experiment","1","odd","8","312454","309224","310251","2062","82330","310252","140044","2065","80326","314454","315430","311253","7944","314454","NA","Sternberg Task","50","37437.0","51","1024"
"98","98","732","732","#3d3846","experiment","legacy","legacy","legacy","1","undefined","1","left","51","51","51","0","0","51","51","0","0","51","51","51","0","51","0","Thu Oct 12 15:34:22 2023","The main experiment item","False","SternbergTask.osexp","C:/Users/juzal/OneDrive/Documents/Masters of Equine Science/Advanced Quantitative Methods and Experiment Design","False","mono","False","18","no","white","no","yes","768","legacy","39","11","C:/Users/juzal/OneDrive/Documents/Masters of Equine Science/Advanced Quantitative Methods and Experiment Design/CH-subject-1.csv","legacy","7 4 2 6 3 5","Melodramatic Milgram","4.0.5","6","y","0","left","right","right","left","NA","643.0","5877","2003","643","NA","2","legacy","6","1024","2","48000","-16","experiment","1","odd","5","318702","315470","316499","2062","82330","316500","140044","2065","80326","320702","321346","317501","7944","320702","NA","Sternberg Task","51","38080.0","52","1024"
"98","98","729","729","#3d3846","experiment","legacy","legacy","legacy","1","undefined","1","right","52","52","52","0","0","52","52","0","0","52","52","52","0","52","0","Thu Oct 12 15:34:22 2023","The main experiment item","False","SternbergTask.osexp","C:/Users/juzal/OneDrive/Documents/Masters of Equine Science/Advanced Quantitative Methods and Experiment Design","False","mono","False","18","no","white","no","yes","768","legacy","40","11","C:/Users/juzal/OneDrive/Documents/Masters of Equine Science/Advanced Quantitative Methods and Experiment Design/CH-subject-1.csv","legacy","6 8","Melodramatic Milgram","4.0.5","0","n","0","right","right","right","right","NA","557.0","5877","2003","557","NA","2","legacy","2","1024","2","48000","-16","experiment","1","odd","9","324618","321381","322416","2062","82330","322417","140044","2065","80326","326618","327176","323417","7944","326618","NA","Sternberg Task","52","38637.0","53","1024"
"98","98","725","725","#3d3846","experiment","legacy","legacy","legacy","1","undefined","1","right","53","53","53","0","0","53","53","0","0","53","53","53","0","53","0","Thu Oct 12 15:34:22 2023","The main experiment item","False","SternbergTask.osexp","C:/Users/juzal/OneDrive/Documents/Masters of Equine Science/Advanced Quantitative Methods and Experiment Design","False","mono","False","18","no","white","no","yes","768","legacy","41","11","C:/Users/juzal/OneDrive/Documents/Masters of Equine Science/Advanced Quantitative Methods and Experiment Design/CH-subject-1.csv","legacy","5","Melodramatic Milgram","4.0.5","0","n","0","right","right","right","right","NA","560.0","5877","2003","560","NA","2","legacy","1","1024","2","48000","-16","experiment","1","odd","8","330415","327180","328212","2062","82330","328213","140044","2065","80326","332415","332976","329214","7944","332415","NA","Sternberg Task","53","39197.0","54","1024"
"98","98","727","727","#3d3846","experiment","legacy","legacy","legacy","1","undefined","1","left","54","54","54","0","0","54","54","0","0","54","54","54","0","54","0","Thu Oct 12 15:34:22 2023","The main experiment item","False","SternbergTask.osexp","C:/Users/juzal/OneDrive/Documents/Masters of Equine Science/Advanced Quantitative Methods and Experiment Design","False","mono","False","18","no","white","no","yes","768","legacy","42","11","C:/Users/juzal/OneDrive/Documents/Masters of Equine Science/Advanced Quantitative Methods and Experiment Design/CH-subject-1.csv","legacy","9 5 8 1","Melodramatic Milgram","4.0.5","2","y","0","left","right","right","left","NA","789.0","5877","2003","789","NA","2","legacy","4","1024","2","48000","-16","experiment","1","odd","5","336207","332980","334005","2062","82330","334006","140044","2065","80326","338208","338999","335007","7944","338208","NA","Sternberg Task","54","39986.0","55","1024"
"98","98","724","724","#3d3846","experiment","legacy","legacy","legacy","1","undefined","1","right","55","55","55","0","0","55","55","0","0","55","55","55","0","55","0","Thu Oct 12 15:34:22 2023","The main experiment item","False","SternbergTask.osexp","C:/Users/juzal/OneDrive/Documents/Masters of Equine Science/Advanced Quantitative Methods and Experiment Design","False","mono","False","18","no","white","no","yes","768","legacy","43","11","C:/Users/juzal/OneDrive/Documents/Masters of Equine Science/Advanced Quantitative Methods and Experiment Design/CH-subject-1.csv","legacy","4 8 1 2","Melodramatic Milgram","4.0.5","0","n","0","right","right","right","right","NA","586.0","5877","2003","586","NA","2","legacy","4","1024","2","48000","-16","experiment","1","odd","7","342271","339043","340069","2062","82330","340070","140044","2065","80326","344271","344857","341070","7944","344271","NA","Sternberg Task","55","40572.0","56","1024"
"98","98","727","727","#3d3846","experiment","legacy","legacy","legacy","1","undefined","1","right","56","56","56","0","0","56","56","0","0","56","56","56","0","56","0","Thu Oct 12 15:34:22 2023","The main experiment item","False","SternbergTask.osexp","C:/Users/juzal/OneDrive/Documents/Masters of Equine Science/Advanced Quantitative Methods and Experiment Design","False","mono","False","18","no","white","no","yes","768","legacy","44","11","C:/Users/juzal/OneDrive/Documents/Masters of Equine Science/Advanced Quantitative Methods and Experiment Design/CH-subject-1.csv","legacy","7 6 4 8 1 2","Melodramatic Milgram","4.0.5","0","n","0","right","right","right","right","NA","879.0","5877","2003","879","NA","2","legacy","6","1024","2","48000","-16","experiment","1","odd","9","348135","344907","345934","2062","82330","345934","140044","2065","80326","350135","351015","346934","7944","350135","NA","Sternberg Task","56","41451.0","57","1024"
"98","98","726","726","#3d3846","experiment","legacy","legacy","legacy","1","undefined","1","right","57","57","57","0","0","57","57","0","0","57","57","57","0","57","0","Thu Oct 12 15:34:22 2023","The main experiment item","False","SternbergTask.osexp","C:/Users/juzal/OneDrive/Documents/Masters of Equine Science/Advanced Quantitative Methods and Experiment Design","False","mono","False","18","no","white","no","yes","768","legacy","45","11","C:/Users/juzal/OneDrive/Documents/Masters of Equine Science/Advanced Quantitative Methods and Experiment Design/CH-subject-1.csv","legacy","1 3 2 6 9","Melodramatic Milgram","4.0.5","0","n","0","right","right","right","right","NA","712.0","5877","2003","712","NA","2","legacy","5","1024","2","48000","-16","experiment","1","odd","5","354273","351045","352071","2062","82330","352072","140044","2065","80326","356273","356986","353072","7944","356273","NA","Sternberg Task","57","42163.0","58","1024"
"98","98","727","727","#3d3846","experiment","legacy","legacy","legacy","1","undefined","1","left","58","58","58","0","0","58","58","0","0","58","58","58","0","58","0","Thu Oct 12 15:34:22 2023","The main experiment item","False","SternbergTask.osexp","C:/Users/juzal/OneDrive/Documents/Masters of Equine Science/Advanced Quantitative Methods and Experiment Design","False","mono","False","18","no","white","no","yes","768","legacy","46","11","C:/Users/juzal/OneDrive/Documents/Masters of Equine Science/Advanced Quantitative Methods and Experiment Design/CH-subject-1.csv","legacy","9 4 2","Melodramatic Milgram","4.0.5","1","y","0","left","right","right","left","NA","741.0","5877","2003","741","NA","2","legacy","3","1024","2","48000","-16","experiment","1","odd","9","360251","357021","358049","2062","82330","358050","140044","2065","80326","362251","362993","359050","7944","362251","NA","Sternberg Task","58","42904.0","59","1024"
"98","98","725","725","#3d3846","experiment","legacy","legacy","legacy","1","undefined","1","right","59","59","59","0","0","59","59","0","0","59","59","59","0","59","0","Thu Oct 12 15:34:22 2023","The main experiment item","False","SternbergTask.osexp","C:/Users/juzal/OneDrive/Documents/Masters of Equine Science/Advanced Quantitative Methods and Experiment Design","False","mono","False","18","no","white","no","yes","768","legacy","47","11","C:/Users/juzal/OneDrive/Documents/Masters of Equine Science/Advanced Quantitative Methods and Experiment Design/CH-subject-1.csv","legacy","8 4 3 9","Melodramatic Milgram","4.0.5","0","n","0","right","right","right","right","NA","606.0","5877","2003","606","NA","2","legacy","4","1024","2","48000","-16","experiment","1","odd","5","366256","363028","364054","2062","82330","364055","140044","2065","80326","368256","368863","365055","7944","368256","NA","Sternberg Task","59","43510.0","60","1024"
"98","98","728","728","#3d3846","experiment","legacy","legacy","legacy","1","undefined","1","right","60","60","60","0","0","60","60","0","0","60","60","60","0","60","0","Thu Oct 12 15:34:22 2023","The main experiment item","False","SternbergTask.osexp","C:/Users/juzal/OneDrive/Documents/Masters of Equine Science/Advanced Quantitative Methods and Experiment Design","False","mono","False","18","no","white","no","yes","768","legacy","48","11","C:/Users/juzal/OneDrive/Documents/Masters of Equine Science/Advanced Quantitative Methods and Experiment Design/CH-subject-1.csv","legacy","6 9 7 3 8 2","Melodramatic Milgram","4.0.5","0","n","0","right","right","right","right","NA","900.0","5877","2003","900","NA","2","legacy","6","1024","2","48000","-16","experiment","1","odd","5","372130","368900","369928","2062","82330","369929","140044","2065","80326","374130","375031","370929","7944","374130","NA","Sternberg Task","60","44410.0","61","1024"
"98","98","727","727","#3d3846","experiment","legacy","legacy","legacy","1","undefined","1","right","61","61","61","0","0","61","61","0","0","61","61","61","0","61","0","Thu Oct 12 15:34:22 2023","The main experiment item","False","SternbergTask.osexp","C:/Users/juzal/OneDrive/Documents/Masters of Equine Science/Advanced Quantitative Methods and Experiment Design","False","mono","False","18","no","white","no","yes","768","legacy","49","11","C:/Users/juzal/OneDrive/Documents/Masters of Equine Science/Advanced Quantitative Methods and Experiment Design/CH-subject-1.csv","legacy","6 3 1 7 9 8","Melodramatic Milgram","4.0.5","0","n","0","right","right","right","right","NA","688.0","5877","2003","688","NA","2","legacy","6","1024","2","48000","-16","experiment","1","odd","4","378308","375072","376107","2062","82330","376107","140044","2065","80326","380308","380997","377107","7944","380308","NA","Sternberg Task","61","45098.0","62","1024"
"98","98","729","729","#3d3846","experiment","legacy","legacy","legacy","1","undefined","1","left","62","62","62","0","0","62","62","0","0","62","62","62","0","62","0","Thu Oct 12 15:34:22 2023","The main experiment item","False","SternbergTask.osexp","C:/Users/juzal/OneDrive/Documents/Masters of Equine Science/Advanced Quantitative Methods and Experiment Design","False","mono","False","18","no","white","no","yes","768","legacy","50","11","C:/Users/juzal/OneDrive/Documents/Masters of Equine Science/Advanced Quantitative Methods and Experiment Design/CH-subject-1.csv","legacy","5 7 3 6 2","Melodramatic Milgram","4.0.5","5","y","0","left","right","right","left","NA","852.0","5877","2003","852","NA","2","legacy","5","1024","2","48000","-16","experiment","1","odd","2","384266","381038","382064","2062","82330","382064","140044","2065","80326","386266","387119","383065","7944","386266","NA","Sternberg Task","62","45950.0","63","1024"
"98","98","733","733","#3d3846","experiment","legacy","legacy","legacy","1","undefined","1","left","63","63","63","0","0","63","63","0","0","63","63","63","0","63","0","Thu Oct 12 15:34:22 2023","The main experiment item","False","SternbergTask.osexp","C:/Users/juzal/OneDrive/Documents/Masters of Equine Science/Advanced Quantitative Methods and Experiment Design","False","mono","False","18","no","white","no","yes","768","legacy","51","11","C:/Users/juzal/OneDrive/Documents/Masters of Equine Science/Advanced Quantitative Methods and Experiment Design/CH-subject-1.csv","legacy","7 8 6 3 1","Melodramatic Milgram","4.0.5","5","y","0","left","right","right","left","NA","1021.0","5877","2003","1021","NA","2","legacy","5","1024","2","48000","-16","experiment","1","odd","1","390391","387162","388189","2062","82330","388190","140044","2065","80326","392391","393415","389190","7944","392391","NA","Sternberg Task","63","46971.0","64","1024"
"98","98","729","729","#3d3846","experiment","legacy","legacy","legacy","1","undefined","1","left","64","64","64","0","0","64","64","0","0","64","64","64","0","64","0","Thu Oct 12 15:34:22 2023","The main experiment item","False","SternbergTask.osexp","C:/Users/juzal/OneDrive/Documents/Masters of Equine Science/Advanced Quantitative Methods and Experiment Design","False","mono","False","18","no","white","no","yes","768","legacy","52","11","C:/Users/juzal/OneDrive/Documents/Masters of Equine Science/Advanced Quantitative Methods and Experiment Design/CH-subject-1.csv","legacy","3 9 6 2","Melodramatic Milgram","4.0.5","4","y","0","left","right","right","left","NA","465.0","5877","2003","465","NA","2","legacy","4","1024","2","48000","-16","experiment","1","odd","2","396692","393464","394490","2062","82330","394491","140044","2065","80326","398692","399157","395491","7944","398692","NA","Sternberg Task","64","47436.0","65","1024"
"98","98","729","729","#3d3846","experiment","legacy","legacy","legacy","1","undefined","1","right","65","65","65","0","0","65","65","0","0","65","65","65","0","65","0","Thu Oct 12 15:34:22 2023","The main experiment item","False","SternbergTask.osexp","C:/Users/juzal/OneDrive/Documents/Masters of Equine Science/Advanced Quantitative Methods and Experiment Design","False","mono","False","18","no","white","no","yes","768","legacy","53","11","C:/Users/juzal/OneDrive/Documents/Masters of Equine Science/Advanced Quantitative Methods and Experiment Design/CH-subject-1.csv","legacy","1 7 5 2","Melodramatic Milgram","4.0.5","0","n","0","right","right","right","right","NA","689.0","5877","2003","689","NA","2","legacy","4","1024","2","48000","-16","experiment","1","odd","3","402413","399185","400212","2062","82330","400212","140044","2065","80326","404413","405103","401212","7944","404413","NA","Sternberg Task","65","48125.0","66","1024"
"98","98","725","725","#3d3846","experiment","legacy","legacy","legacy","1","undefined","1","left","66","66","66","0","0","66","66","0","0","66","66","66","0","66","0","Thu Oct 12 15:34:22 2023","The main experiment item","False","SternbergTask.osexp","C:/Users/juzal/OneDrive/Documents/Masters of Equine Science/Advanced Quantitative Methods and Experiment Design","False","mono","False","18","no","white","no","yes","768","legacy","54","11","C:/Users/juzal/OneDrive/Documents/Masters of Equine Science/Advanced Quantitative Methods and Experiment Design/CH-subject-1.csv","legacy","8 1 6","Melodramatic Milgram","4.0.5","3","y","0","left","right","right","left","NA","474.0","5877","2003","474","NA","2","legacy","3","1024","2","48000","-16","experiment","1","odd","6","408338","405107","406135","2062","82330","406136","140044","2065","80326","410338","410815","407137","7944","410338","NA","Sternberg Task","66","48599.0","67","1024"
"98","98","726","726","#3d3846","experiment","legacy","legacy","legacy","1","undefined","1","right","67","67","67","0","0","67","67","0","0","67","67","67","0","67","0","Thu Oct 12 15:34:22 2023","The main experiment item","False","SternbergTask.osexp","C:/Users/juzal/OneDrive/Documents/Masters of Equine Science/Advanced Quantitative Methods and Experiment Design","False","mono","False","18","no","white","no","yes","768","legacy","55","11","C:/Users/juzal/OneDrive/Documents/Masters of Equine Science/Advanced Quantitative Methods and Experiment Design/CH-subject-1.csv","legacy","3 4 2","Melodramatic Milgram","4.0.5","0","n","0","right","right","right","right","NA","791.0","5877","2003","791","NA","2","legacy","3","1024","2","48000","-16","experiment","1","odd","5","414098","410870","411896","2062","82330","411897","140044","2065","80326","416098","416890","412897","7944","416098","NA","Sternberg Task","67","49390.0","68","1024"
"98","98","730","730","#3d3846","experiment","legacy","legacy","legacy","1","undefined","1","left","68","68","68","0","0","68","68","0","0","68","68","68","0","68","0","Thu Oct 12 15:34:22 2023","The main experiment item","False","SternbergTask.osexp","C:/Users/juzal/OneDrive/Documents/Masters of Equine Science/Advanced Quantitative Methods and Experiment Design","False","mono","False","18","no","white","no","yes","768","legacy","56","11","C:/Users/juzal/OneDrive/Documents/Masters of Equine Science/Advanced Quantitative Methods and Experiment Design/CH-subject-1.csv","legacy","7 1 8 5 6 2","Melodramatic Milgram","4.0.5","2","y","0","left","right","right","left","NA","980.0","5877","2003","980","NA","2","legacy","6","1024","2","48000","-16","experiment","1","odd","1","420187","416945","417985","2062","82330","417986","140044","2065","80326","422187","423168","418986","7944","422187","NA","Sternberg Task","68","50370.0","69","1024"
"98","98","729","729","#3d3846","experiment","legacy","legacy","legacy","1","undefined","1","left","69","69","69","0","0","69","69","0","0","69","69","69","0","69","0","Thu Oct 12 15:34:22 2023","The main experiment item","False","SternbergTask.osexp","C:/Users/juzal/OneDrive/Documents/Masters of Equine Science/Advanced Quantitative Methods and Experiment Design","False","mono","False","18","no","white","no","yes","768","legacy","57","11","C:/Users/juzal/OneDrive/Documents/Masters of Equine Science/Advanced Quantitative Methods and Experiment Design/CH-subject-1.csv","legacy","2 3","Melodramatic Milgram","4.0.5","1","y","0","left","right","right","left","NA","666.0","5877","2003","666","NA","2","legacy","2","1024","2","48000","-16","experiment","1","odd","2","426453","423224","424251","2062","82330","424252","140044","2065","80326","428453","429119","425252","7944","428453","NA","Sternberg Task","69","51036.0","70","1024"
"98","98","727","727","#3d3846","experiment","legacy","legacy","legacy","1","undefined","1","left","70","70","70","0","0","70","70","0","0","70","70","70","0","70","0","Thu Oct 12 15:34:22 2023","The main experiment item","False","SternbergTask.osexp","C:/Users/juzal/OneDrive/Documents/Masters of Equine Science/Advanced Quantitative Methods and Experiment Design","False","mono","False","18","no","white","no","yes","768","legacy","58","11","C:/Users/juzal/OneDrive/Documents/Masters of Equine Science/Advanced Quantitative Methods and Experiment Design/CH-subject-1.csv","legacy","6 5","Melodramatic Milgram","4.0.5","2","y","0","left","right","right","left","NA","581.0","5877","2003","581","NA","2","legacy","2","1024","2","48000","-16","experiment","1","odd","5","432398","429169","430196","2062","82330","430197","140044","2065","80326","434398","434980","431197","7944","434398","NA","Sternberg Task","70","51617.0","71","1024"
"98","98","727","727","#3d3846","experiment","legacy","legacy","legacy","1","undefined","1","right","71","71","71","0","0","71","71","0","0","71","71","71","0","71","0","Thu Oct 12 15:34:22 2023","The main experiment item","False","SternbergTask.osexp","C:/Users/juzal/OneDrive/Documents/Masters of Equine Science/Advanced Quantitative Methods and Experiment Design","False","mono","False","18","no","white","no","yes","768","legacy","59","11","C:/Users/juzal/OneDrive/Documents/Masters of Equine Science/Advanced Quantitative Methods and Experiment Design/CH-subject-1.csv","legacy","1 6 4","Melodramatic Milgram","4.0.5","0","n","0","right","right","right","right","NA","753.0","5877","2003","753","NA","2","legacy","3","1024","2","48000","-16","experiment","1","odd","7","438253","435024","436051","2062","82330","436052","140044","2065","80326","440253","441006","437052","7944","440253","NA","Sternberg Task","71","52370.0","72","1024"
"98","98","725","725","#3d3846","experiment","legacy","legacy","legacy","1","undefined","1","left","72","72","72","0","0","72","72","0","0","72","72","72","0","72","0","Thu Oct 12 15:34:22 2023","The main experiment item","False","SternbergTask.osexp","C:/Users/juzal/OneDrive/Documents/Masters of Equine Science/Advanced Quantitative Methods and Experiment Design","False","mono","False","18","no","white","no","yes","768","legacy","60","11","C:/Users/juzal/OneDrive/Documents/Masters of Equine Science/Advanced Quantitative Methods and Experiment Design/CH-subject-1.csv","legacy","2 4 8 5 1 3","Melodramatic Milgram","4.0.5","1","y","0","left","right","right","left","NA","588.0","5877","2003","588","NA","2","legacy","6","1024","2","48000","-16","experiment","1","odd","2","444283","441054","442081","2062","82330","442082","140044","2065","80326","446283","446872","443082","7944","446283","NA","Sternberg Task","72","52958.0","73","1024"
"98","98","730","730","#3d3846","experiment","legacy","legacy","legacy","1","undefined","1","right","73","73","73","0","0","73","73","0","0","73","73","73","0","73","0","Thu Oct 12 15:34:22 2023","The main experiment item","False","SternbergTask.osexp","C:/Users/juzal/OneDrive/Documents/Masters of Equine Science/Advanced Quantitative Methods and Experiment Design","False","mono","False","18","no","white","no","yes","768","legacy","61","11","C:/Users/juzal/OneDrive/Documents/Masters of Equine Science/Advanced Quantitative Methods and Experiment Design/CH-subject-1.csv","legacy","6 2 9 3 8 4","Melodramatic Milgram","4.0.5","0","n","0","right","right","right","right","NA","1107.0","5877","2003","1107","NA","2","legacy","6","1024","2","48000","-16","experiment","1","odd","1","450139","446910","447937","2062","82330","447938","140044","2065","80326","452139","453246","448938","7944","452139","NA","Sternberg Task","73","54065.0","74","1024"
"98","98","728","728","#3d3846","experiment","legacy","legacy","legacy","1","undefined","1","right","74","74","74","0","0","74","74","0","0","74","74","74","0","74","0","Thu Oct 12 15:34:22 2023","The main experiment item","False","SternbergTask.osexp","C:/Users/juzal/OneDrive/Documents/Masters of Equine Science/Advanced Quantitative Methods and Experiment Design","False","mono","False","18","no","white","no","yes","768","legacy","62","11","C:/Users/juzal/OneDrive/Documents/Masters of Equine Science/Advanced Quantitative Methods and Experiment Design/CH-subject-1.csv","legacy","2 8 9","Melodramatic Milgram","4.0.5","0","n","0","right","right","right","right","NA","581.0","5877","2003","581","NA","2","legacy","3","1024","2","48000","-16","experiment","1","odd","6","456515","453286","454313","2062","82330","454314","140044","2065","80326","458515","459096","455314","7944","458515","NA","Sternberg Task","74","54646.0","75","1024"
"98","98","725","725","#3d3846","experiment","legacy","legacy","legacy","1","undefined","1","right","75","75","75","0","0","75","75","0","0","75","75","75","0","75","0","Thu Oct 12 15:34:22 2023","The main experiment item","False","SternbergTask.osexp","C:/Users/juzal/OneDrive/Documents/Masters of Equine Science/Advanced Quantitative Methods and Experiment Design","False","mono","False","18","no","white","no","yes","768","legacy","63","11","C:/Users/juzal/OneDrive/Documents/Masters of Equine Science/Advanced Quantitative Methods and Experiment Design/CH-subject-1.csv","legacy","2 5 1 4","Melodramatic Milgram","4.0.5","0","n","0","right","right","right","right","NA","510.0","5877","2003","510","NA","2","legacy","4","1024","2","48000","-16","experiment","1","odd","6","462355","459128","460153","2062","82330","460154","140044","2065","80326","464355","464866","461154","7944","464355","NA","Sternberg Task","75","55156.0","76","1024"
"98","98","725","725","#3d3846","experiment","legacy","legacy","legacy","1","undefined","1","left","76","76","76","0","0","76","76","0","0","76","76","76","0","76","0","Thu Oct 12 15:34:22 2023","The main experiment item","False","SternbergTask.osexp","C:/Users/juzal/OneDrive/Documents/Masters of Equine Science/Advanced Quantitative Methods and Experiment Design","False","mono","False","18","no","white","no","yes","768","legacy","64","11","C:/Users/juzal/OneDrive/Documents/Masters of Equine Science/Advanced Quantitative Methods and Experiment Design/CH-subject-1.csv","legacy","3 9 7 6 4","Melodramatic Milgram","4.0.5","3","y","0","left","right","right","left","NA","706.0","5877","2003","706","NA","2","legacy","5","1024","2","48000","-16","experiment","1","odd","7","468146","464910","465942","2062","82330","465944","140044","2065","80326","470146","470852","466945","7944","470146","NA","Sternberg Task","76","55862.0","77","1024"
"98","98","726","726","#3d3846","experiment","legacy","legacy","legacy","1","undefined","1","left","77","77","77","0","0","77","77","0","0","77","77","77","0","77","0","Thu Oct 12 15:34:22 2023","The main experiment item","False","SternbergTask.osexp","C:/Users/juzal/OneDrive/Documents/Masters of Equine Science/Advanced Quantitative Methods and Experiment Design","False","mono","False","18","no","white","no","yes","768","legacy","65","11","C:/Users/juzal/OneDrive/Documents/Masters of Equine Science/Advanced Quantitative Methods and Experiment Design/CH-subject-1.csv","legacy","6 9 7 4 5 1","Melodramatic Milgram","4.0.5","2","y","0","left","right","right","left","NA","811.0","5877","2003","811","NA","2","legacy","6","1024","2","48000","-16","experiment","1","odd","9","474123","470895","471921","2062","82330","471922","140044","2065","80326","476123","476934","472922","7944","476123","NA","Sternberg Task","77","56673.0","78","1024"
"98","98","730","730","#3d3846","experiment","legacy","legacy","legacy","1","undefined","1","left","78","78","78","0","0","78","78","0","0","78","78","78","0","78","0","Thu Oct 12 15:34:22 2023","The main experiment item","False","SternbergTask.osexp","C:/Users/juzal/OneDrive/Documents/Masters of Equine Science/Advanced Quantitative Methods and Experiment Design","False","mono","False","18","no","white","no","yes","768","legacy","66","11","C:/Users/juzal/OneDrive/Documents/Masters of Equine Science/Advanced Quantitative Methods and Experiment Design/CH-subject-1.csv","legacy","2 6 1 7 4","Melodramatic Milgram","4.0.5","2","y","0","left","right","right","left","NA","1010.0","5877","2003","1010","NA","2","legacy","5","1024","2","48000","-16","experiment","1","odd","6","480212","476982","478009","2062","82330","478010","140044","2065","80326","482212","483223","479011","7944","482212","NA","Sternberg Task","78","57683.0","79","1024"
"98","98","727","727","#3d3846","experiment","legacy","legacy","legacy","1","undefined","1","right","79","79","79","0","0","79","79","0","0","79","79","79","0","79","0","Thu Oct 12 15:34:22 2023","The main experiment item","False","SternbergTask.osexp","C:/Users/juzal/OneDrive/Documents/Masters of Equine Science/Advanced Quantitative Methods and Experiment Design","False","mono","False","18","no","white","no","yes","768","legacy","67","11","C:/Users/juzal/OneDrive/Documents/Masters of Equine Science/Advanced Quantitative Methods and Experiment Design/CH-subject-1.csv","legacy","7 1","Melodramatic Milgram","4.0.5","0","n","0","right","right","right","right","NA","478.0","5877","2003","478","NA","2","legacy","2","1024","2","48000","-16","experiment","1","odd","8","486484","483257","484282","2062","82330","484283","140044","2065","80326","488484","488963","485283","7944","488484","NA","Sternberg Task","79","58161.0","80","1024"
"98","98","727","727","#3d3846","experiment","legacy","legacy","legacy","1","undefined","1","right","80","80","80","0","0","80","80","0","0","80","80","80","0","80","0","Thu Oct 12 15:34:22 2023","The main experiment item","False","SternbergTask.osexp","C:/Users/juzal/OneDrive/Documents/Masters of Equine Science/Advanced Quantitative Methods and Experiment Design","False","mono","False","18","no","white","no","yes","768","legacy","68","11","C:/Users/juzal/OneDrive/Documents/Masters of Equine Science/Advanced Quantitative Methods and Experiment Design/CH-subject-1.csv","legacy","8 2 1 4 5 9","Melodramatic Milgram","4.0.5","0","n","0","right","right","right","right","NA","788.0","5877","2003","788","NA","2","legacy","6","1024","2","48000","-16","experiment","1","odd","7","492241","489014","490039","2062","82330","490040","140044","2065","80326","494241","495030","491040","7944","494241","NA","Sternberg Task","80","58949.0","81","1024"
"98","98","727","727","#3d3846","experiment","legacy","legacy","legacy","1","undefined","1","right","81","81","81","0","0","81","81","0","0","81","81","81","0","81","0","Thu Oct 12 15:34:22 2023","The main experiment item","False","SternbergTask.osexp","C:/Users/juzal/OneDrive/Documents/Masters of Equine Science/Advanced Quantitative Methods and Experiment Design","False","mono","False","18","no","white","no","yes","768","legacy","69","11","C:/Users/juzal/OneDrive/Documents/Masters of Equine Science/Advanced Quantitative Methods and Experiment Design/CH-subject-1.csv","legacy","3 4 9 6 7 8","Melodramatic Milgram","4.0.5","0","n","0","right","right","right","right","NA","703.0","5877","2003","703","NA","2","legacy","6","1024","2","48000","-16","experiment","1","odd","2","498302","495074","496100","2062","82330","496101","140044","2065","80326","500302","501006","497101","7944","500302","NA","Sternberg Task","81","59652.0","82","1024"
"98","98","729","729","#3d3846","experiment","legacy","legacy","legacy","1","undefined","1","right","82","82","82","0","0","82","82","0","0","82","82","82","0","82","0","Thu Oct 12 15:34:22 2023","The main experiment item","False","SternbergTask.osexp","C:/Users/juzal/OneDrive/Documents/Masters of Equine Science/Advanced Quantitative Methods and Experiment Design","False","mono","False","18","no","white","no","yes","768","legacy","70","11","C:/Users/juzal/OneDrive/Documents/Masters of Equine Science/Advanced Quantitative Methods and Experiment Design/CH-subject-1.csv","legacy","5 9 2 3","Melodramatic Milgram","4.0.5","0","n","0","right","right","right","right","NA","867.0","5877","2003","867","NA","2","legacy","4","1024","2","48000","-16","experiment","1","odd","8","504291","501063","502088","2062","82330","502089","140044","2065","80326","506291","507158","503090","7944","506291","NA","Sternberg Task","82","60519.0","83","1024"
"98","98","729","729","#3d3846","experiment","legacy","legacy","legacy","1","undefined","1","left","83","83","83","0","0","83","83","0","0","83","83","83","0","83","0","Thu Oct 12 15:34:22 2023","The main experiment item","False","SternbergTask.osexp","C:/Users/juzal/OneDrive/Documents/Masters of Equine Science/Advanced Quantitative Methods and Experiment Design","False","mono","False","18","no","white","no","yes","768","legacy","71","11","C:/Users/juzal/OneDrive/Documents/Masters of Equine Science/Advanced Quantitative Methods and Experiment Design/CH-subject-1.csv","legacy","7 6","Melodramatic Milgram","4.0.5","2","y","0","left","right","right","left","NA","782.0","5877","2003","782","NA","2","legacy","2","1024","2","48000","-16","experiment","1","odd","6","510432","507198","508230","2062","82330","508231","140044","2065","80326","512432","513215","509231","7944","512432","NA","Sternberg Task","83","61301.0","84","1024"
"98","98","727","727","#3d3846","experiment","legacy","legacy","legacy","1","undefined","1","right","84","84","84","0","0","84","84","0","0","84","84","84","0","84","0","Thu Oct 12 15:34:22 2023","The main experiment item","False","SternbergTask.osexp","C:/Users/juzal/OneDrive/Documents/Masters of Equine Science/Advanced Quantitative Methods and Experiment Design","False","mono","False","18","no","white","no","yes","768","legacy","72","11","C:/Users/juzal/OneDrive/Documents/Masters of Equine Science/Advanced Quantitative Methods and Experiment Design/CH-subject-1.csv","legacy","1 8 7","Melodramatic Milgram","4.0.5","0","n","0","right","right","right","right","NA","519.0","5877","2003","519","NA","2","legacy","3","1024","2","48000","-16","experiment","1","odd","4","516484","513257","514283","2062","82330","514284","140044","2065","80326","518485","519005","515284","7944","518485","NA","Sternberg Task","84","61820.0","85","1024"
"98","98","726","726","#3d3846","experiment","legacy","legacy","legacy","1","undefined","1","left","85","85","85","0","0","85","85","0","0","85","85","85","0","85","0","Thu Oct 12 15:34:22 2023","The main experiment item","False","SternbergTask.osexp","C:/Users/juzal/OneDrive/Documents/Masters of Equine Science/Advanced Quantitative Methods and Experiment Design","False","mono","False","18","no","white","no","yes","768","legacy","73","11","C:/Users/juzal/OneDrive/Documents/Masters of Equine Science/Advanced Quantitative Methods and Experiment Design/CH-subject-1.csv","legacy","1 4 9 3 2 5","Melodramatic Milgram","4.0.5","3","y","0","left","right","right","left","NA","701.0","5877","2003","701","NA","2","legacy","6","1024","2","48000","-16","experiment","1","odd","9","522285","519056","520083","2062","82330","520084","140044","2065","80326","524285","524987","521084","7944","524285","NA","Sternberg Task","85","62521.0","86","1024"
"98","98","727","727","#3d3846","experiment","legacy","legacy","legacy","1","undefined","1","right","86","86","86","0","0","86","86","0","0","86","86","86","0","86","0","Thu Oct 12 15:34:22 2023","The main experiment item","False","SternbergTask.osexp","C:/Users/juzal/OneDrive/Documents/Masters of Equine Science/Advanced Quantitative Methods and Experiment Design","False","mono","False","18","no","white","no","yes","768","legacy","74","11","C:/Users/juzal/OneDrive/Documents/Masters of Equine Science/Advanced Quantitative Methods and Experiment Design/CH-subject-1.csv","legacy","3 9 8 1 6 4","Melodramatic Milgram","4.0.5","0","n","0","right","right","right","right","NA","734.0","5877","2003","734","NA","2","legacy","6","1024","2","48000","-16","experiment","1","odd","7","528259","525031","526057","2062","82330","526057","140044","2065","80326","530260","530997","527058","7944","530260","NA","Sternberg Task","86","63255.0","87","1024"
"98","98","726","726","#3d3846","experiment","legacy","legacy","legacy","1","undefined","1","right","87","87","87","0","0","87","87","0","0","87","87","87","0","87","0","Thu Oct 12 15:34:22 2023","The main experiment item","False","SternbergTask.osexp","C:/Users/juzal/OneDrive/Documents/Masters of Equine Science/Advanced Quantitative Methods and Experiment Design","False","mono","False","18","no","white","no","yes","768","legacy","75","11","C:/Users/juzal/OneDrive/Documents/Masters of Equine Science/Advanced Quantitative Methods and Experiment Design/CH-subject-1.csv","legacy","1 4 9 2 5","Melodramatic Milgram","4.0.5","0","n","0","right","right","right","right","NA","697.0","5877","2003","697","NA","2","legacy","5","1024","2","48000","-16","experiment","1","odd","7","534267","531040","532065","2062","82330","532066","140044","2065","80326","536267","536965","533066","7944","536267","NA","Sternberg Task","87","63952.0","88","1024"
"98","98","725","725","#3d3846","experiment","legacy","legacy","legacy","1","undefined","1","right","88","88","88","0","0","88","88","0","0","88","88","88","0","88","0","Thu Oct 12 15:34:22 2023","The main experiment item","False","SternbergTask.osexp","C:/Users/juzal/OneDrive/Documents/Masters of Equine Science/Advanced Quantitative Methods and Experiment Design","False","mono","False","18","no","white","no","yes","768","legacy","76","11","C:/Users/juzal/OneDrive/Documents/Masters of Equine Science/Advanced Quantitative Methods and Experiment Design/CH-subject-1.csv","legacy","1 4 3 6 5","Melodramatic Milgram","4.0.5","0","n","0","right","right","right","right","NA","596.0","5877","2003","596","NA","2","legacy","5","1024","2","48000","-16","experiment","1","odd","8","540228","537001","538026","2062","82330","538027","140044","2065","80326","542228","542825","539027","7944","542228","NA","Sternberg Task","88","64548.0","89","1024"
"98","98","723","723","#3d3846","experiment","legacy","legacy","legacy","1","undefined","1","left","89","89","89","0","0","89","89","0","0","89","89","89","0","89","0","Thu Oct 12 15:34:22 2023","The main experiment item","False","SternbergTask.osexp","C:/Users/juzal/OneDrive/Documents/Masters of Equine Science/Advanced Quantitative Methods and Experiment Design","False","mono","False","18","no","white","no","yes","768","legacy","77","11","C:/Users/juzal/OneDrive/Documents/Masters of Equine Science/Advanced Quantitative Methods and Experiment Design/CH-subject-1.csv","legacy","9 3 1 2 5","Melodramatic Milgram","4.0.5","4","y","0","left","right","right","left","NA","577.0","5877","2003","577","NA","2","legacy","5","1024","2","48000","-16","experiment","1","odd","2","546057","542829","543855","2062","82330","543855","140044","2065","80326","548057","548635","544856","7944","548057","NA","Sternberg Task","89","65125.0","90","1024"
"98","98","722","722","#3d3846","experiment","legacy","legacy","legacy","1","undefined","1","left","90","90","90","0","0","90","90","0","0","90","90","90","0","90","0","Thu Oct 12 15:34:22 2023","The main experiment item","False","SternbergTask.osexp","C:/Users/juzal/OneDrive/Documents/Masters of Equine Science/Advanced Quantitative Methods and Experiment Design","False","mono","False","18","no","white","no","yes","768","legacy","78","11","C:/Users/juzal/OneDrive/Documents/Masters of Equine Science/Advanced Quantitative Methods and Experiment Design/CH-subject-1.csv","legacy","4 7 6 8 2 3","Melodramatic Milgram","4.0.5","6","y","0","left","right","right","left","NA","658.0","5877","2003","658","NA","2","legacy","6","1024","2","48000","-16","experiment","1","odd","3","551922","548689","549720","2062","82330","549721","140044","2065","80326","553922","554581","550721","7944","553922","NA","Sternberg Task","90","65783.0","91","1024"
"98","98","721","721","#3d3846","experiment","legacy","legacy","legacy","1","undefined","1","right","91","91","91","0","0","91","91","0","0","91","91","91","0","91","0","Thu Oct 12 15:34:22 2023","The main experiment item","False","SternbergTask.osexp","C:/Users/juzal/OneDrive/Documents/Masters of Equine Science/Advanced Quantitative Methods and Experiment Design","False","mono","False","18","no","white","no","yes","768","legacy","79","11","C:/Users/juzal/OneDrive/Documents/Masters of Equine Science/Advanced Quantitative Methods and Experiment Design/CH-subject-1.csv","legacy","6 9 4 5 2","Melodramatic Milgram","4.0.5","0","n","0","right","right","right","right","NA","595.0","5877","2003","595","NA","2","legacy","5","1024","2","48000","-16","experiment","1","odd","1","557821","554586","555618","2062","82330","555620","140044","2065","80326","559821","560417","556620","7944","559821","NA","Sternberg Task","91","66378.0","92","1024"
"98","98","721","721","#3d3846","experiment","legacy","legacy","legacy","1","undefined","1","left","92","92","92","0","0","92","92","0","0","92","92","92","0","92","0","Thu Oct 12 15:34:22 2023","The main experiment item","False","SternbergTask.osexp","C:/Users/juzal/OneDrive/Documents/Masters of Equine Science/Advanced Quantitative Methods and Experiment Design","False","mono","False","18","no","white","no","yes","768","legacy","80","11","C:/Users/juzal/OneDrive/Documents/Masters of Equine Science/Advanced Quantitative Methods and Experiment Design/CH-subject-1.csv","legacy","5 2 9 6 1 7","Melodramatic Milgram","4.0.5","3","y","0","left","right","right","left","NA","711.0","5877","2003","711","NA","2","legacy","6","1024","2","48000","-16","experiment","1","odd","9","563696","560465","561494","2062","82330","561495","140044","2065","80326","565696","566408","562495","7944","565696","NA","Sternberg Task","92","67089.0","93","1024"
"98","98","720","720","#3d3846","experiment","legacy","legacy","legacy","1","undefined","1","left","93","93","93","0","0","93","93","0","0","93","93","93","0","93","0","Thu Oct 12 15:34:22 2023","The main experiment item","False","SternbergTask.osexp","C:/Users/juzal/OneDrive/Documents/Masters of Equine Science/Advanced Quantitative Methods and Experiment Design","False","mono","False","18","no","white","no","yes","768","legacy","81","11","C:/Users/juzal/OneDrive/Documents/Masters of Equine Science/Advanced Quantitative Methods and Experiment Design/CH-subject-1.csv","legacy","4 6 2 5 1","Melodramatic Milgram","4.0.5","5","y","0","left","right","right","left","NA","605.0","5877","2003","605","NA","2","legacy","5","1024","2","48000","-16","experiment","1","odd","1","569682","566453","567480","2062","82330","567481","140044","2065","80326","571682","572288","568481","7944","571682","NA","Sternberg Task","93","67694.0","94","1024"
"98","98","722","722","#3d3846","experiment","legacy","legacy","legacy","1","undefined","1","left","94","94","94","0","0","94","94","0","0","94","94","94","0","94","0","Thu Oct 12 15:34:22 2023","The main experiment item","False","SternbergTask.osexp","C:/Users/juzal/OneDrive/Documents/Masters of Equine Science/Advanced Quantitative Methods and Experiment Design","False","mono","False","18","no","white","no","yes","768","legacy","82","11","C:/Users/juzal/OneDrive/Documents/Masters of Equine Science/Advanced Quantitative Methods and Experiment Design/CH-subject-1.csv","legacy","9 3 8 2 1 4","Melodramatic Milgram","4.0.5","3","y","0","left","right","right","left","NA","940.0","5877","2003","940","NA","2","legacy","6","1024","2","48000","-16","experiment","1","odd","8","575556","572328","573354","2062","82330","573355","140044","2065","80326","577556","578497","574355","7944","577556","NA","Sternberg Task","94","68634.0","95","1024"
"98","98","723","723","#3d3846","experiment","legacy","legacy","legacy","1","undefined","1","right","95","95","95","0","0","95","95","0","0","95","95","95","0","95","0","Thu Oct 12 15:34:22 2023","The main experiment item","False","SternbergTask.osexp","C:/Users/juzal/OneDrive/Documents/Masters of Equine Science/Advanced Quantitative Methods and Experiment Design","False","mono","False","18","no","white","no","yes","768","legacy","83","11","C:/Users/juzal/OneDrive/Documents/Masters of Equine Science/Advanced Quantitative Methods and Experiment Design/CH-subject-1.csv","legacy","7 4 2 8 1 9","Melodramatic Milgram","4.0.5","0","n","0","right","right","right","right","NA","796.0","5877","2003","796","NA","2","legacy","6","1024","2","48000","-16","experiment","1","odd","5","581771","578542","579568","2062","82330","579570","140044","2065","80326","583771","584570","580570","7944","583771","NA","Sternberg Task","95","69430.0","96","1024"
"98","98","722","722","#3d3846","experiment","legacy","legacy","legacy","1","undefined","1","right","96","96","96","0","0","96","96","0","0","96","96","96","0","96","0","Thu Oct 12 15:34:22 2023","The main experiment item","False","SternbergTask.osexp","C:/Users/juzal/OneDrive/Documents/Masters of Equine Science/Advanced Quantitative Methods and Experiment Design","False","mono","False","18","no","white","no","yes","768","legacy","84","11","C:/Users/juzal/OneDrive/Documents/Masters of Equine Science/Advanced Quantitative Methods and Experiment Design/CH-subject-1.csv","legacy","5 3 8 7 2 4","Melodramatic Milgram","4.0.5","0","n","0","right","right","right","right","NA","680.0","5877","2003","680","NA","2","legacy","6","1024","2","48000","-16","experiment","1","odd","9","587848","584620","585647","2062","82330","585647","140044","2065","80326","589849","590529","586647","7944","589848","NA","Sternberg Task","96","70110.0","97","1024"
"98","98","723","723","#3d3846","experiment","legacy","legacy","legacy","1","undefined","1","right","97","97","97","0","0","97","97","0","0","97","97","97","0","97","0","Thu Oct 12 15:34:22 2023","The main experiment item","False","SternbergTask.osexp","C:/Users/juzal/OneDrive/Documents/Masters of Equine Science/Advanced Quantitative Methods and Experiment Design","False","mono","False","18","no","white","no","yes","768","legacy","85","11","C:/Users/juzal/OneDrive/Documents/Masters of Equine Science/Advanced Quantitative Methods and Experiment Design/CH-subject-1.csv","legacy","7 1 8 4 9 3","Melodramatic Milgram","4.0.5","0","n","0","right","right","right","right","NA","767.0","5877","2003","767","NA","2","legacy","6","1024","2","48000","-16","experiment","1","odd","6","593763","590534","591561","2062","82330","591561","140044","2065","80326","595763","596531","592561","7944","595763","NA","Sternberg Task","97","70877.0","98","1024"
"98","98","727","727","#3d3846","experiment","legacy","legacy","legacy","1","undefined","1","left","98","98","98","0","0","98","98","0","0","98","98","98","0","98","0","Thu Oct 12 15:34:22 2023","The main experiment item","False","SternbergTask.osexp","C:/Users/juzal/OneDrive/Documents/Masters of Equine Science/Advanced Quantitative Methods and Experiment Design","False","mono","False","18","no","white","no","yes","768","legacy","86","11","C:/Users/juzal/OneDrive/Documents/Masters of Equine Science/Advanced Quantitative Methods and Experiment Design/CH-subject-1.csv","legacy","3 2 1 4 7","Melodramatic Milgram","4.0.5","2","y","0","left","right","right","left","NA","1194.0","5877","2003","1194","NA","2","legacy","5","1024","2","48000","-16","experiment","1","odd","2","599806","596573","597605","2062","82330","597605","140044","2065","80326","601806","603001","598605","7944","601806","NA","Sternberg Task","98","72071.0","99","1024"
"99","99","726","726","#3d3846","experiment","legacy","legacy","legacy","1","undefined","1","right","99","99","99","0","0","99","99","0","0","99","99","99","0","99","0","Thu Oct 12 15:34:22 2023","The main experiment item","False","SternbergTask.osexp","C:/Users/juzal/OneDrive/Documents/Masters of Equine Science/Advanced Quantitative Methods and Experiment Design","False","mono","False","18","no","white","no","yes","768","legacy","87","11","C:/Users/juzal/OneDrive/Documents/Masters of Equine Science/Advanced Quantitative Methods and Experiment Design/CH-subject-1.csv","legacy","4 2 6 9","Melodramatic Milgram","4.0.5","0","n","0","right","right","right","right","NA","570.0","5877","2003","570","NA","2","legacy","4","1024","2","48000","-16","experiment","1","odd","7","606260","603031","604058","2062","82330","604059","140044","2065","80326","608260","608831","605059","7944","608260","NA","Sternberg Task","99","72641.0","100","1024"
"99","99","725","725","#3d3846","experiment","legacy","legacy","legacy","1","undefined","1","right","100","100","100","0","0","100","100","0","0","100","100","100","0","100","0","Thu Oct 12 15:34:22 2023","The main experiment item","False","SternbergTask.osexp","C:/Users/juzal/OneDrive/Documents/Masters of Equine Science/Advanced Quantitative Methods and Experiment Design","False","mono","False","18","no","white","no","yes","768","legacy","88","11","C:/Users/juzal/OneDrive/Documents/Masters of Equine Science/Advanced Quantitative Methods and Experiment Design/CH-subject-1.csv","legacy","1 4 9 3","Melodramatic Milgram","4.0.5","0","n","0","right","right","right","right","NA","600.0","5877","2003","600","NA","2","legacy","4","1024","2","48000","-16","experiment","1","odd","5","612101","608873","609899","2062","82330","609899","140044","2065","80326","614101","614701","610900","7944","614101","NA","Sternberg Task","100","73241.0","101","1024"
"99","99","724","724","#3d3846","experiment","legacy","legacy","legacy","1","undefined","1","left","101","101","101","0","0","101","101","0","0","101","101","101","0","101","0","Thu Oct 12 15:34:22 2023","The main experiment item","False","SternbergTask.osexp","C:/Users/juzal/OneDrive/Documents/Masters of Equine Science/Advanced Quantitative Methods and Experiment Design","False","mono","False","18","no","white","no","yes","768","legacy","89","11","C:/Users/juzal/OneDrive/Documents/Masters of Equine Science/Advanced Quantitative Methods and Experiment Design/CH-subject-1.csv","legacy","3 5 7 1","Melodramatic Milgram","4.0.5","3","y","0","left","right","right","left","NA","626.0","5877","2003","626","NA","2","legacy","4","1024","2","48000","-16","experiment","1","odd","7","617974","614743","615771","2062","82330","615772","140044","2065","80326","619975","620602","616773","7944","619975","NA","Sternberg Task","101","73867.0","102","1024"
"99","99","728","728","#3d3846","experiment","legacy","legacy","legacy","1","undefined","1","right","102","102","102","0","0","102","102","0","0","102","102","102","0","102","0","Thu Oct 12 15:34:22 2023","The main experiment item","False","SternbergTask.osexp","C:/Users/juzal/OneDrive/Documents/Masters of Equine Science/Advanced Quantitative Methods and Experiment Design","False","mono","False","18","no","white","no","yes","768","legacy","90","11","C:/Users/juzal/OneDrive/Documents/Masters of Equine Science/Advanced Quantitative Methods and Experiment Design/CH-subject-1.csv","legacy","5 7 3","Melodramatic Milgram","4.0.5","0","n","0","right","right","right","right","NA","1149.0","5877","2003","1149","NA","2","legacy","3","1024","2","48000","-16","experiment","1","odd","9","623872","620644","621670","2062","82330","621670","140044","2065","80326","625872","627023","622671","7944","625872","NA","Sternberg Task","102","75016.0","103","1024"
"99","99","729","729","#3d3846","experiment","legacy","legacy","legacy","1","undefined","1","right","103","103","103","0","0","103","103","0","0","103","103","103","0","103","0","Thu Oct 12 15:34:22 2023","The main experiment item","False","SternbergTask.osexp","C:/Users/juzal/OneDrive/Documents/Masters of Equine Science/Advanced Quantitative Methods and Experiment Design","False","mono","False","18","no","white","no","yes","768","legacy","91","11","C:/Users/juzal/OneDrive/Documents/Masters of Equine Science/Advanced Quantitative Methods and Experiment Design/CH-subject-1.csv","legacy","8 4 3 5","Melodramatic Milgram","4.0.5","0","n","0","right","right","right","right","NA","893.0","5877","2003","893","NA","2","legacy","4","1024","2","48000","-16","experiment","1","odd","6","630296","627065","628094","2062","82330","628094","140044","2065","80326","632296","633190","629095","7944","632296","NA","Sternberg Task","103","75909.0","104","1024"
