acc,accuracy,average_response_time,avg_rt,background,block,canvas_backend,clock_backend,color_backend,compensation,coordinates,correct,correct_Instruction1,correct_new_keyboard_response,correct_response,count_Instruction1,count_correctFeedback,count_expSequence,count_experiment,count_experimentLoop,count_fixation,count_incorrectFeedback,count_instructions2,count_isi,count_logger,count_memorySet,count_new_keyboard_response,count_practiceLoop,count_probe,count_thankYou,datetime,description,disable_garbage_collection,experiment_file,experiment_path,font_bold,font_family,font_italic,font_size,font_underline,foreground,form_clicks,fullscreen,height,keyboard_backend,live_row,live_row_practiceLoop,logfile,mouse_backend,numberSet,opensesame_codename,opensesame_version,posInSet,present,repeat_cycle,response,response_Instruction1,response_instructions2,response_new_keyboard_response,response_thankYou,response_time,response_time_Instruction1,response_time_instructions2,response_time_new_keyboard_response,response_time_thankYou,round_decimals,sampler_backend,setSize,sound_buf_size,sound_channels,sound_freq,sound_sample_size,start,subject_nr,subject_parity,target,time_Instruction1,time_correctFeedback,time_expSequence,time_experiment,time_experimentLoop,time_fixation,time_incorrectFeedback,time_instructions2,time_isi,time_logger,time_memorySet,time_new_keyboard_response,time_practiceLoop,time_probe,time_thankYou,title,total_correct,total_response_time,total_responses,uniform_coordinates,width
0,0,2000,2000,black,practice,legacy,legacy,legacy,0,uniform,0,undefined,0,right,0,0,0,0,0,0,0,0,0,0,0,0,0,0,0,Wed Oct 23 08:22:12 2019,The main experiment item,yes,Sternbergtask.osexp,/Users/KrisBow/Dropbox/GradSchoolTarleton/Fall2019/AdvQuant/Lab3,no,mono,no,18,no,white,no,yes,768,legacy,0,0,/Users/KrisBow/Dropbox/GradSchoolTarleton/Fall2019/AdvQuant/Lab3/KB-subject-4-F21.csv,legacy,5,Kafkaesque Koffka,3.2.6,0,n,0,None,left,NA,None,NA,2000,78588,NA,2000,NA,2,legacy,1,1024,2,48000,-16,experiment,4,even,3,3306,NA,82398,3292,NA,82409,NA,NA,84632,88643,83420,86643,81896,86643,NA,Sternberg task,0,2000,1,yes,1024
0,0,2000,2000,black,practice,legacy,legacy,legacy,0,uniform,0,undefined,0,right,0,1,1,0,0,1,1,0,1,1,1,1,0,1,0,Wed Oct 23 08:22:12 2019,The main experiment item,yes,Sternbergtask.osexp,/Users/KrisBow/Dropbox/GradSchoolTarleton/Fall2019/AdvQuant/Lab3,no,mono,no,18,no,white,no,yes,768,legacy,1,1,/Users/KrisBow/Dropbox/GradSchoolTarleton/Fall2019/AdvQuant/Lab3/KB-subject-4-F21.csv,legacy,2 1,Kafkaesque Koffka,3.2.6,0,n,0,None,left,NA,None,NA,2000,78588,NA,2000,NA,2,legacy,2,1024,2,48000,-16,experiment,4,even,5,3306,NA,89828,3292,NA,89838,88713,NA,92060,96071,90849,94071,81896,94071,NA,Sternberg task,0,4000,2,yes,1024
0,0,2000,2000,black,practice,legacy,legacy,legacy,0,uniform,0,undefined,0,left,0,2,2,0,0,2,2,0,2,2,2,2,0,2,0,Wed Oct 23 08:22:12 2019,The main experiment item,yes,Sternbergtask.osexp,/Users/KrisBow/Dropbox/GradSchoolTarleton/Fall2019/AdvQuant/Lab3,no,mono,no,18,no,white,no,yes,768,legacy,2,2,/Users/KrisBow/Dropbox/GradSchoolTarleton/Fall2019/AdvQuant/Lab3/KB-subject-4-F21.csv,legacy,4 8,Kafkaesque Koffka,3.2.6,1,y,0,None,left,NA,None,NA,2000,78588,NA,2000,NA,2,legacy,2,1024,2,48000,-16,experiment,4,even,4,3306,NA,97195,3292,NA,97206,96084,NA,99429,103440,98217,101440,81896,101440,NA,Sternberg task,0,6000,3,yes,1024
0,0,2000,2000,black,practice,legacy,legacy,legacy,0,uniform,0,undefined,0,right,0,3,3,0,0,3,3,0,3,3,3,3,0,3,0,Wed Oct 23 08:22:12 2019,The main experiment item,yes,Sternbergtask.osexp,/Users/KrisBow/Dropbox/GradSchoolTarleton/Fall2019/AdvQuant/Lab3,no,mono,no,18,no,white,no,yes,768,legacy,3,3,/Users/KrisBow/Dropbox/GradSchoolTarleton/Fall2019/AdvQuant/Lab3/KB-subject-4-F21.csv,legacy,4 1 5,Kafkaesque Koffka,3.2.6,0,n,0,None,left,NA,None,NA,2000,78588,NA,2000,NA,2,legacy,3,1024,2,48000,-16,experiment,4,even,2,3306,NA,104561,3292,NA,104571,103453,NA,106795,110806,105582,108806,81896,108806,NA,Sternberg task,0,8000,4,yes,1024
0,0,2000,2000,black,practice,legacy,legacy,legacy,0,uniform,0,undefined,0,right,0,4,4,0,0,4,4,0,4,4,4,4,0,4,0,Wed Oct 23 08:22:12 2019,The main experiment item,yes,Sternbergtask.osexp,/Users/KrisBow/Dropbox/GradSchoolTarleton/Fall2019/AdvQuant/Lab3,no,mono,no,18,no,white,no,yes,768,legacy,4,4,/Users/KrisBow/Dropbox/GradSchoolTarleton/Fall2019/AdvQuant/Lab3/KB-subject-4-F21.csv,legacy,3 1 9 4,Kafkaesque Koffka,3.2.6,0,n,0,None,left,NA,None,NA,2000,78588,NA,2000,NA,2,legacy,4,1024,2,48000,-16,experiment,4,even,6,3306,NA,111927,3292,NA,111938,110819,NA,114161,118172,112949,116172,81896,116171,NA,Sternberg task,0,10000,5,yes,1024
0,0,2000,2000,black,practice,legacy,legacy,legacy,0,uniform,0,undefined,0,left,0,5,5,0,0,5,5,0,5,5,5,5,0,5,0,Wed Oct 23 08:22:12 2019,The main experiment item,yes,Sternbergtask.osexp,/Users/KrisBow/Dropbox/GradSchoolTarleton/Fall2019/AdvQuant/Lab3,no,mono,no,18,no,white,no,yes,768,legacy,5,5,/Users/KrisBow/Dropbox/GradSchoolTarleton/Fall2019/AdvQuant/Lab3/KB-subject-4-F21.csv,legacy,6,Kafkaesque Koffka,3.2.6,1,y,0,None,left,NA,None,NA,2000,78588,NA,2000,NA,2,legacy,1,1024,2,48000,-16,experiment,4,even,6,3306,NA,119291,3292,NA,119302,118185,NA,121526,125536,120313,123536,81896,123536,NA,Sternberg task,0,12000,6,yes,1024
14.28571429,14.28571429,1901,1901,black,practice,legacy,legacy,legacy,0,uniform,1,undefined,1,left,0,6,6,0,0,6,6,0,6,6,6,6,0,6,0,Wed Oct 23 08:22:12 2019,The main experiment item,yes,Sternbergtask.osexp,/Users/KrisBow/Dropbox/GradSchoolTarleton/Fall2019/AdvQuant/Lab3,no,mono,no,18,no,white,no,yes,768,legacy,6,6,/Users/KrisBow/Dropbox/GradSchoolTarleton/Fall2019/AdvQuant/Lab3/KB-subject-4-F21.csv,legacy,1 5 2 9,Kafkaesque Koffka,3.2.6,2,y,0,left,left,NA,left,NA,1307,78588,NA,1307,NA,2,legacy,4,1024,2,48000,-16,experiment,4,even,5,3306,NA,126657,3292,NA,126667,125549,NA,128892,132212,127678,130903,81896,130903,NA,Sternberg task,1,13307,7,yes,1024
25,25,1787,1787,black,practice,legacy,legacy,legacy,0,uniform,1,undefined,1,left,0,7,7,0,0,7,7,0,7,7,7,7,0,7,0,Wed Oct 23 08:22:12 2019,The main experiment item,yes,Sternbergtask.osexp,/Users/KrisBow/Dropbox/GradSchoolTarleton/Fall2019/AdvQuant/Lab3,no,mono,no,18,no,white,no,yes,768,legacy,7,7,/Users/KrisBow/Dropbox/GradSchoolTarleton/Fall2019/AdvQuant/Lab3/KB-subject-4-F21.csv,legacy,2 9 4,Kafkaesque Koffka,3.2.6,3,y,0,left,left,NA,left,NA,989,78588,NA,989,NA,2,legacy,3,1024,2,48000,-16,experiment,4,even,4,3306,132224,133332,3292,NA,133342,125549,NA,135565,138568,134353,137576,81896,137575,NA,Sternberg task,2,14296,8,yes,1024
22.22222222,22.22222222,1749.333333,1749.333333,black,practice,legacy,legacy,legacy,0,uniform,0,undefined,0,left,0,8,8,0,0,8,8,0,8,8,8,8,0,8,0,Wed Oct 23 08:22:12 2019,The main experiment item,yes,Sternbergtask.osexp,/Users/KrisBow/Dropbox/GradSchoolTarleton/Fall2019/AdvQuant/Lab3,no,mono,no,18,no,white,no,yes,768,legacy,8,8,/Users/KrisBow/Dropbox/GradSchoolTarleton/Fall2019/AdvQuant/Lab3/KB-subject-4-F21.csv,legacy,1 7 9 8 5,Kafkaesque Koffka,3.2.6,4,y,0,right,left,NA,right,NA,1448,78588,NA,1448,NA,2,legacy,5,1024,2,48000,-16,experiment,4,even,8,3306,138581,139692,3292,NA,139703,125549,NA,141924,145385,140713,143936,81896,143936,NA,Sternberg task,2,15744,9,yes,1024
30,30,1682.5,1682.5,black,practice,legacy,legacy,legacy,0,uniform,1,undefined,1,left,0,9,9,0,0,9,9,0,9,9,9,9,0,9,0,Wed Oct 23 08:22:12 2019,The main experiment item,yes,Sternbergtask.osexp,/Users/KrisBow/Dropbox/GradSchoolTarleton/Fall2019/AdvQuant/Lab3,no,mono,no,18,no,white,no,yes,768,legacy,9,9,/Users/KrisBow/Dropbox/GradSchoolTarleton/Fall2019/AdvQuant/Lab3/KB-subject-4-F21.csv,legacy,4 3 1 7 9 8,Kafkaesque Koffka,3.2.6,1,y,0,left,left,NA,left,NA,1081,78588,NA,1081,NA,2,legacy,6,1024,2,48000,-16,experiment,4,even,4,3306,138581,146508,3292,NA,146519,145399,NA,148740,151834,147529,150751,81896,150750,NA,Sternberg task,3,16825,10,yes,1024
36.36363636,36.36363636,1631.454545,1631.454545,black,practice,legacy,legacy,legacy,0,uniform,1,undefined,1,right,0,10,10,0,0,10,10,0,10,10,10,10,0,10,0,Wed Oct 23 08:22:12 2019,The main experiment item,yes,Sternbergtask.osexp,/Users/KrisBow/Dropbox/GradSchoolTarleton/Fall2019/AdvQuant/Lab3,no,mono,no,18,no,white,no,yes,768,legacy,10,10,/Users/KrisBow/Dropbox/GradSchoolTarleton/Fall2019/AdvQuant/Lab3/KB-subject-4-F21.csv,legacy,5 7 8 4 1 2,Kafkaesque Koffka,3.2.6,0,n,0,right,left,NA,right,NA,1121,78588,NA,1121,NA,2,legacy,6,1024,2,48000,-16,experiment,4,even,6,3306,151847,152957,3292,NA,152967,145399,NA,155189,158323,153977,157200,81896,157200,NA,Sternberg task,4,17946,11,yes,1024
41.66666667,41.66666667,1584.416667,1584.416667,black,practice,legacy,legacy,legacy,0,uniform,1,undefined,1,right,0,11,11,0,0,11,11,0,11,11,11,11,0,11,0,Wed Oct 23 08:22:12 2019,The main experiment item,yes,Sternbergtask.osexp,/Users/KrisBow/Dropbox/GradSchoolTarleton/Fall2019/AdvQuant/Lab3,no,mono,no,18,no,white,no,yes,768,legacy,11,11,/Users/KrisBow/Dropbox/GradSchoolTarleton/Fall2019/AdvQuant/Lab3/KB-subject-4-F21.csv,legacy,9 6 7 4 5,Kafkaesque Koffka,3.2.6,0,n,0,right,left,NA,right,NA,1067,78588,NA,1067,NA,2,legacy,5,1024,2,48000,-16,experiment,4,even,3,3306,158340,159449,3292,NA,159460,145399,NA,161682,164762,160470,163693,81896,163693,NA,Sternberg task,5,19013,12,yes,1024
46.15384615,46.15384615,1546.923077,1546.923077,black,experiment,legacy,legacy,legacy,0,uniform,1,undefined,1,left,0,12,12,0,0,12,12,0,12,12,12,12,0,12,0,Wed Oct 23 08:22:12 2019,The main experiment item,yes,Sternbergtask.osexp,/Users/KrisBow/Dropbox/GradSchoolTarleton/Fall2019/AdvQuant/Lab3,no,mono,no,18,no,white,no,yes,768,legacy,0,11,/Users/KrisBow/Dropbox/GradSchoolTarleton/Fall2019/AdvQuant/Lab3/KB-subject-4-F21.csv,legacy,7 6,Kafkaesque Koffka,3.2.6,2,y,0,left,left,right,left,NA,1097,78588,6952,1097,NA,2,legacy,2,1024,2,48000,-16,experiment,4,even,6,3306,164776,172894,3292,172774,172904,145399,165820,175126,178237,173915,177138,81896,177138,NA,Sternberg task,6,20110,13,yes,1024
50,50,1510.785714,1510.785714,black,experiment,legacy,legacy,legacy,0,uniform,1,undefined,1,left,0,13,13,0,0,13,13,0,13,13,13,13,0,13,0,Wed Oct 23 08:22:12 2019,The main experiment item,yes,Sternbergtask.osexp,/Users/KrisBow/Dropbox/GradSchoolTarleton/Fall2019/AdvQuant/Lab3,no,mono,no,18,no,white,no,yes,768,legacy,1,11,/Users/KrisBow/Dropbox/GradSchoolTarleton/Fall2019/AdvQuant/Lab3/KB-subject-4-F21.csv,legacy,8 7 3,Kafkaesque Koffka,3.2.6,1,y,0,left,left,right,left,NA,1041,78588,6952,1041,NA,2,legacy,3,1024,2,48000,-16,experiment,4,even,8,3306,178250,179358,3292,172774,179369,145399,165820,181592,184647,180380,183604,81896,183603,NA,Sternberg task,7,21151,14,yes,1024
53.33333333,53.33333333,1509.8,1509.8,black,experiment,legacy,legacy,legacy,0,uniform,1,undefined,1,left,0,14,14,0,0,14,14,0,14,14,14,14,0,14,0,Wed Oct 23 08:22:12 2019,The main experiment item,yes,Sternbergtask.osexp,/Users/KrisBow/Dropbox/GradSchoolTarleton/Fall2019/AdvQuant/Lab3,no,mono,no,18,no,white,no,yes,768,legacy,2,11,/Users/KrisBow/Dropbox/GradSchoolTarleton/Fall2019/AdvQuant/Lab3/KB-subject-4-F21.csv,legacy,8 5 1 3 9,Kafkaesque Koffka,3.2.6,4,y,0,left,left,right,left,NA,1496,78588,6952,1496,NA,2,legacy,5,1024,2,48000,-16,experiment,4,even,3,3306,184660,185770,3292,172774,185781,145399,165820,188004,191513,186794,190015,81896,190015,NA,Sternberg task,8,22647,15,yes,1024
56.25,56.25,1474.8125,1474.8125,black,experiment,legacy,legacy,legacy,0,uniform,1,undefined,1,right,0,15,15,0,0,15,15,0,15,15,15,15,0,15,0,Wed Oct 23 08:22:12 2019,The main experiment item,yes,Sternbergtask.osexp,/Users/KrisBow/Dropbox/GradSchoolTarleton/Fall2019/AdvQuant/Lab3,no,mono,no,18,no,white,no,yes,768,legacy,3,11,/Users/KrisBow/Dropbox/GradSchoolTarleton/Fall2019/AdvQuant/Lab3/KB-subject-4-F21.csv,legacy,9 8 2 7 4,Kafkaesque Koffka,3.2.6,0,n,0,right,left,right,right,NA,950,78588,6952,950,NA,2,legacy,5,1024,2,48000,-16,experiment,4,even,5,3306,191526,192635,3292,172774,192645,145399,165820,194868,197832,193656,196880,81896,196879,NA,Sternberg task,9,23597,16,yes,1024
58.82352941,58.82352941,1431,1431,black,experiment,legacy,legacy,legacy,0,uniform,1,undefined,1,left,0,16,16,0,0,16,16,0,16,16,16,16,0,16,0,Wed Oct 23 08:22:12 2019,The main experiment item,yes,Sternbergtask.osexp,/Users/KrisBow/Dropbox/GradSchoolTarleton/Fall2019/AdvQuant/Lab3,no,mono,no,18,no,white,no,yes,768,legacy,4,11,/Users/KrisBow/Dropbox/GradSchoolTarleton/Fall2019/AdvQuant/Lab3/KB-subject-4-F21.csv,legacy,9 1 6 7 8,Kafkaesque Koffka,3.2.6,1,y,0,left,left,right,left,NA,730,78588,6952,730,NA,2,legacy,5,1024,2,48000,-16,experiment,4,even,9,3306,197845,198956,3292,172774,198966,145399,165820,201189,203933,199977,203201,81896,203200,NA,Sternberg task,10,24327,17,yes,1024
61.11111111,61.11111111,1458.333333,1458.333333,black,experiment,legacy,legacy,legacy,0,uniform,1,undefined,1,left,0,17,17,0,0,17,17,0,17,17,17,17,0,17,0,Wed Oct 23 08:22:12 2019,The main experiment item,yes,Sternbergtask.osexp,/Users/KrisBow/Dropbox/GradSchoolTarleton/Fall2019/AdvQuant/Lab3,no,mono,no,18,no,white,no,yes,768,legacy,5,11,/Users/KrisBow/Dropbox/GradSchoolTarleton/Fall2019/AdvQuant/Lab3/KB-subject-4-F21.csv,legacy,7 4 2 6 3 5,Kafkaesque Koffka,3.2.6,6,y,0,left,left,right,left,NA,1923,78588,6952,1923,NA,2,legacy,6,1024,2,48000,-16,experiment,4,even,5,3306,203946,205054,3292,172774,205065,145399,165820,207289,211223,206077,209299,81896,209299,NA,Sternberg task,11,26250,18,yes,1024
63.15789474,63.15789474,1439.368421,1439.368421,black,experiment,legacy,legacy,legacy,0,uniform,1,undefined,1,right,0,18,18,0,0,18,18,0,18,18,18,18,0,18,0,Wed Oct 23 08:22:12 2019,The main experiment item,yes,Sternbergtask.osexp,/Users/KrisBow/Dropbox/GradSchoolTarleton/Fall2019/AdvQuant/Lab3,no,mono,no,18,no,white,no,yes,768,legacy,6,11,/Users/KrisBow/Dropbox/GradSchoolTarleton/Fall2019/AdvQuant/Lab3/KB-subject-4-F21.csv,legacy,1,Kafkaesque Koffka,3.2.6,0,n,0,right,left,right,right,NA,1098,78588,6952,1098,NA,2,legacy,1,1024,2,48000,-16,experiment,4,even,7,3306,211237,212351,3292,172774,212362,145399,165820,214584,217696,213372,216596,81896,216596,NA,Sternberg task,12,27348,19,yes,1024
65,65,1415,1415,black,experiment,legacy,legacy,legacy,0,uniform,1,undefined,1,right,0,19,19,0,0,19,19,0,19,19,19,19,0,19,0,Wed Oct 23 08:22:12 2019,The main experiment item,yes,Sternbergtask.osexp,/Users/KrisBow/Dropbox/GradSchoolTarleton/Fall2019/AdvQuant/Lab3,no,mono,no,18,no,white,no,yes,768,legacy,7,11,/Users/KrisBow/Dropbox/GradSchoolTarleton/Fall2019/AdvQuant/Lab3/KB-subject-4-F21.csv,legacy,7 1 8 4 9 3,Kafkaesque Koffka,3.2.6,0,n,0,right,left,right,right,NA,952,78588,6952,952,NA,2,legacy,6,1024,2,48000,-16,experiment,4,even,6,3306,217709,218830,3292,172774,218841,145399,165820,221064,224029,219852,223076,81896,223075,NA,Sternberg task,13,28300,20,yes,1024
66.66666667,66.66666667,1403.285714,1403.285714,black,experiment,legacy,legacy,legacy,0,uniform,1,undefined,1,left,0,20,20,0,0,20,20,0,20,20,20,20,0,20,0,Wed Oct 23 08:22:12 2019,The main experiment item,yes,Sternbergtask.osexp,/Users/KrisBow/Dropbox/GradSchoolTarleton/Fall2019/AdvQuant/Lab3,no,mono,no,18,no,white,no,yes,768,legacy,8,11,/Users/KrisBow/Dropbox/GradSchoolTarleton/Fall2019/AdvQuant/Lab3/KB-subject-4-F21.csv,legacy,9 3 8 2 1 4,Kafkaesque Koffka,3.2.6,3,y,0,left,left,right,left,NA,1169,78588,6952,1169,NA,2,legacy,6,1024,2,48000,-16,experiment,4,even,8,3306,224042,225155,3292,172774,225166,145399,165820,227389,230571,226177,229400,81896,229400,NA,Sternberg task,14,29469,21,yes,1024
68.18181818,68.18181818,1386.590909,1386.590909,black,experiment,legacy,legacy,legacy,0,uniform,1,undefined,1,left,0,21,21,0,0,21,21,0,21,21,21,21,0,21,0,Wed Oct 23 08:22:12 2019,The main experiment item,yes,Sternbergtask.osexp,/Users/KrisBow/Dropbox/GradSchoolTarleton/Fall2019/AdvQuant/Lab3,no,mono,no,18,no,white,no,yes,768,legacy,9,11,/Users/KrisBow/Dropbox/GradSchoolTarleton/Fall2019/AdvQuant/Lab3/KB-subject-4-F21.csv,legacy,6 7 9 3 1 2,Kafkaesque Koffka,3.2.6,1,y,0,left,left,right,left,NA,1036,78588,6952,1036,NA,2,legacy,6,1024,2,48000,-16,experiment,4,even,6,3306,230584,231693,3292,172774,231704,145399,165820,233927,236977,232715,235939,81896,235938,NA,Sternberg task,15,30505,22,yes,1024
69.56521739,69.56521739,1403.434783,1403.434783,black,experiment,legacy,legacy,legacy,0,uniform,1,undefined,1,left,0,22,22,0,0,22,22,0,22,22,22,22,0,22,0,Wed Oct 23 08:22:12 2019,The main experiment item,yes,Sternbergtask.osexp,/Users/KrisBow/Dropbox/GradSchoolTarleton/Fall2019/AdvQuant/Lab3,no,mono,no,18,no,white,no,yes,768,legacy,10,11,/Users/KrisBow/Dropbox/GradSchoolTarleton/Fall2019/AdvQuant/Lab3/KB-subject-4-F21.csv,legacy,5 7 3 6 2,Kafkaesque Koffka,3.2.6,5,y,0,left,left,right,left,NA,1774,78588,6952,1774,NA,2,legacy,5,1024,2,48000,-16,experiment,4,even,2,3306,236990,238104,3292,172774,238114,145399,165820,240338,244125,239126,242349,81896,242349,NA,Sternberg task,16,32279,23,yes,1024
70.83333333,70.83333333,1381.416667,1381.416667,black,experiment,legacy,legacy,legacy,0,uniform,1,undefined,1,right,0,23,23,0,0,23,23,0,23,23,23,23,0,23,0,Wed Oct 23 08:22:12 2019,The main experiment item,yes,Sternbergtask.osexp,/Users/KrisBow/Dropbox/GradSchoolTarleton/Fall2019/AdvQuant/Lab3,no,mono,no,18,no,white,no,yes,768,legacy,11,11,/Users/KrisBow/Dropbox/GradSchoolTarleton/Fall2019/AdvQuant/Lab3/KB-subject-4-F21.csv,legacy,6 8,Kafkaesque Koffka,3.2.6,0,n,0,right,left,right,right,NA,875,78588,6952,875,NA,2,legacy,2,1024,2,48000,-16,experiment,4,even,9,3306,244138,245245,3292,172774,245256,145399,165820,247479,250367,246266,249490,81896,249490,NA,Sternberg task,17,33154,24,yes,1024
72,72,1357.2,1357.2,black,experiment,legacy,legacy,legacy,0,uniform,1,undefined,1,right,0,24,24,0,0,24,24,0,24,24,24,24,0,24,0,Wed Oct 23 08:22:12 2019,The main experiment item,yes,Sternbergtask.osexp,/Users/KrisBow/Dropbox/GradSchoolTarleton/Fall2019/AdvQuant/Lab3,no,mono,no,18,no,white,no,yes,768,legacy,12,11,/Users/KrisBow/Dropbox/GradSchoolTarleton/Fall2019/AdvQuant/Lab3/KB-subject-4-F21.csv,legacy,5 2,Kafkaesque Koffka,3.2.6,0,n,0,right,left,right,right,NA,776,78588,6952,776,NA,2,legacy,2,1024,2,48000,-16,experiment,4,even,7,3306,250380,251490,3292,172774,251500,145399,165820,253723,256512,252511,255734,81896,255734,NA,Sternberg task,18,33930,25,yes,1024
73.07692308,73.07692308,1339.115385,1339.115385,black,experiment,legacy,legacy,legacy,0,uniform,1,undefined,1,left,0,25,25,0,0,25,25,0,25,25,25,25,0,25,0,Wed Oct 23 08:22:12 2019,The main experiment item,yes,Sternbergtask.osexp,/Users/KrisBow/Dropbox/GradSchoolTarleton/Fall2019/AdvQuant/Lab3,no,mono,no,18,no,white,no,yes,768,legacy,13,11,/Users/KrisBow/Dropbox/GradSchoolTarleton/Fall2019/AdvQuant/Lab3/KB-subject-4-F21.csv,legacy,7,Kafkaesque Koffka,3.2.6,1,y,0,left,left,right,left,NA,887,78588,6952,887,NA,2,legacy,1,1024,2,48000,-16,experiment,4,even,7,3306,256524,257631,3292,172774,257642,145399,165820,259866,262766,258653,261877,81896,261877,NA,Sternberg task,19,34817,26,yes,1024
74.07407407,74.07407407,1333.222222,1333.222222,black,experiment,legacy,legacy,legacy,0,uniform,1,undefined,1,left,0,26,26,0,0,26,26,0,26,26,26,26,0,26,0,Wed Oct 23 08:22:12 2019,The main experiment item,yes,Sternbergtask.osexp,/Users/KrisBow/Dropbox/GradSchoolTarleton/Fall2019/AdvQuant/Lab3,no,mono,no,18,no,white,no,yes,768,legacy,14,11,/Users/KrisBow/Dropbox/GradSchoolTarleton/Fall2019/AdvQuant/Lab3/KB-subject-4-F21.csv,legacy,7 1 8 5 6 2,Kafkaesque Koffka,3.2.6,2,y,0,left,left,right,left,NA,1180,78588,6952,1180,NA,2,legacy,6,1024,2,48000,-16,experiment,4,even,1,3306,262779,263890,3292,172774,263901,145399,165820,266124,269317,264912,268135,81896,268135,NA,Sternberg task,20,35997,27,yes,1024
75,75,1324.857143,1324.857143,black,experiment,legacy,legacy,legacy,0,uniform,1,undefined,1,left,0,27,27,0,0,27,27,0,27,27,27,27,0,27,0,Wed Oct 23 08:22:12 2019,The main experiment item,yes,Sternbergtask.osexp,/Users/KrisBow/Dropbox/GradSchoolTarleton/Fall2019/AdvQuant/Lab3,no,mono,no,18,no,white,no,yes,768,legacy,15,11,/Users/KrisBow/Dropbox/GradSchoolTarleton/Fall2019/AdvQuant/Lab3/KB-subject-4-F21.csv,legacy,9 5 8 1,Kafkaesque Koffka,3.2.6,2,y,0,left,left,right,left,NA,1099,78588,6952,1099,NA,2,legacy,4,1024,2,48000,-16,experiment,4,even,5,3306,269330,270437,3292,172774,270448,145399,165820,272672,275784,271459,274684,81896,274684,NA,Sternberg task,21,37096,28,yes,1024
75.86206897,75.86206897,1312.103448,1312.103448,black,experiment,legacy,legacy,legacy,0,uniform,1,undefined,1,left,0,28,28,0,0,28,28,0,28,28,28,28,0,28,0,Wed Oct 23 08:22:12 2019,The main experiment item,yes,Sternbergtask.osexp,/Users/KrisBow/Dropbox/GradSchoolTarleton/Fall2019/AdvQuant/Lab3,no,mono,no,18,no,white,no,yes,768,legacy,16,11,/Users/KrisBow/Dropbox/GradSchoolTarleton/Fall2019/AdvQuant/Lab3/KB-subject-4-F21.csv,legacy,9 5 3 8 4,Kafkaesque Koffka,3.2.6,1,y,0,left,left,right,left,NA,955,78588,6952,955,NA,2,legacy,5,1024,2,48000,-16,experiment,4,even,9,3306,275799,276908,3292,172774,276919,145399,165820,279144,282112,277932,281155,81896,281155,NA,Sternberg task,22,38051,29,yes,1024
76.66666667,76.66666667,1295.666667,1295.666667,black,experiment,legacy,legacy,legacy,0,uniform,1,undefined,1,right,0,29,29,0,0,29,29,0,29,29,29,29,0,29,0,Wed Oct 23 08:22:12 2019,The main experiment item,yes,Sternbergtask.osexp,/Users/KrisBow/Dropbox/GradSchoolTarleton/Fall2019/AdvQuant/Lab3,no,mono,no,18,no,white,no,yes,768,legacy,17,11,/Users/KrisBow/Dropbox/GradSchoolTarleton/Fall2019/AdvQuant/Lab3/KB-subject-4-F21.csv,legacy,1 8 7,Kafkaesque Koffka,3.2.6,0,n,0,right,left,right,right,NA,819,78588,6952,819,NA,2,legacy,3,1024,2,48000,-16,experiment,4,even,4,3306,282125,283233,3292,172774,283244,145399,165820,285467,288299,284255,287478,81896,287478,NA,Sternberg task,23,38870,30,yes,1024
77.41935484,77.41935484,1289.096774,1289.096774,black,experiment,legacy,legacy,legacy,0,uniform,1,undefined,1,right,0,30,30,0,0,30,30,0,30,30,30,30,0,30,0,Wed Oct 23 08:22:12 2019,The main experiment item,yes,Sternbergtask.osexp,/Users/KrisBow/Dropbox/GradSchoolTarleton/Fall2019/AdvQuant/Lab3,no,mono,no,18,no,white,no,yes,768,legacy,18,11,/Users/KrisBow/Dropbox/GradSchoolTarleton/Fall2019/AdvQuant/Lab3/KB-subject-4-F21.csv,legacy,8 4 3 5,Kafkaesque Koffka,3.2.6,0,n,0,right,left,right,right,NA,1092,78588,6952,1092,NA,2,legacy,4,1024,2,48000,-16,experiment,4,even,6,3306,288312,289420,3292,172774,289432,145399,165820,291655,294760,290443,293666,81896,293666,NA,Sternberg task,24,39962,31,yes,1024
78.125,78.125,1275.40625,1275.40625,black,experiment,legacy,legacy,legacy,0,uniform,1,undefined,1,right,0,31,31,0,0,31,31,0,31,31,31,31,0,31,0,Wed Oct 23 08:22:12 2019,The main experiment item,yes,Sternbergtask.osexp,/Users/KrisBow/Dropbox/GradSchoolTarleton/Fall2019/AdvQuant/Lab3,no,mono,no,18,no,white,no,yes,768,legacy,19,11,/Users/KrisBow/Dropbox/GradSchoolTarleton/Fall2019/AdvQuant/Lab3/KB-subject-4-F21.csv,legacy,3 9 8 1 6 4,Kafkaesque Koffka,3.2.6,0,n,0,right,left,right,right,NA,851,78588,6952,851,NA,2,legacy,6,1024,2,48000,-16,experiment,4,even,7,3306,294773,295881,3292,172774,295892,145399,165820,298116,300980,296903,300127,81896,300127,NA,Sternberg task,25,40813,32,yes,1024
78.78787879,78.78787879,1260.363636,1260.363636,black,experiment,legacy,legacy,legacy,0,uniform,1,undefined,1,right,0,32,32,0,0,32,32,0,32,32,32,32,0,32,0,Wed Oct 23 08:22:12 2019,The main experiment item,yes,Sternbergtask.osexp,/Users/KrisBow/Dropbox/GradSchoolTarleton/Fall2019/AdvQuant/Lab3,no,mono,no,18,no,white,no,yes,768,legacy,20,11,/Users/KrisBow/Dropbox/GradSchoolTarleton/Fall2019/AdvQuant/Lab3/KB-subject-4-F21.csv,legacy,2 8 6 3 1,Kafkaesque Koffka,3.2.6,0,n,0,right,left,right,right,NA,779,78588,6952,779,NA,2,legacy,5,1024,2,48000,-16,experiment,4,even,7,3306,300993,302146,3292,172774,302161,145399,165820,304383,307176,303171,306395,81896,306394,NA,Sternberg task,26,41592,33,yes,1024
79.41176471,79.41176471,1243.617647,1243.617647,black,experiment,legacy,legacy,legacy,0,uniform,1,undefined,1,right,0,33,33,0,0,33,33,0,33,33,33,33,0,33,0,Wed Oct 23 08:22:12 2019,The main experiment item,yes,Sternbergtask.osexp,/Users/KrisBow/Dropbox/GradSchoolTarleton/Fall2019/AdvQuant/Lab3,no,mono,no,18,no,white,no,yes,768,legacy,21,11,/Users/KrisBow/Dropbox/GradSchoolTarleton/Fall2019/AdvQuant/Lab3/KB-subject-4-F21.csv,legacy,5,Kafkaesque Koffka,3.2.6,0,n,0,right,left,right,right,NA,691,78588,6952,691,NA,2,legacy,1,1024,2,48000,-16,experiment,4,even,8,3306,307190,308297,3292,172774,308307,145399,165820,310532,313236,309319,312543,81896,312542,NA,Sternberg task,27,42283,34,yes,1024
80,80,1230.857143,1230.857143,black,experiment,legacy,legacy,legacy,0,uniform,1,undefined,1,left,0,34,34,0,0,34,34,0,34,34,34,34,0,34,0,Wed Oct 23 08:22:12 2019,The main experiment item,yes,Sternbergtask.osexp,/Users/KrisBow/Dropbox/GradSchoolTarleton/Fall2019/AdvQuant/Lab3,no,mono,no,18,no,white,no,yes,768,legacy,22,11,/Users/KrisBow/Dropbox/GradSchoolTarleton/Fall2019/AdvQuant/Lab3/KB-subject-4-F21.csv,legacy,8,Kafkaesque Koffka,3.2.6,1,y,0,left,left,right,left,NA,797,78588,6952,797,NA,2,legacy,1,1024,2,48000,-16,experiment,4,even,8,3306,313249,314356,3292,172774,314367,145399,165820,316589,319399,315378,318600,81896,318600,NA,Sternberg task,28,43080,35,yes,1024
80.55555556,80.55555556,1218.777778,1218.777778,black,experiment,legacy,legacy,legacy,0,uniform,1,undefined,1,left,0,35,35,0,0,35,35,0,35,35,35,35,0,35,0,Wed Oct 23 08:22:12 2019,The main experiment item,yes,Sternbergtask.osexp,/Users/KrisBow/Dropbox/GradSchoolTarleton/Fall2019/AdvQuant/Lab3,no,mono,no,18,no,white,no,yes,768,legacy,23,11,/Users/KrisBow/Dropbox/GradSchoolTarleton/Fall2019/AdvQuant/Lab3/KB-subject-4-F21.csv,legacy,9 1 7 2,Kafkaesque Koffka,3.2.6,2,y,0,left,left,right,left,NA,796,78588,6952,796,NA,2,legacy,4,1024,2,48000,-16,experiment,4,even,1,3306,319412,320520,3292,172774,320531,145399,165820,322753,325563,321542,324765,81896,324764,NA,Sternberg task,29,43876,36,yes,1024
81.08108108,81.08108108,1205.540541,1205.540541,black,experiment,legacy,legacy,legacy,0,uniform,1,undefined,1,left,0,36,36,0,0,36,36,0,36,36,36,36,0,36,0,Wed Oct 23 08:22:12 2019,The main experiment item,yes,Sternbergtask.osexp,/Users/KrisBow/Dropbox/GradSchoolTarleton/Fall2019/AdvQuant/Lab3,no,mono,no,18,no,white,no,yes,768,legacy,24,11,/Users/KrisBow/Dropbox/GradSchoolTarleton/Fall2019/AdvQuant/Lab3/KB-subject-4-F21.csv,legacy,4,Kafkaesque Koffka,3.2.6,1,y,0,left,left,right,left,NA,729,78588,6952,729,NA,2,legacy,1,1024,2,48000,-16,experiment,4,even,4,3306,325576,326684,3292,172774,326695,145399,165820,328916,331659,327705,330928,81896,330928,NA,Sternberg task,30,44605,37,yes,1024
81.57894737,81.57894737,1195.289474,1195.289474,black,experiment,legacy,legacy,legacy,0,uniform,1,undefined,1,right,0,37,37,0,0,37,37,0,37,37,37,37,0,37,0,Wed Oct 23 08:22:12 2019,The main experiment item,yes,Sternbergtask.osexp,/Users/KrisBow/Dropbox/GradSchoolTarleton/Fall2019/AdvQuant/Lab3,no,mono,no,18,no,white,no,yes,768,legacy,25,11,/Users/KrisBow/Dropbox/GradSchoolTarleton/Fall2019/AdvQuant/Lab3/KB-subject-4-F21.csv,legacy,1 3 2 6 9,Kafkaesque Koffka,3.2.6,0,n,0,right,left,right,right,NA,816,78588,6952,816,NA,2,legacy,5,1024,2,48000,-16,experiment,4,even,5,3306,331672,332783,3292,172774,332793,145399,165820,335015,337843,333804,337025,81896,337025,NA,Sternberg task,31,45421,38,yes,1024
82.05128205,82.05128205,1185.179487,1185.179487,black,experiment,legacy,legacy,legacy,0,uniform,1,undefined,1,left,0,38,38,0,0,38,38,0,38,38,38,38,0,38,0,Wed Oct 23 08:22:12 2019,The main experiment item,yes,Sternbergtask.osexp,/Users/KrisBow/Dropbox/GradSchoolTarleton/Fall2019/AdvQuant/Lab3,no,mono,no,18,no,white,no,yes,768,legacy,26,11,/Users/KrisBow/Dropbox/GradSchoolTarleton/Fall2019/AdvQuant/Lab3/KB-subject-4-F21.csv,legacy,6 1 2,Kafkaesque Koffka,3.2.6,3,y,0,left,left,right,left,NA,801,78588,6952,801,NA,2,legacy,3,1024,2,48000,-16,experiment,4,even,2,3306,337856,338964,3292,172774,338975,145399,165820,341195,344010,339985,343207,81896,343207,NA,Sternberg task,32,46222,39,yes,1024
82.5,82.5,1177.3,1177.3,black,experiment,legacy,legacy,legacy,0,uniform,1,undefined,1,left,0,39,39,0,0,39,39,0,39,39,39,39,0,39,0,Wed Oct 23 08:22:12 2019,The main experiment item,yes,Sternbergtask.osexp,/Users/KrisBow/Dropbox/GradSchoolTarleton/Fall2019/AdvQuant/Lab3,no,mono,no,18,no,white,no,yes,768,legacy,27,11,/Users/KrisBow/Dropbox/GradSchoolTarleton/Fall2019/AdvQuant/Lab3/KB-subject-4-F21.csv,legacy,6 2,Kafkaesque Koffka,3.2.6,1,y,0,left,left,right,left,NA,870,78588,6952,870,NA,2,legacy,2,1024,2,48000,-16,experiment,4,even,6,3306,344023,345147,3292,172774,345158,145399,165820,347379,350262,346168,349389,81896,349389,NA,Sternberg task,33,47092,40,yes,1024
82.92682927,82.92682927,1164.073171,1164.073171,black,experiment,legacy,legacy,legacy,0,uniform,1,undefined,1,right,0,40,40,0,0,40,40,0,40,40,40,40,0,40,0,Wed Oct 23 08:22:12 2019,The main experiment item,yes,Sternbergtask.osexp,/Users/KrisBow/Dropbox/GradSchoolTarleton/Fall2019/AdvQuant/Lab3,no,mono,no,18,no,white,no,yes,768,legacy,28,11,/Users/KrisBow/Dropbox/GradSchoolTarleton/Fall2019/AdvQuant/Lab3/KB-subject-4-F21.csv,legacy,1 6 4,Kafkaesque Koffka,3.2.6,0,n,0,right,left,right,right,NA,635,78588,6952,635,NA,2,legacy,3,1024,2,48000,-16,experiment,4,even,7,3306,350275,351384,3292,172774,351395,145399,165820,353616,356264,352405,355627,81896,355627,NA,Sternberg task,34,47727,41,yes,1024
83.33333333,83.33333333,1166.357143,1166.357143,black,experiment,legacy,legacy,legacy,0,uniform,1,undefined,1,left,0,41,41,0,0,41,41,0,41,41,41,41,0,41,0,Wed Oct 23 08:22:12 2019,The main experiment item,yes,Sternbergtask.osexp,/Users/KrisBow/Dropbox/GradSchoolTarleton/Fall2019/AdvQuant/Lab3,no,mono,no,18,no,white,no,yes,768,legacy,29,11,/Users/KrisBow/Dropbox/GradSchoolTarleton/Fall2019/AdvQuant/Lab3/KB-subject-4-F21.csv,legacy,6 8 9 3 4 9,Kafkaesque Koffka,3.2.6,5,y,0,left,left,right,left,NA,1260,78588,6952,1260,NA,2,legacy,6,1024,2,48000,-16,experiment,4,even,4,3306,356277,357387,3292,172774,357398,145399,165820,359620,362894,358409,361632,81896,361632,NA,Sternberg task,35,48987,42,yes,1024
83.72093023,83.72093023,1155.348837,1155.348837,black,experiment,legacy,legacy,legacy,0,uniform,1,undefined,1,left,0,42,42,0,0,42,42,0,42,42,42,42,0,42,0,Wed Oct 23 08:22:12 2019,The main experiment item,yes,Sternbergtask.osexp,/Users/KrisBow/Dropbox/GradSchoolTarleton/Fall2019/AdvQuant/Lab3,no,mono,no,18,no,white,no,yes,768,legacy,30,11,/Users/KrisBow/Dropbox/GradSchoolTarleton/Fall2019/AdvQuant/Lab3/KB-subject-4-F21.csv,legacy,7 8 4 6 9 5,Kafkaesque Koffka,3.2.6,4,y,0,left,left,right,left,NA,693,78588,6952,693,NA,2,legacy,6,1024,2,48000,-16,experiment,4,even,6,3306,362907,364014,3292,172774,364025,145399,165820,366250,368956,365036,368261,81896,368261,NA,Sternberg task,36,49680,43,yes,1024
84.09090909,84.09090909,1147.181818,1147.181818,black,experiment,legacy,legacy,legacy,0,uniform,1,undefined,1,right,0,43,43,0,0,43,43,0,43,43,43,43,0,43,0,Wed Oct 23 08:22:12 2019,The main experiment item,yes,Sternbergtask.osexp,/Users/KrisBow/Dropbox/GradSchoolTarleton/Fall2019/AdvQuant/Lab3,no,mono,no,18,no,white,no,yes,768,legacy,31,11,/Users/KrisBow/Dropbox/GradSchoolTarleton/Fall2019/AdvQuant/Lab3/KB-subject-4-F21.csv,legacy,8 6 3 4 7,Kafkaesque Koffka,3.2.6,0,n,0,right,left,right,right,NA,796,78588,6952,796,NA,2,legacy,5,1024,2,48000,-16,experiment,4,even,1,3306,368970,370077,3292,172774,370088,145399,165820,372312,375121,371100,374323,81896,374323,NA,Sternberg task,37,50476,44,yes,1024
84.44444444,84.44444444,1136.711111,1136.711111,black,experiment,legacy,legacy,legacy,0,uniform,1,undefined,1,left,0,44,44,0,0,44,44,0,44,44,44,44,0,44,0,Wed Oct 23 08:22:12 2019,The main experiment item,yes,Sternbergtask.osexp,/Users/KrisBow/Dropbox/GradSchoolTarleton/Fall2019/AdvQuant/Lab3,no,mono,no,18,no,white,no,yes,768,legacy,32,11,/Users/KrisBow/Dropbox/GradSchoolTarleton/Fall2019/AdvQuant/Lab3/KB-subject-4-F21.csv,legacy,6 9 7 4 5 1,Kafkaesque Koffka,3.2.6,2,y,0,left,left,right,left,NA,676,78588,6952,676,NA,2,legacy,6,1024,2,48000,-16,experiment,4,even,9,3306,375135,376243,3292,172774,376253,145399,165820,378477,381168,377265,380489,81896,380489,NA,Sternberg task,38,51152,45,yes,1024
84.7826087,84.7826087,1138.847826,1138.847826,black,experiment,legacy,legacy,legacy,0,uniform,1,undefined,1,left,0,45,45,0,0,45,45,0,45,45,45,45,0,45,0,Wed Oct 23 08:22:12 2019,The main experiment item,yes,Sternbergtask.osexp,/Users/KrisBow/Dropbox/GradSchoolTarleton/Fall2019/AdvQuant/Lab3,no,mono,no,18,no,white,no,yes,768,legacy,33,11,/Users/KrisBow/Dropbox/GradSchoolTarleton/Fall2019/AdvQuant/Lab3/KB-subject-4-F21.csv,legacy,6 7 8 5,Kafkaesque Koffka,3.2.6,3,y,0,left,left,right,left,NA,1235,78588,6952,1235,NA,2,legacy,4,1024,2,48000,-16,experiment,4,even,8,3306,381181,382289,3292,172774,382299,145399,165820,384521,387769,383309,386532,81896,386531,NA,Sternberg task,39,52387,46,yes,1024
85.10638298,85.10638298,1131.808511,1131.808511,black,experiment,legacy,legacy,legacy,0,uniform,1,undefined,1,right,0,46,46,0,0,46,46,0,46,46,46,46,0,46,0,Wed Oct 23 08:22:12 2019,The main experiment item,yes,Sternbergtask.osexp,/Users/KrisBow/Dropbox/GradSchoolTarleton/Fall2019/AdvQuant/Lab3,no,mono,no,18,no,white,no,yes,768,legacy,34,11,/Users/KrisBow/Dropbox/GradSchoolTarleton/Fall2019/AdvQuant/Lab3/KB-subject-4-F21.csv,legacy,2 6 4 3 9,Kafkaesque Koffka,3.2.6,0,n,0,right,left,right,right,NA,808,78588,6952,808,NA,2,legacy,5,1024,2,48000,-16,experiment,4,even,1,3306,387782,388890,3292,172774,388900,145399,165820,391123,393943,389911,393134,81896,393134,NA,Sternberg task,40,53195,47,yes,1024
85.41666667,85.41666667,1121.1875,1121.1875,black,experiment,legacy,legacy,legacy,0,uniform,1,undefined,1,left,0,47,47,0,0,47,47,0,47,47,47,47,0,47,0,Wed Oct 23 08:22:12 2019,The main experiment item,yes,Sternbergtask.osexp,/Users/KrisBow/Dropbox/GradSchoolTarleton/Fall2019/AdvQuant/Lab3,no,mono,no,18,no,white,no,yes,768,legacy,35,11,/Users/KrisBow/Dropbox/GradSchoolTarleton/Fall2019/AdvQuant/Lab3/KB-subject-4-F21.csv,legacy,9 8 4,Kafkaesque Koffka,3.2.6,1,y,0,left,left,right,left,NA,622,78588,6952,622,NA,2,legacy,3,1024,2,48000,-16,experiment,4,even,9,3306,393956,395062,3292,172774,395073,145399,165820,397295,399931,396083,399307,81896,399306,NA,Sternberg task,41,53817,48,yes,1024
85.71428571,85.71428571,1120.489796,1120.489796,black,experiment,legacy,legacy,legacy,0,uniform,1,undefined,1,left,0,48,48,0,0,48,48,0,48,48,48,48,0,48,0,Wed Oct 23 08:22:12 2019,The main experiment item,yes,Sternbergtask.osexp,/Users/KrisBow/Dropbox/GradSchoolTarleton/Fall2019/AdvQuant/Lab3,no,mono,no,18,no,white,no,yes,768,legacy,36,11,/Users/KrisBow/Dropbox/GradSchoolTarleton/Fall2019/AdvQuant/Lab3/KB-subject-4-F21.csv,legacy,2 4 6 9,Kafkaesque Koffka,3.2.6,3,y,0,left,left,right,left,NA,1087,78588,6952,1087,NA,2,legacy,4,1024,2,48000,-16,experiment,4,even,6,3306,399944,401051,3292,172774,401061,145399,165820,403285,406386,402072,405297,81896,405297,NA,Sternberg task,42,54904,49,yes,1024
86,86,1112.08,1112.08,black,experiment,legacy,legacy,legacy,0,uniform,1,undefined,1,right,0,49,49,0,0,49,49,0,49,49,49,49,0,49,0,Wed Oct 23 08:22:12 2019,The main experiment item,yes,Sternbergtask.osexp,/Users/KrisBow/Dropbox/GradSchoolTarleton/Fall2019/AdvQuant/Lab3,no,mono,no,18,no,white,no,yes,768,legacy,37,11,/Users/KrisBow/Dropbox/GradSchoolTarleton/Fall2019/AdvQuant/Lab3/KB-subject-4-F21.csv,legacy,1 7 8 3 9,Kafkaesque Koffka,3.2.6,0,n,0,right,left,right,right,NA,700,78588,6952,700,NA,2,legacy,5,1024,2,48000,-16,experiment,4,even,2,3306,406399,407509,3292,172774,407520,145399,165820,409745,412459,408532,411756,81896,411756,NA,Sternberg task,43,55604,50,yes,1024
86.2745098,86.2745098,1102.647059,1102.647059,black,experiment,legacy,legacy,legacy,0,uniform,1,undefined,1,left,0,50,50,0,0,50,50,0,50,50,50,50,0,50,0,Wed Oct 23 08:22:12 2019,The main experiment item,yes,Sternbergtask.osexp,/Users/KrisBow/Dropbox/GradSchoolTarleton/Fall2019/AdvQuant/Lab3,no,mono,no,18,no,white,no,yes,768,legacy,38,11,/Users/KrisBow/Dropbox/GradSchoolTarleton/Fall2019/AdvQuant/Lab3/KB-subject-4-F21.csv,legacy,5 7 8 2 3 8,Kafkaesque Koffka,3.2.6,5,y,0,left,left,right,left,NA,631,78588,6952,631,NA,2,legacy,6,1024,2,48000,-16,experiment,4,even,3,3306,412473,413580,3292,172774,413591,145399,165820,415816,418460,414602,417827,81896,417827,NA,Sternberg task,44,56235,51,yes,1024
86.53846154,86.53846154,1094.807692,1094.807692,black,experiment,legacy,legacy,legacy,0,uniform,1,undefined,1,left,0,51,51,0,0,51,51,0,51,51,51,51,0,51,0,Wed Oct 23 08:22:12 2019,The main experiment item,yes,Sternbergtask.osexp,/Users/KrisBow/Dropbox/GradSchoolTarleton/Fall2019/AdvQuant/Lab3,no,mono,no,18,no,white,no,yes,768,legacy,39,11,/Users/KrisBow/Dropbox/GradSchoolTarleton/Fall2019/AdvQuant/Lab3/KB-subject-4-F21.csv,legacy,6 5,Kafkaesque Koffka,3.2.6,2,y,0,left,left,right,left,NA,695,78588,6952,695,NA,2,legacy,2,1024,2,48000,-16,experiment,4,even,5,3306,418473,419580,3292,172774,419591,145399,165820,421815,424523,420602,423826,81896,423826,NA,Sternberg task,45,56930,52,yes,1024
86.79245283,86.79245283,1093.622642,1093.622642,black,experiment,legacy,legacy,legacy,0,uniform,1,undefined,1,left,0,52,52,0,0,52,52,0,52,52,52,52,0,52,0,Wed Oct 23 08:22:12 2019,The main experiment item,yes,Sternbergtask.osexp,/Users/KrisBow/Dropbox/GradSchoolTarleton/Fall2019/AdvQuant/Lab3,no,mono,no,18,no,white,no,yes,768,legacy,40,11,/Users/KrisBow/Dropbox/GradSchoolTarleton/Fall2019/AdvQuant/Lab3/KB-subject-4-F21.csv,legacy,8 3,Kafkaesque Koffka,3.2.6,2,y,0,left,left,right,left,NA,1032,78588,6952,1032,NA,2,legacy,2,1024,2,48000,-16,experiment,4,even,3,3306,424537,425644,3292,172774,425655,145399,165820,427880,430925,426668,429891,81896,429891,NA,Sternberg task,46,57962,53,yes,1024
87.03703704,87.03703704,1088.185185,1088.185185,black,experiment,legacy,legacy,legacy,0,uniform,1,undefined,1,left,0,53,53,0,0,53,53,0,53,53,53,53,0,53,0,Wed Oct 23 08:22:12 2019,The main experiment item,yes,Sternbergtask.osexp,/Users/KrisBow/Dropbox/GradSchoolTarleton/Fall2019/AdvQuant/Lab3,no,mono,no,18,no,white,no,yes,768,legacy,41,11,/Users/KrisBow/Dropbox/GradSchoolTarleton/Fall2019/AdvQuant/Lab3/KB-subject-4-F21.csv,legacy,7 2 3,Kafkaesque Koffka,3.2.6,3,y,0,left,left,right,left,NA,800,78588,6952,800,NA,2,legacy,3,1024,2,48000,-16,experiment,4,even,3,3306,430938,432045,3292,172774,432056,145399,165820,434280,437093,433068,436291,81896,436291,NA,Sternberg task,47,58762,54,yes,1024
87.27272727,87.27272727,1091.381818,1091.381818,black,experiment,legacy,legacy,legacy,0,uniform,1,undefined,1,right,0,54,54,0,0,54,54,0,54,54,54,54,0,54,0,Wed Oct 23 08:22:12 2019,The main experiment item,yes,Sternbergtask.osexp,/Users/KrisBow/Dropbox/GradSchoolTarleton/Fall2019/AdvQuant/Lab3,no,mono,no,18,no,white,no,yes,768,legacy,42,11,/Users/KrisBow/Dropbox/GradSchoolTarleton/Fall2019/AdvQuant/Lab3/KB-subject-4-F21.csv,legacy,7 3 2 8,Kafkaesque Koffka,3.2.6,0,n,0,right,left,right,right,NA,1264,78588,6952,1264,NA,2,legacy,4,1024,2,48000,-16,experiment,4,even,4,3306,437105,438214,3292,172774,438224,145399,165820,440447,443725,439235,442459,81896,442459,NA,Sternberg task,48,60026,55,yes,1024
87.5,87.5,1084.607143,1084.607143,black,experiment,legacy,legacy,legacy,0,uniform,1,undefined,1,left,0,55,55,0,0,55,55,0,55,55,55,55,0,55,0,Wed Oct 23 08:22:12 2019,The main experiment item,yes,Sternbergtask.osexp,/Users/KrisBow/Dropbox/GradSchoolTarleton/Fall2019/AdvQuant/Lab3,no,mono,no,18,no,white,no,yes,768,legacy,43,11,/Users/KrisBow/Dropbox/GradSchoolTarleton/Fall2019/AdvQuant/Lab3/KB-subject-4-F21.csv,legacy,8 9 5 7 1 6,Kafkaesque Koffka,3.2.6,4,y,0,left,left,right,left,NA,712,78588,6952,712,NA,2,legacy,6,1024,2,48000,-16,experiment,4,even,7,3306,443738,444847,3292,172774,444858,145399,165820,447081,449808,445869,449094,81896,449094,NA,Sternberg task,49,60738,56,yes,1024
87.71929825,87.71929825,1082.403509,1082.403509,black,experiment,legacy,legacy,legacy,0,uniform,1,undefined,1,left,0,56,56,0,0,56,56,0,56,56,56,56,0,56,0,Wed Oct 23 08:22:12 2019,The main experiment item,yes,Sternbergtask.osexp,/Users/KrisBow/Dropbox/GradSchoolTarleton/Fall2019/AdvQuant/Lab3,no,mono,no,18,no,white,no,yes,768,legacy,44,11,/Users/KrisBow/Dropbox/GradSchoolTarleton/Fall2019/AdvQuant/Lab3/KB-subject-4-F21.csv,legacy,7 1 3,Kafkaesque Koffka,3.2.6,2,y,0,left,left,right,left,NA,959,78588,6952,959,NA,2,legacy,3,1024,2,48000,-16,experiment,4,even,1,3306,449821,450930,3292,172774,450940,145399,165820,453164,456136,451951,455175,81896,455175,NA,Sternberg task,50,61697,57,yes,1024
87.93103448,87.93103448,1075.586207,1075.586207,black,experiment,legacy,legacy,legacy,0,uniform,1,undefined,1,left,0,57,57,0,0,57,57,0,57,57,57,57,0,57,0,Wed Oct 23 08:22:12 2019,The main experiment item,yes,Sternbergtask.osexp,/Users/KrisBow/Dropbox/GradSchoolTarleton/Fall2019/AdvQuant/Lab3,no,mono,no,18,no,white,no,yes,768,legacy,45,11,/Users/KrisBow/Dropbox/GradSchoolTarleton/Fall2019/AdvQuant/Lab3/KB-subject-4-F21.csv,legacy,9 4 2,Kafkaesque Koffka,3.2.6,1,y,0,left,left,right,left,NA,687,78588,6952,687,NA,2,legacy,3,1024,2,48000,-16,experiment,4,even,9,3306,456149,457256,3292,172774,457267,145399,165820,459490,462190,458278,461501,81896,461501,NA,Sternberg task,51,62384,58,yes,1024
88.13559322,88.13559322,1070.864407,1070.864407,black,experiment,legacy,legacy,legacy,0,uniform,1,undefined,1,right,0,58,58,0,0,58,58,0,58,58,58,58,0,58,0,Wed Oct 23 08:22:12 2019,The main experiment item,yes,Sternbergtask.osexp,/Users/KrisBow/Dropbox/GradSchoolTarleton/Fall2019/AdvQuant/Lab3,no,mono,no,18,no,white,no,yes,768,legacy,46,11,/Users/KrisBow/Dropbox/GradSchoolTarleton/Fall2019/AdvQuant/Lab3/KB-subject-4-F21.csv,legacy,2 7 5,Kafkaesque Koffka,3.2.6,0,n,0,right,left,right,right,NA,797,78588,6952,797,NA,2,legacy,3,1024,2,48000,-16,experiment,4,even,8,3306,462203,463311,3292,172774,463322,145399,165820,465545,468356,464333,467556,81896,467556,NA,Sternberg task,52,63181,59,yes,1024
88.33333333,88.33333333,1074.866667,1074.866667,black,experiment,legacy,legacy,legacy,0,uniform,1,undefined,1,right,0,59,59,0,0,59,59,0,59,59,59,59,0,59,0,Wed Oct 23 08:22:12 2019,The main experiment item,yes,Sternbergtask.osexp,/Users/KrisBow/Dropbox/GradSchoolTarleton/Fall2019/AdvQuant/Lab3,no,mono,no,18,no,white,no,yes,768,legacy,47,11,/Users/KrisBow/Dropbox/GradSchoolTarleton/Fall2019/AdvQuant/Lab3/KB-subject-4-F21.csv,legacy,3 4 9 6 7 8,Kafkaesque Koffka,3.2.6,0,n,0,right,left,right,right,NA,1311,78588,6952,1311,NA,2,legacy,6,1024,2,48000,-16,experiment,4,even,2,3306,468369,469478,3292,172774,469488,145399,165820,471712,475036,470500,473723,81896,473722,NA,Sternberg task,53,64492,60,yes,1024
88.52459016,88.52459016,1076.770492,1076.770492,black,experiment,legacy,legacy,legacy,0,uniform,1,undefined,1,left,0,60,60,0,0,60,60,0,60,60,60,60,0,60,0,Wed Oct 23 08:22:12 2019,The main experiment item,yes,Sternbergtask.osexp,/Users/KrisBow/Dropbox/GradSchoolTarleton/Fall2019/AdvQuant/Lab3,no,mono,no,18,no,white,no,yes,768,legacy,48,11,/Users/KrisBow/Dropbox/GradSchoolTarleton/Fall2019/AdvQuant/Lab3/KB-subject-4-F21.csv,legacy,1 4 9 3 2 5,Kafkaesque Koffka,3.2.6,3,y,0,left,left,right,left,NA,1191,78588,6952,1191,NA,2,legacy,6,1024,2,48000,-16,experiment,4,even,9,3306,475049,476158,3292,172774,476168,145399,165820,478390,481594,477179,480401,81896,480401,NA,Sternberg task,54,65683,61,yes,1024
88.70967742,88.70967742,1073.370968,1073.370968,black,experiment,legacy,legacy,legacy,0,uniform,1,undefined,1,right,0,61,61,0,0,61,61,0,61,61,61,61,0,61,0,Wed Oct 23 08:22:12 2019,The main experiment item,yes,Sternbergtask.osexp,/Users/KrisBow/Dropbox/GradSchoolTarleton/Fall2019/AdvQuant/Lab3,no,mono,no,18,no,white,no,yes,768,legacy,49,11,/Users/KrisBow/Dropbox/GradSchoolTarleton/Fall2019/AdvQuant/Lab3/KB-subject-4-F21.csv,legacy,7 9 1 6,Kafkaesque Koffka,3.2.6,0,n,0,right,left,right,right,NA,866,78588,6952,866,NA,2,legacy,4,1024,2,48000,-16,experiment,4,even,4,3306,481607,482717,3292,172774,482727,145399,165820,484949,487828,483738,486960,81896,486960,NA,Sternberg task,55,66549,62,yes,1024
88.88888889,88.88888889,1067.952381,1067.952381,black,experiment,legacy,legacy,legacy,0,uniform,1,undefined,1,right,0,62,62,0,0,62,62,0,62,62,62,62,0,62,0,Wed Oct 23 08:22:12 2019,The main experiment item,yes,Sternbergtask.osexp,/Users/KrisBow/Dropbox/GradSchoolTarleton/Fall2019/AdvQuant/Lab3,no,mono,no,18,no,white,no,yes,768,legacy,50,11,/Users/KrisBow/Dropbox/GradSchoolTarleton/Fall2019/AdvQuant/Lab3/KB-subject-4-F21.csv,legacy,5 7 3,Kafkaesque Koffka,3.2.6,0,n,0,right,left,right,right,NA,732,78588,6952,732,NA,2,legacy,3,1024,2,48000,-16,experiment,4,even,9,3306,487841,488955,3292,172774,488965,145399,165820,491189,493934,489977,493200,81896,493200,NA,Sternberg task,56,67281,63,yes,1024
89.0625,89.0625,1062.75,1062.75,black,experiment,legacy,legacy,legacy,0,uniform,1,undefined,1,right,0,63,63,0,0,63,63,0,63,63,63,63,0,63,0,Wed Oct 23 08:22:12 2019,The main experiment item,yes,Sternbergtask.osexp,/Users/KrisBow/Dropbox/GradSchoolTarleton/Fall2019/AdvQuant/Lab3,no,mono,no,18,no,white,no,yes,768,legacy,51,11,/Users/KrisBow/Dropbox/GradSchoolTarleton/Fall2019/AdvQuant/Lab3/KB-subject-4-F21.csv,legacy,2 8 7 9 5 3,Kafkaesque Koffka,3.2.6,0,n,0,right,left,right,right,NA,735,78588,6952,735,NA,2,legacy,6,1024,2,48000,-16,experiment,4,even,6,3306,493948,495056,3292,172774,495066,145399,165820,497289,500037,496077,499300,81896,499299,NA,Sternberg task,57,68016,64,yes,1024
89.23076923,89.23076923,1057.369231,1057.369231,black,experiment,legacy,legacy,legacy,0,uniform,1,undefined,1,right,0,64,64,0,0,64,64,0,64,64,64,64,0,64,0,Wed Oct 23 08:22:12 2019,The main experiment item,yes,Sternbergtask.osexp,/Users/KrisBow/Dropbox/GradSchoolTarleton/Fall2019/AdvQuant/Lab3,no,mono,no,18,no,white,no,yes,768,legacy,52,11,/Users/KrisBow/Dropbox/GradSchoolTarleton/Fall2019/AdvQuant/Lab3/KB-subject-4-F21.csv,legacy,6 9 4 5 2,Kafkaesque Koffka,3.2.6,0,n,0,right,left,right,right,NA,713,78588,6952,713,NA,2,legacy,5,1024,2,48000,-16,experiment,4,even,1,3306,500050,501171,3292,172774,501182,145399,165820,503405,506132,502193,505417,81896,505417,NA,Sternberg task,58,68729,65,yes,1024
89.39393939,89.39393939,1064.818182,1064.818182,black,experiment,legacy,legacy,legacy,0,uniform,1,undefined,1,left,0,65,65,0,0,65,65,0,65,65,65,65,0,65,0,Wed Oct 23 08:22:12 2019,The main experiment item,yes,Sternbergtask.osexp,/Users/KrisBow/Dropbox/GradSchoolTarleton/Fall2019/AdvQuant/Lab3,no,mono,no,18,no,white,no,yes,768,legacy,53,11,/Users/KrisBow/Dropbox/GradSchoolTarleton/Fall2019/AdvQuant/Lab3/KB-subject-4-F21.csv,legacy,2 8 5 1,Kafkaesque Koffka,3.2.6,4,y,0,left,left,right,left,NA,1549,78588,6952,1549,NA,2,legacy,4,1024,2,48000,-16,experiment,4,even,1,3306,506145,507253,3292,172774,507263,145399,165820,509486,513048,508274,511497,81896,511497,NA,Sternberg task,59,70278,66,yes,1024
89.55223881,89.55223881,1064.746269,1064.746269,black,experiment,legacy,legacy,legacy,0,uniform,1,undefined,1,left,0,66,66,0,0,66,66,0,66,66,66,66,0,66,0,Wed Oct 23 08:22:12 2019,The main experiment item,yes,Sternbergtask.osexp,/Users/KrisBow/Dropbox/GradSchoolTarleton/Fall2019/AdvQuant/Lab3,no,mono,no,18,no,white,no,yes,768,legacy,54,11,/Users/KrisBow/Dropbox/GradSchoolTarleton/Fall2019/AdvQuant/Lab3/KB-subject-4-F21.csv,legacy,2 6 1 7 4,Kafkaesque Koffka,3.2.6,2,y,0,left,left,right,left,NA,1060,78588,6952,1060,NA,2,legacy,5,1024,2,48000,-16,experiment,4,even,6,3306,513061,514170,3292,172774,514181,145399,165820,516404,519477,515192,518415,81896,518415,NA,Sternberg task,60,71338,67,yes,1024
89.70588235,89.70588235,1062.470588,1062.470588,black,experiment,legacy,legacy,legacy,0,uniform,1,undefined,1,left,0,67,67,0,0,67,67,0,67,67,67,67,0,67,0,Wed Oct 23 08:22:12 2019,The main experiment item,yes,Sternbergtask.osexp,/Users/KrisBow/Dropbox/GradSchoolTarleton/Fall2019/AdvQuant/Lab3,no,mono,no,18,no,white,no,yes,768,legacy,55,11,/Users/KrisBow/Dropbox/GradSchoolTarleton/Fall2019/AdvQuant/Lab3/KB-subject-4-F21.csv,legacy,3 5 7 1,Kafkaesque Koffka,3.2.6,3,y,0,left,left,right,left,NA,910,78588,6952,910,NA,2,legacy,4,1024,2,48000,-16,experiment,4,even,7,3306,519490,520598,3292,172774,520608,145399,165820,522832,525754,521619,524842,81896,524842,NA,Sternberg task,61,72248,68,yes,1024
89.85507246,89.85507246,1070.956522,1070.956522,black,experiment,legacy,legacy,legacy,0,uniform,1,undefined,1,right,0,68,68,0,0,68,68,0,68,68,68,68,0,68,0,Wed Oct 23 08:22:12 2019,The main experiment item,yes,Sternbergtask.osexp,/Users/KrisBow/Dropbox/GradSchoolTarleton/Fall2019/AdvQuant/Lab3,no,mono,no,18,no,white,no,yes,768,legacy,56,11,/Users/KrisBow/Dropbox/GradSchoolTarleton/Fall2019/AdvQuant/Lab3/KB-subject-4-F21.csv,legacy,5 3 2 6 9 8,Kafkaesque Koffka,3.2.6,0,n,0,right,left,right,right,NA,1648,78588,6952,1648,NA,2,legacy,6,1024,2,48000,-16,experiment,4,even,4,3306,525768,526878,3292,172774,526889,145399,165820,529111,532772,527900,531122,81896,531122,NA,Sternberg task,62,73896,69,yes,1024
90,90,1075.942857,1075.942857,black,experiment,legacy,legacy,legacy,0,uniform,1,undefined,1,left,0,69,69,0,0,69,69,0,69,69,69,69,0,69,0,Wed Oct 23 08:22:12 2019,The main experiment item,yes,Sternbergtask.osexp,/Users/KrisBow/Dropbox/GradSchoolTarleton/Fall2019/AdvQuant/Lab3,no,mono,no,18,no,white,no,yes,768,legacy,57,11,/Users/KrisBow/Dropbox/GradSchoolTarleton/Fall2019/AdvQuant/Lab3/KB-subject-4-F21.csv,legacy,4 3 2 5 8,Kafkaesque Koffka,3.2.6,2,y,0,left,left,right,left,NA,1420,78588,6952,1420,NA,2,legacy,5,1024,2,48000,-16,experiment,4,even,3,3306,532785,533893,3292,172774,533903,145399,165820,536125,539559,534914,538137,81896,538136,NA,Sternberg task,63,75316,70,yes,1024
90.14084507,90.14084507,1073,1073,black,experiment,legacy,legacy,legacy,0,uniform,1,undefined,1,right,0,70,70,0,0,70,70,0,70,70,70,70,0,70,0,Wed Oct 23 08:22:12 2019,The main experiment item,yes,Sternbergtask.osexp,/Users/KrisBow/Dropbox/GradSchoolTarleton/Fall2019/AdvQuant/Lab3,no,mono,no,18,no,white,no,yes,768,legacy,58,11,/Users/KrisBow/Dropbox/GradSchoolTarleton/Fall2019/AdvQuant/Lab3/KB-subject-4-F21.csv,legacy,1 6 4 3 9 7,Kafkaesque Koffka,3.2.6,0,n,0,right,left,right,right,NA,867,78588,6952,867,NA,2,legacy,6,1024,2,48000,-16,experiment,4,even,8,3306,539572,540681,3292,172774,540691,145399,165820,542915,545795,541703,544926,81896,544926,NA,Sternberg task,64,76183,71,yes,1024
90.27777778,90.27777778,1069.208333,1069.208333,black,experiment,legacy,legacy,legacy,0,uniform,1,undefined,1,left,0,71,71,0,0,71,71,0,71,71,71,71,0,71,0,Wed Oct 23 08:22:12 2019,The main experiment item,yes,Sternbergtask.osexp,/Users/KrisBow/Dropbox/GradSchoolTarleton/Fall2019/AdvQuant/Lab3,no,mono,no,18,no,white,no,yes,768,legacy,59,11,/Users/KrisBow/Dropbox/GradSchoolTarleton/Fall2019/AdvQuant/Lab3/KB-subject-4-F21.csv,legacy,6 9 3 1,Kafkaesque Koffka,3.2.6,4,y,0,left,left,right,left,NA,800,78588,6952,800,NA,2,legacy,4,1024,2,48000,-16,experiment,4,even,1,3306,545808,546916,3292,172774,546927,145399,165820,549151,551966,547938,551164,81896,551163,NA,Sternberg task,65,76983,72,yes,1024
90.4109589,90.4109589,1067.753425,1067.753425,black,experiment,legacy,legacy,legacy,0,uniform,1,undefined,1,right,0,72,72,0,0,72,72,0,72,72,72,72,0,72,0,Wed Oct 23 08:22:12 2019,The main experiment item,yes,Sternbergtask.osexp,/Users/KrisBow/Dropbox/GradSchoolTarleton/Fall2019/AdvQuant/Lab3,no,mono,no,18,no,white,no,yes,768,legacy,60,11,/Users/KrisBow/Dropbox/GradSchoolTarleton/Fall2019/AdvQuant/Lab3/KB-subject-4-F21.csv,legacy,1 4 9 3,Kafkaesque Koffka,3.2.6,0,n,0,right,left,right,right,NA,963,78588,6952,963,NA,2,legacy,4,1024,2,48000,-16,experiment,4,even,5,3306,551979,553106,3292,172774,553119,145399,165820,555342,558318,554130,557353,81896,557352,NA,Sternberg task,66,77946,73,yes,1024
90.54054054,90.54054054,1068.418919,1068.418919,black,experiment,legacy,legacy,legacy,0,uniform,1,undefined,1,right,0,73,73,0,0,73,73,0,73,73,73,73,0,73,0,Wed Oct 23 08:22:12 2019,The main experiment item,yes,Sternbergtask.osexp,/Users/KrisBow/Dropbox/GradSchoolTarleton/Fall2019/AdvQuant/Lab3,no,mono,no,18,no,white,no,yes,768,legacy,61,11,/Users/KrisBow/Dropbox/GradSchoolTarleton/Fall2019/AdvQuant/Lab3/KB-subject-4-F21.csv,legacy,1 7 5 2,Kafkaesque Koffka,3.2.6,0,n,0,right,left,right,right,NA,1117,78588,6952,1117,NA,2,legacy,4,1024,2,48000,-16,experiment,4,even,3,3306,558331,559439,3292,172774,559450,145399,165820,561674,564805,560461,563686,81896,563686,NA,Sternberg task,67,79063,74,yes,1024
90.66666667,90.66666667,1069,1069,black,experiment,legacy,legacy,legacy,0,uniform,1,undefined,1,left,0,74,74,0,0,74,74,0,74,74,74,74,0,74,0,Wed Oct 23 08:22:12 2019,The main experiment item,yes,Sternbergtask.osexp,/Users/KrisBow/Dropbox/GradSchoolTarleton/Fall2019/AdvQuant/Lab3,no,mono,no,18,no,white,no,yes,768,legacy,62,11,/Users/KrisBow/Dropbox/GradSchoolTarleton/Fall2019/AdvQuant/Lab3/KB-subject-4-F21.csv,legacy,4 7 6 8 2 3,Kafkaesque Koffka,3.2.6,6,y,0,left,left,right,left,NA,1112,78588,6952,1112,NA,2,legacy,6,1024,2,48000,-16,experiment,4,even,3,3306,564818,565927,3292,172774,565937,145399,165820,568161,571287,566949,570172,81896,570171,NA,Sternberg task,68,80175,75,yes,1024
90.78947368,90.78947368,1066.907895,1066.907895,black,experiment,legacy,legacy,legacy,0,uniform,1,undefined,1,right,0,75,75,0,0,75,75,0,75,75,75,75,0,75,0,Wed Oct 23 08:22:12 2019,The main experiment item,yes,Sternbergtask.osexp,/Users/KrisBow/Dropbox/GradSchoolTarleton/Fall2019/AdvQuant/Lab3,no,mono,no,18,no,white,no,yes,768,legacy,63,11,/Users/KrisBow/Dropbox/GradSchoolTarleton/Fall2019/AdvQuant/Lab3/KB-subject-4-F21.csv,legacy,6 2 9 3 8 4,Kafkaesque Koffka,3.2.6,0,n,0,right,left,right,right,NA,910,78588,6952,910,NA,2,legacy,6,1024,2,48000,-16,experiment,4,even,1,3306,571300,572421,3292,172774,572432,145399,165820,574655,577579,573443,576666,81896,576665,NA,Sternberg task,69,81085,76,yes,1024
90.90909091,90.90909091,1062.844156,1062.844156,black,experiment,legacy,legacy,legacy,0,uniform,1,undefined,1,right,0,76,76,0,0,76,76,0,76,76,76,76,0,76,0,Wed Oct 23 08:22:12 2019,The main experiment item,yes,Sternbergtask.osexp,/Users/KrisBow/Dropbox/GradSchoolTarleton/Fall2019/AdvQuant/Lab3,no,mono,no,18,no,white,no,yes,768,legacy,64,11,/Users/KrisBow/Dropbox/GradSchoolTarleton/Fall2019/AdvQuant/Lab3/KB-subject-4-F21.csv,legacy,5 3 8 7 2 4,Kafkaesque Koffka,3.2.6,0,n,0,right,left,right,right,NA,754,78588,6952,754,NA,2,legacy,6,1024,2,48000,-16,experiment,4,even,9,3306,577592,578701,3292,172774,578715,145399,165820,580939,583706,579726,582950,81896,582950,NA,Sternberg task,70,81839,77,yes,1024
91.02564103,91.02564103,1063.102564,1063.102564,black,experiment,legacy,legacy,legacy,0,uniform,1,undefined,1,right,0,77,77,0,0,77,77,0,77,77,77,77,0,77,0,Wed Oct 23 08:22:12 2019,The main experiment item,yes,Sternbergtask.osexp,/Users/KrisBow/Dropbox/GradSchoolTarleton/Fall2019/AdvQuant/Lab3,no,mono,no,18,no,white,no,yes,768,legacy,65,11,/Users/KrisBow/Dropbox/GradSchoolTarleton/Fall2019/AdvQuant/Lab3/KB-subject-4-F21.csv,legacy,1 4 3 6 5,Kafkaesque Koffka,3.2.6,0,n,0,right,left,right,right,NA,1083,78588,6952,1083,NA,2,legacy,5,1024,2,48000,-16,experiment,4,even,8,3306,583719,584827,3292,172774,584839,145399,165820,587062,590160,585850,589075,81896,589075,NA,Sternberg task,71,82922,78,yes,1024
91.13924051,91.13924051,1071.594937,1071.594937,black,experiment,legacy,legacy,legacy,0,uniform,1,undefined,1,right,0,78,78,0,0,78,78,0,78,78,78,78,0,78,0,Wed Oct 23 08:22:12 2019,The main experiment item,yes,Sternbergtask.osexp,/Users/KrisBow/Dropbox/GradSchoolTarleton/Fall2019/AdvQuant/Lab3,no,mono,no,18,no,white,no,yes,768,legacy,66,11,/Users/KrisBow/Dropbox/GradSchoolTarleton/Fall2019/AdvQuant/Lab3/KB-subject-4-F21.csv,legacy,7 1 5 6 3,Kafkaesque Koffka,3.2.6,0,n,0,right,left,right,right,NA,1734,78588,6952,1734,NA,2,legacy,5,1024,2,48000,-16,experiment,4,even,8,3306,590173,591291,3292,172774,591304,145399,165820,593526,597272,592314,595536,81896,595536,NA,Sternberg task,72,84656,79,yes,1024
91.25,91.25,1068.9875,1068.9875,black,experiment,legacy,legacy,legacy,0,uniform,1,undefined,1,right,0,79,79,0,0,79,79,0,79,79,79,79,0,79,0,Wed Oct 23 08:22:12 2019,The main experiment item,yes,Sternbergtask.osexp,/Users/KrisBow/Dropbox/GradSchoolTarleton/Fall2019/AdvQuant/Lab3,no,mono,no,18,no,white,no,yes,768,legacy,67,11,/Users/KrisBow/Dropbox/GradSchoolTarleton/Fall2019/AdvQuant/Lab3/KB-subject-4-F21.csv,legacy,6 7 5 9,Kafkaesque Koffka,3.2.6,0,n,0,right,left,right,right,NA,863,78588,6952,863,NA,2,legacy,4,1024,2,48000,-16,experiment,4,even,2,3306,597284,598394,3292,172774,598405,145399,165820,600626,603502,599415,602637,81896,602637,NA,Sternberg task,73,85519,80,yes,1024
91.35802469,91.35802469,1066.592593,1066.592593,black,experiment,legacy,legacy,legacy,0,uniform,1,undefined,1,left,0,80,80,0,0,80,80,0,80,80,80,80,0,80,0,Wed Oct 23 08:22:12 2019,The main experiment item,yes,Sternbergtask.osexp,/Users/KrisBow/Dropbox/GradSchoolTarleton/Fall2019/AdvQuant/Lab3,no,mono,no,18,no,white,no,yes,768,legacy,68,11,/Users/KrisBow/Dropbox/GradSchoolTarleton/Fall2019/AdvQuant/Lab3/KB-subject-4-F21.csv,legacy,3 9 6 2,Kafkaesque Koffka,3.2.6,4,y,0,left,left,right,left,NA,875,78588,6952,875,NA,2,legacy,4,1024,2,48000,-16,experiment,4,even,2,3306,603515,604626,3292,172774,604636,145399,165820,606858,609747,605647,608869,81896,608869,NA,Sternberg task,74,86394,81,yes,1024
91.46341463,91.46341463,1061.609756,1061.609756,black,experiment,legacy,legacy,legacy,0,uniform,1,undefined,1,right,0,81,81,0,0,81,81,0,81,81,81,81,0,81,0,Wed Oct 23 08:22:12 2019,The main experiment item,yes,Sternbergtask.osexp,/Users/KrisBow/Dropbox/GradSchoolTarleton/Fall2019/AdvQuant/Lab3,no,mono,no,18,no,white,no,yes,768,legacy,69,11,/Users/KrisBow/Dropbox/GradSchoolTarleton/Fall2019/AdvQuant/Lab3/KB-subject-4-F21.csv,legacy,2 3 8 5 6 7,Kafkaesque Koffka,3.2.6,0,n,0,right,left,right,right,NA,658,78588,6952,658,NA,2,legacy,6,1024,2,48000,-16,experiment,4,even,1,3306,609763,610872,3292,172774,610883,145399,165820,613104,615777,611893,615115,81896,615115,NA,Sternberg task,75,87052,82,yes,1024
91.56626506,91.56626506,1057.26506,1057.26506,black,experiment,legacy,legacy,legacy,0,uniform,1,undefined,1,right,0,82,82,0,0,82,82,0,82,82,82,82,0,82,0,Wed Oct 23 08:22:12 2019,The main experiment item,yes,Sternbergtask.osexp,/Users/KrisBow/Dropbox/GradSchoolTarleton/Fall2019/AdvQuant/Lab3,no,mono,no,18,no,white,no,yes,768,legacy,70,11,/Users/KrisBow/Dropbox/GradSchoolTarleton/Fall2019/AdvQuant/Lab3/KB-subject-4-F21.csv,legacy,8 9,Kafkaesque Koffka,3.2.6,0,n,0,right,left,right,right,NA,701,78588,6952,701,NA,2,legacy,2,1024,2,48000,-16,experiment,4,even,5,3306,615791,616901,3292,172774,616912,145399,165820,619134,621848,617923,621145,81896,621144,NA,Sternberg task,76,87753,83,yes,1024
91.66666667,91.66666667,1051.952381,1051.952381,black,experiment,legacy,legacy,legacy,0,uniform,1,undefined,1,right,0,83,83,0,0,83,83,0,83,83,83,83,0,83,0,Wed Oct 23 08:22:12 2019,The main experiment item,yes,Sternbergtask.osexp,/Users/KrisBow/Dropbox/GradSchoolTarleton/Fall2019/AdvQuant/Lab3,no,mono,no,18,no,white,no,yes,768,legacy,71,11,/Users/KrisBow/Dropbox/GradSchoolTarleton/Fall2019/AdvQuant/Lab3/KB-subject-4-F21.csv,legacy,3 4 2,Kafkaesque Koffka,3.2.6,0,n,0,right,left,right,right,NA,611,78588,6952,611,NA,2,legacy,3,1024,2,48000,-16,experiment,4,even,5,3306,621861,622968,3292,172774,622979,145399,165820,625203,627827,623990,627214,81896,627213,NA,Sternberg task,77,88364,84,yes,1024
91.76470588,91.76470588,1049.294118,1049.294118,black,experiment,legacy,legacy,legacy,0,uniform,1,undefined,1,left,0,84,84,0,0,84,84,0,84,84,84,84,0,84,0,Wed Oct 23 08:22:12 2019,The main experiment item,yes,Sternbergtask.osexp,/Users/KrisBow/Dropbox/GradSchoolTarleton/Fall2019/AdvQuant/Lab3,no,mono,no,18,no,white,no,yes,768,legacy,72,11,/Users/KrisBow/Dropbox/GradSchoolTarleton/Fall2019/AdvQuant/Lab3/KB-subject-4-F21.csv,legacy,4 1 8 7 5,Kafkaesque Koffka,3.2.6,3,y,0,left,left,right,left,NA,826,78588,6952,826,NA,2,legacy,5,1024,2,48000,-16,experiment,4,even,8,3306,627840,628948,3292,172774,628959,145399,165820,631181,634020,629969,633192,81896,633192,NA,Sternberg task,78,89190,85,yes,1024
91.86046512,91.86046512,1047.127907,1047.127907,black,experiment,legacy,legacy,legacy,0,uniform,1,undefined,1,left,0,85,85,0,0,85,85,0,85,85,85,85,0,85,0,Wed Oct 23 08:22:12 2019,The main experiment item,yes,Sternbergtask.osexp,/Users/KrisBow/Dropbox/GradSchoolTarleton/Fall2019/AdvQuant/Lab3,no,mono,no,18,no,white,no,yes,768,legacy,73,11,/Users/KrisBow/Dropbox/GradSchoolTarleton/Fall2019/AdvQuant/Lab3/KB-subject-4-F21.csv,legacy,8 1 6,Kafkaesque Koffka,3.2.6,3,y,0,left,left,right,left,NA,863,78588,6952,863,NA,2,legacy,3,1024,2,48000,-16,experiment,4,even,6,3306,634033,635140,3292,172774,635151,145399,165820,637374,640251,636162,639386,81896,639385,NA,Sternberg task,79,90053,86,yes,1024
91.95402299,91.95402299,1043.183908,1043.183908,black,experiment,legacy,legacy,legacy,0,uniform,1,undefined,1,left,0,86,86,0,0,86,86,0,86,86,86,86,0,86,0,Wed Oct 23 08:22:12 2019,The main experiment item,yes,Sternbergtask.osexp,/Users/KrisBow/Dropbox/GradSchoolTarleton/Fall2019/AdvQuant/Lab3,no,mono,no,18,no,white,no,yes,768,legacy,74,11,/Users/KrisBow/Dropbox/GradSchoolTarleton/Fall2019/AdvQuant/Lab3/KB-subject-4-F21.csv,legacy,2 4 8 5 1 3,Kafkaesque Koffka,3.2.6,1,y,0,left,left,right,left,NA,704,78588,6952,704,NA,2,legacy,6,1024,2,48000,-16,experiment,4,even,2,3306,640264,641380,3292,172774,641390,145399,165820,643613,646331,642401,645624,81896,645624,NA,Sternberg task,80,90757,87,yes,1024
92.04545455,92.04545455,1038.556818,1038.556818,black,experiment,legacy,legacy,legacy,0,uniform,1,undefined,1,right,0,87,87,0,0,87,87,0,87,87,87,87,0,87,0,Wed Oct 23 08:22:12 2019,The main experiment item,yes,Sternbergtask.osexp,/Users/KrisBow/Dropbox/GradSchoolTarleton/Fall2019/AdvQuant/Lab3,no,mono,no,18,no,white,no,yes,768,legacy,75,11,/Users/KrisBow/Dropbox/GradSchoolTarleton/Fall2019/AdvQuant/Lab3/KB-subject-4-F21.csv,legacy,7 1,Kafkaesque Koffka,3.2.6,0,n,0,right,left,right,right,NA,636,78588,6952,636,NA,2,legacy,2,1024,2,48000,-16,experiment,4,even,8,3306,646344,647452,3292,172774,647462,145399,165820,649686,652335,648473,651697,81896,651697,NA,Sternberg task,81,91393,88,yes,1024
92.13483146,92.13483146,1034.58427,1034.58427,black,experiment,legacy,legacy,legacy,0,uniform,1,undefined,1,right,0,88,88,0,0,88,88,0,88,88,88,88,0,88,0,Wed Oct 23 08:22:12 2019,The main experiment item,yes,Sternbergtask.osexp,/Users/KrisBow/Dropbox/GradSchoolTarleton/Fall2019/AdvQuant/Lab3,no,mono,no,18,no,white,no,yes,768,legacy,76,11,/Users/KrisBow/Dropbox/GradSchoolTarleton/Fall2019/AdvQuant/Lab3/KB-subject-4-F21.csv,legacy,2 5 1 4,Kafkaesque Koffka,3.2.6,0,n,0,right,left,right,right,NA,685,78588,6952,685,NA,2,legacy,4,1024,2,48000,-16,experiment,4,even,6,3306,652348,653457,3292,172774,653468,145399,165820,655690,658388,654478,657701,81896,657701,NA,Sternberg task,82,92078,89,yes,1024
92.22222222,92.22222222,1032.4,1032.4,black,experiment,legacy,legacy,legacy,0,uniform,1,undefined,1,right,0,89,89,0,0,89,89,0,89,89,89,89,0,89,0,Wed Oct 23 08:22:12 2019,The main experiment item,yes,Sternbergtask.osexp,/Users/KrisBow/Dropbox/GradSchoolTarleton/Fall2019/AdvQuant/Lab3,no,mono,no,18,no,white,no,yes,768,legacy,77,11,/Users/KrisBow/Dropbox/GradSchoolTarleton/Fall2019/AdvQuant/Lab3/KB-subject-4-F21.csv,legacy,4 8 1 2,Kafkaesque Koffka,3.2.6,0,n,0,right,left,right,right,NA,838,78588,6952,838,NA,2,legacy,4,1024,2,48000,-16,experiment,4,even,7,3306,658401,659508,3292,172774,659519,145399,165820,661743,664594,660530,663754,81896,663753,NA,Sternberg task,83,92916,90,yes,1024
92.30769231,92.30769231,1029.428571,1029.428571,black,experiment,legacy,legacy,legacy,0,uniform,1,undefined,1,right,0,90,90,0,0,90,90,0,90,90,90,90,0,90,0,Wed Oct 23 08:22:12 2019,The main experiment item,yes,Sternbergtask.osexp,/Users/KrisBow/Dropbox/GradSchoolTarleton/Fall2019/AdvQuant/Lab3,no,mono,no,18,no,white,no,yes,768,legacy,78,11,/Users/KrisBow/Dropbox/GradSchoolTarleton/Fall2019/AdvQuant/Lab3/KB-subject-4-F21.csv,legacy,7 9,Kafkaesque Koffka,3.2.6,0,n,0,right,left,right,right,NA,762,78588,6952,762,NA,2,legacy,2,1024,2,48000,-16,experiment,4,even,1,3306,664607,665715,3292,172774,665726,145399,165820,667951,670726,666737,669962,81896,669962,NA,Sternberg task,84,93678,91,yes,1024
92.39130435,92.39130435,1033.880435,1033.880435,black,experiment,legacy,legacy,legacy,0,uniform,1,undefined,1,right,0,91,91,0,0,91,91,0,91,91,91,91,0,91,0,Wed Oct 23 08:22:12 2019,The main experiment item,yes,Sternbergtask.osexp,/Users/KrisBow/Dropbox/GradSchoolTarleton/Fall2019/AdvQuant/Lab3,no,mono,no,18,no,white,no,yes,768,legacy,79,11,/Users/KrisBow/Dropbox/GradSchoolTarleton/Fall2019/AdvQuant/Lab3/KB-subject-4-F21.csv,legacy,7 6 4 8 1 2,Kafkaesque Koffka,3.2.6,0,n,0,right,left,right,right,NA,1439,78588,6952,1439,NA,2,legacy,6,1024,2,48000,-16,experiment,4,even,9,3306,670740,671849,3292,172774,671859,145399,165820,674083,677538,672870,676096,81896,676096,NA,Sternberg task,85,95117,92,yes,1024
92.47311828,92.47311828,1038.311828,1038.311828,black,experiment,legacy,legacy,legacy,0,uniform,1,undefined,1,right,0,92,92,0,0,92,92,0,92,92,92,92,0,92,0,Wed Oct 23 08:22:12 2019,The main experiment item,yes,Sternbergtask.osexp,/Users/KrisBow/Dropbox/GradSchoolTarleton/Fall2019/AdvQuant/Lab3,no,mono,no,18,no,white,no,yes,768,legacy,80,11,/Users/KrisBow/Dropbox/GradSchoolTarleton/Fall2019/AdvQuant/Lab3/KB-subject-4-F21.csv,legacy,4 2 7 6 1 3,Kafkaesque Koffka,3.2.6,0,n,0,right,left,right,right,NA,1446,78588,6952,1446,NA,2,legacy,6,1024,2,48000,-16,experiment,4,even,8,3306,677550,678659,3292,172774,678670,145399,165820,680894,684353,679682,682905,81896,682905,NA,Sternberg task,86,96563,93,yes,1024
92.55319149,92.55319149,1040.957447,1040.957447,black,experiment,legacy,legacy,legacy,0,uniform,1,undefined,1,left,0,93,93,0,0,93,93,0,93,93,93,93,0,93,0,Wed Oct 23 08:22:12 2019,The main experiment item,yes,Sternbergtask.osexp,/Users/KrisBow/Dropbox/GradSchoolTarleton/Fall2019/AdvQuant/Lab3,no,mono,no,18,no,white,no,yes,768,legacy,81,11,/Users/KrisBow/Dropbox/GradSchoolTarleton/Fall2019/AdvQuant/Lab3/KB-subject-4-F21.csv,legacy,9 3 1 2 5,Kafkaesque Koffka,3.2.6,4,y,0,left,left,right,left,NA,1287,78588,6952,1287,NA,2,legacy,5,1024,2,48000,-16,experiment,4,even,2,3306,684366,685476,3292,172774,685486,145399,165820,687710,691010,686498,689721,81896,689721,NA,Sternberg task,87,97850,94,yes,1024
92.63157895,92.63157895,1038.631579,1038.631579,black,experiment,legacy,legacy,legacy,0,uniform,1,undefined,1,left,0,94,94,0,0,94,94,0,94,94,94,94,0,94,0,Wed Oct 23 08:22:12 2019,The main experiment item,yes,Sternbergtask.osexp,/Users/KrisBow/Dropbox/GradSchoolTarleton/Fall2019/AdvQuant/Lab3,no,mono,no,18,no,white,no,yes,768,legacy,82,11,/Users/KrisBow/Dropbox/GradSchoolTarleton/Fall2019/AdvQuant/Lab3/KB-subject-4-F21.csv,legacy,2 5 4 8 7,Kafkaesque Koffka,3.2.6,3,y,0,left,left,right,left,NA,820,78588,6952,820,NA,2,legacy,5,1024,2,48000,-16,experiment,4,even,4,3306,691023,692133,3292,172774,692144,145399,165820,694367,697201,693155,696378,81896,696378,NA,Sternberg task,88,98670,95,yes,1024
92.70833333,92.70833333,1035.21875,1035.21875,black,experiment,legacy,legacy,legacy,0,uniform,1,undefined,1,left,0,95,95,0,0,95,95,0,95,95,95,95,0,95,0,Wed Oct 23 08:22:12 2019,The main experiment item,yes,Sternbergtask.osexp,/Users/KrisBow/Dropbox/GradSchoolTarleton/Fall2019/AdvQuant/Lab3,no,mono,no,18,no,white,no,yes,768,legacy,83,11,/Users/KrisBow/Dropbox/GradSchoolTarleton/Fall2019/AdvQuant/Lab3/KB-subject-4-F21.csv,legacy,3 4 9 6 2 9,Kafkaesque Koffka,3.2.6,5,y,0,left,left,right,left,NA,711,78588,6952,711,NA,2,legacy,6,1024,2,48000,-16,experiment,4,even,2,3306,697214,698322,3292,172774,698333,145399,165820,700556,703281,699344,702567,81896,702567,NA,Sternberg task,89,99381,96,yes,1024
92.78350515,92.78350515,1032.061856,1032.061856,black,experiment,legacy,legacy,legacy,0,uniform,1,undefined,1,left,0,96,96,0,0,96,96,0,96,96,96,96,0,96,0,Wed Oct 23 08:22:12 2019,The main experiment item,yes,Sternbergtask.osexp,/Users/KrisBow/Dropbox/GradSchoolTarleton/Fall2019/AdvQuant/Lab3,no,mono,no,18,no,white,no,yes,768,legacy,84,11,/Users/KrisBow/Dropbox/GradSchoolTarleton/Fall2019/AdvQuant/Lab3/KB-subject-4-F21.csv,legacy,4 6 5 8,Kafkaesque Koffka,3.2.6,1,y,0,left,left,right,left,NA,729,78588,6952,729,NA,2,legacy,4,1024,2,48000,-16,experiment,4,even,4,3306,703294,704402,3292,172774,704413,145399,165820,706635,709378,705424,708646,81896,708645,NA,Sternberg task,90,100110,97,yes,1024
92.85714286,92.85714286,1029.081633,1029.081633,black,experiment,legacy,legacy,legacy,0,uniform,1,undefined,1,right,0,97,97,0,0,97,97,0,97,97,97,97,0,97,0,Wed Oct 23 08:22:12 2019,The main experiment item,yes,Sternbergtask.osexp,/Users/KrisBow/Dropbox/GradSchoolTarleton/Fall2019/AdvQuant/Lab3,no,mono,no,18,no,white,no,yes,768,legacy,85,11,/Users/KrisBow/Dropbox/GradSchoolTarleton/Fall2019/AdvQuant/Lab3/KB-subject-4-F21.csv,legacy,2 8 9 4 1,Kafkaesque Koffka,3.2.6,0,n,0,right,left,right,right,NA,740,78588,6952,740,NA,2,legacy,5,1024,2,48000,-16,experiment,4,even,5,3306,709391,710500,3292,172774,710510,145399,165820,712735,715488,711521,714746,81896,714746,NA,Sternberg task,91,100850,98,yes,1024
92.92929293,92.92929293,1024.212121,1024.212121,black,experiment,legacy,legacy,legacy,0,uniform,1,undefined,1,left,0,98,98,0,0,98,98,0,98,98,98,98,0,98,0,Wed Oct 23 08:22:12 2019,The main experiment item,yes,Sternbergtask.osexp,/Users/KrisBow/Dropbox/GradSchoolTarleton/Fall2019/AdvQuant/Lab3,no,mono,no,18,no,white,no,yes,768,legacy,86,11,/Users/KrisBow/Dropbox/GradSchoolTarleton/Fall2019/AdvQuant/Lab3/KB-subject-4-F21.csv,legacy,3 9 7 6 4,Kafkaesque Koffka,3.2.6,3,y,0,left,left,right,left,NA,547,78588,6952,547,NA,2,legacy,5,1024,2,48000,-16,experiment,4,even,7,3306,715501,716610,3292,172774,716620,145399,165820,718843,721405,717631,720854,81896,720854,NA,Sternberg task,92,101397,99,yes,1024
93,93,1023.56,1023.56,black,experiment,legacy,legacy,legacy,0,uniform,1,undefined,1,left,0,99,99,0,0,99,99,0,99,99,99,99,0,99,0,Wed Oct 23 08:22:12 2019,The main experiment item,yes,Sternbergtask.osexp,/Users/KrisBow/Dropbox/GradSchoolTarleton/Fall2019/AdvQuant/Lab3,no,mono,no,18,no,white,no,yes,768,legacy,87,11,/Users/KrisBow/Dropbox/GradSchoolTarleton/Fall2019/AdvQuant/Lab3/KB-subject-4-F21.csv,legacy,9 6 2 4 1,Kafkaesque Koffka,3.2.6,4,y,0,left,left,right,left,NA,959,78588,6952,959,NA,2,legacy,5,1024,2,48000,-16,experiment,4,even,4,3306,721418,722527,3292,172774,722538,145399,165820,724762,727734,723549,726773,81896,726772,NA,Sternberg task,93,102356,100,yes,1024
93.06930693,93.06930693,1021.960396,1021.960396,black,experiment,legacy,legacy,legacy,0,uniform,1,undefined,1,left,0,100,100,0,0,100,100,0,100,100,100,100,0,100,0,Wed Oct 23 08:22:12 2019,The main experiment item,yes,Sternbergtask.osexp,/Users/KrisBow/Dropbox/GradSchoolTarleton/Fall2019/AdvQuant/Lab3,no,mono,no,18,no,white,no,yes,768,legacy,88,11,/Users/KrisBow/Dropbox/GradSchoolTarleton/Fall2019/AdvQuant/Lab3/KB-subject-4-F21.csv,legacy,4 6 2 5 1,Kafkaesque Koffka,3.2.6,5,y,0,left,left,right,left,NA,862,78588,6952,862,NA,2,legacy,5,1024,2,48000,-16,experiment,4,even,1,3306,727747,728855,3292,172774,728866,145399,165820,731089,733966,729877,733100,81896,733100,NA,Sternberg task,94,103218,101,yes,1024
93.1372549,93.1372549,1025.392157,1025.392157,black,experiment,legacy,legacy,legacy,0,uniform,1,undefined,1,right,0,101,101,0,0,101,101,0,101,101,101,101,0,101,0,Wed Oct 23 08:22:12 2019,The main experiment item,yes,Sternbergtask.osexp,/Users/KrisBow/Dropbox/GradSchoolTarleton/Fall2019/AdvQuant/Lab3,no,mono,no,18,no,white,no,yes,768,legacy,89,11,/Users/KrisBow/Dropbox/GradSchoolTarleton/Fall2019/AdvQuant/Lab3/KB-subject-4-F21.csv,legacy,8 5 7 3 6,Kafkaesque Koffka,3.2.6,0,n,0,right,left,right,right,NA,1372,78588,6952,1372,NA,2,legacy,5,1024,2,48000,-16,experiment,4,even,9,3306,733981,735090,3292,172774,735104,145399,165820,737327,740712,736115,739338,81896,739337,NA,Sternberg task,95,104590,102,yes,1024
93.2038835,93.2038835,1023.961165,1023.961165,black,experiment,legacy,legacy,legacy,0,uniform,1,undefined,1,right,0,102,102,0,0,102,102,0,102,102,102,102,0,102,0,Wed Oct 23 08:22:12 2019,The main experiment item,yes,Sternbergtask.osexp,/Users/KrisBow/Dropbox/GradSchoolTarleton/Fall2019/AdvQuant/Lab3,no,mono,no,18,no,white,no,yes,768,legacy,90,11,/Users/KrisBow/Dropbox/GradSchoolTarleton/Fall2019/AdvQuant/Lab3/KB-subject-4-F21.csv,legacy,6 3 1 7 9 8,Kafkaesque Koffka,3.2.6,0,n,0,right,left,right,right,NA,878,78588,6952,878,NA,2,legacy,6,1024,2,48000,-16,experiment,4,even,4,3306,740725,741834,3292,172774,741845,145399,165820,744068,746960,742856,746079,81896,746079,NA,Sternberg task,96,105468,103,yes,1024
93.26923077,93.26923077,1020.75,1020.75,black,experiment,legacy,legacy,legacy,0,uniform,1,undefined,1,right,0,103,103,0,0,103,103,0,103,103,103,103,0,103,0,Wed Oct 23 08:22:12 2019,The main experiment item,yes,Sternbergtask.osexp,/Users/KrisBow/Dropbox/GradSchoolTarleton/Fall2019/AdvQuant/Lab3,no,mono,no,18,no,white,no,yes,768,legacy,91,11,/Users/KrisBow/Dropbox/GradSchoolTarleton/Fall2019/AdvQuant/Lab3/KB-subject-4-F21.csv,legacy,9 7 4 5 8,Kafkaesque Koffka,3.2.6,0,n,0,right,left,right,right,NA,690,78588,6952,690,NA,2,legacy,5,1024,2,48000,-16,experiment,4,even,6,3306,746973,748080,3292,172774,748092,145399,165820,750315,753018,749103,752326,81896,752326,NA,Sternberg task,97,106158,104,yes,1024
93.33333333,93.33333333,1017.47619,1017.47619,black,experiment,legacy,legacy,legacy,0,uniform,1,undefined,1,left,0,104,104,0,0,104,104,0,104,104,104,104,0,104,0,Wed Oct 23 08:22:12 2019,The main experiment item,yes,Sternbergtask.osexp,/Users/KrisBow/Dropbox/GradSchoolTarleton/Fall2019/AdvQuant/Lab3,no,mono,no,18,no,white,no,yes,768,legacy,92,11,/Users/KrisBow/Dropbox/GradSchoolTarleton/Fall2019/AdvQuant/Lab3/KB-subject-4-F21.csv,legacy,3 5 9 6 2 4,Kafkaesque Koffka,3.2.6,1,y,0,left,left,right,left,NA,677,78588,6952,677,NA,2,legacy,6,1024,2,48000,-16,experiment,4,even,3,3306,753031,754140,3292,172774,754151,145399,165820,756374,759065,755162,758385,81896,758385,NA,Sternberg task,98,106835,105,yes,1024
93.39622642,93.39622642,1014.669811,1014.669811,black,experiment,legacy,legacy,legacy,0,uniform,1,undefined,1,right,0,105,105,0,0,105,105,0,105,105,105,105,0,105,0,Wed Oct 23 08:22:12 2019,The main experiment item,yes,Sternbergtask.osexp,/Users/KrisBow/Dropbox/GradSchoolTarleton/Fall2019/AdvQuant/Lab3,no,mono,no,18,no,white,no,yes,768,legacy,93,11,/Users/KrisBow/Dropbox/GradSchoolTarleton/Fall2019/AdvQuant/Lab3/KB-subject-4-F21.csv,legacy,5 9 2 3,Kafkaesque Koffka,3.2.6,0,n,0,right,left,right,right,NA,720,78588,6952,720,NA,2,legacy,4,1024,2,48000,-16,experiment,4,even,8,3306,759082,760190,3292,172774,760200,145399,165820,762427,765161,761212,764438,81896,764438,NA,Sternberg task,99,107555,106,yes,1024
93.45794393,93.45794393,1015.757009,1015.757009,black,experiment,legacy,legacy,legacy,0,uniform,1,undefined,1,left,0,106,106,0,0,106,106,0,106,106,106,106,0,106,0,Wed Oct 23 08:22:12 2019,The main experiment item,yes,Sternbergtask.osexp,/Users/KrisBow/Dropbox/GradSchoolTarleton/Fall2019/AdvQuant/Lab3,no,mono,no,18,no,white,no,yes,768,legacy,94,11,/Users/KrisBow/Dropbox/GradSchoolTarleton/Fall2019/AdvQuant/Lab3/KB-subject-4-F21.csv,legacy,4 9 7 8 5 3,Kafkaesque Koffka,3.2.6,4,y,0,left,left,right,left,NA,1131,78588,6952,1131,NA,2,legacy,6,1024,2,48000,-16,experiment,4,even,8,3306,765174,766282,3292,172774,766293,145399,165820,768518,771662,767304,770529,81896,770529,NA,Sternberg task,100,108686,107,yes,1024
93.51851852,93.51851852,1013.962963,1013.962963,black,experiment,legacy,legacy,legacy,0,uniform,1,undefined,1,right,0,107,107,0,0,107,107,0,107,107,107,107,0,107,0,Wed Oct 23 08:22:12 2019,The main experiment item,yes,Sternbergtask.osexp,/Users/KrisBow/Dropbox/GradSchoolTarleton/Fall2019/AdvQuant/Lab3,no,mono,no,18,no,white,no,yes,768,legacy,95,11,/Users/KrisBow/Dropbox/GradSchoolTarleton/Fall2019/AdvQuant/Lab3/KB-subject-4-F21.csv,legacy,1 7 5 2 9,Kafkaesque Koffka,3.2.6,0,n,0,right,left,right,right,NA,822,78588,6952,822,NA,2,legacy,5,1024,2,48000,-16,experiment,4,even,3,3306,771675,772798,3292,172774,772809,145399,165820,775032,777869,773820,777044,81896,777044,NA,Sternberg task,101,109508,108,yes,1024
93.57798165,93.57798165,1020.06422,1020.06422,black,experiment,legacy,legacy,legacy,0,uniform,1,undefined,1,right,0,108,108,0,0,108,108,0,108,108,108,108,0,108,0,Wed Oct 23 08:22:12 2019,The main experiment item,yes,Sternbergtask.osexp,/Users/KrisBow/Dropbox/GradSchoolTarleton/Fall2019/AdvQuant/Lab3,no,mono,no,18,no,white,no,yes,768,legacy,96,11,/Users/KrisBow/Dropbox/GradSchoolTarleton/Fall2019/AdvQuant/Lab3/KB-subject-4-F21.csv,legacy,9 5 3 2 8 6,Kafkaesque Koffka,3.2.6,0,n,0,right,left,right,right,NA,1679,78588,6952,1679,NA,2,legacy,6,1024,2,48000,-16,experiment,4,even,7,3306,777882,778991,3292,172774,779000,145399,165820,781224,784919,780010,783236,81896,783235,NA,Sternberg task,102,111187,109,yes,1024
93.63636364,93.63636364,1017.4,1017.4,black,experiment,legacy,legacy,legacy,0,uniform,1,undefined,1,right,0,109,109,0,0,109,109,0,109,109,109,109,0,109,0,Wed Oct 23 08:22:12 2019,The main experiment item,yes,Sternbergtask.osexp,/Users/KrisBow/Dropbox/GradSchoolTarleton/Fall2019/AdvQuant/Lab3,no,mono,no,18,no,white,no,yes,768,legacy,97,11,/Users/KrisBow/Dropbox/GradSchoolTarleton/Fall2019/AdvQuant/Lab3/KB-subject-4-F21.csv,legacy,7 8 6 1,Kafkaesque Koffka,3.2.6,0,n,0,right,left,right,right,NA,727,78588,6952,727,NA,2,legacy,4,1024,2,48000,-16,experiment,4,even,3,3306,784932,786040,3292,172774,786050,145399,165820,788274,791014,787061,790285,81896,790285,NA,Sternberg task,103,111914,110,yes,1024
93.69369369,93.69369369,1015.459459,1015.459459,black,experiment,legacy,legacy,legacy,0,uniform,1,undefined,1,right,0,110,110,0,0,110,110,0,110,110,110,110,0,110,0,Wed Oct 23 08:22:12 2019,The main experiment item,yes,Sternbergtask.osexp,/Users/KrisBow/Dropbox/GradSchoolTarleton/Fall2019/AdvQuant/Lab3,no,mono,no,18,no,white,no,yes,768,legacy,98,11,/Users/KrisBow/Dropbox/GradSchoolTarleton/Fall2019/AdvQuant/Lab3/KB-subject-4-F21.csv,legacy,7 4 2 8 1 9,Kafkaesque Koffka,3.2.6,0,n,0,right,left,right,right,NA,802,78588,6952,802,NA,2,legacy,6,1024,2,48000,-16,experiment,4,even,5,3306,791027,792136,3292,172774,792147,145399,165820,794371,797188,793158,796382,81896,796382,NA,Sternberg task,104,112716,111,yes,1024
93.75,93.75,1016.866071,1016.866071,black,experiment,legacy,legacy,legacy,0,uniform,1,undefined,1,left,0,111,111,0,0,111,111,0,111,111,111,111,0,111,0,Wed Oct 23 08:22:12 2019,The main experiment item,yes,Sternbergtask.osexp,/Users/KrisBow/Dropbox/GradSchoolTarleton/Fall2019/AdvQuant/Lab3,no,mono,no,18,no,white,no,yes,768,legacy,99,11,/Users/KrisBow/Dropbox/GradSchoolTarleton/Fall2019/AdvQuant/Lab3/KB-subject-4-F21.csv,legacy,8 5 4 7 3 1,Kafkaesque Koffka,3.2.6,2,y,0,left,left,right,left,NA,1173,78588,6952,1173,NA,2,legacy,6,1024,2,48000,-16,experiment,4,even,5,3306,797201,798310,3292,172774,798321,145399,165820,800544,803732,799332,802556,81896,802555,NA,Sternberg task,105,113889,112,yes,1024
93.80530973,93.80530973,1014.99115,1014.99115,black,experiment,legacy,legacy,legacy,0,uniform,1,undefined,1,right,0,112,112,0,0,112,112,0,112,112,112,112,0,112,0,Wed Oct 23 08:22:12 2019,The main experiment item,yes,Sternbergtask.osexp,/Users/KrisBow/Dropbox/GradSchoolTarleton/Fall2019/AdvQuant/Lab3,no,mono,no,18,no,white,no,yes,768,legacy,100,11,/Users/KrisBow/Dropbox/GradSchoolTarleton/Fall2019/AdvQuant/Lab3/KB-subject-4-F21.csv,legacy,6 9 7 3 8 2,Kafkaesque Koffka,3.2.6,0,n,0,right,left,right,right,NA,805,78588,6952,805,NA,2,legacy,6,1024,2,48000,-16,experiment,4,even,5,3306,803744,804854,3292,172774,804864,145399,165820,807089,809907,805877,809100,81896,809100,NA,Sternberg task,106,114694,113,yes,1024
93.85964912,93.85964912,1012.307018,1012.307018,black,experiment,legacy,legacy,legacy,0,uniform,1,undefined,1,left,0,113,113,0,0,113,113,0,113,113,113,113,0,113,0,Wed Oct 23 08:22:12 2019,The main experiment item,yes,Sternbergtask.osexp,/Users/KrisBow/Dropbox/GradSchoolTarleton/Fall2019/AdvQuant/Lab3,no,mono,no,18,no,white,no,yes,768,legacy,101,11,/Users/KrisBow/Dropbox/GradSchoolTarleton/Fall2019/AdvQuant/Lab3/KB-subject-4-F21.csv,legacy,3 5 4 7,Kafkaesque Koffka,3.2.6,1,y,0,left,left,right,left,NA,709,78588,6952,709,NA,2,legacy,4,1024,2,48000,-16,experiment,4,even,3,3306,809920,811029,3292,172774,811039,145399,165820,813262,815985,812050,815273,81896,815273,NA,Sternberg task,107,115403,114,yes,1024
93.91304348,93.91304348,1011.321739,1011.321739,black,experiment,legacy,legacy,legacy,0,uniform,1,undefined,1,right,0,114,114,0,0,114,114,0,114,114,114,114,0,114,0,Wed Oct 23 08:22:12 2019,The main experiment item,yes,Sternbergtask.osexp,/Users/KrisBow/Dropbox/GradSchoolTarleton/Fall2019/AdvQuant/Lab3,no,mono,no,18,no,white,no,yes,768,legacy,102,11,/Users/KrisBow/Dropbox/GradSchoolTarleton/Fall2019/AdvQuant/Lab3/KB-subject-4-F21.csv,legacy,6 8 4,Kafkaesque Koffka,3.2.6,0,n,0,right,left,right,right,NA,899,78588,6952,899,NA,2,legacy,3,1024,2,48000,-16,experiment,4,even,1,3306,815998,817105,3292,172774,817116,145399,165820,819340,822254,818128,821352,81896,821352,NA,Sternberg task,108,116302,115,yes,1024
93.96551724,93.96551724,1008.198276,1008.198276,black,experiment,legacy,legacy,legacy,0,uniform,1,undefined,1,right,0,115,115,0,0,115,115,0,115,115,115,115,0,115,0,Wed Oct 23 08:22:12 2019,The main experiment item,yes,Sternbergtask.osexp,/Users/KrisBow/Dropbox/GradSchoolTarleton/Fall2019/AdvQuant/Lab3,no,mono,no,18,no,white,no,yes,768,legacy,103,11,/Users/KrisBow/Dropbox/GradSchoolTarleton/Fall2019/AdvQuant/Lab3/KB-subject-4-F21.csv,legacy,1 4 9 2 5,Kafkaesque Koffka,3.2.6,0,n,0,right,left,right,right,NA,649,78588,6952,649,NA,2,legacy,5,1024,2,48000,-16,experiment,4,even,7,3306,822267,823382,3292,172774,823392,145399,165820,825615,828278,824404,827626,81896,827626,NA,Sternberg task,109,116951,116,yes,1024
94.01709402,94.01709402,1006.623932,1006.623932,black,experiment,legacy,legacy,legacy,0,uniform,1,undefined,1,left,0,116,116,0,0,116,116,0,116,116,116,116,0,116,0,Wed Oct 23 08:22:12 2019,The main experiment item,yes,Sternbergtask.osexp,/Users/KrisBow/Dropbox/GradSchoolTarleton/Fall2019/AdvQuant/Lab3,no,mono,no,18,no,white,no,yes,768,legacy,104,11,/Users/KrisBow/Dropbox/GradSchoolTarleton/Fall2019/AdvQuant/Lab3/KB-subject-4-F21.csv,legacy,5 2 6,Kafkaesque Koffka,3.2.6,2,y,0,left,left,right,left,NA,824,78588,6952,824,NA,2,legacy,3,1024,2,48000,-16,experiment,4,even,2,3306,828292,829400,3292,172774,829410,145399,165820,831634,834472,830422,833645,81896,833644,NA,Sternberg task,110,117775,117,yes,1024
94.06779661,94.06779661,1003.737288,1003.737288,black,experiment,legacy,legacy,legacy,0,uniform,1,undefined,1,left,0,117,117,0,0,117,117,0,117,117,117,117,0,117,0,Wed Oct 23 08:22:12 2019,The main experiment item,yes,Sternbergtask.osexp,/Users/KrisBow/Dropbox/GradSchoolTarleton/Fall2019/AdvQuant/Lab3,no,mono,no,18,no,white,no,yes,768,legacy,105,11,/Users/KrisBow/Dropbox/GradSchoolTarleton/Fall2019/AdvQuant/Lab3/KB-subject-4-F21.csv,legacy,3 4,Kafkaesque Koffka,3.2.6,1,y,0,left,left,right,left,NA,666,78588,6952,666,NA,2,legacy,2,1024,2,48000,-16,experiment,4,even,3,3306,834485,835593,3292,172774,835604,145399,165820,837827,840507,836615,839838,81896,839838,NA,Sternberg task,111,118441,118,yes,1024
94.11764706,94.11764706,1001.714286,1001.714286,black,experiment,legacy,legacy,legacy,0,uniform,1,undefined,1,right,0,118,118,0,0,118,118,0,118,118,118,118,0,118,0,Wed Oct 23 08:22:12 2019,The main experiment item,yes,Sternbergtask.osexp,/Users/KrisBow/Dropbox/GradSchoolTarleton/Fall2019/AdvQuant/Lab3,no,mono,no,18,no,white,no,yes,768,legacy,106,11,/Users/KrisBow/Dropbox/GradSchoolTarleton/Fall2019/AdvQuant/Lab3/KB-subject-4-F21.csv,legacy,6 9 4 5 3 2,Kafkaesque Koffka,3.2.6,0,n,0,right,left,right,right,NA,763,78588,6952,763,NA,2,legacy,6,1024,2,48000,-16,experiment,4,even,8,3306,840520,841628,3292,172774,841639,145399,165820,843862,846638,842649,845873,81896,845873,NA,Sternberg task,112,119204,119,yes,1024
94.16666667,94.16666667,999.6916667,999.6916667,black,experiment,legacy,legacy,legacy,0,uniform,1,undefined,1,right,0,119,119,0,0,119,119,0,119,119,119,119,0,119,0,Wed Oct 23 08:22:12 2019,The main experiment item,yes,Sternbergtask.osexp,/Users/KrisBow/Dropbox/GradSchoolTarleton/Fall2019/AdvQuant/Lab3,no,mono,no,18,no,white,no,yes,768,legacy,107,11,/Users/KrisBow/Dropbox/GradSchoolTarleton/Fall2019/AdvQuant/Lab3/KB-subject-4-F21.csv,legacy,8 2 1 4 5 9,Kafkaesque Koffka,3.2.6,0,n,0,right,left,right,right,NA,759,78588,6952,759,NA,2,legacy,6,1024,2,48000,-16,experiment,4,even,7,3306,846651,847762,3292,172774,847773,145399,165820,849997,852770,848784,852008,81896,852008,NA,Sternberg task,113,119963,120,yes,1024
94.21487603,94.21487603,1000.520661,1000.520661,black,experiment,legacy,legacy,legacy,0,uniform,1,undefined,1,right,0,120,120,0,0,120,120,0,120,120,120,120,0,120,0,Wed Oct 23 08:22:12 2019,The main experiment item,yes,Sternbergtask.osexp,/Users/KrisBow/Dropbox/GradSchoolTarleton/Fall2019/AdvQuant/Lab3,no,mono,no,18,no,white,no,yes,768,legacy,108,11,/Users/KrisBow/Dropbox/GradSchoolTarleton/Fall2019/AdvQuant/Lab3/KB-subject-4-F21.csv,legacy,8 5 4 2 9 6,Kafkaesque Koffka,3.2.6,0,n,0,right,left,right,right,NA,1100,78588,6952,1100,NA,2,legacy,6,1024,2,48000,-16,experiment,4,even,3,3306,852783,853891,3292,172774,853901,145399,165820,856125,859238,854913,858135,81896,858135,NA,Sternberg task,114,121063,121,yes,1024
94.26229508,94.26229508,997.6557377,997.6557377,black,experiment,legacy,legacy,legacy,0,uniform,1,undefined,1,right,0,121,121,0,0,121,121,0,121,121,121,121,0,121,0,Wed Oct 23 08:22:12 2019,The main experiment item,yes,Sternbergtask.osexp,/Users/KrisBow/Dropbox/GradSchoolTarleton/Fall2019/AdvQuant/Lab3,no,mono,no,18,no,white,no,yes,768,legacy,109,11,/Users/KrisBow/Dropbox/GradSchoolTarleton/Fall2019/AdvQuant/Lab3/KB-subject-4-F21.csv,legacy,6 9 5,Kafkaesque Koffka,3.2.6,0,n,0,right,left,right,right,NA,651,78588,6952,651,NA,2,legacy,3,1024,2,48000,-16,experiment,4,even,8,3306,859251,860359,3292,172774,860369,145399,165820,862593,865258,861381,864604,81896,864604,NA,Sternberg task,115,121714,122,yes,1024
94.30894309,94.30894309,996.1138211,996.1138211,black,experiment,legacy,legacy,legacy,0,uniform,1,undefined,1,left,0,122,122,0,0,122,122,0,122,122,122,122,0,122,0,Wed Oct 23 08:22:12 2019,The main experiment item,yes,Sternbergtask.osexp,/Users/KrisBow/Dropbox/GradSchoolTarleton/Fall2019/AdvQuant/Lab3,no,mono,no,18,no,white,no,yes,768,legacy,110,11,/Users/KrisBow/Dropbox/GradSchoolTarleton/Fall2019/AdvQuant/Lab3/KB-subject-4-F21.csv,legacy,7 8 6 3 1,Kafkaesque Koffka,3.2.6,5,y,0,left,left,right,left,NA,808,78588,6952,808,NA,2,legacy,5,1024,2,48000,-16,experiment,4,even,1,3306,865270,866379,3292,172774,866389,145399,165820,868613,871435,867400,870624,81896,870624,NA,Sternberg task,116,122522,123,yes,1024
94.35483871,94.35483871,992.75,992.75,black,experiment,legacy,legacy,legacy,0,uniform,1,undefined,1,right,0,123,123,0,0,123,123,0,123,123,123,123,0,123,0,Wed Oct 23 08:22:12 2019,The main experiment item,yes,Sternbergtask.osexp,/Users/KrisBow/Dropbox/GradSchoolTarleton/Fall2019/AdvQuant/Lab3,no,mono,no,18,no,white,no,yes,768,legacy,111,11,/Users/KrisBow/Dropbox/GradSchoolTarleton/Fall2019/AdvQuant/Lab3/KB-subject-4-F21.csv,legacy,4 1,Kafkaesque Koffka,3.2.6,0,n,0,right,left,right,right,NA,579,78588,6952,579,NA,2,legacy,2,1024,2,48000,-16,experiment,4,even,6,3306,871448,872556,3292,172774,872566,145399,165820,874790,877382,873577,876801,81896,876800,NA,Sternberg task,117,123101,124,yes,1024
94.4,94.4,989.808,989.808,black,experiment,legacy,legacy,legacy,0,uniform,1,undefined,1,right,0,124,124,0,0,124,124,0,124,124,124,124,0,124,0,Wed Oct 23 08:22:12 2019,The main experiment item,yes,Sternbergtask.osexp,/Users/KrisBow/Dropbox/GradSchoolTarleton/Fall2019/AdvQuant/Lab3,no,mono,no,18,no,white,no,yes,768,legacy,112,11,/Users/KrisBow/Dropbox/GradSchoolTarleton/Fall2019/AdvQuant/Lab3/KB-subject-4-F21.csv,legacy,3 9 1,Kafkaesque Koffka,3.2.6,0,n,0,right,left,right,right,NA,625,78588,6952,625,NA,2,legacy,3,1024,2,48000,-16,experiment,4,even,7,3306,877395,878506,3292,172774,878516,145399,165820,880739,883378,879527,882750,81896,882750,NA,Sternberg task,118,123726,125,yes,1024
94.44444444,94.44444444,988.6507937,988.6507937,black,experiment,legacy,legacy,legacy,0,uniform,1,undefined,1,left,0,125,125,0,0,125,125,0,125,125,125,125,0,125,0,Wed Oct 23 08:22:12 2019,The main experiment item,yes,Sternbergtask.osexp,/Users/KrisBow/Dropbox/GradSchoolTarleton/Fall2019/AdvQuant/Lab3,no,mono,no,18,no,white,no,yes,768,legacy,113,11,/Users/KrisBow/Dropbox/GradSchoolTarleton/Fall2019/AdvQuant/Lab3/KB-subject-4-F21.csv,legacy,2 3,Kafkaesque Koffka,3.2.6,1,y,0,left,left,right,left,NA,844,78588,6952,844,NA,2,legacy,2,1024,2,48000,-16,experiment,4,even,2,3306,883391,884498,3292,172774,884509,145399,165820,886733,889591,885520,888744,81896,888744,NA,Sternberg task,119,124570,126,yes,1024
94.48818898,94.48818898,987.2992126,987.2992126,black,experiment,legacy,legacy,legacy,0,uniform,1,undefined,1,left,0,126,126,0,0,126,126,0,126,126,126,126,0,126,0,Wed Oct 23 08:22:12 2019,The main experiment item,yes,Sternbergtask.osexp,/Users/KrisBow/Dropbox/GradSchoolTarleton/Fall2019/AdvQuant/Lab3,no,mono,no,18,no,white,no,yes,768,legacy,114,11,/Users/KrisBow/Dropbox/GradSchoolTarleton/Fall2019/AdvQuant/Lab3/KB-subject-4-F21.csv,legacy,4 1 5,Kafkaesque Koffka,3.2.6,2,y,0,left,left,right,left,NA,817,78588,6952,817,NA,2,legacy,3,1024,2,48000,-16,experiment,4,even,1,3306,889604,890714,3292,172774,890725,145399,165820,892948,895779,891736,894959,81896,894958,NA,Sternberg task,120,125387,127,yes,1024
94.53125,94.53125,984.46875,984.46875,black,experiment,legacy,legacy,legacy,0,uniform,1,undefined,1,right,0,127,127,0,0,127,127,0,127,127,127,127,0,127,0,Wed Oct 23 08:22:12 2019,The main experiment item,yes,Sternbergtask.osexp,/Users/KrisBow/Dropbox/GradSchoolTarleton/Fall2019/AdvQuant/Lab3,no,mono,no,18,no,white,no,yes,768,legacy,115,11,/Users/KrisBow/Dropbox/GradSchoolTarleton/Fall2019/AdvQuant/Lab3/KB-subject-4-F21.csv,legacy,1 5 3 2 8,Kafkaesque Koffka,3.2.6,0,n,0,right,left,right,right,NA,625,78588,6952,625,NA,2,legacy,5,1024,2,48000,-16,experiment,4,even,4,3306,895792,896900,3292,172774,896911,145399,165820,899134,901773,897922,901145,81896,901145,NA,Sternberg task,121,126012,128,yes,1024
94.57364341,94.57364341,985.9922481,985.9922481,black,experiment,legacy,legacy,legacy,0,uniform,1,undefined,1,right,0,128,128,0,0,128,128,0,128,128,128,128,0,128,0,Wed Oct 23 08:22:12 2019,The main experiment item,yes,Sternbergtask.osexp,/Users/KrisBow/Dropbox/GradSchoolTarleton/Fall2019/AdvQuant/Lab3,no,mono,no,18,no,white,no,yes,768,legacy,116,11,/Users/KrisBow/Dropbox/GradSchoolTarleton/Fall2019/AdvQuant/Lab3/KB-subject-4-F21.csv,legacy,4 2 6 9,Kafkaesque Koffka,3.2.6,0,n,0,right,left,right,right,NA,1181,78588,6952,1181,NA,2,legacy,4,1024,2,48000,-16,experiment,4,even,7,3306,901786,902894,3292,172774,902905,145399,165820,905126,908321,903916,907138,81896,907138,NA,Sternberg task,122,127193,129,yes,1024
94.61538462,94.61538462,984.0384615,984.0384615,black,experiment,legacy,legacy,legacy,0,uniform,1,undefined,1,left,0,129,129,0,0,129,129,0,129,129,129,129,0,129,0,Wed Oct 23 08:22:12 2019,The main experiment item,yes,Sternbergtask.osexp,/Users/KrisBow/Dropbox/GradSchoolTarleton/Fall2019/AdvQuant/Lab3,no,mono,no,18,no,white,no,yes,768,legacy,117,11,/Users/KrisBow/Dropbox/GradSchoolTarleton/Fall2019/AdvQuant/Lab3/KB-subject-4-F21.csv,legacy,8 9 6 1,Kafkaesque Koffka,3.2.6,2,y,0,left,left,right,left,NA,732,78588,6952,732,NA,2,legacy,4,1024,2,48000,-16,experiment,4,even,9,3306,908337,909445,3292,172774,909455,145399,165820,911679,914426,910466,913691,81896,913691,NA,Sternberg task,123,127925,130,yes,1024
94.65648855,94.65648855,980.7251908,980.7251908,black,experiment,legacy,legacy,legacy,0,uniform,1,undefined,1,left,0,130,130,0,0,130,130,0,130,130,130,130,0,130,0,Wed Oct 23 08:22:12 2019,The main experiment item,yes,Sternbergtask.osexp,/Users/KrisBow/Dropbox/GradSchoolTarleton/Fall2019/AdvQuant/Lab3,no,mono,no,18,no,white,no,yes,768,legacy,118,11,/Users/KrisBow/Dropbox/GradSchoolTarleton/Fall2019/AdvQuant/Lab3/KB-subject-4-F21.csv,legacy,8 9 5 6 7,Kafkaesque Koffka,3.2.6,1,y,0,left,left,right,left,NA,550,78588,6952,550,NA,2,legacy,5,1024,2,48000,-16,experiment,4,even,8,3306,914439,915547,3292,172774,915557,145399,165820,917781,920345,916568,919792,81896,919792,NA,Sternberg task,124,128475,131,yes,1024
94.6969697,94.6969697,981.0075758,981.0075758,black,experiment,legacy,legacy,legacy,0,uniform,1,undefined,1,left,0,131,131,0,0,131,131,0,131,131,131,131,0,131,0,Wed Oct 23 08:22:12 2019,The main experiment item,yes,Sternbergtask.osexp,/Users/KrisBow/Dropbox/GradSchoolTarleton/Fall2019/AdvQuant/Lab3,no,mono,no,18,no,white,no,yes,768,legacy,119,11,/Users/KrisBow/Dropbox/GradSchoolTarleton/Fall2019/AdvQuant/Lab3/KB-subject-4-F21.csv,legacy,3 2 1 4 7,Kafkaesque Koffka,3.2.6,2,y,0,left,left,right,left,NA,1018,78588,6952,1018,NA,2,legacy,5,1024,2,48000,-16,experiment,4,even,2,3306,920358,921466,3292,172774,921477,145399,165820,923702,926734,922488,925713,81896,925713,NA,Sternberg task,125,129493,132,yes,1024
94.73684211,94.73684211,978.8496241,978.8496241,black,experiment,legacy,legacy,legacy,0,uniform,1,undefined,1,left,0,132,132,0,0,132,132,0,132,132,132,132,0,132,0,Wed Oct 23 08:22:12 2019,The main experiment item,yes,Sternbergtask.osexp,/Users/KrisBow/Dropbox/GradSchoolTarleton/Fall2019/AdvQuant/Lab3,no,mono,no,18,no,white,no,yes,768,legacy,120,11,/Users/KrisBow/Dropbox/GradSchoolTarleton/Fall2019/AdvQuant/Lab3/KB-subject-4-F21.csv,legacy,5 2 9 6 1 7,Kafkaesque Koffka,3.2.6,3,y,0,left,left,right,left,NA,694,78588,6952,694,NA,2,legacy,6,1024,2,48000,-16,experiment,4,even,9,3306,926747,927861,3292,172774,927871,145399,165820,930097,932805,928882,932108,81896,932107,NA,Sternberg task,126,130187,133,yes,1024
94.7761194,94.7761194,977.0149254,977.0149254,black,experiment,legacy,legacy,legacy,0,uniform,1,undefined,1,right,0,133,133,0,0,133,133,0,133,133,133,133,0,133,0,Wed Oct 23 08:22:12 2019,The main experiment item,yes,Sternbergtask.osexp,/Users/KrisBow/Dropbox/GradSchoolTarleton/Fall2019/AdvQuant/Lab3,no,mono,no,18,no,white,no,yes,768,legacy,121,11,/Users/KrisBow/Dropbox/GradSchoolTarleton/Fall2019/AdvQuant/Lab3/KB-subject-4-F21.csv,legacy,9,Kafkaesque Koffka,3.2.6,0,n,0,right,left,right,right,NA,733,78588,6952,733,NA,2,legacy,1,1024,2,48000,-16,experiment,4,even,6,3306,932817,933924,3292,172774,933934,145399,165820,936157,938904,934945,938169,81896,938168,NA,Sternberg task,127,130920,134,yes,1024
94.81481481,94.81481481,974.2222222,974.2222222,black,experiment,legacy,legacy,legacy,0,uniform,1,undefined,1,right,0,134,134,0,0,134,134,0,134,134,134,134,0,134,0,Wed Oct 23 08:22:12 2019,The main experiment item,yes,Sternbergtask.osexp,/Users/KrisBow/Dropbox/GradSchoolTarleton/Fall2019/AdvQuant/Lab3,no,mono,no,18,no,white,no,yes,768,legacy,122,11,/Users/KrisBow/Dropbox/GradSchoolTarleton/Fall2019/AdvQuant/Lab3/KB-subject-4-F21.csv,legacy,8 4 3 9,Kafkaesque Koffka,3.2.6,0,n,0,right,left,right,right,NA,600,78588,6952,600,NA,2,legacy,4,1024,2,48000,-16,experiment,4,even,5,3306,938919,940027,3292,172774,940038,145399,165820,942259,944874,941049,944271,81896,944271,NA,Sternberg task,128,131520,135,yes,1024
94.85294118,94.85294118,971.8823529,971.8823529,black,experiment,legacy,legacy,legacy,0,uniform,1,undefined,1,left,0,135,135,0,0,135,135,0,135,135,135,135,0,135,0,Wed Oct 23 08:22:12 2019,The main experiment item,yes,Sternbergtask.osexp,/Users/KrisBow/Dropbox/GradSchoolTarleton/Fall2019/AdvQuant/Lab3,no,mono,no,18,no,white,no,yes,768,legacy,123,11,/Users/KrisBow/Dropbox/GradSchoolTarleton/Fall2019/AdvQuant/Lab3/KB-subject-4-F21.csv,legacy,2 3 7 4,Kafkaesque Koffka,3.2.6,1,y,0,left,left,right,left,NA,656,78588,6952,656,NA,2,legacy,4,1024,2,48000,-16,experiment,4,even,2,3306,944887,946006,3292,172774,946018,145399,165820,948241,950913,947029,950254,81896,950254,NA,Sternberg task,129,132176,136,yes,1024
94.89051095,94.89051095,969.3576642,969.3576642,black,experiment,legacy,legacy,legacy,0,uniform,1,undefined,1,right,0,136,136,0,0,136,136,0,136,136,136,136,0,136,0,Wed Oct 23 08:22:12 2019,The main experiment item,yes,Sternbergtask.osexp,/Users/KrisBow/Dropbox/GradSchoolTarleton/Fall2019/AdvQuant/Lab3,no,mono,no,18,no,white,no,yes,768,legacy,124,11,/Users/KrisBow/Dropbox/GradSchoolTarleton/Fall2019/AdvQuant/Lab3/KB-subject-4-F21.csv,legacy,2 8 9,Kafkaesque Koffka,3.2.6,0,n,0,right,left,right,right,NA,626,78588,6952,626,NA,2,legacy,3,1024,2,48000,-16,experiment,4,even,6,3306,950926,952033,3292,172774,952043,145399,165820,954268,956908,953055,956279,81896,956279,NA,Sternberg task,130,132802,137,yes,1024
94.92753623,94.92753623,968.8115942,968.8115942,black,experiment,legacy,legacy,legacy,0,uniform,1,undefined,1,left,0,137,137,0,0,137,137,0,137,137,137,137,0,137,0,Wed Oct 23 08:22:12 2019,The main experiment item,yes,Sternbergtask.osexp,/Users/KrisBow/Dropbox/GradSchoolTarleton/Fall2019/AdvQuant/Lab3,no,mono,no,18,no,white,no,yes,768,legacy,125,11,/Users/KrisBow/Dropbox/GradSchoolTarleton/Fall2019/AdvQuant/Lab3/KB-subject-4-F21.csv,legacy,8 5 3 7 4 6,Kafkaesque Koffka,3.2.6,6,y,0,left,left,right,left,NA,894,78588,6952,894,NA,2,legacy,6,1024,2,48000,-16,experiment,4,even,6,3306,956921,958031,3292,172774,958041,145399,165820,960264,963171,959051,962275,81896,962275,NA,Sternberg task,131,133696,138,yes,1024