"acc","accuracy","average_response_time","avg_rt","background","block","canvas_backend","clock_backend","color_backend","correct","correct_Instruction1","correct_keyboard_response","correct_response","count_CorrectFeedback","count_Fixation","count_ISI","count_IncorrectFeedback","count_Instruction1","count_Instructions2","count_MemorySet","count_Probe","count_ThankYou","count_expSequence","count_experiment","count_experimentLoop","count_keyboard_response","count_logger","count_practiceLoop","datetime","description","disable_garbage_collection","experiment_file","experiment_path","font_bold","font_family","font_italic","font_size","font_underline","foreground","form_clicks","fullscreen","height","keyboard_backend","live_row","live_row_practiceLoop","logfile","mouse_backend","numberSet","opensesame_codename","opensesame_version","posInSet","present","repeat_cycle","response","response_Instruction1","response_Instructions2","response_ThankYou","response_keyboard_response","response_time","response_time_Instruction1","response_time_Instructions2","response_time_ThankYou","response_time_keyboard_response","round_decimals","sampler_backend","setSize","sound_buf_size","sound_channels","sound_freq","sound_sample_size","start","subject_nr","subject_parity","target","time_CorrectFeedback","time_Fixation","time_ISI","time_IncorrectFeedback","time_Instruction1","time_Instructions2","time_MemorySet","time_Probe","time_ThankYou","time_expSequence","time_experiment","time_experimentLoop","time_keyboard_response","time_logger","time_practiceLoop","title","total_correct","total_response_time","total_responses","width"
"100","100","693","693","#3d3846","practice","legacy","legacy","legacy","1","undefined","1","right","0","0","0","0","0","0","0","0","0","0","0","0","0","0","0","Sun Oct 15 19:11:40 2023","The main experiment item","True","SternbergTask.osexp","C:/Users/Hannah Laskoskie/Downloads","False","mono","False","18","no","white","no","yes","768","legacy","0","0","C:/Users/Hannah Laskoskie/Downloads/subject-1.csv","legacy","4 1 5","Melodramatic Milgram","4.0.5","0","n","0","right","right","NA","NA","right","693.0","49742","NA","NA","693","2","legacy","3","1024","2","48000","-16","experiment","1","odd","2","NA","52653","54853","NA","2507","NA","53653","56853","NA","52652","2504","NA","56853","57546","52250","Sternberg Task","1","693.0","1","1024"
"100","100","742","742","#3d3846","practice","legacy","legacy","legacy","1","undefined","1","right","1","1","1","1","0","0","1","1","0","1","0","0","1","1","0","Sun Oct 15 19:11:40 2023","The main experiment item","True","SternbergTask.osexp","C:/Users/Hannah Laskoskie/Downloads","False","mono","False","18","no","white","no","yes","768","legacy","1","1","C:/Users/Hannah Laskoskie/Downloads/subject-1.csv","legacy","5","Melodramatic Milgram","4.0.5","0","n","0","right","right","NA","NA","right","792.0","49742","NA","NA","792","2","legacy","1","1024","2","48000","-16","experiment","1","odd","3","57569","58595","60795","NA","2507","NA","59595","62795","NA","58594","2504","NA","62795","63588","52250","Sternberg Task","2","1485.0","2","1024"
"100","100","633","633","#3d3846","practice","legacy","legacy","legacy","1","undefined","1","left","2","2","2","2","0","0","2","2","0","2","0","0","2","2","0","Sun Oct 15 19:11:40 2023","The main experiment item","True","SternbergTask.osexp","C:/Users/Hannah Laskoskie/Downloads","False","mono","False","18","no","white","no","yes","768","legacy","2","2","C:/Users/Hannah Laskoskie/Downloads/subject-1.csv","legacy","6","Melodramatic Milgram","4.0.5","1","y","0","left","right","NA","NA","left","414.0","49742","NA","NA","414","2","legacy","1","1024","2","48000","-16","experiment","1","odd","6","63595","64624","66824","NA","2507","NA","65624","68824","NA","64622","2504","NA","68824","69239","52250","Sternberg Task","3","1899.0","3","1024"
"100","100","638","638","#3d3846","practice","legacy","legacy","legacy","1","undefined","1","left","3","3","3","3","0","0","3","3","0","3","0","0","3","3","0","Sun Oct 15 19:11:40 2023","The main experiment item","True","SternbergTask.osexp","C:/Users/Hannah Laskoskie/Downloads","False","mono","False","18","no","white","no","yes","768","legacy","3","3","C:/Users/Hannah Laskoskie/Downloads/subject-1.csv","legacy","4 8","Melodramatic Milgram","4.0.5","1","y","0","left","right","NA","NA","left","655.0","49742","NA","NA","655","2","legacy","2","1024","2","48000","-16","experiment","1","odd","4","69241","70269","72470","NA","2507","NA","71270","74471","NA","70267","2504","NA","74477","75133","52250","Sternberg Task","4","2554.0","4","1024"
"100","100","683","683","#3d3846","practice","legacy","legacy","legacy","1","undefined","1","right","4","4","4","4","0","0","4","4","0","4","0","0","4","4","0","Sun Oct 15 19:11:40 2023","The main experiment item","True","SternbergTask.osexp","C:/Users/Hannah Laskoskie/Downloads","False","mono","False","18","no","white","no","yes","768","legacy","4","4","C:/Users/Hannah Laskoskie/Downloads/subject-1.csv","legacy","3 1 9 4","Melodramatic Milgram","4.0.5","0","n","0","right","right","NA","NA","right","865.0","49742","NA","NA","865","2","legacy","4","1024","2","48000","-16","experiment","1","odd","6","75141","76168","78368","NA","2507","NA","77168","80368","NA","76167","2504","NA","80368","81234","52250","Sternberg Task","5","3419.0","5","1024"
"83","83","730","730","#3d3846","practice","legacy","legacy","legacy","0","undefined","0","right","5","5","5","5","0","0","5","5","0","5","0","0","5","5","0","Sun Oct 15 19:11:40 2023","The main experiment item","True","SternbergTask.osexp","C:/Users/Hannah Laskoskie/Downloads","False","mono","False","18","no","white","no","yes","768","legacy","5","5","C:/Users/Hannah Laskoskie/Downloads/subject-1.csv","legacy","5 7 8 4 1 2","Melodramatic Milgram","4.0.5","0","n","0","left","right","NA","NA","left","962.0","49742","NA","NA","962","2","legacy","6","1024","2","48000","-16","experiment","1","odd","6","81236","82265","84465","NA","2507","NA","83265","86465","NA","82263","2504","NA","86465","87428","52250","Sternberg Task","5","4381.0","6","1024"
"71","71","743","743","#3d3846","practice","legacy","legacy","legacy","0","undefined","0","left","6","6","6","6","0","0","6","6","0","6","0","0","6","6","0","Sun Oct 15 19:11:40 2023","The main experiment item","True","SternbergTask.osexp","C:/Users/Hannah Laskoskie/Downloads","False","mono","False","18","no","white","no","yes","768","legacy","6","6","C:/Users/Hannah Laskoskie/Downloads/subject-1.csv","legacy","2 9 4","Melodramatic Milgram","4.0.5","3","y","0","right","right","NA","NA","right","826.0","49742","NA","NA","826","2","legacy","3","1024","2","48000","-16","experiment","1","odd","4","81236","88461","90661","87435","2507","NA","89461","92661","NA","88460","2504","NA","92661","93487","52250","Sternberg Task","5","5207.0","7","1024"
"62","62","765","765","#3d3846","practice","legacy","legacy","legacy","0","undefined","0","left","7","7","7","7","0","0","7","7","0","7","0","0","7","7","0","Sun Oct 15 19:11:40 2023","The main experiment item","True","SternbergTask.osexp","C:/Users/Hannah Laskoskie/Downloads","False","mono","False","18","no","white","no","yes","768","legacy","7","7","C:/Users/Hannah Laskoskie/Downloads/subject-1.csv","legacy","1 7 9 8 5","Melodramatic Milgram","4.0.5","4","y","0","right","right","NA","NA","right","914.0","49742","NA","NA","914","2","legacy","5","1024","2","48000","-16","experiment","1","odd","8","81236","94521","96721","93489","2507","NA","95521","98721","NA","94520","2504","NA","98722","99637","52250","Sternberg Task","5","6121.0","8","1024"
"66","66","765","765","#3d3846","practice","legacy","legacy","legacy","1","undefined","1","left","8","8","8","8","0","0","8","8","0","8","0","0","8","8","0","Sun Oct 15 19:11:40 2023","The main experiment item","True","SternbergTask.osexp","C:/Users/Hannah Laskoskie/Downloads","False","mono","False","18","no","white","no","yes","768","legacy","8","8","C:/Users/Hannah Laskoskie/Downloads/subject-1.csv","legacy","4 3 1 7 9 8","Melodramatic Milgram","4.0.5","1","y","0","left","right","NA","NA","left","764.0","49742","NA","NA","764","2","legacy","6","1024","2","48000","-16","experiment","1","odd","4","81236","100670","102871","99644","2507","NA","101671","104871","NA","100669","2504","NA","104871","105636","52250","Sternberg Task","6","6885.0","9","1024"
"70","70","746","746","#3d3846","practice","legacy","legacy","legacy","1","undefined","1","right","9","9","9","9","0","0","9","9","0","9","0","0","9","9","0","Sun Oct 15 19:11:40 2023","The main experiment item","True","SternbergTask.osexp","C:/Users/Hannah Laskoskie/Downloads","False","mono","False","18","no","white","no","yes","768","legacy","9","9","C:/Users/Hannah Laskoskie/Downloads/subject-1.csv","legacy","2 1","Melodramatic Milgram","4.0.5","0","n","0","right","right","NA","NA","right","581.0","49742","NA","NA","581","2","legacy","2","1024","2","48000","-16","experiment","1","odd","5","105637","106662","108862","99644","2507","NA","107662","110862","NA","106661","2504","NA","110862","111443","52250","Sternberg Task","7","7466.0","10","1024"
"63","63","747","747","#3d3846","practice","legacy","legacy","legacy","0","undefined","0","right","10","10","10","10","0","0","10","10","0","10","0","0","10","10","0","Sun Oct 15 19:11:40 2023","The main experiment item","True","SternbergTask.osexp","C:/Users/Hannah Laskoskie/Downloads","False","mono","False","18","no","white","no","yes","768","legacy","10","10","C:/Users/Hannah Laskoskie/Downloads/subject-1.csv","legacy","9 6 7 4 5","Melodramatic Milgram","4.0.5","0","n","0","left","right","NA","NA","left","752.0","49742","NA","NA","752","2","legacy","5","1024","2","48000","-16","experiment","1","odd","3","111445","112470","114670","99644","2507","NA","113470","116670","NA","112469","2504","NA","116670","117422","52250","Sternberg Task","7","8218.0","11","1024"
"66","66","801","801","#3d3846","practice","legacy","legacy","legacy","1","undefined","1","left","11","11","11","11","0","0","11","11","0","11","0","0","11","11","0","Sun Oct 15 19:11:40 2023","The main experiment item","True","SternbergTask.osexp","C:/Users/Hannah Laskoskie/Downloads","False","mono","False","18","no","white","no","yes","768","legacy","11","11","C:/Users/Hannah Laskoskie/Downloads/subject-1.csv","legacy","1 5 2 9","Melodramatic Milgram","4.0.5","2","y","0","left","right","NA","NA","left","1398.0","49742","NA","NA","1398","2","legacy","4","1024","2","48000","-16","experiment","1","odd","5","111445","118448","120649","117424","2507","NA","119449","122649","NA","118448","2504","NA","122649","124047","52250","Sternberg Task","8","9616.0","12","1024"
"69","69","803","803","#3d3846","experiment","legacy","legacy","legacy","1","undefined","1","right","12","12","12","12","0","0","12","12","0","12","0","0","12","12","0","Sun Oct 15 19:11:40 2023","The main experiment item","True","SternbergTask.osexp","C:/Users/Hannah Laskoskie/Downloads","False","mono","False","18","no","white","no","yes","768","legacy","0","11","C:/Users/Hannah Laskoskie/Downloads/subject-1.csv","legacy","2 3 8 5 6 7","Melodramatic Milgram","4.0.5","0","n","0","right","right","right","NA","right","824.0","49742","48311","NA","824","2","legacy","6","1024","2","48000","-16","experiment","1","odd","1","124049","173449","175649","117424","2507","125049","174449","177649","NA","173448","2504","173360","177649","178473","52250","Sternberg Task","9","10440.0","13","1024"
"71","71","788","788","#3d3846","experiment","legacy","legacy","legacy","1","undefined","1","left","13","13","13","13","0","0","13","13","0","13","0","0","13","13","0","Sun Oct 15 19:11:40 2023","The main experiment item","True","SternbergTask.osexp","C:/Users/Hannah Laskoskie/Downloads","False","mono","False","18","no","white","no","yes","768","legacy","1","11","C:/Users/Hannah Laskoskie/Downloads/subject-1.csv","legacy","6 7 8 5","Melodramatic Milgram","4.0.5","3","y","0","left","right","right","NA","left","605.0","49742","48311","NA","605","2","legacy","4","1024","2","48000","-16","experiment","1","odd","8","178481","179507","181707","117424","2507","125049","180507","183707","NA","179506","2504","173360","183707","184313","52250","Sternberg Task","10","11045.0","14","1024"
"73","73","772","772","#3d3846","experiment","legacy","legacy","legacy","1","undefined","1","right","14","14","14","14","0","0","14","14","0","14","0","0","14","14","0","Sun Oct 15 19:11:40 2023","The main experiment item","True","SternbergTask.osexp","C:/Users/Hannah Laskoskie/Downloads","False","mono","False","18","no","white","no","yes","768","legacy","2","11","C:/Users/Hannah Laskoskie/Downloads/subject-1.csv","legacy","2 6 4 3 9","Melodramatic Milgram","4.0.5","0","n","0","right","right","right","NA","right","542.0","49742","48311","NA","542","2","legacy","5","1024","2","48000","-16","experiment","1","odd","1","184320","185345","187545","117424","2507","125049","186345","189546","NA","185344","2504","173360","189546","190089","52250","Sternberg Task","11","11587.0","15","1024"
"75","75","754","754","#3d3846","experiment","legacy","legacy","legacy","1","undefined","1","left","15","15","15","15","0","0","15","15","0","15","0","0","15","15","0","Sun Oct 15 19:11:40 2023","The main experiment item","True","SternbergTask.osexp","C:/Users/Hannah Laskoskie/Downloads","False","mono","False","18","no","white","no","yes","768","legacy","3","11","C:/Users/Hannah Laskoskie/Downloads/subject-1.csv","legacy","9 5 8 1","Melodramatic Milgram","4.0.5","2","y","0","left","right","right","NA","left","483.0","49742","48311","NA","483","2","legacy","4","1024","2","48000","-16","experiment","1","odd","5","190097","191123","193323","117424","2507","125049","192123","195323","NA","191121","2504","173360","195323","195806","52250","Sternberg Task","12","12070.0","16","1024"
"76","76","743","743","#3d3846","experiment","legacy","legacy","legacy","1","undefined","1","right","16","16","16","16","0","0","16","16","0","16","0","0","16","16","0","Sun Oct 15 19:11:40 2023","The main experiment item","True","SternbergTask.osexp","C:/Users/Hannah Laskoskie/Downloads","False","mono","False","18","no","white","no","yes","768","legacy","4","11","C:/Users/Hannah Laskoskie/Downloads/subject-1.csv","legacy","8 2 1 4 5 9","Melodramatic Milgram","4.0.5","0","n","0","right","right","right","NA","right","577.0","49742","48311","NA","577","2","legacy","6","1024","2","48000","-16","experiment","1","odd","7","195814","196841","199041","117424","2507","125049","197841","201042","NA","196840","2504","173360","201042","201619","52250","Sternberg Task","13","12647.0","17","1024"
"77","77","733","733","#3d3846","experiment","legacy","legacy","legacy","1","undefined","1","right","17","17","17","17","0","0","17","17","0","17","0","0","17","17","0","Sun Oct 15 19:11:40 2023","The main experiment item","True","SternbergTask.osexp","C:/Users/Hannah Laskoskie/Downloads","False","mono","False","18","no","white","no","yes","768","legacy","5","11","C:/Users/Hannah Laskoskie/Downloads/subject-1.csv","legacy","4 8 1 2","Melodramatic Milgram","4.0.5","0","n","0","right","right","right","NA","right","549.0","49742","48311","NA","549","2","legacy","4","1024","2","48000","-16","experiment","1","odd","7","201621","202645","204846","117424","2507","125049","203646","206846","NA","202644","2504","173360","206846","207395","52250","Sternberg Task","14","13196.0","18","1024"
"78","78","726","726","#3d3846","experiment","legacy","legacy","legacy","1","undefined","1","right","18","18","18","18","0","0","18","18","0","18","0","0","18","18","0","Sun Oct 15 19:11:40 2023","The main experiment item","True","SternbergTask.osexp","C:/Users/Hannah Laskoskie/Downloads","False","mono","False","18","no","white","no","yes","768","legacy","6","11","C:/Users/Hannah Laskoskie/Downloads/subject-1.csv","legacy","1 4 9 2 5","Melodramatic Milgram","4.0.5","0","n","0","right","right","right","NA","right","605.0","49742","48311","NA","605","2","legacy","5","1024","2","48000","-16","experiment","1","odd","7","207403","208428","210629","117424","2507","125049","209428","212630","NA","208427","2504","173360","212630","213236","52250","Sternberg Task","15","13801.0","19","1024"
"75","75","735","735","#3d3846","experiment","legacy","legacy","legacy","0","undefined","0","left","19","19","19","19","0","0","19","19","0","19","0","0","19","19","0","Sun Oct 15 19:11:40 2023","The main experiment item","True","SternbergTask.osexp","C:/Users/Hannah Laskoskie/Downloads","False","mono","False","18","no","white","no","yes","768","legacy","7","11","C:/Users/Hannah Laskoskie/Downloads/subject-1.csv","legacy","9 3 8 2 1 4","Melodramatic Milgram","4.0.5","3","y","0","right","right","right","NA","right","901.0","49742","48311","NA","901","2","legacy","6","1024","2","48000","-16","experiment","1","odd","8","213238","214263","216464","117424","2507","125049","215263","218464","NA","214262","2504","173360","218464","219366","52250","Sternberg Task","15","14702.0","20","1024"
"76","76","744","744","#3d3846","experiment","legacy","legacy","legacy","1","undefined","1","left","20","20","20","20","0","0","20","20","0","20","0","0","20","20","0","Sun Oct 15 19:11:40 2023","The main experiment item","True","SternbergTask.osexp","C:/Users/Hannah Laskoskie/Downloads","False","mono","False","18","no","white","no","yes","768","legacy","8","11","C:/Users/Hannah Laskoskie/Downloads/subject-1.csv","legacy","9 8 4","Melodramatic Milgram","4.0.5","1","y","0","left","right","right","NA","left","929.0","49742","48311","NA","929","2","legacy","3","1024","2","48000","-16","experiment","1","odd","9","213238","220393","222593","219368","2507","125049","221393","224593","NA","220392","2504","173360","224593","225523","52250","Sternberg Task","16","15631.0","21","1024"
"77","77","737","737","#3d3846","experiment","legacy","legacy","legacy","1","undefined","1","right","21","21","21","21","0","0","21","21","0","21","0","0","21","21","0","Sun Oct 15 19:11:40 2023","The main experiment item","True","SternbergTask.osexp","C:/Users/Hannah Laskoskie/Downloads","False","mono","False","18","no","white","no","yes","768","legacy","9","11","C:/Users/Hannah Laskoskie/Downloads/subject-1.csv","legacy","3 9 1","Melodramatic Milgram","4.0.5","0","n","0","right","right","right","NA","right","586.0","49742","48311","NA","586","2","legacy","3","1024","2","48000","-16","experiment","1","odd","7","225531","226556","228756","219368","2507","125049","227556","230756","NA","226555","2504","173360","230756","231343","52250","Sternberg Task","17","16217.0","22","1024"
"78","78","740","740","#3d3846","experiment","legacy","legacy","legacy","1","undefined","1","right","22","22","22","22","0","0","22","22","0","22","0","0","22","22","0","Sun Oct 15 19:11:40 2023","The main experiment item","True","SternbergTask.osexp","C:/Users/Hannah Laskoskie/Downloads","False","mono","False","18","no","white","no","yes","768","legacy","10","11","C:/Users/Hannah Laskoskie/Downloads/subject-1.csv","legacy","6 9 7 3 8 2","Melodramatic Milgram","4.0.5","0","n","0","right","right","right","NA","right","812.0","49742","48311","NA","812","2","legacy","6","1024","2","48000","-16","experiment","1","odd","5","231346","232374","234574","219368","2507","125049","233374","236574","NA","232373","2504","173360","236574","237386","52250","Sternberg Task","18","17029.0","23","1024"
"79","79","729","729","#3d3846","experiment","legacy","legacy","legacy","1","undefined","1","left","23","23","23","23","0","0","23","23","0","23","0","0","23","23","0","Sun Oct 15 19:11:40 2023","The main experiment item","True","SternbergTask.osexp","C:/Users/Hannah Laskoskie/Downloads","False","mono","False","18","no","white","no","yes","768","legacy","11","11","C:/Users/Hannah Laskoskie/Downloads/subject-1.csv","legacy","8 9 6 1","Melodramatic Milgram","4.0.5","2","y","0","left","right","right","NA","left","487.0","49742","48311","NA","487","2","legacy","4","1024","2","48000","-16","experiment","1","odd","9","237394","238426","240627","219368","2507","125049","239427","242627","NA","238425","2504","173360","242627","243115","52250","Sternberg Task","19","17516.0","24","1024"
"80","80","734","734","#3d3846","experiment","legacy","legacy","legacy","1","undefined","1","left","24","24","24","24","0","0","24","24","0","24","0","0","24","24","0","Sun Oct 15 19:11:40 2023","The main experiment item","True","SternbergTask.osexp","C:/Users/Hannah Laskoskie/Downloads","False","mono","False","18","no","white","no","yes","768","legacy","12","11","C:/Users/Hannah Laskoskie/Downloads/subject-1.csv","legacy","3 2 1 4 7","Melodramatic Milgram","4.0.5","2","y","0","left","right","right","NA","left","848.0","49742","48311","NA","848","2","legacy","5","1024","2","48000","-16","experiment","1","odd","2","243117","244142","246342","219368","2507","125049","245142","248342","NA","244141","2504","173360","248342","249191","52250","Sternberg Task","20","18364.0","25","1024"
"80","80","722","722","#3d3846","experiment","legacy","legacy","legacy","1","undefined","1","right","25","25","25","25","0","0","25","25","0","25","0","0","25","25","0","Sun Oct 15 19:11:40 2023","The main experiment item","True","SternbergTask.osexp","C:/Users/Hannah Laskoskie/Downloads","False","mono","False","18","no","white","no","yes","768","legacy","13","11","C:/Users/Hannah Laskoskie/Downloads/subject-1.csv","legacy","9","Melodramatic Milgram","4.0.5","0","n","0","right","right","right","NA","right","428.0","49742","48311","NA","428","2","legacy","1","1024","2","48000","-16","experiment","1","odd","6","249198","250222","252422","219368","2507","125049","251222","254422","NA","250221","2504","173360","254422","254851","52250","Sternberg Task","21","18792.0","26","1024"
"81","81","732","732","#3d3846","experiment","legacy","legacy","legacy","1","undefined","1","right","26","26","26","26","0","0","26","26","0","26","0","0","26","26","0","Sun Oct 15 19:11:40 2023","The main experiment item","True","SternbergTask.osexp","C:/Users/Hannah Laskoskie/Downloads","False","mono","False","18","no","white","no","yes","768","legacy","14","11","C:/Users/Hannah Laskoskie/Downloads/subject-1.csv","legacy","1 7 5 2 9","Melodramatic Milgram","4.0.5","0","n","0","right","right","right","NA","right","981.0","49742","48311","NA","981","2","legacy","5","1024","2","48000","-16","experiment","1","odd","3","254853","255878","258078","219368","2507","125049","256878","260078","NA","255877","2504","173360","260078","261059","52250","Sternberg Task","22","19773.0","27","1024"
"82","82","735","735","#3d3846","experiment","legacy","legacy","legacy","1","undefined","1","right","27","27","27","27","0","0","27","27","0","27","0","0","27","27","0","Sun Oct 15 19:11:40 2023","The main experiment item","True","SternbergTask.osexp","C:/Users/Hannah Laskoskie/Downloads","False","mono","False","18","no","white","no","yes","768","legacy","15","11","C:/Users/Hannah Laskoskie/Downloads/subject-1.csv","legacy","6 8 4","Melodramatic Milgram","4.0.5","0","n","0","right","right","right","NA","right","822.0","49742","48311","NA","822","2","legacy","3","1024","2","48000","-16","experiment","1","odd","1","261067","262092","264292","219368","2507","125049","263092","266292","NA","262091","2504","173360","266292","267115","52250","Sternberg Task","23","20595.0","28","1024"
"82","82","733","733","#3d3846","experiment","legacy","legacy","legacy","1","undefined","1","left","28","28","28","28","0","0","28","28","0","28","0","0","28","28","0","Sun Oct 15 19:11:40 2023","The main experiment item","True","SternbergTask.osexp","C:/Users/Hannah Laskoskie/Downloads","False","mono","False","18","no","white","no","yes","768","legacy","16","11","C:/Users/Hannah Laskoskie/Downloads/subject-1.csv","legacy","9 3 1 2 5","Melodramatic Milgram","4.0.5","4","y","0","left","right","right","NA","left","678.0","49742","48311","NA","678","2","legacy","5","1024","2","48000","-16","experiment","1","odd","2","267123","268148","270348","219368","2507","125049","269148","272348","NA","268147","2504","173360","272348","273027","52250","Sternberg Task","24","21273.0","29","1024"
"83","83","740","740","#3d3846","experiment","legacy","legacy","legacy","1","undefined","1","right","29","29","29","29","0","0","29","29","0","29","0","0","29","29","0","Sun Oct 15 19:11:40 2023","The main experiment item","True","SternbergTask.osexp","C:/Users/Hannah Laskoskie/Downloads","False","mono","False","18","no","white","no","yes","768","legacy","17","11","C:/Users/Hannah Laskoskie/Downloads/subject-1.csv","legacy","1 4 9 3","Melodramatic Milgram","4.0.5","0","n","0","right","right","right","NA","right","930.0","49742","48311","NA","930","2","legacy","4","1024","2","48000","-16","experiment","1","odd","5","273029","274054","276255","219368","2507","125049","275055","278255","NA","274053","2504","173360","278255","279186","52250","Sternberg Task","25","22203.0","30","1024"
"80","80","729","729","#3d3846","experiment","legacy","legacy","legacy","0","undefined","0","left","30","30","30","30","0","0","30","30","0","30","0","0","30","30","0","Sun Oct 15 19:11:40 2023","The main experiment item","True","SternbergTask.osexp","C:/Users/Hannah Laskoskie/Downloads","False","mono","False","18","no","white","no","yes","768","legacy","18","11","C:/Users/Hannah Laskoskie/Downloads/subject-1.csv","legacy","2 6 1 7 4","Melodramatic Milgram","4.0.5","2","y","0","right","right","right","NA","right","426.0","49742","48311","NA","426","2","legacy","5","1024","2","48000","-16","experiment","1","odd","6","279194","280220","282420","219368","2507","125049","281220","284420","NA","280219","2504","173360","284420","284846","52250","Sternberg Task","25","22629.0","31","1024"
"81","81","723","723","#3d3846","experiment","legacy","legacy","legacy","1","undefined","1","right","31","31","31","31","0","0","31","31","0","31","0","0","31","31","0","Sun Oct 15 19:11:40 2023","The main experiment item","True","SternbergTask.osexp","C:/Users/Hannah Laskoskie/Downloads","False","mono","False","18","no","white","no","yes","768","legacy","19","11","C:/Users/Hannah Laskoskie/Downloads/subject-1.csv","legacy","1 7 5 2","Melodramatic Milgram","4.0.5","0","n","0","right","right","right","NA","right","522.0","49742","48311","NA","522","2","legacy","4","1024","2","48000","-16","experiment","1","odd","3","279194","285884","288084","284854","2507","125049","286884","290084","NA","285883","2504","173360","290084","290606","52250","Sternberg Task","26","23151.0","32","1024"
"81","81","719","719","#3d3846","experiment","legacy","legacy","legacy","1","undefined","1","left","32","32","32","32","0","0","32","32","0","32","0","0","32","32","0","Sun Oct 15 19:11:40 2023","The main experiment item","True","SternbergTask.osexp","C:/Users/Hannah Laskoskie/Downloads","False","mono","False","18","no","white","no","yes","768","legacy","20","11","C:/Users/Hannah Laskoskie/Downloads/subject-1.csv","legacy","2 4 8 5 1 3","Melodramatic Milgram","4.0.5","1","y","0","left","right","right","NA","left","602.0","49742","48311","NA","602","2","legacy","6","1024","2","48000","-16","experiment","1","odd","2","290608","291632","293832","284854","2507","125049","292632","295832","NA","291631","2504","173360","295832","296435","52250","Sternberg Task","27","23753.0","33","1024"
"82","82","716","716","#3d3846","experiment","legacy","legacy","legacy","1","undefined","1","right","33","33","33","33","0","0","33","33","0","33","0","0","33","33","0","Sun Oct 15 19:11:40 2023","The main experiment item","True","SternbergTask.osexp","C:/Users/Hannah Laskoskie/Downloads","False","mono","False","18","no","white","no","yes","768","legacy","21","11","C:/Users/Hannah Laskoskie/Downloads/subject-1.csv","legacy","2 8 7 9 5 3","Melodramatic Milgram","4.0.5","0","n","0","right","right","right","NA","right","617.0","49742","48311","NA","617","2","legacy","6","1024","2","48000","-16","experiment","1","odd","6","296437","297462","299663","284854","2507","125049","298462","301663","NA","297461","2504","173360","301663","302281","52250","Sternberg Task","28","24370.0","34","1024"
"82","82","713","713","#3d3846","experiment","legacy","legacy","legacy","1","undefined","1","left","34","34","34","34","0","0","34","34","0","34","0","0","34","34","0","Sun Oct 15 19:11:40 2023","The main experiment item","True","SternbergTask.osexp","C:/Users/Hannah Laskoskie/Downloads","False","mono","False","18","no","white","no","yes","768","legacy","22","11","C:/Users/Hannah Laskoskie/Downloads/subject-1.csv","legacy","6 5","Melodramatic Milgram","4.0.5","2","y","0","left","right","right","NA","left","609.0","49742","48311","NA","609","2","legacy","2","1024","2","48000","-16","experiment","1","odd","5","302288","303313","305513","284854","2507","125049","304313","307513","NA","303312","2504","173360","307514","308124","52250","Sternberg Task","29","24979.0","35","1024"
"83","83","710","710","#3d3846","experiment","legacy","legacy","legacy","1","undefined","1","right","35","35","35","35","0","0","35","35","0","35","0","0","35","35","0","Sun Oct 15 19:11:40 2023","The main experiment item","True","SternbergTask.osexp","C:/Users/Hannah Laskoskie/Downloads","False","mono","False","18","no","white","no","yes","768","legacy","23","11","C:/Users/Hannah Laskoskie/Downloads/subject-1.csv","legacy","6 9 4 5 2","Melodramatic Milgram","4.0.5","0","n","0","right","right","right","NA","right","615.0","49742","48311","NA","615","2","legacy","5","1024","2","48000","-16","experiment","1","odd","1","308126","309150","311351","284854","2507","125049","310151","313351","NA","309149","2504","173360","313351","313966","52250","Sternberg Task","30","25594.0","36","1024"
"83","83","712","712","#3d3846","experiment","legacy","legacy","legacy","1","undefined","1","right","36","36","36","36","0","0","36","36","0","36","0","0","36","36","0","Sun Oct 15 19:11:40 2023","The main experiment item","True","SternbergTask.osexp","C:/Users/Hannah Laskoskie/Downloads","False","mono","False","18","no","white","no","yes","768","legacy","24","11","C:/Users/Hannah Laskoskie/Downloads/subject-1.csv","legacy","9 8 2 7 4","Melodramatic Milgram","4.0.5","0","n","0","right","right","right","NA","right","775.0","49742","48311","NA","775","2","legacy","5","1024","2","48000","-16","experiment","1","odd","5","313968","314994","317194","284854","2507","125049","315994","319194","NA","314993","2504","173360","319194","319970","52250","Sternberg Task","31","26369.0","37","1024"
"84","84","718","718","#3d3846","experiment","legacy","legacy","legacy","1","undefined","1","right","37","37","37","37","0","0","37","37","0","37","0","0","37","37","0","Sun Oct 15 19:11:40 2023","The main experiment item","True","SternbergTask.osexp","C:/Users/Hannah Laskoskie/Downloads","False","mono","False","18","no","white","no","yes","768","legacy","25","11","C:/Users/Hannah Laskoskie/Downloads/subject-1.csv","legacy","8 9","Melodramatic Milgram","4.0.5","0","n","0","right","right","right","NA","right","948.0","49742","48311","NA","948","2","legacy","2","1024","2","48000","-16","experiment","1","odd","5","319972","320999","323199","284854","2507","125049","321999","325199","NA","320998","2504","173360","325199","326147","52250","Sternberg Task","32","27317.0","38","1024"
"84","84","718","718","#3d3846","experiment","legacy","legacy","legacy","1","undefined","1","right","38","38","38","38","0","0","38","38","0","38","0","0","38","38","0","Sun Oct 15 19:11:40 2023","The main experiment item","True","SternbergTask.osexp","C:/Users/Hannah Laskoskie/Downloads","False","mono","False","18","no","white","no","yes","768","legacy","26","11","C:/Users/Hannah Laskoskie/Downloads/subject-1.csv","legacy","7 9 1 6","Melodramatic Milgram","4.0.5","0","n","0","right","right","right","NA","right","717.0","49742","48311","NA","717","2","legacy","4","1024","2","48000","-16","experiment","1","odd","4","326149","327183","329383","284854","2507","125049","328183","331383","NA","327182","2504","173360","331384","332101","52250","Sternberg Task","33","28034.0","39","1024"
"85","85","713","713","#3d3846","experiment","legacy","legacy","legacy","1","undefined","1","right","39","39","39","39","0","0","39","39","0","39","0","0","39","39","0","Sun Oct 15 19:11:40 2023","The main experiment item","True","SternbergTask.osexp","C:/Users/Hannah Laskoskie/Downloads","False","mono","False","18","no","white","no","yes","768","legacy","27","11","C:/Users/Hannah Laskoskie/Downloads/subject-1.csv","legacy","4 1","Melodramatic Milgram","4.0.5","0","n","0","right","right","right","NA","right","494.0","49742","48311","NA","494","2","legacy","2","1024","2","48000","-16","experiment","1","odd","6","332109","333134","335334","284854","2507","125049","334134","337334","NA","333133","2504","173360","337334","337828","52250","Sternberg Task","34","28528.0","40","1024"
"82","82","720","720","#3d3846","experiment","legacy","legacy","legacy","0","undefined","0","left","40","40","40","40","0","0","40","40","0","40","0","0","40","40","0","Sun Oct 15 19:11:40 2023","The main experiment item","True","SternbergTask.osexp","C:/Users/Hannah Laskoskie/Downloads","False","mono","False","18","no","white","no","yes","768","legacy","28","11","C:/Users/Hannah Laskoskie/Downloads/subject-1.csv","legacy","5 7 8 2 3 8","Melodramatic Milgram","4.0.5","5","y","0","right","right","right","NA","right","1006.0","49742","48311","NA","1006","2","legacy","6","1024","2","48000","-16","experiment","1","odd","3","337830","338855","341055","284854","2507","125049","339855","343055","NA","338854","2504","173360","343055","344061","52250","Sternberg Task","34","29534.0","41","1024"
"83","83","723","723","#3d3846","experiment","legacy","legacy","legacy","1","undefined","1","left","41","41","41","41","0","0","41","41","0","41","0","0","41","41","0","Sun Oct 15 19:11:40 2023","The main experiment item","True","SternbergTask.osexp","C:/Users/Hannah Laskoskie/Downloads","False","mono","False","18","no","white","no","yes","768","legacy","29","11","C:/Users/Hannah Laskoskie/Downloads/subject-1.csv","legacy","2 8 5 1","Melodramatic Milgram","4.0.5","4","y","0","left","right","right","NA","left","852.0","49742","48311","NA","852","2","legacy","4","1024","2","48000","-16","experiment","1","odd","1","337830","345094","347294","344069","2507","125049","346094","349294","NA","345093","2504","173360","349295","350148","52250","Sternberg Task","35","30386.0","42","1024"
"83","83","723","723","#3d3846","experiment","legacy","legacy","legacy","1","undefined","1","left","42","42","42","42","0","0","42","42","0","42","0","0","42","42","0","Sun Oct 15 19:11:40 2023","The main experiment item","True","SternbergTask.osexp","C:/Users/Hannah Laskoskie/Downloads","False","mono","False","18","no","white","no","yes","768","legacy","30","11","C:/Users/Hannah Laskoskie/Downloads/subject-1.csv","legacy","9 5 3 8 4","Melodramatic Milgram","4.0.5","1","y","0","left","right","right","NA","left","722.0","49742","48311","NA","722","2","legacy","5","1024","2","48000","-16","experiment","1","odd","9","350155","351180","353380","344069","2507","125049","352180","355380","NA","351179","2504","173360","355380","356103","52250","Sternberg Task","36","31108.0","43","1024"
"84","84","717","717","#3d3846","experiment","legacy","legacy","legacy","1","undefined","1","right","43","43","43","43","0","0","43","43","0","43","0","0","43","43","0","Sun Oct 15 19:11:40 2023","The main experiment item","True","SternbergTask.osexp","C:/Users/Hannah Laskoskie/Downloads","False","mono","False","18","no","white","no","yes","768","legacy","31","11","C:/Users/Hannah Laskoskie/Downloads/subject-1.csv","legacy","5 2","Melodramatic Milgram","4.0.5","0","n","0","right","right","right","NA","right","466.0","49742","48311","NA","466","2","legacy","2","1024","2","48000","-16","experiment","1","odd","7","356111","357136","359336","344069","2507","125049","358136","361336","NA","357135","2504","173360","361336","361803","52250","Sternberg Task","37","31574.0","44","1024"
"84","84","717","717","#3d3846","experiment","legacy","legacy","legacy","1","undefined","1","right","44","44","44","44","0","0","44","44","0","44","0","0","44","44","0","Sun Oct 15 19:11:40 2023","The main experiment item","True","SternbergTask.osexp","C:/Users/Hannah Laskoskie/Downloads","False","mono","False","18","no","white","no","yes","768","legacy","32","11","C:/Users/Hannah Laskoskie/Downloads/subject-1.csv","legacy","6 9 5","Melodramatic Milgram","4.0.5","0","n","0","right","right","right","NA","right","735.0","49742","48311","NA","735","2","legacy","3","1024","2","48000","-16","experiment","1","odd","8","361811","362838","365038","344069","2507","125049","363838","367038","NA","362837","2504","173360","367038","367774","52250","Sternberg Task","38","32309.0","45","1024"
"84","84","715","715","#3d3846","experiment","legacy","legacy","legacy","1","undefined","1","right","45","45","45","45","0","0","45","45","0","45","0","0","45","45","0","Sun Oct 15 19:11:40 2023","The main experiment item","True","SternbergTask.osexp","C:/Users/Hannah Laskoskie/Downloads","False","mono","False","18","no","white","no","yes","768","legacy","33","11","C:/Users/Hannah Laskoskie/Downloads/subject-1.csv","legacy","2 8 9","Melodramatic Milgram","4.0.5","0","n","0","right","right","right","NA","right","605.0","49742","48311","NA","605","2","legacy","3","1024","2","48000","-16","experiment","1","odd","6","367782","368809","371009","344069","2507","125049","369809","373009","NA","368808","2504","173360","373009","373615","52250","Sternberg Task","39","32914.0","46","1024"
"85","85","715","715","#3d3846","experiment","legacy","legacy","legacy","1","undefined","1","right","46","46","46","46","0","0","46","46","0","46","0","0","46","46","0","Sun Oct 15 19:11:40 2023","The main experiment item","True","SternbergTask.osexp","C:/Users/Hannah Laskoskie/Downloads","False","mono","False","18","no","white","no","yes","768","legacy","34","11","C:/Users/Hannah Laskoskie/Downloads/subject-1.csv","legacy","6 3 1 7 9 8","Melodramatic Milgram","4.0.5","0","n","0","right","right","right","NA","right","720.0","49742","48311","NA","720","2","legacy","6","1024","2","48000","-16","experiment","1","odd","4","373622","374652","376852","344069","2507","125049","375652","378852","NA","374651","2504","173360","378852","379573","52250","Sternberg Task","40","33634.0","47","1024"
"85","85","711","711","#3d3846","experiment","legacy","legacy","legacy","1","undefined","1","left","47","47","47","47","0","0","47","47","0","47","0","0","47","47","0","Sun Oct 15 19:11:40 2023","The main experiment item","True","SternbergTask.osexp","C:/Users/Hannah Laskoskie/Downloads","False","mono","False","18","no","white","no","yes","768","legacy","35","11","C:/Users/Hannah Laskoskie/Downloads/subject-1.csv","legacy","7 8 4 6 9 5","Melodramatic Milgram","4.0.5","4","y","0","left","right","right","NA","left","494.0","49742","48311","NA","494","2","legacy","6","1024","2","48000","-16","experiment","1","odd","6","379581","380606","382806","344069","2507","125049","381606","384806","NA","380605","2504","173360","384806","385300","52250","Sternberg Task","41","34128.0","48","1024"
"85","85","708","708","#3d3846","experiment","legacy","legacy","legacy","1","undefined","1","right","48","48","48","48","0","0","48","48","0","48","0","0","48","48","0","Sun Oct 15 19:11:40 2023","The main experiment item","True","SternbergTask.osexp","C:/Users/Hannah Laskoskie/Downloads","False","mono","False","18","no","white","no","yes","768","legacy","36","11","C:/Users/Hannah Laskoskie/Downloads/subject-1.csv","legacy","7 1 5 6 3","Melodramatic Milgram","4.0.5","0","n","0","right","right","right","NA","right","611.0","49742","48311","NA","611","2","legacy","5","1024","2","48000","-16","experiment","1","odd","8","385308","386333","388533","344069","2507","125049","387333","390533","NA","386332","2504","173360","390534","391145","52250","Sternberg Task","42","34739.0","49","1024"
"86","86","707","707","#3d3846","experiment","legacy","legacy","legacy","1","undefined","1","left","49","49","49","49","0","0","49","49","0","49","0","0","49","49","0","Sun Oct 15 19:11:40 2023","The main experiment item","True","SternbergTask.osexp","C:/Users/Hannah Laskoskie/Downloads","False","mono","False","18","no","white","no","yes","768","legacy","37","11","C:/Users/Hannah Laskoskie/Downloads/subject-1.csv","legacy","6 8 9 3 4 9","Melodramatic Milgram","4.0.5","5","y","0","left","right","right","NA","left","634.0","49742","48311","NA","634","2","legacy","6","1024","2","48000","-16","experiment","1","odd","4","391153","392180","394380","344069","2507","125049","393180","396380","NA","392179","2504","173360","396380","397015","52250","Sternberg Task","43","35373.0","50","1024"
"86","86","702","702","#3d3846","experiment","legacy","legacy","legacy","1","undefined","1","right","50","50","50","50","0","0","50","50","0","50","0","0","50","50","0","Sun Oct 15 19:11:40 2023","The main experiment item","True","SternbergTask.osexp","C:/Users/Hannah Laskoskie/Downloads","False","mono","False","18","no","white","no","yes","768","legacy","38","11","C:/Users/Hannah Laskoskie/Downloads/subject-1.csv","legacy","7 9","Melodramatic Milgram","4.0.5","0","n","0","right","right","right","NA","right","454.0","49742","48311","NA","454","2","legacy","2","1024","2","48000","-16","experiment","1","odd","1","397017","398045","400245","344069","2507","125049","399045","402245","NA","398043","2504","173360","402245","402699","52250","Sternberg Task","44","35827.0","51","1024"
"86","86","701","701","#3d3846","experiment","legacy","legacy","legacy","1","undefined","1","right","51","51","51","51","0","0","51","51","0","51","0","0","51","51","0","Sun Oct 15 19:11:40 2023","The main experiment item","True","SternbergTask.osexp","C:/Users/Hannah Laskoskie/Downloads","False","mono","False","18","no","white","no","yes","768","legacy","39","11","C:/Users/Hannah Laskoskie/Downloads/subject-1.csv","legacy","4 2 7 6 1 3","Melodramatic Milgram","4.0.5","0","n","0","right","right","right","NA","right","641.0","49742","48311","NA","641","2","legacy","6","1024","2","48000","-16","experiment","1","odd","8","402701","403730","405930","344069","2507","125049","404730","407930","NA","403729","2504","173360","407930","408572","52250","Sternberg Task","45","36468.0","52","1024"
"86","86","697","697","#3d3846","experiment","legacy","legacy","legacy","1","undefined","1","left","52","52","52","52","0","0","52","52","0","52","0","0","52","52","0","Sun Oct 15 19:11:40 2023","The main experiment item","True","SternbergTask.osexp","C:/Users/Hannah Laskoskie/Downloads","False","mono","False","18","no","white","no","yes","768","legacy","40","11","C:/Users/Hannah Laskoskie/Downloads/subject-1.csv","legacy","8 3","Melodramatic Milgram","4.0.5","2","y","0","left","right","right","NA","left","515.0","49742","48311","NA","515","2","legacy","2","1024","2","48000","-16","experiment","1","odd","3","408579","409605","411805","344069","2507","125049","410605","413805","NA","409604","2504","173360","413805","414320","52250","Sternberg Task","46","36983.0","53","1024"
"87","87","695","695","#3d3846","experiment","legacy","legacy","legacy","1","undefined","1","left","53","53","53","53","0","0","53","53","0","53","0","0","53","53","0","Sun Oct 15 19:11:40 2023","The main experiment item","True","SternbergTask.osexp","C:/Users/Hannah Laskoskie/Downloads","False","mono","False","18","no","white","no","yes","768","legacy","41","11","C:/Users/Hannah Laskoskie/Downloads/subject-1.csv","legacy","6 1 2","Melodramatic Milgram","4.0.5","3","y","0","left","right","right","NA","left","578.0","49742","48311","NA","578","2","legacy","3","1024","2","48000","-16","experiment","1","odd","2","414328","415361","417561","344069","2507","125049","416361","419561","NA","415359","2504","173360","419561","420140","52250","Sternberg Task","47","37561.0","54","1024"
"87","87","693","693","#3d3846","experiment","legacy","legacy","legacy","1","undefined","1","right","54","54","54","54","0","0","54","54","0","54","0","0","54","54","0","Sun Oct 15 19:11:40 2023","The main experiment item","True","SternbergTask.osexp","C:/Users/Hannah Laskoskie/Downloads","False","mono","False","18","no","white","no","yes","768","legacy","42","11","C:/Users/Hannah Laskoskie/Downloads/subject-1.csv","legacy","7 8 6 1","Melodramatic Milgram","4.0.5","0","n","0","right","right","right","NA","right","556.0","49742","48311","NA","556","2","legacy","4","1024","2","48000","-16","experiment","1","odd","3","420141","421166","423367","344069","2507","125049","422167","425367","NA","421165","2504","173360","425367","425923","52250","Sternberg Task","48","38117.0","55","1024"
"87","87","694","694","#3d3846","experiment","legacy","legacy","legacy","1","undefined","1","right","55","55","55","55","0","0","55","55","0","55","0","0","55","55","0","Sun Oct 15 19:11:40 2023","The main experiment item","True","SternbergTask.osexp","C:/Users/Hannah Laskoskie/Downloads","False","mono","False","18","no","white","no","yes","768","legacy","43","11","C:/Users/Hannah Laskoskie/Downloads/subject-1.csv","legacy","5 9 2 3","Melodramatic Milgram","4.0.5","0","n","0","right","right","right","NA","right","799.0","49742","48311","NA","799","2","legacy","4","1024","2","48000","-16","experiment","1","odd","8","425931","426955","429155","344069","2507","125049","427955","431155","NA","426954","2504","173360","431155","431955","52250","Sternberg Task","49","38916.0","56","1024"
"87","87","698","698","#3d3846","experiment","legacy","legacy","legacy","1","undefined","1","right","56","56","56","56","0","0","56","56","0","56","0","0","56","56","0","Sun Oct 15 19:11:40 2023","The main experiment item","True","SternbergTask.osexp","C:/Users/Hannah Laskoskie/Downloads","False","mono","False","18","no","white","no","yes","768","legacy","44","11","C:/Users/Hannah Laskoskie/Downloads/subject-1.csv","legacy","6 9 4 5 3 2","Melodramatic Milgram","4.0.5","0","n","0","right","right","right","NA","right","918.0","49742","48311","NA","918","2","legacy","6","1024","2","48000","-16","experiment","1","odd","8","431962","432987","435187","344069","2507","125049","433987","437188","NA","432986","2504","173360","437188","438106","52250","Sternberg Task","50","39834.0","57","1024"
"87","87","695","695","#3d3846","experiment","legacy","legacy","legacy","1","undefined","1","right","57","57","57","57","0","0","57","57","0","57","0","0","57","57","0","Sun Oct 15 19:11:40 2023","The main experiment item","True","SternbergTask.osexp","C:/Users/Hannah Laskoskie/Downloads","False","mono","False","18","no","white","no","yes","768","legacy","45","11","C:/Users/Hannah Laskoskie/Downloads/subject-1.csv","legacy","6 7 5 9","Melodramatic Milgram","4.0.5","0","n","0","right","right","right","NA","right","512.0","49742","48311","NA","512","2","legacy","4","1024","2","48000","-16","experiment","1","odd","2","438108","439133","441334","344069","2507","125049","440134","443334","NA","439132","2504","173360","443334","443846","52250","Sternberg Task","51","40346.0","58","1024"
"88","88","692","692","#3d3846","experiment","legacy","legacy","legacy","1","undefined","1","left","58","58","58","58","0","0","58","58","0","58","0","0","58","58","0","Sun Oct 15 19:11:40 2023","The main experiment item","True","SternbergTask.osexp","C:/Users/Hannah Laskoskie/Downloads","False","mono","False","18","no","white","no","yes","768","legacy","46","11","C:/Users/Hannah Laskoskie/Downloads/subject-1.csv","legacy","7","Melodramatic Milgram","4.0.5","1","y","0","left","right","right","NA","left","496.0","49742","48311","NA","496","2","legacy","1","1024","2","48000","-16","experiment","1","odd","7","443854","444879","447079","344069","2507","125049","445879","449079","NA","444878","2504","173360","449080","449577","52250","Sternberg Task","52","40842.0","59","1024"
"88","88","691","691","#3d3846","experiment","legacy","legacy","legacy","1","undefined","1","left","59","59","59","59","0","0","59","59","0","59","0","0","59","59","0","Sun Oct 15 19:11:40 2023","The main experiment item","True","SternbergTask.osexp","C:/Users/Hannah Laskoskie/Downloads","False","mono","False","18","no","white","no","yes","768","legacy","47","11","C:/Users/Hannah Laskoskie/Downloads/subject-1.csv","legacy","7 1 8 5 6 2","Melodramatic Milgram","4.0.5","2","y","0","left","right","right","NA","left","663.0","49742","48311","NA","663","2","legacy","6","1024","2","48000","-16","experiment","1","odd","1","449585","450612","452813","344069","2507","125049","451612","454813","NA","450611","2504","173360","454813","455477","52250","Sternberg Task","53","41505.0","60","1024"
"88","88","690","690","#3d3846","experiment","legacy","legacy","legacy","1","undefined","1","right","60","60","60","60","0","0","60","60","0","60","0","0","60","60","0","Sun Oct 15 19:11:40 2023","The main experiment item","True","SternbergTask.osexp","C:/Users/Hannah Laskoskie/Downloads","False","mono","False","18","no","white","no","yes","768","legacy","48","11","C:/Users/Hannah Laskoskie/Downloads/subject-1.csv","legacy","3 9 8 1 6 4","Melodramatic Milgram","4.0.5","0","n","0","right","right","right","NA","right","604.0","49742","48311","NA","604","2","legacy","6","1024","2","48000","-16","experiment","1","odd","7","455479","456509","458709","344069","2507","125049","457509","460709","NA","456508","2504","173360","460709","461314","52250","Sternberg Task","54","42109.0","61","1024"
"88","88","691","691","#3d3846","experiment","legacy","legacy","legacy","1","undefined","1","left","61","61","61","61","0","0","61","61","0","61","0","0","61","61","0","Sun Oct 15 19:11:40 2023","The main experiment item","True","SternbergTask.osexp","C:/Users/Hannah Laskoskie/Downloads","False","mono","False","18","no","white","no","yes","768","legacy","49","11","C:/Users/Hannah Laskoskie/Downloads/subject-1.csv","legacy","2 4 6 9","Melodramatic Milgram","4.0.5","3","y","0","left","right","right","NA","left","771.0","49742","48311","NA","771","2","legacy","4","1024","2","48000","-16","experiment","1","odd","6","461322","462354","464554","344069","2507","125049","463354","466554","NA","462353","2504","173360","466554","467327","52250","Sternberg Task","55","42880.0","62","1024"
"88","88","691","691","#3d3846","experiment","legacy","legacy","legacy","1","undefined","1","right","62","62","62","62","0","0","62","62","0","62","0","0","62","62","0","Sun Oct 15 19:11:40 2023","The main experiment item","True","SternbergTask.osexp","C:/Users/Hannah Laskoskie/Downloads","False","mono","False","18","no","white","no","yes","768","legacy","50","11","C:/Users/Hannah Laskoskie/Downloads/subject-1.csv","legacy","7 1 8 4 9 3","Melodramatic Milgram","4.0.5","0","n","0","right","right","right","NA","right","684.0","49742","48311","NA","684","2","legacy","6","1024","2","48000","-16","experiment","1","odd","6","467334","468359","470560","344069","2507","125049","469360","472560","NA","468358","2504","173360","472560","473244","52250","Sternberg Task","56","43564.0","63","1024"
"89","89","689","689","#3d3846","experiment","legacy","legacy","legacy","1","undefined","1","left","63","63","63","63","0","0","63","63","0","63","0","0","63","63","0","Sun Oct 15 19:11:40 2023","The main experiment item","True","SternbergTask.osexp","C:/Users/Hannah Laskoskie/Downloads","False","mono","False","18","no","white","no","yes","768","legacy","51","11","C:/Users/Hannah Laskoskie/Downloads/subject-1.csv","legacy","9 6 2 4 1","Melodramatic Milgram","4.0.5","4","y","0","left","right","right","NA","left","570.0","49742","48311","NA","570","2","legacy","5","1024","2","48000","-16","experiment","1","odd","4","473252","474277","476477","344069","2507","125049","475277","478478","NA","474276","2504","173360","478478","479049","52250","Sternberg Task","57","44134.0","64","1024"
"89","89","689","689","#3d3846","experiment","legacy","legacy","legacy","1","undefined","1","right","64","64","64","64","0","0","64","64","0","64","0","0","64","64","0","Sun Oct 15 19:11:40 2023","The main experiment item","True","SternbergTask.osexp","C:/Users/Hannah Laskoskie/Downloads","False","mono","False","18","no","white","no","yes","768","legacy","52","11","C:/Users/Hannah Laskoskie/Downloads/subject-1.csv","legacy","1 6 4 3 9 7","Melodramatic Milgram","4.0.5","0","n","0","right","right","right","NA","right","651.0","49742","48311","NA","651","2","legacy","6","1024","2","48000","-16","experiment","1","odd","8","479057","480081","482283","344069","2507","125049","481083","484283","NA","480081","2504","173360","484283","484935","52250","Sternberg Task","58","44785.0","65","1024"
"89","89","690","690","#3d3846","experiment","legacy","legacy","legacy","1","undefined","1","left","65","65","65","65","0","0","65","65","0","65","0","0","65","65","0","Sun Oct 15 19:11:40 2023","The main experiment item","True","SternbergTask.osexp","C:/Users/Hannah Laskoskie/Downloads","False","mono","False","18","no","white","no","yes","768","legacy","53","11","C:/Users/Hannah Laskoskie/Downloads/subject-1.csv","legacy","3 4 9 6 2 9","Melodramatic Milgram","4.0.5","5","y","0","left","right","right","NA","left","777.0","49742","48311","NA","777","2","legacy","6","1024","2","48000","-16","experiment","1","odd","2","484942","485968","488169","344069","2507","125049","486968","490169","NA","485967","2504","173360","490169","490947","52250","Sternberg Task","59","45562.0","66","1024"
"89","89","686","686","#3d3846","experiment","legacy","legacy","legacy","1","undefined","1","left","66","66","66","66","0","0","66","66","0","66","0","0","66","66","0","Sun Oct 15 19:11:40 2023","The main experiment item","True","SternbergTask.osexp","C:/Users/Hannah Laskoskie/Downloads","False","mono","False","18","no","white","no","yes","768","legacy","54","11","C:/Users/Hannah Laskoskie/Downloads/subject-1.csv","legacy","6 2","Melodramatic Milgram","4.0.5","1","y","0","left","right","right","NA","left","446.0","49742","48311","NA","446","2","legacy","2","1024","2","48000","-16","experiment","1","odd","6","490955","491981","494182","344069","2507","125049","492982","496182","NA","491980","2504","173360","496182","496629","52250","Sternberg Task","60","46008.0","67","1024"
"89","89","683","683","#3d3846","experiment","legacy","legacy","legacy","1","undefined","1","left","67","67","67","67","0","0","67","67","0","67","0","0","67","67","0","Sun Oct 15 19:11:40 2023","The main experiment item","True","SternbergTask.osexp","C:/Users/Hannah Laskoskie/Downloads","False","mono","False","18","no","white","no","yes","768","legacy","55","11","C:/Users/Hannah Laskoskie/Downloads/subject-1.csv","legacy","4","Melodramatic Milgram","4.0.5","1","y","0","left","right","right","NA","left","469.0","49742","48311","NA","469","2","legacy","1","1024","2","48000","-16","experiment","1","odd","4","496637","497663","499863","344069","2507","125049","498663","501863","NA","497662","2504","173360","501863","502332","52250","Sternberg Task","61","46477.0","68","1024"
"89","89","683","683","#3d3846","experiment","legacy","legacy","legacy","1","undefined","1","left","68","68","68","68","0","0","68","68","0","68","0","0","68","68","0","Sun Oct 15 19:11:40 2023","The main experiment item","True","SternbergTask.osexp","C:/Users/Hannah Laskoskie/Downloads","False","mono","False","18","no","white","no","yes","768","legacy","56","11","C:/Users/Hannah Laskoskie/Downloads/subject-1.csv","legacy","7 8 6 3 1","Melodramatic Milgram","4.0.5","5","y","0","left","right","right","NA","left","666.0","49742","48311","NA","666","2","legacy","5","1024","2","48000","-16","experiment","1","odd","1","502334","503368","505568","344069","2507","125049","504368","507568","NA","503367","2504","173360","507568","508235","52250","Sternberg Task","62","47143.0","69","1024"
"90","90","680","680","#3d3846","experiment","legacy","legacy","legacy","1","undefined","1","right","69","69","69","69","0","0","69","69","0","69","0","0","69","69","0","Sun Oct 15 19:11:40 2023","The main experiment item","True","SternbergTask.osexp","C:/Users/Hannah Laskoskie/Downloads","False","mono","False","18","no","white","no","yes","768","legacy","57","11","C:/Users/Hannah Laskoskie/Downloads/subject-1.csv","legacy","3 4 2","Melodramatic Milgram","4.0.5","0","n","0","right","right","right","NA","right","503.0","49742","48311","NA","503","2","legacy","3","1024","2","48000","-16","experiment","1","odd","5","508242","509267","511467","344069","2507","125049","510267","513468","NA","509266","2504","173360","513468","513971","52250","Sternberg Task","63","47646.0","70","1024"
"90","90","679","679","#3d3846","experiment","legacy","legacy","legacy","1","undefined","1","left","70","70","70","70","0","0","70","70","0","70","0","0","70","70","0","Sun Oct 15 19:11:40 2023","The main experiment item","True","SternbergTask.osexp","C:/Users/Hannah Laskoskie/Downloads","False","mono","False","18","no","white","no","yes","768","legacy","58","11","C:/Users/Hannah Laskoskie/Downloads/subject-1.csv","legacy","9 1 6 7 8","Melodramatic Milgram","4.0.5","1","y","0","left","right","right","NA","left","590.0","49742","48311","NA","590","2","legacy","5","1024","2","48000","-16","experiment","1","odd","9","513979","515004","517204","344069","2507","125049","516004","519204","NA","515003","2504","173360","519204","519795","52250","Sternberg Task","64","48236.0","71","1024"
"90","90","679","679","#3d3846","experiment","legacy","legacy","legacy","1","undefined","1","right","71","71","71","71","0","0","71","71","0","71","0","0","71","71","0","Sun Oct 15 19:11:40 2023","The main experiment item","True","SternbergTask.osexp","C:/Users/Hannah Laskoskie/Downloads","False","mono","False","18","no","white","no","yes","768","legacy","59","11","C:/Users/Hannah Laskoskie/Downloads/subject-1.csv","legacy","1 4 3 6 5","Melodramatic Milgram","4.0.5","0","n","0","right","right","right","NA","right","696.0","49742","48311","NA","696","2","legacy","5","1024","2","48000","-16","experiment","1","odd","8","519802","520827","523027","344069","2507","125049","521827","525027","NA","520826","2504","173360","525027","525724","52250","Sternberg Task","65","48932.0","72","1024"
"90","90","679","679","#3d3846","experiment","legacy","legacy","legacy","1","undefined","1","left","72","72","72","72","0","0","72","72","0","72","0","0","72","72","0","Sun Oct 15 19:11:40 2023","The main experiment item","True","SternbergTask.osexp","C:/Users/Hannah Laskoskie/Downloads","False","mono","False","18","no","white","no","yes","768","legacy","60","11","C:/Users/Hannah Laskoskie/Downloads/subject-1.csv","legacy","8 5 4 7 3 1","Melodramatic Milgram","4.0.5","2","y","0","left","right","right","NA","left","646.0","49742","48311","NA","646","2","legacy","6","1024","2","48000","-16","experiment","1","odd","5","525731","526758","528958","344069","2507","125049","527758","530958","NA","526757","2504","173360","530958","531605","52250","Sternberg Task","66","49578.0","73","1024"
"90","90","677","677","#3d3846","experiment","legacy","legacy","legacy","1","undefined","1","right","73","73","73","73","0","0","73","73","0","73","0","0","73","73","0","Sun Oct 15 19:11:40 2023","The main experiment item","True","SternbergTask.osexp","C:/Users/Hannah Laskoskie/Downloads","False","mono","False","18","no","white","no","yes","768","legacy","61","11","C:/Users/Hannah Laskoskie/Downloads/subject-1.csv","legacy","1 6 4","Melodramatic Milgram","4.0.5","0","n","0","right","right","right","NA","right","563.0","49742","48311","NA","563","2","legacy","3","1024","2","48000","-16","experiment","1","odd","7","531612","532637","534837","344069","2507","125049","533637","536837","NA","532636","2504","173360","536837","537401","52250","Sternberg Task","67","50141.0","74","1024"
"90","90","676","676","#3d3846","experiment","legacy","legacy","legacy","1","undefined","1","left","74","74","74","74","0","0","74","74","0","74","0","0","74","74","0","Sun Oct 15 19:11:40 2023","The main experiment item","True","SternbergTask.osexp","C:/Users/Hannah Laskoskie/Downloads","False","mono","False","18","no","white","no","yes","768","legacy","62","11","C:/Users/Hannah Laskoskie/Downloads/subject-1.csv","legacy","3 9 6 2","Melodramatic Milgram","4.0.5","4","y","0","left","right","right","NA","left","593.0","49742","48311","NA","593","2","legacy","4","1024","2","48000","-16","experiment","1","odd","2","537409","538436","540637","344069","2507","125049","539437","542638","NA","538434","2504","173360","542638","543231","52250","Sternberg Task","68","50734.0","75","1024"
"89","89","674","674","#3d3846","experiment","legacy","legacy","legacy","0","undefined","0","left","75","75","75","75","0","0","75","75","0","75","0","0","75","75","0","Sun Oct 15 19:11:40 2023","The main experiment item","True","SternbergTask.osexp","C:/Users/Hannah Laskoskie/Downloads","False","mono","False","18","no","white","no","yes","768","legacy","63","11","C:/Users/Hannah Laskoskie/Downloads/subject-1.csv","legacy","9 1 7 2","Melodramatic Milgram","4.0.5","2","y","0","right","right","right","NA","right","508.0","49742","48311","NA","508","2","legacy","4","1024","2","48000","-16","experiment","1","odd","1","543233","544261","546462","344069","2507","125049","545262","548462","NA","544260","2504","173360","548462","548971","52250","Sternberg Task","68","51242.0","76","1024"
"89","89","672","672","#3d3846","experiment","legacy","legacy","legacy","1","undefined","1","left","76","76","76","76","0","0","76","76","0","76","0","0","76","76","0","Sun Oct 15 19:11:40 2023","The main experiment item","True","SternbergTask.osexp","C:/Users/Hannah Laskoskie/Downloads","False","mono","False","18","no","white","no","yes","768","legacy","64","11","C:/Users/Hannah Laskoskie/Downloads/subject-1.csv","legacy","7 1 3","Melodramatic Milgram","4.0.5","2","y","0","left","right","right","NA","left","552.0","49742","48311","NA","552","2","legacy","3","1024","2","48000","-16","experiment","1","odd","1","543233","550006","552206","548973","2507","125049","551006","554206","NA","550004","2504","173360","554206","554758","52250","Sternberg Task","69","51794.0","77","1024"
"89","89","672","672","#3d3846","experiment","legacy","legacy","legacy","1","undefined","1","left","77","77","77","77","0","0","77","77","0","77","0","0","77","77","0","Sun Oct 15 19:11:40 2023","The main experiment item","True","SternbergTask.osexp","C:/Users/Hannah Laskoskie/Downloads","False","mono","False","18","no","white","no","yes","768","legacy","65","11","C:/Users/Hannah Laskoskie/Downloads/subject-1.csv","legacy","8 5 1 3 9","Melodramatic Milgram","4.0.5","4","y","0","left","right","right","NA","left","627.0","49742","48311","NA","627","2","legacy","5","1024","2","48000","-16","experiment","1","odd","3","554766","555791","557992","548973","2507","125049","556792","559992","NA","555790","2504","173360","559992","560620","52250","Sternberg Task","70","52421.0","78","1024"
"89","89","671","671","#3d3846","experiment","legacy","legacy","legacy","1","undefined","1","left","78","78","78","78","0","0","78","78","0","78","0","0","78","78","0","Sun Oct 15 19:11:40 2023","The main experiment item","True","SternbergTask.osexp","C:/Users/Hannah Laskoskie/Downloads","False","mono","False","18","no","white","no","yes","768","legacy","66","11","C:/Users/Hannah Laskoskie/Downloads/subject-1.csv","legacy","6 7 9 3 1 2","Melodramatic Milgram","4.0.5","1","y","0","left","right","right","NA","left","652.0","49742","48311","NA","652","2","legacy","6","1024","2","48000","-16","experiment","1","odd","6","560628","561654","563854","548973","2507","125049","562654","565854","NA","561653","2504","173360","565854","566506","52250","Sternberg Task","71","53073.0","79","1024"
"90","90","670","670","#3d3846","experiment","legacy","legacy","legacy","1","undefined","1","left","79","79","79","79","0","0","79","79","0","79","0","0","79","79","0","Sun Oct 15 19:11:40 2023","The main experiment item","True","SternbergTask.osexp","C:/Users/Hannah Laskoskie/Downloads","False","mono","False","18","no","white","no","yes","768","legacy","67","11","C:/Users/Hannah Laskoskie/Downloads/subject-1.csv","legacy","4 1 8 7 5","Melodramatic Milgram","4.0.5","3","y","0","left","right","right","NA","left","535.0","49742","48311","NA","535","2","legacy","5","1024","2","48000","-16","experiment","1","odd","8","566508","567533","569733","548973","2507","125049","568533","571733","NA","567532","2504","173360","571733","572269","52250","Sternberg Task","72","53608.0","80","1024"
"88","88","668","668","#3d3846","experiment","legacy","legacy","legacy","0","undefined","0","right","80","80","80","80","0","0","80","80","0","80","0","0","80","80","0","Sun Oct 15 19:11:40 2023","The main experiment item","True","SternbergTask.osexp","C:/Users/Hannah Laskoskie/Downloads","False","mono","False","18","no","white","no","yes","768","legacy","68","11","C:/Users/Hannah Laskoskie/Downloads/subject-1.csv","legacy","6 2 9 3 8 4","Melodramatic Milgram","4.0.5","0","n","0","left","right","right","NA","left","576.0","49742","48311","NA","576","2","legacy","6","1024","2","48000","-16","experiment","1","odd","1","572271","573298","575498","548973","2507","125049","574298","577498","NA","573296","2504","173360","577498","578075","52250","Sternberg Task","72","54184.0","81","1024"
"89","89","666","666","#3d3846","experiment","legacy","legacy","legacy","1","undefined","1","left","81","81","81","81","0","0","81","81","0","81","0","0","81","81","0","Sun Oct 15 19:11:40 2023","The main experiment item","True","SternbergTask.osexp","C:/Users/Hannah Laskoskie/Downloads","False","mono","False","18","no","white","no","yes","768","legacy","69","11","C:/Users/Hannah Laskoskie/Downloads/subject-1.csv","legacy","4 6 2 5 1","Melodramatic Milgram","4.0.5","5","y","0","left","right","right","NA","left","444.0","49742","48311","NA","444","2","legacy","5","1024","2","48000","-16","experiment","1","odd","1","572271","579110","581310","578082","2507","125049","580110","583310","NA","579109","2504","173360","583311","583756","52250","Sternberg Task","73","54628.0","82","1024"
"89","89","666","666","#3d3846","experiment","legacy","legacy","legacy","1","undefined","1","right","82","82","82","82","0","0","82","82","0","82","0","0","82","82","0","Sun Oct 15 19:11:40 2023","The main experiment item","True","SternbergTask.osexp","C:/Users/Hannah Laskoskie/Downloads","False","mono","False","18","no","white","no","yes","768","legacy","70","11","C:/Users/Hannah Laskoskie/Downloads/subject-1.csv","legacy","5 3 2 6 9 8","Melodramatic Milgram","4.0.5","0","n","0","right","right","right","NA","right","664.0","49742","48311","NA","664","2","legacy","6","1024","2","48000","-16","experiment","1","odd","4","583763","584791","586991","578082","2507","125049","585791","588991","NA","584790","2504","173360","588991","589656","52250","Sternberg Task","74","55292.0","83","1024"
"89","89","663","663","#3d3846","experiment","legacy","legacy","legacy","1","undefined","1","right","83","83","83","83","0","0","83","83","0","83","0","0","83","83","0","Sun Oct 15 19:11:40 2023","The main experiment item","True","SternbergTask.osexp","C:/Users/Hannah Laskoskie/Downloads","False","mono","False","18","no","white","no","yes","768","legacy","71","11","C:/Users/Hannah Laskoskie/Downloads/subject-1.csv","legacy","1","Melodramatic Milgram","4.0.5","0","n","0","right","right","right","NA","right","427.0","49742","48311","NA","427","2","legacy","1","1024","2","48000","-16","experiment","1","odd","7","589664","590697","592898","578082","2507","125049","591698","594898","NA","590696","2504","173360","594898","595326","52250","Sternberg Task","75","55719.0","84","1024"
"89","89","661","661","#3d3846","experiment","legacy","legacy","legacy","1","undefined","1","left","84","84","84","84","0","0","84","84","0","84","0","0","84","84","0","Sun Oct 15 19:11:40 2023","The main experiment item","True","SternbergTask.osexp","C:/Users/Hannah Laskoskie/Downloads","False","mono","False","18","no","white","no","yes","768","legacy","72","11","C:/Users/Hannah Laskoskie/Downloads/subject-1.csv","legacy","9 4 2","Melodramatic Milgram","4.0.5","1","y","0","left","right","right","NA","left","518.0","49742","48311","NA","518","2","legacy","3","1024","2","48000","-16","experiment","1","odd","9","595334","596359","598559","578082","2507","125049","597359","600560","NA","596358","2504","173360","600560","601079","52250","Sternberg Task","76","56237.0","85","1024"
"89","89","662","662","#3d3846","experiment","legacy","legacy","legacy","1","undefined","1","right","85","85","85","85","0","0","85","85","0","85","0","0","85","85","0","Sun Oct 15 19:11:40 2023","The main experiment item","True","SternbergTask.osexp","C:/Users/Hannah Laskoskie/Downloads","False","mono","False","18","no","white","no","yes","768","legacy","73","11","C:/Users/Hannah Laskoskie/Downloads/subject-1.csv","legacy","2 8 9 4 1","Melodramatic Milgram","4.0.5","0","n","0","right","right","right","NA","right","717.0","49742","48311","NA","717","2","legacy","5","1024","2","48000","-16","experiment","1","odd","5","601086","602112","604312","578082","2507","125049","603112","606312","NA","602111","2504","173360","606312","607030","52250","Sternberg Task","77","56954.0","86","1024"
"88","88","661","661","#3d3846","experiment","legacy","legacy","legacy","0","undefined","0","left","86","86","86","86","0","0","86","86","0","86","0","0","86","86","0","Sun Oct 15 19:11:40 2023","The main experiment item","True","SternbergTask.osexp","C:/Users/Hannah Laskoskie/Downloads","False","mono","False","18","no","white","no","yes","768","legacy","74","11","C:/Users/Hannah Laskoskie/Downloads/subject-1.csv","legacy","7 2 3","Melodramatic Milgram","4.0.5","3","y","0","right","right","right","NA","right","608.0","49742","48311","NA","608","2","legacy","3","1024","2","48000","-16","experiment","1","odd","3","607032","608057","610258","578082","2507","125049","609057","612258","NA","608056","2504","173360","612258","612867","52250","Sternberg Task","77","57562.0","87","1024"
"88","88","664","664","#3d3846","experiment","legacy","legacy","legacy","1","undefined","1","right","87","87","87","87","0","0","87","87","0","87","0","0","87","87","0","Sun Oct 15 19:11:40 2023","The main experiment item","True","SternbergTask.osexp","C:/Users/Hannah Laskoskie/Downloads","False","mono","False","18","no","white","no","yes","768","legacy","75","11","C:/Users/Hannah Laskoskie/Downloads/subject-1.csv","legacy","1 3 2 6 9","Melodramatic Milgram","4.0.5","0","n","0","right","right","right","NA","right","909.0","49742","48311","NA","909","2","legacy","5","1024","2","48000","-16","experiment","1","odd","5","607032","613900","616100","612874","2507","125049","614900","618100","NA","613899","2504","173360","618100","619010","52250","Sternberg Task","78","58471.0","88","1024"
"88","88","665","665","#3d3846","experiment","legacy","legacy","legacy","1","undefined","1","right","88","88","88","88","0","0","88","88","0","88","0","0","88","88","0","Sun Oct 15 19:11:40 2023","The main experiment item","True","SternbergTask.osexp","C:/Users/Hannah Laskoskie/Downloads","False","mono","False","18","no","white","no","yes","768","legacy","76","11","C:/Users/Hannah Laskoskie/Downloads/subject-1.csv","legacy","7 6 4 8 1 2","Melodramatic Milgram","4.0.5","0","n","0","right","right","right","NA","right","732.0","49742","48311","NA","732","2","legacy","6","1024","2","48000","-16","experiment","1","odd","9","619018","620046","622246","612874","2507","125049","621046","624246","NA","620044","2504","173360","624246","624979","52250","Sternberg Task","79","59203.0","89","1024"
"88","88","665","665","#3d3846","experiment","legacy","legacy","legacy","1","undefined","1","right","89","89","89","89","0","0","89","89","0","89","0","0","89","89","0","Sun Oct 15 19:11:40 2023","The main experiment item","True","SternbergTask.osexp","C:/Users/Hannah Laskoskie/Downloads","False","mono","False","18","no","white","no","yes","768","legacy","77","11","C:/Users/Hannah Laskoskie/Downloads/subject-1.csv","legacy","8 6 3 4 7","Melodramatic Milgram","4.0.5","0","n","0","right","right","right","NA","right","662.0","49742","48311","NA","662","2","legacy","5","1024","2","48000","-16","experiment","1","odd","1","624986","626020","628220","612874","2507","125049","627020","630220","NA","626019","2504","173360","630220","630883","52250","Sternberg Task","80","59865.0","90","1024"
"89","89","663","663","#3d3846","experiment","legacy","legacy","legacy","1","undefined","1","left","90","90","90","90","0","0","90","90","0","90","0","0","90","90","0","Sun Oct 15 19:11:40 2023","The main experiment item","True","SternbergTask.osexp","C:/Users/Hannah Laskoskie/Downloads","False","mono","False","18","no","white","no","yes","768","legacy","78","11","C:/Users/Hannah Laskoskie/Downloads/subject-1.csv","legacy","2 3 7 4","Melodramatic Milgram","4.0.5","1","y","0","left","right","right","NA","left","478.0","49742","48311","NA","478","2","legacy","4","1024","2","48000","-16","experiment","1","odd","2","630890","631917","634117","612874","2507","125049","632917","636118","NA","631916","2504","173360","636118","636597","52250","Sternberg Task","81","60343.0","91","1024"
"88","88","664","664","#3d3846","experiment","legacy","legacy","legacy","0","undefined","0","left","91","91","91","91","0","0","91","91","0","91","0","0","91","91","0","Sun Oct 15 19:11:40 2023","The main experiment item","True","SternbergTask.osexp","C:/Users/Hannah Laskoskie/Downloads","False","mono","False","18","no","white","no","yes","768","legacy","79","11","C:/Users/Hannah Laskoskie/Downloads/subject-1.csv","legacy","8 9 5 6 7","Melodramatic Milgram","4.0.5","1","y","0","right","right","right","NA","right","814.0","49742","48311","NA","814","2","legacy","5","1024","2","48000","-16","experiment","1","odd","8","636599","637640","639840","612874","2507","125049","638640","641840","NA","637638","2504","173360","641840","642655","52250","Sternberg Task","81","61157.0","92","1024"
"88","88","665","665","#3d3846","experiment","legacy","legacy","legacy","1","undefined","1","right","92","92","92","92","0","0","92","92","0","92","0","0","92","92","0","Sun Oct 15 19:11:40 2023","The main experiment item","True","SternbergTask.osexp","C:/Users/Hannah Laskoskie/Downloads","False","mono","False","18","no","white","no","yes","768","legacy","80","11","C:/Users/Hannah Laskoskie/Downloads/subject-1.csv","legacy","5 3 8 7 2 4","Melodramatic Milgram","4.0.5","0","n","0","right","right","right","NA","right","758.0","49742","48311","NA","758","2","legacy","6","1024","2","48000","-16","experiment","1","odd","9","636599","643681","645881","642657","2507","125049","644681","647881","NA","643680","2504","173360","647881","648640","52250","Sternberg Task","82","61915.0","93","1024"
"88","88","664","664","#3d3846","experiment","legacy","legacy","legacy","1","undefined","1","left","93","93","93","93","0","0","93","93","0","93","0","0","93","93","0","Sun Oct 15 19:11:40 2023","The main experiment item","True","SternbergTask.osexp","C:/Users/Hannah Laskoskie/Downloads","False","mono","False","18","no","white","no","yes","768","legacy","81","11","C:/Users/Hannah Laskoskie/Downloads/subject-1.csv","legacy","8 1 6","Melodramatic Milgram","4.0.5","3","y","0","left","right","right","NA","left","590.0","49742","48311","NA","590","2","legacy","3","1024","2","48000","-16","experiment","1","odd","6","648642","649666","651867","642657","2507","125049","650667","653867","NA","649665","2504","173360","653867","654458","52250","Sternberg Task","83","62505.0","94","1024"
"88","88","663","663","#3d3846","experiment","legacy","legacy","legacy","1","undefined","1","right","94","94","94","94","0","0","94","94","0","94","0","0","94","94","0","Sun Oct 15 19:11:40 2023","The main experiment item","True","SternbergTask.osexp","C:/Users/Hannah Laskoskie/Downloads","False","mono","False","18","no","white","no","yes","768","legacy","82","11","C:/Users/Hannah Laskoskie/Downloads/subject-1.csv","legacy","2 5 1 4","Melodramatic Milgram","4.0.5","0","n","0","right","right","right","NA","right","498.0","49742","48311","NA","498","2","legacy","4","1024","2","48000","-16","experiment","1","odd","6","654460","655485","657685","642657","2507","125049","656485","659685","NA","655484","2504","173360","659685","660183","52250","Sternberg Task","84","63003.0","95","1024"
"88","88","661","661","#3d3846","experiment","legacy","legacy","legacy","1","undefined","1","left","95","95","95","95","0","0","95","95","0","95","0","0","95","95","0","Sun Oct 15 19:11:40 2023","The main experiment item","True","SternbergTask.osexp","C:/Users/Hannah Laskoskie/Downloads","False","mono","False","18","no","white","no","yes","768","legacy","83","11","C:/Users/Hannah Laskoskie/Downloads/subject-1.csv","legacy","4 1 5","Melodramatic Milgram","4.0.5","2","y","0","left","right","right","NA","left","526.0","49742","48311","NA","526","2","legacy","3","1024","2","48000","-16","experiment","1","odd","1","660186","661213","663413","642657","2507","125049","662213","665413","NA","661212","2504","173360","665413","665940","52250","Sternberg Task","85","63529.0","96","1024"
"88","88","660","660","#3d3846","experiment","legacy","legacy","legacy","1","undefined","1","left","96","96","96","96","0","0","96","96","0","96","0","0","96","96","0","Sun Oct 15 19:11:40 2023","The main experiment item","True","SternbergTask.osexp","C:/Users/Hannah Laskoskie/Downloads","False","mono","False","18","no","white","no","yes","768","legacy","84","11","C:/Users/Hannah Laskoskie/Downloads/subject-1.csv","legacy","3 4","Melodramatic Milgram","4.0.5","1","y","0","left","right","right","NA","left","516.0","49742","48311","NA","516","2","legacy","2","1024","2","48000","-16","experiment","1","odd","3","665947","666972","669172","642657","2507","125049","667972","671172","NA","666971","2504","173360","671172","671689","52250","Sternberg Task","86","64045.0","97","1024"
"88","88","660","660","#3d3846","experiment","legacy","legacy","legacy","1","undefined","1","right","97","97","97","97","0","0","97","97","0","97","0","0","97","97","0","Sun Oct 15 19:11:40 2023","The main experiment item","True","SternbergTask.osexp","C:/Users/Hannah Laskoskie/Downloads","False","mono","False","18","no","white","no","yes","768","legacy","85","11","C:/Users/Hannah Laskoskie/Downloads/subject-1.csv","legacy","1 5 3 2 8","Melodramatic Milgram","4.0.5","0","n","0","right","right","right","NA","right","664.0","49742","48311","NA","664","2","legacy","5","1024","2","48000","-16","experiment","1","odd","4","671697","672722","674923","642657","2507","125049","673722","676923","NA","672721","2504","173360","676923","677588","52250","Sternberg Task","87","64709.0","98","1024"
"88","88","659","659","#3d3846","experiment","legacy","legacy","legacy","1","undefined","1","left","98","98","98","98","0","0","98","98","0","98","0","0","98","98","0","Sun Oct 15 19:11:40 2023","The main experiment item","True","SternbergTask.osexp","C:/Users/Hannah Laskoskie/Downloads","False","mono","False","18","no","white","no","yes","768","legacy","86","11","C:/Users/Hannah Laskoskie/Downloads/subject-1.csv","legacy","5 2 9 6 1 7","Melodramatic Milgram","4.0.5","3","y","0","left","right","right","NA","left","545.0","49742","48311","NA","545","2","legacy","6","1024","2","48000","-16","experiment","1","odd","9","677595","678626","680826","642657","2507","125049","679626","682826","NA","678625","2504","173360","682826","683371","52250","Sternberg Task","88","65254.0","99","1024"
"89","89","660","660","#3d3846","experiment","legacy","legacy","legacy","1","undefined","1","right","99","99","99","99","0","0","99","99","0","99","0","0","99","99","0","Sun Oct 15 19:11:40 2023","The main experiment item","True","SternbergTask.osexp","C:/Users/Hannah Laskoskie/Downloads","False","mono","False","18","no","white","no","yes","768","legacy","87","11","C:/Users/Hannah Laskoskie/Downloads/subject-1.csv","legacy","2 8 6 3 1","Melodramatic Milgram","4.0.5","0","n","0","right","right","right","NA","right","818.0","49742","48311","NA","818","2","legacy","5","1024","2","48000","-16","experiment","1","odd","7","683379","684404","686605","642657","2507","125049","685405","688605","NA","684403","2504","173360","688605","689424","52250","Sternberg Task","89","66072.0","100","1024"
"89","89","659","659","#3d3846","experiment","legacy","legacy","legacy","1","undefined","1","left","100","100","100","100","0","0","100","100","0","100","0","0","100","100","0","Sun Oct 15 19:11:40 2023","The main experiment item","True","SternbergTask.osexp","C:/Users/Hannah Laskoskie/Downloads","False","mono","False","18","no","white","no","yes","768","legacy","88","11","C:/Users/Hannah Laskoskie/Downloads/subject-1.csv","legacy","8 7 3","Melodramatic Milgram","4.0.5","1","y","0","left","right","right","NA","left","570.0","49742","48311","NA","570","2","legacy","3","1024","2","48000","-16","experiment","1","odd","8","689432","690456","692656","642657","2507","125049","691456","694656","NA","690455","2504","173360","694656","695227","52250","Sternberg Task","90","66642.0","101","1024"
"89","89","660","660","#3d3846","experiment","legacy","legacy","legacy","1","undefined","1","right","101","101","101","101","0","0","101","101","0","101","0","0","101","101","0","Sun Oct 15 19:11:40 2023","The main experiment item","True","SternbergTask.osexp","C:/Users/Hannah Laskoskie/Downloads","False","mono","False","18","no","white","no","yes","768","legacy","89","11","C:/Users/Hannah Laskoskie/Downloads/subject-1.csv","legacy","8 4 3 5","Melodramatic Milgram","4.0.5","0","n","0","right","right","right","NA","right","678.0","49742","48311","NA","678","2","legacy","4","1024","2","48000","-16","experiment","1","odd","6","695234","696260","698460","642657","2507","125049","697260","700460","NA","696259","2504","173360","700460","701139","52250","Sternberg Task","91","67320.0","102","1024"
"89","89","659","659","#3d3846","experiment","legacy","legacy","legacy","1","undefined","1","right","102","102","102","102","0","0","102","102","0","102","0","0","102","102","0","Sun Oct 15 19:11:40 2023","The main experiment item","True","SternbergTask.osexp","C:/Users/Hannah Laskoskie/Downloads","False","mono","False","18","no","white","no","yes","768","legacy","90","11","C:/Users/Hannah Laskoskie/Downloads/subject-1.csv","legacy","9 7 4 5 8","Melodramatic Milgram","4.0.5","0","n","0","right","right","right","NA","right","627.0","49742","48311","NA","627","2","legacy","5","1024","2","48000","-16","experiment","1","odd","6","701147","702172","704372","642657","2507","125049","703172","706372","NA","702171","2504","173360","706372","707001","52250","Sternberg Task","92","67947.0","103","1024"
"89","89","659","659","#3d3846","experiment","legacy","legacy","legacy","1","undefined","1","right","103","103","103","103","0","0","103","103","0","103","0","0","103","103","0","Sun Oct 15 19:11:40 2023","The main experiment item","True","SternbergTask.osexp","C:/Users/Hannah Laskoskie/Downloads","False","mono","False","18","no","white","no","yes","768","legacy","91","11","C:/Users/Hannah Laskoskie/Downloads/subject-1.csv","legacy","7 4 2 8 1 9","Melodramatic Milgram","4.0.5","0","n","0","right","right","right","NA","right","590.0","49742","48311","NA","590","2","legacy","6","1024","2","48000","-16","experiment","1","odd","5","707008","708033","710233","642657","2507","125049","709033","712233","NA","708032","2504","173360","712233","712824","52250","Sternberg Task","93","68537.0","104","1024"
"89","89","659","659","#3d3846","experiment","legacy","legacy","legacy","1","undefined","1","left","104","104","104","104","0","0","104","104","0","104","0","0","104","104","0","Sun Oct 15 19:11:40 2023","The main experiment item","True","SternbergTask.osexp","C:/Users/Hannah Laskoskie/Downloads","False","mono","False","18","no","white","no","yes","768","legacy","92","11","C:/Users/Hannah Laskoskie/Downloads/subject-1.csv","legacy","5 7 3 6 2","Melodramatic Milgram","4.0.5","5","y","0","left","right","right","NA","left","753.0","49742","48311","NA","753","2","legacy","5","1024","2","48000","-16","experiment","1","odd","2","712826","713851","716051","642657","2507","125049","714851","718051","NA","713850","2504","173360","718051","718805","52250","Sternberg Task","94","69290.0","105","1024"
"89","89","660","660","#3d3846","experiment","legacy","legacy","legacy","1","undefined","1","left","105","105","105","105","0","0","105","105","0","105","0","0","105","105","0","Sun Oct 15 19:11:40 2023","The main experiment item","True","SternbergTask.osexp","C:/Users/Hannah Laskoskie/Downloads","False","mono","False","18","no","white","no","yes","768","legacy","93","11","C:/Users/Hannah Laskoskie/Downloads/subject-1.csv","legacy","6 9 7 4 5 1","Melodramatic Milgram","4.0.5","2","y","0","left","right","right","NA","left","670.0","49742","48311","NA","670","2","legacy","6","1024","2","48000","-16","experiment","1","odd","9","718807","719832","722032","642657","2507","125049","720832","724032","NA","719831","2504","173360","724032","724703","52250","Sternberg Task","95","69960.0","106","1024"
"89","89","659","659","#3d3846","experiment","legacy","legacy","legacy","1","undefined","1","right","106","106","106","106","0","0","106","106","0","106","0","0","106","106","0","Sun Oct 15 19:11:40 2023","The main experiment item","True","SternbergTask.osexp","C:/Users/Hannah Laskoskie/Downloads","False","mono","False","18","no","white","no","yes","768","legacy","94","11","C:/Users/Hannah Laskoskie/Downloads/subject-1.csv","legacy","6 8","Melodramatic Milgram","4.0.5","0","n","0","right","right","right","NA","right","571.0","49742","48311","NA","571","2","legacy","2","1024","2","48000","-16","experiment","1","odd","9","724710","725739","727939","642657","2507","125049","726739","729939","NA","725738","2504","173360","729939","730511","52250","Sternberg Task","96","70531.0","107","1024"
"89","89","659","659","#3d3846","experiment","legacy","legacy","legacy","1","undefined","1","left","107","107","107","107","0","0","107","107","0","107","0","0","107","107","0","Sun Oct 15 19:11:40 2023","The main experiment item","True","SternbergTask.osexp","C:/Users/Hannah Laskoskie/Downloads","False","mono","False","18","no","white","no","yes","768","legacy","95","11","C:/Users/Hannah Laskoskie/Downloads/subject-1.csv","legacy","2 5 4 8 7","Melodramatic Milgram","4.0.5","3","y","0","left","right","right","NA","left","650.0","49742","48311","NA","650","2","legacy","5","1024","2","48000","-16","experiment","1","odd","4","730513","731537","733739","642657","2507","125049","732538","735739","NA","731536","2504","173360","735739","736390","52250","Sternberg Task","97","71181.0","108","1024"
"89","89","658","658","#3d3846","experiment","legacy","legacy","legacy","1","undefined","1","left","108","108","108","108","0","0","108","108","0","108","0","0","108","108","0","Sun Oct 15 19:11:40 2023","The main experiment item","True","SternbergTask.osexp","C:/Users/Hannah Laskoskie/Downloads","False","mono","False","18","no","white","no","yes","768","legacy","96","11","C:/Users/Hannah Laskoskie/Downloads/subject-1.csv","legacy","3 9 7 6 4","Melodramatic Milgram","4.0.5","3","y","0","left","right","right","NA","left","600.0","49742","48311","NA","600","2","legacy","5","1024","2","48000","-16","experiment","1","odd","7","736392","737418","739618","642657","2507","125049","738418","741618","NA","737417","2504","173360","741618","742220","52250","Sternberg Task","98","71781.0","109","1024"
"90","90","656","656","#3d3846","experiment","legacy","legacy","legacy","1","undefined","1","left","109","109","109","109","0","0","109","109","0","109","0","0","109","109","0","Sun Oct 15 19:11:40 2023","The main experiment item","True","SternbergTask.osexp","C:/Users/Hannah Laskoskie/Downloads","False","mono","False","18","no","white","no","yes","768","legacy","97","11","C:/Users/Hannah Laskoskie/Downloads/subject-1.csv","legacy","8","Melodramatic Milgram","4.0.5","1","y","0","left","right","right","NA","left","440.0","49742","48311","NA","440","2","legacy","1","1024","2","48000","-16","experiment","1","odd","8","742227","743253","745454","642657","2507","125049","744253","747454","NA","743252","2504","173360","747454","747895","52250","Sternberg Task","99","72221.0","110","1024"
"90","90","656","656","#3d3846","experiment","legacy","legacy","legacy","1","undefined","1","right","110","110","110","110","0","0","110","110","0","110","0","0","110","110","0","Sun Oct 15 19:11:40 2023","The main experiment item","True","SternbergTask.osexp","C:/Users/Hannah Laskoskie/Downloads","False","mono","False","18","no","white","no","yes","768","legacy","98","11","C:/Users/Hannah Laskoskie/Downloads/subject-1.csv","legacy","5 7 3","Melodramatic Milgram","4.0.5","0","n","0","right","right","right","NA","right","658.0","49742","48311","NA","658","2","legacy","3","1024","2","48000","-16","experiment","1","odd","9","747902","748928","751128","642657","2507","125049","749928","753128","NA","748927","2504","173360","753128","753787","52250","Sternberg Task","100","72879.0","111","1024"
"90","90","655","655","#3d3846","experiment","legacy","legacy","legacy","1","undefined","1","right","111","111","111","111","0","0","111","111","0","111","0","0","111","111","0","Sun Oct 15 19:11:40 2023","The main experiment item","True","SternbergTask.osexp","C:/Users/Hannah Laskoskie/Downloads","False","mono","False","18","no","white","no","yes","768","legacy","99","11","C:/Users/Hannah Laskoskie/Downloads/subject-1.csv","legacy","8 4 3 9","Melodramatic Milgram","4.0.5","0","n","0","right","right","right","NA","right","586.0","49742","48311","NA","586","2","legacy","4","1024","2","48000","-16","experiment","1","odd","5","753795","754820","757020","642657","2507","125049","755820","759021","NA","754819","2504","173360","759021","759608","52250","Sternberg Task","101","73465.0","112","1024"
"90","90","656","656","#3d3846","experiment","legacy","legacy","legacy","1","undefined","1","right","112","112","112","112","0","0","112","112","0","112","0","0","112","112","0","Sun Oct 15 19:11:40 2023","The main experiment item","True","SternbergTask.osexp","C:/Users/Hannah Laskoskie/Downloads","False","mono","False","18","no","white","no","yes","768","legacy","100","11","C:/Users/Hannah Laskoskie/Downloads/subject-1.csv","legacy","4 2 6 9","Melodramatic Milgram","4.0.5","0","n","0","right","right","right","NA","right","666.0","49742","48311","NA","666","2","legacy","4","1024","2","48000","-16","experiment","1","odd","7","759616","760641","762842","642657","2507","125049","761642","764842","NA","760640","2504","173360","764842","765509","52250","Sternberg Task","102","74131.0","113","1024"
"90","90","656","656","#3d3846","experiment","legacy","legacy","legacy","1","undefined","1","left","113","113","113","113","0","0","113","113","0","113","0","0","113","113","0","Sun Oct 15 19:11:40 2023","The main experiment item","True","SternbergTask.osexp","C:/Users/Hannah Laskoskie/Downloads","False","mono","False","18","no","white","no","yes","768","legacy","101","11","C:/Users/Hannah Laskoskie/Downloads/subject-1.csv","legacy","4 3 2 5 8","Melodramatic Milgram","4.0.5","2","y","0","left","right","right","NA","left","679.0","49742","48311","NA","679","2","legacy","5","1024","2","48000","-16","experiment","1","odd","3","765517","766549","768749","642657","2507","125049","767549","770749","NA","766548","2504","173360","770749","771429","52250","Sternberg Task","103","74810.0","114","1024"
"90","90","655","655","#3d3846","experiment","legacy","legacy","legacy","1","undefined","1","right","114","114","114","114","0","0","114","114","0","114","0","0","114","114","0","Sun Oct 15 19:11:40 2023","The main experiment item","True","SternbergTask.osexp","C:/Users/Hannah Laskoskie/Downloads","False","mono","False","18","no","white","no","yes","768","legacy","102","11","C:/Users/Hannah Laskoskie/Downloads/subject-1.csv","legacy","5","Melodramatic Milgram","4.0.5","0","n","0","right","right","right","NA","right","617.0","49742","48311","NA","617","2","legacy","1","1024","2","48000","-16","experiment","1","odd","8","771437","772462","774662","642657","2507","125049","773462","776662","NA","772461","2504","173360","776663","777281","52250","Sternberg Task","104","75427.0","115","1024"
"90","90","656","656","#3d3846","experiment","legacy","legacy","legacy","1","undefined","1","left","115","115","115","115","0","0","115","115","0","115","0","0","115","115","0","Sun Oct 15 19:11:40 2023","The main experiment item","True","SternbergTask.osexp","C:/Users/Hannah Laskoskie/Downloads","False","mono","False","18","no","white","no","yes","768","legacy","103","11","C:/Users/Hannah Laskoskie/Downloads/subject-1.csv","legacy","5 2 6","Melodramatic Milgram","4.0.5","2","y","0","left","right","right","NA","left","705.0","49742","48311","NA","705","2","legacy","3","1024","2","48000","-16","experiment","1","odd","2","777289","778313","780513","642657","2507","125049","779313","782513","NA","778312","2504","173360","782513","783219","52250","Sternberg Task","105","76132.0","116","1024"
"90","90","657","657","#3d3846","experiment","legacy","legacy","legacy","1","undefined","1","right","116","116","116","116","0","0","116","116","0","116","0","0","116","116","0","Sun Oct 15 19:11:40 2023","The main experiment item","True","SternbergTask.osexp","C:/Users/Hannah Laskoskie/Downloads","False","mono","False","18","no","white","no","yes","768","legacy","104","11","C:/Users/Hannah Laskoskie/Downloads/subject-1.csv","legacy","8 5 4 2 9 6","Melodramatic Milgram","4.0.5","0","n","0","right","right","right","NA","right","795.0","49742","48311","NA","795","2","legacy","6","1024","2","48000","-16","experiment","1","odd","3","783227","784252","786452","642657","2507","125049","785252","788452","NA","784251","2504","173360","788452","789248","52250","Sternberg Task","106","76927.0","117","1024"
"90","90","657","657","#3d3846","experiment","legacy","legacy","legacy","1","undefined","1","left","117","117","117","117","0","0","117","117","0","117","0","0","117","117","0","Sun Oct 15 19:11:40 2023","The main experiment item","True","SternbergTask.osexp","C:/Users/Hannah Laskoskie/Downloads","False","mono","False","18","no","white","no","yes","768","legacy","105","11","C:/Users/Hannah Laskoskie/Downloads/subject-1.csv","legacy","1 4 9 3 2 5","Melodramatic Milgram","4.0.5","3","y","0","left","right","right","NA","left","714.0","49742","48311","NA","714","2","legacy","6","1024","2","48000","-16","experiment","1","odd","9","789250","790275","792475","642657","2507","125049","791275","794475","NA","790274","2504","173360","794475","795190","52250","Sternberg Task","107","77641.0","118","1024"
"90","90","658","658","#3d3846","experiment","legacy","legacy","legacy","1","undefined","1","left","118","118","118","118","0","0","118","118","0","118","0","0","118","118","0","Sun Oct 15 19:11:40 2023","The main experiment item","True","SternbergTask.osexp","C:/Users/Hannah Laskoskie/Downloads","False","mono","False","18","no","white","no","yes","768","legacy","106","11","C:/Users/Hannah Laskoskie/Downloads/subject-1.csv","legacy","4 9 7 8 5 3","Melodramatic Milgram","4.0.5","4","y","0","left","right","right","NA","left","695.0","49742","48311","NA","695","2","legacy","6","1024","2","48000","-16","experiment","1","odd","8","795198","796223","798423","642657","2507","125049","797223","800423","NA","796222","2504","173360","800423","801119","52250","Sternberg Task","108","78336.0","119","1024"
"90","90","658","658","#3d3846","experiment","legacy","legacy","legacy","1","undefined","1","right","119","119","119","119","0","0","119","119","0","119","0","0","119","119","0","Sun Oct 15 19:11:40 2023","The main experiment item","True","SternbergTask.osexp","C:/Users/Hannah Laskoskie/Downloads","False","mono","False","18","no","white","no","yes","768","legacy","107","11","C:/Users/Hannah Laskoskie/Downloads/subject-1.csv","legacy","1 7 8 3 9","Melodramatic Milgram","4.0.5","0","n","0","right","right","right","NA","right","734.0","49742","48311","NA","734","2","legacy","5","1024","2","48000","-16","experiment","1","odd","2","801120","802145","804345","642657","2507","125049","803145","806345","NA","802144","2504","173360","806345","807080","52250","Sternberg Task","109","79070.0","120","1024"
"90","90","659","659","#3d3846","experiment","legacy","legacy","legacy","1","undefined","1","left","120","120","120","120","0","0","120","120","0","120","0","0","120","120","0","Sun Oct 15 19:11:40 2023","The main experiment item","True","SternbergTask.osexp","C:/Users/Hannah Laskoskie/Downloads","False","mono","False","18","no","white","no","yes","768","legacy","108","11","C:/Users/Hannah Laskoskie/Downloads/subject-1.csv","legacy","7 4 2 6 3 5","Melodramatic Milgram","4.0.5","6","y","0","left","right","right","NA","left","764.0","49742","48311","NA","764","2","legacy","6","1024","2","48000","-16","experiment","1","odd","5","807082","808107","810307","642657","2507","125049","809107","812307","NA","808106","2504","173360","812307","813072","52250","Sternberg Task","110","79834.0","121","1024"
"90","90","659","659","#3d3846","experiment","legacy","legacy","legacy","1","undefined","1","left","121","121","121","121","0","0","121","121","0","121","0","0","121","121","0","Sun Oct 15 19:11:40 2023","The main experiment item","True","SternbergTask.osexp","C:/Users/Hannah Laskoskie/Downloads","False","mono","False","18","no","white","no","yes","768","legacy","109","11","C:/Users/Hannah Laskoskie/Downloads/subject-1.csv","legacy","3 5 7 1","Melodramatic Milgram","4.0.5","3","y","0","left","right","right","NA","left","584.0","49742","48311","NA","584","2","legacy","4","1024","2","48000","-16","experiment","1","odd","7","813074","814104","816304","642657","2507","125049","815104","818304","NA","814103","2504","173360","818304","818889","52250","Sternberg Task","111","80418.0","122","1024"
"91","91","658","658","#3d3846","experiment","legacy","legacy","legacy","1","undefined","1","left","122","122","122","122","0","0","122","122","0","122","0","0","122","122","0","Sun Oct 15 19:11:40 2023","The main experiment item","True","SternbergTask.osexp","C:/Users/Hannah Laskoskie/Downloads","False","mono","False","18","no","white","no","yes","768","legacy","110","11","C:/Users/Hannah Laskoskie/Downloads/subject-1.csv","legacy","8 9 5 7 1 6","Melodramatic Milgram","4.0.5","4","y","0","left","right","right","NA","left","611.0","49742","48311","NA","611","2","legacy","6","1024","2","48000","-16","experiment","1","odd","7","818897","819928","822128","642657","2507","125049","820928","824128","NA","819926","2504","173360","824128","824740","52250","Sternberg Task","112","81029.0","123","1024"
"91","91","661","661","#3d3846","experiment","legacy","legacy","legacy","1","undefined","1","right","123","123","123","123","0","0","123","123","0","123","0","0","123","123","0","Sun Oct 15 19:11:40 2023","The main experiment item","True","SternbergTask.osexp","C:/Users/Hannah Laskoskie/Downloads","False","mono","False","18","no","white","no","yes","768","legacy","111","11","C:/Users/Hannah Laskoskie/Downloads/subject-1.csv","legacy","8 5 7 3 6","Melodramatic Milgram","4.0.5","0","n","0","right","right","right","NA","right","958.0","49742","48311","NA","958","2","legacy","5","1024","2","48000","-16","experiment","1","odd","9","824741","825766","827966","642657","2507","125049","826766","829966","NA","825765","2504","173360","829966","830925","52250","Sternberg Task","113","81987.0","124","1024"
