"acc","accuracy","average_response_time","avg_rt","background","block","canvas_backend","clock_backend","color_backend","compensation","coordinates","correct","correct_instruction1","correct_new_keyboard_response","correct_response","count_ISI","count_correctfeedback","count_expSequence","count_experiment","count_experimentLoop","count_fixation","count_incorrect","count_instruction1","count_instruction2","count_memorySet","count_new_keyboard_response","count_new_logger","count_practiceLoop","count_probe","count_thankYou","datetime","description","disable_garbage_collection","experiment_file","experiment_path","font_bold","font_family","font_italic","font_size","font_underline","foreground","form_clicks","fullscreen","height","keyboard_backend","live_row","live_row_practiceLoop","logfile","mouse_backend","numberSet","opensesame_codename","opensesame_version","posInSet","present","repeat_cycle","response","response_instruction1","response_instruction2","response_new_keyboard_response","response_thankYou","response_time","response_time_instruction1","response_time_instruction2","response_time_new_keyboard_response","response_time_thankYou","round_decimals","sampler_backend","setSize","sound_buf_size","sound_channels","sound_freq","sound_sample_size","start","subject_nr","subject_parity","target","time_ISI","time_correctfeedback","time_expSequence","time_experiment","time_experimentLoop","time_fixation","time_incorrect","time_instruction1","time_instruction2","time_memorySet","time_new_keyboard_response","time_new_logger","time_practiceLoop","time_probe","time_thankYou","title","total_correct","total_response_time","total_responses","uniform_coordinates","width"
"0","0","2000","2000","black","practice","legacy","legacy","legacy","0","uniform","0","undefined","0","left","0","0","0","0","0","0","0","0","0","0","0","0","0","0","0","Sun Oct 25 19:45:32 2020","The main experiment item","yes","SternbergTask-AL.osexp","/Users/annielenoir/Desktop","no","mono","no","18","no","white","no","no","768","legacy","0","0","/Users/annielenoir/Desktop/AL-subject-4.csv","legacy","1 7 9 8 5","Lentiform Loewenfeld","3.3.3","4","y","0","None","right","NA","None","NA","2000","36056","NA","2000","NA","2","legacy","5","1024","2","48000","-16","experiment","4","even","8","40845","NA","38229","1867","NA","38368","NA","2028","NA","39508","42980","44980","38105","42980","NA","Sternberg Task","0","2000","1","yes","1024"
"50","50","1435","1435","black","practice","legacy","legacy","legacy","0","uniform","1","undefined","1","right","1","1","1","0","0","1","1","0","0","1","1","1","0","1","0","Sun Oct 25 19:45:32 2020","The main experiment item","yes","SternbergTask-AL.osexp","/Users/annielenoir/Desktop","no","mono","no","18","no","white","no","no","768","legacy","1","1","/Users/annielenoir/Desktop/AL-subject-4.csv","legacy","5 7 8 4 1 2","Lentiform Loewenfeld","3.3.3","0","n","0","right","right","NA","right","NA","870","36056","NA","870","NA","2","legacy","6","1024","2","48000","-16","experiment","4","even","6","49049","NA","46421","1867","NA","46559","45145","2028","NA","47698","51197","52067","38105","51196","NA","Sternberg Task","1","2870","2","yes","1024"
"66.66666666666667","66.66666666666667","1173.6666666666667","1173.6666666666667","black","practice","legacy","legacy","legacy","0","uniform","1","undefined","1","left","2","2","2","0","0","2","2","0","0","2","2","2","0","2","0","Sun Oct 25 19:45:32 2020","The main experiment item","yes","SternbergTask-AL.osexp","/Users/annielenoir/Desktop","no","mono","no","18","no","white","no","no","768","legacy","2","2","/Users/annielenoir/Desktop/AL-subject-4.csv","legacy","1 5 2 9","Lentiform Loewenfeld","3.3.3","2","y","0","left","right","NA","left","NA","651","36056","NA","651","NA","2","legacy","4","1024","2","48000","-16","experiment","4","even","5","55923","52214","53312","1867","NA","53447","45145","2028","NA","54586","58058","58710","38105","58058","NA","Sternberg Task","2","3521","3","yes","1024"
"75","75","986","986","black","practice","legacy","legacy","legacy","0","uniform","1","undefined","1","right","3","3","3","0","0","3","3","0","0","3","3","3","0","3","0","Sun Oct 25 19:45:32 2020","The main experiment item","yes","SternbergTask-AL.osexp","/Users/annielenoir/Desktop","no","mono","no","18","no","white","no","no","768","legacy","3","3","/Users/annielenoir/Desktop/AL-subject-4.csv","legacy","4 1 5","Lentiform Loewenfeld","3.3.3","0","n","0","right","right","NA","right","NA","423","36056","NA","423","NA","2","legacy","3","1024","2","48000","-16","experiment","4","even","2","62638","58860","60015","1867","NA","60154","45145","2028","NA","61290","64784","65208","38105","64784","NA","Sternberg Task","3","3944","4","yes","1024"
"60","60","939","939","black","practice","legacy","legacy","legacy","0","uniform","0","undefined","0","right","4","4","4","0","0","4","4","0","0","4","4","4","0","4","0","Sun Oct 25 19:45:32 2020","The main experiment item","yes","SternbergTask-AL.osexp","/Users/annielenoir/Desktop","no","mono","no","18","no","white","no","no","768","legacy","4","4","/Users/annielenoir/Desktop/AL-subject-4.csv","legacy","3 1 9 4","Lentiform Loewenfeld","3.3.3","0","n","0","left","right","NA","left","NA","751","36056","NA","751","NA","2","legacy","4","1024","2","48000","-16","experiment","4","even","6","69104","65352","66474","1867","NA","66611","45145","2028","NA","67763","71249","72000","38105","71249","NA","Sternberg Task","3","4695","5","yes","1024"
"50","50","889.5","889.5","black","practice","legacy","legacy","legacy","0","uniform","0","undefined","0","left","5","5","5","0","0","5","5","0","0","5","5","5","0","5","0","Sun Oct 25 19:45:32 2020","The main experiment item","yes","SternbergTask-AL.osexp","/Users/annielenoir/Desktop","no","mono","no","18","no","white","no","no","768","legacy","5","5","/Users/annielenoir/Desktop/AL-subject-4.csv","legacy","4 8","Lentiform Loewenfeld","3.3.3","1","y","0","right","right","NA","right","NA","642","36056","NA","642","NA","2","legacy","2","1024","2","48000","-16","experiment","4","even","4","75917","65352","73272","1867","NA","73424","72147","2028","NA","74572","78054","78697","38105","78054","NA","Sternberg Task","3","5337","6","yes","1024"
"57.142857142857146","57.142857142857146","915.7142857142857","915.7142857142857","black","practice","legacy","legacy","legacy","0","uniform","1","undefined","1","right","6","6","6","0","0","6","6","0","0","6","6","6","0","6","0","Sun Oct 25 19:45:32 2020","The main experiment item","yes","SternbergTask-AL.osexp","/Users/annielenoir/Desktop","no","mono","no","18","no","white","no","no","768","legacy","6","6","/Users/annielenoir/Desktop/AL-subject-4.csv","legacy","9 6 7 4 5","Lentiform Loewenfeld","3.3.3","0","n","0","right","right","NA","right","NA","1073","36056","NA","1073","NA","2","legacy","5","1024","2","48000","-16","experiment","4","even","3","82596","65352","79962","1867","NA","80101","78842","2028","NA","81250","84735","85809","38105","84735","NA","Sternberg Task","4","6410","7","yes","1024"
"62.5","62.5","890.125","890.125","black","practice","legacy","legacy","legacy","0","uniform","1","undefined","1","left","7","7","7","0","0","7","7","0","0","7","7","7","0","7","0","Sun Oct 25 19:45:32 2020","The main experiment item","yes","SternbergTask-AL.osexp","/Users/annielenoir/Desktop","no","mono","no","18","no","white","no","no","768","legacy","7","7","/Users/annielenoir/Desktop/AL-subject-4.csv","legacy","6","Lentiform Loewenfeld","3.3.3","1","y","0","left","right","NA","left","NA","711","36056","NA","711","NA","2","legacy","1","1024","2","48000","-16","experiment","4","even","6","89751","85958","87127","1867","NA","87266","78842","2028","NA","88404","91895","92607","38105","91895","NA","Sternberg Task","5","7121","8","yes","1024"
"66.66666666666667","66.66666666666667","836.8888888888889","836.8888888888889","black","practice","legacy","legacy","legacy","0","uniform","1","undefined","1","right","8","8","8","0","0","8","8","0","0","8","8","8","0","8","0","Sun Oct 25 19:45:32 2020","The main experiment item","yes","SternbergTask-AL.osexp","/Users/annielenoir/Desktop","no","mono","no","18","no","white","no","no","768","legacy","8","8","/Users/annielenoir/Desktop/AL-subject-4.csv","legacy","5","Lentiform Loewenfeld","3.3.3","0","n","0","right","right","NA","right","NA","411","36056","NA","411","NA","2","legacy","1","1024","2","48000","-16","experiment","4","even","3","96563","92755","93938","1867","NA","94077","78842","2028","NA","95217","98705","99116","38105","98705","NA","Sternberg Task","6","7532","9","yes","1024"
"70","70","803.6","803.6","black","practice","legacy","legacy","legacy","0","uniform","1","undefined","1","right","9","9","9","0","0","9","9","0","0","9","9","9","0","9","0","Sun Oct 25 19:45:32 2020","The main experiment item","yes","SternbergTask-AL.osexp","/Users/annielenoir/Desktop","no","mono","no","18","no","white","no","no","768","legacy","9","9","/Users/annielenoir/Desktop/AL-subject-4.csv","legacy","2 1","Lentiform Loewenfeld","3.3.3","0","n","0","right","right","NA","right","NA","504","36056","NA","504","NA","2","legacy","2","1024","2","48000","-16","experiment","4","even","5","103019","99267","100392","1867","NA","100531","78842","2028","NA","101676","105167","105672","38105","105167","NA","Sternberg Task","7","8036","10","yes","1024"
"72.72727272727273","72.72727272727273","777.5454545454545","777.5454545454545","black","practice","legacy","legacy","legacy","0","uniform","1","undefined","1","left","10","10","10","0","0","10","10","0","0","10","10","10","0","10","0","Sun Oct 25 19:45:32 2020","The main experiment item","yes","SternbergTask-AL.osexp","/Users/annielenoir/Desktop","no","mono","no","18","no","white","no","no","768","legacy","10","10","/Users/annielenoir/Desktop/AL-subject-4.csv","legacy","4 3 1 7 9 8","Lentiform Loewenfeld","3.3.3","1","y","0","left","right","NA","left","NA","517","36056","NA","517","NA","2","legacy","6","1024","2","48000","-16","experiment","4","even","4","109587","105820","106956","1867","NA","107092","78842","2028","NA","108237","111728","112245","38105","111728","NA","Sternberg Task","8","8553","11","yes","1024"
"66.66666666666667","66.66666666666667","758.1666666666666","758.1666666666666","black","practice","legacy","legacy","legacy","0","uniform","0","undefined","0","left","11","11","11","0","0","11","11","0","0","11","11","11","0","11","0","Sun Oct 25 19:45:32 2020","The main experiment item","yes","SternbergTask-AL.osexp","/Users/annielenoir/Desktop","no","mono","no","18","no","white","no","no","768","legacy","11","11","/Users/annielenoir/Desktop/AL-subject-4.csv","legacy","2 9 4","Lentiform Loewenfeld","3.3.3","3","y","0","right","right","NA","right","NA","545","36056","NA","545","NA","2","legacy","3","1024","2","48000","-16","experiment","4","even","4","116165","112393","113542","1867","NA","113680","78842","2028","NA","114816","118311","118856","38105","118311","NA","Sternberg Task","8","9098","12","yes","1024"
"69.23076923076923","69.23076923076923","752.7692307692307","752.7692307692307","black","experiment","legacy","legacy","legacy","0","uniform","1","undefined","1","left","12","12","12","0","0","12","12","0","0","12","12","12","0","12","0","Sun Oct 25 19:45:32 2020","The main experiment item","yes","SternbergTask-AL.osexp","/Users/annielenoir/Desktop","no","mono","no","18","no","white","no","no","768","legacy","0","11","/Users/annielenoir/Desktop/AL-subject-4.csv","legacy","8 7 3","Lentiform Loewenfeld","3.3.3","1","y","0","left","right","right","left","NA","688","36056","10072","688","NA","2","legacy","3","1024","2","48000","-16","experiment","4","even","8","133011","112393","130381","1867","130297","130519","119000","2028","120224","131663","135155","135843","38105","135155","NA","Sternberg Task","9","9786","13","yes","1024"
"64.28571428571429","64.28571428571429","737.0714285714286","737.0714285714286","black","experiment","legacy","legacy","legacy","0","uniform","0","undefined","0","left","13","13","13","0","0","13","13","0","0","13","13","13","0","13","0","Sun Oct 25 19:45:32 2020","The main experiment item","yes","SternbergTask-AL.osexp","/Users/annielenoir/Desktop","no","mono","no","18","no","white","no","no","768","legacy","1","11","/Users/annielenoir/Desktop/AL-subject-4.csv","legacy","2 4 8 5 1 3","Lentiform Loewenfeld","3.3.3","1","y","0","right","right","right","right","NA","533","36056","10072","533","NA","2","legacy","6","1024","2","48000","-16","experiment","4","even","2","139828","135996","137203","1867","130297","137342","119000","2028","120224","138481","141974","142508","38105","141974","NA","Sternberg Task","9","10319","14","yes","1024"
"66.66666666666667","66.66666666666667","721.4666666666667","721.4666666666667","black","experiment","legacy","legacy","legacy","0","uniform","1","undefined","1","right","14","14","14","0","0","14","14","0","0","14","14","14","0","14","0","Sun Oct 25 19:45:32 2020","The main experiment item","yes","SternbergTask-AL.osexp","/Users/annielenoir/Desktop","no","mono","no","18","no","white","no","no","768","legacy","2","11","/Users/annielenoir/Desktop/AL-subject-4.csv","legacy","5 3 8 7 2 4","Lentiform Loewenfeld","3.3.3","0","n","0","right","right","right","right","NA","503","36056","10072","503","NA","2","legacy","6","1024","2","48000","-16","experiment","4","even","9","146410","135996","143778","1867","130297","143919","142654","2028","120224","145066","148551","149055","38105","148551","NA","Sternberg Task","10","10822","15","yes","1024"
"68.75","68.75","710.0625","710.0625","black","experiment","legacy","legacy","legacy","0","uniform","1","undefined","1","right","15","15","15","0","0","15","15","0","0","15","15","15","0","15","0","Sun Oct 25 19:45:32 2020","The main experiment item","yes","SternbergTask-AL.osexp","/Users/annielenoir/Desktop","no","mono","no","18","no","white","no","no","768","legacy","3","11","/Users/annielenoir/Desktop/AL-subject-4.csv","legacy","1 4 9 2 5","Lentiform Loewenfeld","3.3.3","0","n","0","right","right","right","right","NA","539","36056","10072","539","NA","2","legacy","5","1024","2","48000","-16","experiment","4","even","7","152966","149199","150330","1867","130297","150468","142654","2028","120224","151614","155113","155653","38105","155113","NA","Sternberg Task","11","11361","16","yes","1024"
"70.58823529411765","70.58823529411765","702.7058823529412","702.7058823529412","black","experiment","legacy","legacy","legacy","0","uniform","1","undefined","1","right","16","16","16","0","0","16","16","0","0","16","16","16","0","16","0","Sun Oct 25 19:45:32 2020","The main experiment item","yes","SternbergTask-AL.osexp","/Users/annielenoir/Desktop","no","mono","no","18","no","white","no","no","768","legacy","4","11","/Users/annielenoir/Desktop/AL-subject-4.csv","legacy","8 2 1 4 5 9","Lentiform Loewenfeld","3.3.3","0","n","0","right","right","right","right","NA","585","36056","10072","585","NA","2","legacy","6","1024","2","48000","-16","experiment","4","even","7","159557","155799","156923","1867","130297","157060","142654","2028","120224","158207","161700","162286","38105","161700","NA","Sternberg Task","12","11946","17","yes","1024"
"72.22222222222223","72.22222222222223","690.4444444444445","690.4444444444445","black","experiment","legacy","legacy","legacy","0","uniform","1","undefined","1","left","17","17","17","0","0","17","17","0","0","17","17","17","0","17","0","Sun Oct 25 19:45:32 2020","The main experiment item","yes","SternbergTask-AL.osexp","/Users/annielenoir/Desktop","no","mono","no","18","no","white","no","no","768","legacy","5","11","/Users/annielenoir/Desktop/AL-subject-4.csv","legacy","2 3","Lentiform Loewenfeld","3.3.3","1","y","0","left","right","right","left","NA","482","36056","10072","482","NA","2","legacy","2","1024","2","48000","-16","experiment","4","even","2","166216","162435","163593","1867","130297","163732","142654","2028","120224","164870","168357","168840","38105","168357","NA","Sternberg Task","13","12428","18","yes","1024"
"68.42105263157895","68.42105263157895","679.8947368421053","679.8947368421053","black","experiment","legacy","legacy","legacy","0","uniform","0","undefined","0","left","18","18","18","0","0","18","18","0","0","18","18","18","0","18","0","Sun Oct 25 19:45:32 2020","The main experiment item","yes","SternbergTask-AL.osexp","/Users/annielenoir/Desktop","no","mono","no","18","no","white","no","no","768","legacy","6","11","/Users/annielenoir/Desktop/AL-subject-4.csv","legacy","4 7 6 8 2 3","Lentiform Loewenfeld","3.3.3","6","y","0","right","right","right","right","NA","490","36056","10072","490","NA","2","legacy","6","1024","2","48000","-16","experiment","4","even","3","172740","168983","170115","1867","130297","170257","142654","2028","120224","171405","174887","175377","38105","174886","NA","Sternberg Task","13","12918","19","yes","1024"
"70","70","679.4","679.4","black","experiment","legacy","legacy","legacy","0","uniform","1","undefined","1","right","19","19","19","0","0","19","19","0","0","19","19","19","0","19","0","Sun Oct 25 19:45:32 2020","The main experiment item","yes","SternbergTask-AL.osexp","/Users/annielenoir/Desktop","no","mono","no","18","no","white","no","no","768","legacy","7","11","/Users/annielenoir/Desktop/AL-subject-4.csv","legacy","4 8 1 2","Lentiform Loewenfeld","3.3.3","0","n","0","right","right","right","right","NA","670","36056","10072","670","NA","2","legacy","4","1024","2","48000","-16","experiment","4","even","7","179279","168983","176646","1867","130297","176782","175522","2028","120224","177928","181425","182096","38105","181424","NA","Sternberg Task","14","13588","20","yes","1024"
"71.42857142857143","71.42857142857143","674.7619047619048","674.7619047619048","black","experiment","legacy","legacy","legacy","0","uniform","1","undefined","1","left","20","20","20","0","0","20","20","0","0","20","20","20","0","20","0","Sun Oct 25 19:45:32 2020","The main experiment item","yes","SternbergTask-AL.osexp","/Users/annielenoir/Desktop","no","mono","no","18","no","white","no","no","768","legacy","8","11","/Users/annielenoir/Desktop/AL-subject-4.csv","legacy","3 5 9 6 2 4","Lentiform Loewenfeld","3.3.3","1","y","0","left","right","right","left","NA","582","36056","10072","582","NA","2","legacy","6","1024","2","48000","-16","experiment","4","even","3","186017","182244","183394","1867","130297","183531","175522","2028","120224","184674","188160","188743","38105","188160","NA","Sternberg Task","15","14170","21","yes","1024"
"72.72727272727273","72.72727272727273","665.7272727272727","665.7272727272727","black","experiment","legacy","legacy","legacy","0","uniform","1","undefined","1","right","21","21","21","0","0","21","21","0","0","21","21","21","0","21","0","Sun Oct 25 19:45:32 2020","The main experiment item","yes","SternbergTask-AL.osexp","/Users/annielenoir/Desktop","no","mono","no","18","no","white","no","no","768","legacy","9","11","/Users/annielenoir/Desktop/AL-subject-4.csv","legacy","2 8 9 4 1","Lentiform Loewenfeld","3.3.3","0","n","0","right","right","right","right","NA","476","36056","10072","476","NA","2","legacy","5","1024","2","48000","-16","experiment","4","even","5","192676","188891","190046","1867","130297","190186","175522","2028","120224","191327","194820","195296","38105","194819","NA","Sternberg Task","16","14646","22","yes","1024"
"73.91304347826087","73.91304347826087","661.7826086956521","661.7826086956521","black","experiment","legacy","legacy","legacy","0","uniform","1","undefined","1","right","22","22","22","0","0","22","22","0","0","22","22","22","0","22","0","Sun Oct 25 19:45:32 2020","The main experiment item","yes","SternbergTask-AL.osexp","/Users/annielenoir/Desktop","no","mono","no","18","no","white","no","no","768","legacy","10","11","/Users/annielenoir/Desktop/AL-subject-4.csv","legacy","9 7 4 5 8","Lentiform Loewenfeld","3.3.3","0","n","0","right","right","right","right","NA","575","36056","10072","575","NA","2","legacy","5","1024","2","48000","-16","experiment","4","even","6","199191","195440","196566","1867","130297","196703","175522","2028","120224","197850","201340","201916","38105","201340","NA","Sternberg Task","17","15221","23","yes","1024"
"75","75","665.4583333333334","665.4583333333334","black","experiment","legacy","legacy","legacy","0","uniform","1","undefined","1","left","23","23","23","0","0","23","23","0","0","23","23","23","0","23","0","Sun Oct 25 19:45:32 2020","The main experiment item","yes","SternbergTask-AL.osexp","/Users/annielenoir/Desktop","no","mono","no","18","no","white","no","no","768","legacy","11","11","/Users/annielenoir/Desktop/AL-subject-4.csv","legacy","7 1 3","Lentiform Loewenfeld","3.3.3","2","y","0","left","right","right","left","NA","750","36056","10072","750","NA","2","legacy","3","1024","2","48000","-16","experiment","4","even","1","205834","202061","203198","1867","130297","203336","175522","2028","120224","204485","207984","208734","38105","207984","NA","Sternberg Task","18","15971","24","yes","1024"
"76","76","657.6","657.6","black","experiment","legacy","legacy","legacy","0","uniform","1","undefined","1","right","24","24","24","0","0","24","24","0","0","24","24","24","0","24","0","Sun Oct 25 19:45:32 2020","The main experiment item","yes","SternbergTask-AL.osexp","/Users/annielenoir/Desktop","no","mono","no","18","no","white","no","no","768","legacy","12","11","/Users/annielenoir/Desktop/AL-subject-4.csv","legacy","1 3 2 6 9","Lentiform Loewenfeld","3.3.3","0","n","0","right","right","right","right","NA","469","36056","10072","469","NA","2","legacy","5","1024","2","48000","-16","experiment","4","even","5","212643","208883","210006","1867","130297","210147","175522","2028","120224","211293","214790","215260","38105","214790","NA","Sternberg Task","19","16440","25","yes","1024"
"76.92307692307692","76.92307692307692","650.3461538461538","650.3461538461538","black","experiment","legacy","legacy","legacy","0","uniform","1","undefined","1","right","25","25","25","0","0","25","25","0","0","25","25","25","0","25","0","Sun Oct 25 19:45:32 2020","The main experiment item","yes","SternbergTask-AL.osexp","/Users/annielenoir/Desktop","no","mono","no","18","no","white","no","no","768","legacy","13","11","/Users/annielenoir/Desktop/AL-subject-4.csv","legacy","1 6 4","Lentiform Loewenfeld","3.3.3","0","n","0","right","right","right","right","NA","469","36056","10072","469","NA","2","legacy","3","1024","2","48000","-16","experiment","4","even","7","219204","215415","216583","1867","130297","216720","175522","2028","120224","217857","221347","221817","38105","221347","NA","Sternberg Task","20","16909","26","yes","1024"
"74.07407407407408","74.07407407407408","653.5185185185185","653.5185185185185","black","experiment","legacy","legacy","legacy","0","uniform","0","undefined","0","left","26","26","26","0","0","26","26","0","0","26","26","26","0","26","0","Sun Oct 25 19:45:32 2020","The main experiment item","yes","SternbergTask-AL.osexp","/Users/annielenoir/Desktop","no","mono","no","18","no","white","no","no","768","legacy","14","11","/Users/annielenoir/Desktop/AL-subject-4.csv","legacy","2 6 1 7 4","Lentiform Loewenfeld","3.3.3","2","y","0","right","right","right","right","NA","736","36056","10072","736","NA","2","legacy","5","1024","2","48000","-16","experiment","4","even","6","225710","221962","223083","1867","130297","223220","175522","2028","120224","224374","227853","228589","38105","227853","NA","Sternberg Task","20","17645","27","yes","1024"
"71.42857142857143","71.42857142857143","651.1071428571429","651.1071428571429","black","experiment","legacy","legacy","legacy","0","uniform","0","undefined","0","right","27","27","27","0","0","27","27","0","0","27","27","27","0","27","0","Sun Oct 25 19:45:32 2020","The main experiment item","yes","SternbergTask-AL.osexp","/Users/annielenoir/Desktop","no","mono","no","18","no","white","no","no","768","legacy","15","11","/Users/annielenoir/Desktop/AL-subject-4.csv","legacy","6 9 4 5 3 2","Lentiform Loewenfeld","3.3.3","0","n","0","left","right","right","left","NA","586","36056","10072","586","NA","2","legacy","6","1024","2","48000","-16","experiment","4","even","8","232509","221962","229871","1867","130297","230012","228734","2028","120224","231162","234646","235233","38105","234646","NA","Sternberg Task","20","18231","28","yes","1024"
"72.41379310344827","72.41379310344827","645.1724137931035","645.1724137931035","black","experiment","legacy","legacy","legacy","0","uniform","1","undefined","1","left","28","28","28","0","0","28","28","0","0","28","28","28","0","28","0","Sun Oct 25 19:45:32 2020","The main experiment item","yes","SternbergTask-AL.osexp","/Users/annielenoir/Desktop","no","mono","no","18","no","white","no","no","768","legacy","16","11","/Users/annielenoir/Desktop/AL-subject-4.csv","legacy","2 3 7 4","Lentiform Loewenfeld","3.3.3","1","y","0","left","right","right","left","NA","479","36056","10072","479","NA","2","legacy","4","1024","2","48000","-16","experiment","4","even","2","239137","221962","236512","1867","130297","236650","235375","2028","120224","237799","241283","241763","38105","241283","NA","Sternberg Task","21","18710","29","yes","1024"
"73.33333333333333","73.33333333333333","639.7","639.7","black","experiment","legacy","legacy","legacy","0","uniform","1","undefined","1","right","29","29","29","0","0","29","29","0","0","29","29","29","0","29","0","Sun Oct 25 19:45:32 2020","The main experiment item","yes","SternbergTask-AL.osexp","/Users/annielenoir/Desktop","no","mono","no","18","no","white","no","no","768","legacy","17","11","/Users/annielenoir/Desktop/AL-subject-4.csv","legacy","9 5 3 2 8 6","Lentiform Loewenfeld","3.3.3","0","n","0","right","right","right","right","NA","481","36056","10072","481","NA","2","legacy","6","1024","2","48000","-16","experiment","4","even","7","245670","241910","243037","1867","130297","243173","235375","2028","120224","244319","247816","248297","38105","247815","NA","Sternberg Task","22","19191","30","yes","1024"
"74.19354838709677","74.19354838709677","644.1612903225806","644.1612903225806","black","experiment","legacy","legacy","legacy","0","uniform","1","undefined","1","left","30","30","30","0","0","30","30","0","0","30","30","30","0","30","0","Sun Oct 25 19:45:32 2020","The main experiment item","yes","SternbergTask-AL.osexp","/Users/annielenoir/Desktop","no","mono","no","18","no","white","no","no","768","legacy","18","11","/Users/annielenoir/Desktop/AL-subject-4.csv","legacy","7 8 4 6 9 5","Lentiform Loewenfeld","3.3.3","4","y","0","left","right","right","left","NA","778","36056","10072","778","NA","2","legacy","6","1024","2","48000","-16","experiment","4","even","6","252218","248448","249597","1867","130297","249734","235375","2028","120224","250869","254363","255142","38105","254362","NA","Sternberg Task","23","19969","31","yes","1024"
"75","75","640","640","black","experiment","legacy","legacy","legacy","0","uniform","1","undefined","1","right","31","31","31","0","0","31","31","0","0","31","31","31","0","31","0","Sun Oct 25 19:45:32 2020","The main experiment item","yes","SternbergTask-AL.osexp","/Users/annielenoir/Desktop","no","mono","no","18","no","white","no","no","768","legacy","19","11","/Users/annielenoir/Desktop/AL-subject-4.csv","legacy","2 5 1 4","Lentiform Loewenfeld","3.3.3","0","n","0","right","right","right","right","NA","511","36056","10072","511","NA","2","legacy","4","1024","2","48000","-16","experiment","4","even","6","259084","255293","256464","1867","130297","256601","235375","2028","120224","257738","261226","261737","38105","261226","NA","Sternberg Task","24","20480","32","yes","1024"
"75.75757575757575","75.75757575757575","646.060606060606","646.060606060606","black","experiment","legacy","legacy","legacy","0","uniform","1","undefined","1","left","32","32","32","0","0","32","32","0","0","32","32","32","0","32","0","Sun Oct 25 19:45:32 2020","The main experiment item","yes","SternbergTask-AL.osexp","/Users/annielenoir/Desktop","no","mono","no","18","no","white","no","no","768","legacy","20","11","/Users/annielenoir/Desktop/AL-subject-4.csv","legacy","8 9 5 7 1 6","Lentiform Loewenfeld","3.3.3","4","y","0","left","right","right","left","NA","840","36056","10072","840","NA","2","legacy","6","1024","2","48000","-16","experiment","4","even","7","265645","261882","263018","1867","130297","263159","235375","2028","120224","264309","267786","268627","38105","267786","NA","Sternberg Task","25","21320","33","yes","1024"
"76.47058823529412","76.47058823529412","638.8529411764706","638.8529411764706","black","experiment","legacy","legacy","legacy","0","uniform","1","undefined","1","right","33","33","33","0","0","33","33","0","0","33","33","33","0","33","0","Sun Oct 25 19:45:32 2020","The main experiment item","yes","SternbergTask-AL.osexp","/Users/annielenoir/Desktop","no","mono","no","18","no","white","no","no","768","legacy","21","11","/Users/annielenoir/Desktop/AL-subject-4.csv","legacy","9","Lentiform Loewenfeld","3.3.3","0","n","0","right","right","right","right","NA","401","36056","10072","401","NA","2","legacy","1","1024","2","48000","-16","experiment","4","even","6","272572","268775","269947","1867","130297","270086","235375","2028","120224","271224","274713","275114","38105","274713","NA","Sternberg Task","26","21721","34","yes","1024"
"77.14285714285714","77.14285714285714","637.8","637.8","black","experiment","legacy","legacy","legacy","0","uniform","1","undefined","1","left","34","34","34","0","0","34","34","0","0","34","34","34","0","34","0","Sun Oct 25 19:45:32 2020","The main experiment item","yes","SternbergTask-AL.osexp","/Users/annielenoir/Desktop","no","mono","no","18","no","white","no","no","768","legacy","22","11","/Users/annielenoir/Desktop/AL-subject-4.csv","legacy","9 5 3 8 4","Lentiform Loewenfeld","3.3.3","1","y","0","left","right","right","left","NA","602","36056","10072","602","NA","2","legacy","5","1024","2","48000","-16","experiment","4","even","9","279019","275257","276384","1867","130297","276521","235375","2028","120224","277667","281172","281775","38105","281172","NA","Sternberg Task","27","22323","35","yes","1024"
"75","75","649.6388888888889","649.6388888888889","black","experiment","legacy","legacy","legacy","0","uniform","0","undefined","0","left","35","35","35","0","0","35","35","0","0","35","35","35","0","35","0","Sun Oct 25 19:45:32 2020","The main experiment item","yes","SternbergTask-AL.osexp","/Users/annielenoir/Desktop","no","mono","no","18","no","white","no","no","768","legacy","23","11","/Users/annielenoir/Desktop/AL-subject-4.csv","legacy","5 7 8 2 3 8","Lentiform Loewenfeld","3.3.3","5","y","0","right","right","right","right","NA","1064","36056","10072","1064","NA","2","legacy","6","1024","2","48000","-16","experiment","4","even","3","285675","281918","283045","1867","130297","283181","235375","2028","120224","284326","287819","288884","38105","287819","NA","Sternberg Task","27","23387","36","yes","1024"
"72.97297297297297","72.97297297297297","646.5135135135135","646.5135135135135","black","experiment","legacy","legacy","legacy","0","uniform","0","undefined","0","left","36","36","36","0","0","36","36","0","0","36","36","36","0","36","0","Sun Oct 25 19:45:32 2020","The main experiment item","yes","SternbergTask-AL.osexp","/Users/annielenoir/Desktop","no","mono","no","18","no","white","no","no","768","legacy","24","11","/Users/annielenoir/Desktop/AL-subject-4.csv","legacy","5 2 6","Lentiform Loewenfeld","3.3.3","2","y","0","right","right","right","right","NA","534","36056","10072","534","NA","2","legacy","3","1024","2","48000","-16","experiment","4","even","2","292796","281918","290170","1867","130297","290305","289029","2028","120224","291448","294941","295475","38105","294941","NA","Sternberg Task","27","23921","37","yes","1024"
"71.05263157894737","71.05263157894737","642","642","black","experiment","legacy","legacy","legacy","0","uniform","0","undefined","0","left","37","37","37","0","0","37","37","0","0","37","37","37","0","37","0","Sun Oct 25 19:45:32 2020","The main experiment item","yes","SternbergTask-AL.osexp","/Users/annielenoir/Desktop","no","mono","no","18","no","white","no","no","768","legacy","25","11","/Users/annielenoir/Desktop/AL-subject-4.csv","legacy","6 7 8 5","Lentiform Loewenfeld","3.3.3","3","y","0","right","right","right","right","NA","475","36056","10072","475","NA","2","legacy","4","1024","2","48000","-16","experiment","4","even","8","299431","281918","296808","1867","130297","296947","295627","2028","120224","298083","301576","302052","38105","301576","NA","Sternberg Task","27","24396","38","yes","1024"
"71.7948717948718","71.7948717948718","644.1794871794872","644.1794871794872","black","experiment","legacy","legacy","legacy","0","uniform","1","undefined","1","right","38","38","38","0","0","38","38","0","0","38","38","38","0","38","0","Sun Oct 25 19:45:32 2020","The main experiment item","yes","SternbergTask-AL.osexp","/Users/annielenoir/Desktop","no","mono","no","18","no","white","no","no","768","legacy","26","11","/Users/annielenoir/Desktop/AL-subject-4.csv","legacy","1 7 8 3 9","Lentiform Loewenfeld","3.3.3","0","n","0","right","right","right","right","NA","727","36056","10072","727","NA","2","legacy","5","1024","2","48000","-16","experiment","4","even","2","305963","281918","303331","1867","130297","303468","302197","2028","120224","304620","308107","308836","38105","308107","NA","Sternberg Task","28","25123","39","yes","1024"
"72.5","72.5","642.85","642.85","black","experiment","legacy","legacy","legacy","0","uniform","1","undefined","1","right","39","39","39","0","0","39","39","0","0","39","39","39","0","39","0","Sun Oct 25 19:45:32 2020","The main experiment item","yes","SternbergTask-AL.osexp","/Users/annielenoir/Desktop","no","mono","no","18","no","white","no","no","768","legacy","27","11","/Users/annielenoir/Desktop/AL-subject-4.csv","legacy","1 5 3 2 8","Lentiform Loewenfeld","3.3.3","0","n","0","right","right","right","right","NA","591","36056","10072","591","NA","2","legacy","5","1024","2","48000","-16","experiment","4","even","4","312736","308979","310103","1867","130297","310241","302197","2028","120224","311393","314881","315473","38105","314881","NA","Sternberg Task","29","25714","40","yes","1024"
"70.73170731707317","70.73170731707317","647.0975609756098","647.0975609756098","black","experiment","legacy","legacy","legacy","0","uniform","0","undefined","0","left","40","40","40","0","0","40","40","0","0","40","40","40","0","40","0","Sun Oct 25 19:45:32 2020","The main experiment item","yes","SternbergTask-AL.osexp","/Users/annielenoir/Desktop","no","mono","no","18","no","white","no","no","768","legacy","28","11","/Users/annielenoir/Desktop/AL-subject-4.csv","legacy","8 5 4 7 3 1","Lentiform Loewenfeld","3.3.3","2","y","0","right","right","right","right","NA","817","36056","10072","817","NA","2","legacy","6","1024","2","48000","-16","experiment","4","even","5","319381","315618","316757","1867","130297","316897","302197","2028","120224","318041","321525","322343","38105","321525","NA","Sternberg Task","29","26531","41","yes","1024"
"71.42857142857143","71.42857142857143","642.8809523809524","642.8809523809524","black","experiment","legacy","legacy","legacy","0","uniform","1","undefined","1","right","41","41","41","0","0","41","41","0","0","41","41","41","0","41","0","Sun Oct 25 19:45:32 2020","The main experiment item","yes","SternbergTask-AL.osexp","/Users/annielenoir/Desktop","no","mono","no","18","no","white","no","no","768","legacy","29","11","/Users/annielenoir/Desktop/AL-subject-4.csv","legacy","7 6 4 8 1 2","Lentiform Loewenfeld","3.3.3","0","n","0","right","right","right","right","NA","470","36056","10072","470","NA","2","legacy","6","1024","2","48000","-16","experiment","4","even","9","326200","315618","323583","1867","130297","323725","322486","2028","120224","324865","328334","328805","38105","328334","NA","Sternberg Task","30","27001","42","yes","1024"
"72.09302325581395","72.09302325581395","644.953488372093","644.953488372093","black","experiment","legacy","legacy","legacy","0","uniform","1","undefined","1","left","42","42","42","0","0","42","42","0","0","42","42","42","0","42","0","Sun Oct 25 19:45:32 2020","The main experiment item","yes","SternbergTask-AL.osexp","/Users/annielenoir/Desktop","no","mono","no","18","no","white","no","no","768","legacy","30","11","/Users/annielenoir/Desktop/AL-subject-4.csv","legacy","2 5 4 8 7","Lentiform Loewenfeld","3.3.3","3","y","0","left","right","right","left","NA","732","36056","10072","732","NA","2","legacy","5","1024","2","48000","-16","experiment","4","even","4","332656","328953","330049","1867","130297","330181","322486","2028","120224","331316","334793","335525","38105","334793","NA","Sternberg Task","31","27733","43","yes","1024"
"72.72727272727273","72.72727272727273","640.7954545454545","640.7954545454545","black","experiment","legacy","legacy","legacy","0","uniform","1","undefined","1","right","43","43","43","0","0","43","43","0","0","43","43","43","0","43","0","Sun Oct 25 19:45:32 2020","The main experiment item","yes","SternbergTask-AL.osexp","/Users/annielenoir/Desktop","no","mono","no","18","no","white","no","no","768","legacy","31","11","/Users/annielenoir/Desktop/AL-subject-4.csv","legacy","7 9","Lentiform Loewenfeld","3.3.3","0","n","0","right","right","right","right","NA","462","36056","10072","462","NA","2","legacy","2","1024","2","48000","-16","experiment","4","even","1","339389","335669","336769","1867","130297","336906","322486","2028","120224","338040","341536","341999","38105","341536","NA","Sternberg Task","32","28195","44","yes","1024"
"73.33333333333333","73.33333333333333","644.2666666666667","644.2666666666667","black","experiment","legacy","legacy","legacy","0","uniform","1","undefined","1","right","44","44","44","0","0","44","44","0","0","44","44","44","0","44","0","Sun Oct 25 19:45:32 2020","The main experiment item","yes","SternbergTask-AL.osexp","/Users/annielenoir/Desktop","no","mono","no","18","no","white","no","no","768","legacy","32","11","/Users/annielenoir/Desktop/AL-subject-4.csv","legacy","7 8 6 1","Lentiform Loewenfeld","3.3.3","0","n","0","right","right","right","right","NA","797","36056","10072","797","NA","2","legacy","4","1024","2","48000","-16","experiment","4","even","3","345933","342148","343311","1867","130297","343450","322486","2028","120224","344584","348079","348877","38105","348079","NA","Sternberg Task","33","28992","45","yes","1024"
"71.73913043478261","71.73913043478261","641.6521739130435","641.6521739130435","black","experiment","legacy","legacy","legacy","0","uniform","0","undefined","0","left","45","45","45","0","0","45","45","0","0","45","45","45","0","45","0","Sun Oct 25 19:45:32 2020","The main experiment item","yes","SternbergTask-AL.osexp","/Users/annielenoir/Desktop","no","mono","no","18","no","white","no","no","768","legacy","33","11","/Users/annielenoir/Desktop/AL-subject-4.csv","legacy","8 5 1 3 9","Lentiform Loewenfeld","3.3.3","4","y","0","right","right","right","right","NA","524","36056","10072","524","NA","2","legacy","5","1024","2","48000","-16","experiment","4","even","3","352828","349033","350204","1867","130297","350342","322486","2028","120224","351480","354975","355500","38105","354974","NA","Sternberg Task","33","29516","46","yes","1024"
"72.34042553191489","72.34042553191489","641.6170212765958","641.6170212765958","black","experiment","legacy","legacy","legacy","0","uniform","1","undefined","1","right","46","46","46","0","0","46","46","0","0","46","46","46","0","46","0","Sun Oct 25 19:45:32 2020","The main experiment item","yes","SternbergTask-AL.osexp","/Users/annielenoir/Desktop","no","mono","no","18","no","white","no","no","768","legacy","34","11","/Users/annielenoir/Desktop/AL-subject-4.csv","legacy","2 8 6 3 1","Lentiform Loewenfeld","3.3.3","0","n","0","right","right","right","right","NA","640","36056","10072","640","NA","2","legacy","5","1024","2","48000","-16","experiment","4","even","7","359418","349033","356783","1867","130297","356923","355646","2028","120224","358073","361557","362198","38105","361557","NA","Sternberg Task","34","30156","47","yes","1024"
"72.91666666666667","72.91666666666667","638.7291666666666","638.7291666666666","black","experiment","legacy","legacy","legacy","0","uniform","1","undefined","1","right","47","47","47","0","0","47","47","0","0","47","47","47","0","47","0","Sun Oct 25 19:45:32 2020","The main experiment item","yes","SternbergTask-AL.osexp","/Users/annielenoir/Desktop","no","mono","no","18","no","white","no","no","768","legacy","35","11","/Users/annielenoir/Desktop/AL-subject-4.csv","legacy","2 6 4 3 9","Lentiform Loewenfeld","3.3.3","0","n","0","right","right","right","right","NA","503","36056","10072","503","NA","2","legacy","5","1024","2","48000","-16","experiment","4","even","1","366108","362342","363479","1867","130297","363618","355646","2028","120224","364769","368249","368753","38105","368249","NA","Sternberg Task","35","30659","48","yes","1024"
"73.46938775510205","73.46938775510205","636.1836734693877","636.1836734693877","black","experiment","legacy","legacy","legacy","0","uniform","1","undefined","1","right","48","48","48","0","0","48","48","0","0","48","48","48","0","48","0","Sun Oct 25 19:45:32 2020","The main experiment item","yes","SternbergTask-AL.osexp","/Users/annielenoir/Desktop","no","mono","no","18","no","white","no","no","768","legacy","36","11","/Users/annielenoir/Desktop/AL-subject-4.csv","legacy","5 3 2 6 9 8","Lentiform Loewenfeld","3.3.3","0","n","0","right","right","right","right","NA","514","36056","10072","514","NA","2","legacy","6","1024","2","48000","-16","experiment","4","even","4","372665","368901","370030","1867","130297","370166","355646","2028","120224","371312","374812","375326","38105","374812","NA","Sternberg Task","36","31173","49","yes","1024"
"74","74","632.86","632.86","black","experiment","legacy","legacy","legacy","0","uniform","1","undefined","1","right","49","49","49","0","0","49","49","0","0","49","49","49","0","49","0","Sun Oct 25 19:45:32 2020","The main experiment item","yes","SternbergTask-AL.osexp","/Users/annielenoir/Desktop","no","mono","no","18","no","white","no","no","768","legacy","37","11","/Users/annielenoir/Desktop/AL-subject-4.csv","legacy","6 9 4 5 2","Lentiform Loewenfeld","3.3.3","0","n","0","right","right","right","right","NA","470","36056","10072","470","NA","2","legacy","5","1024","2","48000","-16","experiment","4","even","1","379242","375478","376616","1867","130297","376750","355646","2028","120224","377895","381386","381857","38105","381386","NA","Sternberg Task","37","31643","50","yes","1024"
"74.50980392156863","74.50980392156863","630.7058823529412","630.7058823529412","black","experiment","legacy","legacy","legacy","0","uniform","1","undefined","1","right","50","50","50","0","0","50","50","0","0","50","50","50","0","50","0","Sun Oct 25 19:45:32 2020","The main experiment item","yes","SternbergTask-AL.osexp","/Users/annielenoir/Desktop","no","mono","no","18","no","white","no","no","768","legacy","38","11","/Users/annielenoir/Desktop/AL-subject-4.csv","legacy","8 4 3 5","Lentiform Loewenfeld","3.3.3","0","n","0","right","right","right","right","NA","523","36056","10072","523","NA","2","legacy","4","1024","2","48000","-16","experiment","4","even","6","385783","382002","383157","1867","130297","383297","355646","2028","120224","384436","387922","388446","38105","387922","NA","Sternberg Task","38","32166","51","yes","1024"
"75","75","629.9038461538462","629.9038461538462","black","experiment","legacy","legacy","legacy","0","uniform","1","undefined","1","right","51","51","51","0","0","51","51","0","0","51","51","51","0","51","0","Sun Oct 25 19:45:32 2020","The main experiment item","yes","SternbergTask-AL.osexp","/Users/annielenoir/Desktop","no","mono","no","18","no","white","no","no","768","legacy","39","11","/Users/annielenoir/Desktop/AL-subject-4.csv","legacy","2 3 8 5 6 7","Lentiform Loewenfeld","3.3.3","0","n","0","right","right","right","right","NA","589","36056","10072","589","NA","2","legacy","6","1024","2","48000","-16","experiment","4","even","1","392351","388592","389723","1867","130297","389863","355646","2028","120224","391014","394497","395087","38105","394497","NA","Sternberg Task","39","32755","52","yes","1024"
"73.58490566037736","73.58490566037736","634.6415094339623","634.6415094339623","black","experiment","legacy","legacy","legacy","0","uniform","0","undefined","0","left","52","52","52","0","0","52","52","0","0","52","52","52","0","52","0","Sun Oct 25 19:45:32 2020","The main experiment item","yes","SternbergTask-AL.osexp","/Users/annielenoir/Desktop","no","mono","no","18","no","white","no","no","768","legacy","40","11","/Users/annielenoir/Desktop/AL-subject-4.csv","legacy","1 4 9 3 2 5","Lentiform Loewenfeld","3.3.3","3","y","0","right","right","right","right","NA","881","36056","10072","881","NA","2","legacy","6","1024","2","48000","-16","experiment","4","even","9","399000","395232","396368","1867","130297","396505","355646","2028","120224","397651","401149","402031","38105","401149","NA","Sternberg Task","39","33636","53","yes","1024"
"74.07407407407408","74.07407407407408","631.9444444444445","631.9444444444445","black","experiment","legacy","legacy","legacy","0","uniform","1","undefined","1","left","53","53","53","0","0","53","53","0","0","53","53","53","0","53","0","Sun Oct 25 19:45:32 2020","The main experiment item","yes","SternbergTask-AL.osexp","/Users/annielenoir/Desktop","no","mono","no","18","no","white","no","no","768","legacy","41","11","/Users/annielenoir/Desktop/AL-subject-4.csv","legacy","9 8 4","Lentiform Loewenfeld","3.3.3","1","y","0","left","right","right","left","NA","489","36056","10072","489","NA","2","legacy","3","1024","2","48000","-16","experiment","4","even","9","405938","395232","403310","1867","130297","403446","402173","2028","120224","404592","408087","408577","38105","408086","NA","Sternberg Task","40","34125","54","yes","1024"
"74.54545454545455","74.54545454545455","630.9272727272727","630.9272727272727","black","experiment","legacy","legacy","legacy","0","uniform","1","undefined","1","right","54","54","54","0","0","54","54","0","0","54","54","54","0","54","0","Sun Oct 25 19:45:32 2020","The main experiment item","yes","SternbergTask-AL.osexp","/Users/annielenoir/Desktop","no","mono","no","18","no","white","no","no","768","legacy","42","11","/Users/annielenoir/Desktop/AL-subject-4.csv","legacy","6 9 7 3 8 2","Lentiform Loewenfeld","3.3.3","0","n","0","right","right","right","right","NA","576","36056","10072","576","NA","2","legacy","6","1024","2","48000","-16","experiment","4","even","5","412490","408721","409860","1867","130297","409997","402173","2028","120224","411142","414634","415211","38105","414634","NA","Sternberg Task","41","34701","55","yes","1024"
"75","75","627.5","627.5","black","experiment","legacy","legacy","legacy","0","uniform","1","undefined","1","right","55","55","55","0","0","55","55","0","0","55","55","55","0","55","0","Sun Oct 25 19:45:32 2020","The main experiment item","yes","SternbergTask-AL.osexp","/Users/annielenoir/Desktop","no","mono","no","18","no","white","no","no","768","legacy","43","11","/Users/annielenoir/Desktop/AL-subject-4.csv","legacy","5","Lentiform Loewenfeld","3.3.3","0","n","0","right","right","right","right","NA","439","36056","10072","439","NA","2","legacy","1","1024","2","48000","-16","experiment","4","even","8","419150","415362","416534","1867","130297","416669","402173","2028","120224","417803","421296","421736","38105","421296","NA","Sternberg Task","42","35140","56","yes","1024"
"75.43859649122807","75.43859649122807","629.578947368421","629.578947368421","black","experiment","legacy","legacy","legacy","0","uniform","1","undefined","1","right","56","56","56","0","0","56","56","0","0","56","56","56","0","56","0","Sun Oct 25 19:45:32 2020","The main experiment item","yes","SternbergTask-AL.osexp","/Users/annielenoir/Desktop","no","mono","no","18","no","white","no","no","768","legacy","44","11","/Users/annielenoir/Desktop/AL-subject-4.csv","legacy","3 9 8 1 6 4","Lentiform Loewenfeld","3.3.3","0","n","0","right","right","right","right","NA","746","36056","10072","746","NA","2","legacy","6","1024","2","48000","-16","experiment","4","even","7","425634","421879","423011","1867","130297","423149","402173","2028","120224","424298","427779","428527","38105","427779","NA","Sternberg Task","43","35886","57","yes","1024"
"75.86206896551724","75.86206896551724","628.5","628.5","black","experiment","legacy","legacy","legacy","0","uniform","1","undefined","1","left","57","57","57","0","0","57","57","0","0","57","57","57","0","57","0","Sun Oct 25 19:45:32 2020","The main experiment item","yes","SternbergTask-AL.osexp","/Users/annielenoir/Desktop","no","mono","no","18","no","white","no","no","768","legacy","45","11","/Users/annielenoir/Desktop/AL-subject-4.csv","legacy","4 6 5 8","Lentiform Loewenfeld","3.3.3","1","y","0","left","right","right","left","NA","567","36056","10072","567","NA","2","legacy","4","1024","2","48000","-16","experiment","4","even","4","432452","428672","429809","1867","130297","429957","402173","2028","120224","431106","434591","435159","38105","434591","NA","Sternberg Task","44","36453","58","yes","1024"
"76.27118644067797","76.27118644067797","633.5932203389831","633.5932203389831","black","experiment","legacy","legacy","legacy","0","uniform","1","undefined","1","left","58","58","58","0","0","58","58","0","0","58","58","58","0","58","0","Sun Oct 25 19:45:32 2020","The main experiment item","yes","SternbergTask-AL.osexp","/Users/annielenoir/Desktop","no","mono","no","18","no","white","no","no","768","legacy","46","11","/Users/annielenoir/Desktop/AL-subject-4.csv","legacy","4 9 7 8 5 3","Lentiform Loewenfeld","3.3.3","4","y","0","left","right","right","left","NA","929","36056","10072","929","NA","2","legacy","6","1024","2","48000","-16","experiment","4","even","8","439063","435305","436442","1867","130297","436579","402173","2028","120224","437727","441213","442143","38105","441213","NA","Sternberg Task","45","37382","59","yes","1024"
"76.66666666666667","76.66666666666667","631.9333333333333","631.9333333333333","black","experiment","legacy","legacy","legacy","0","uniform","1","undefined","1","right","59","59","59","0","0","59","59","0","0","59","59","59","0","59","0","Sun Oct 25 19:45:32 2020","The main experiment item","yes","SternbergTask-AL.osexp","/Users/annielenoir/Desktop","no","mono","no","18","no","white","no","no","768","legacy","47","11","/Users/annielenoir/Desktop/AL-subject-4.csv","legacy","6 8 4","Lentiform Loewenfeld","3.3.3","0","n","0","right","right","right","right","NA","534","36056","10072","534","NA","2","legacy","3","1024","2","48000","-16","experiment","4","even","1","446086","442292","443460","1867","130297","443601","402173","2028","120224","444740","448227","448762","38105","448227","NA","Sternberg Task","46","37916","60","yes","1024"
"77.04918032786885","77.04918032786885","639.8852459016393","639.8852459016393","black","experiment","legacy","legacy","legacy","0","uniform","1","undefined","1","left","60","60","60","0","0","60","60","0","0","60","60","60","0","60","0","Sun Oct 25 19:45:32 2020","The main experiment item","yes","SternbergTask-AL.osexp","/Users/annielenoir/Desktop","no","mono","no","18","no","white","no","no","768","legacy","48","11","/Users/annielenoir/Desktop/AL-subject-4.csv","legacy","3 9 7 6 4","Lentiform Loewenfeld","3.3.3","3","y","0","left","right","right","left","NA","1117","36056","10072","1117","NA","2","legacy","5","1024","2","48000","-16","experiment","4","even","7","452655","448905","450032","1867","130297","450169","402173","2028","120224","451322","454799","455917","38105","454799","NA","Sternberg Task","47","39033","61","yes","1024"
"77.41935483870968","77.41935483870968","635.5483870967741","635.5483870967741","black","experiment","legacy","legacy","legacy","0","uniform","1","undefined","1","left","61","61","61","0","0","61","61","0","0","61","61","61","0","61","0","Sun Oct 25 19:45:32 2020","The main experiment item","yes","SternbergTask-AL.osexp","/Users/annielenoir/Desktop","no","mono","no","18","no","white","no","no","768","legacy","49","11","/Users/annielenoir/Desktop/AL-subject-4.csv","legacy","9 4 2","Lentiform Loewenfeld","3.3.3","1","y","0","left","right","right","left","NA","371","36056","10072","371","NA","2","legacy","3","1024","2","48000","-16","experiment","4","even","9","459874","456065","457244","1867","130297","457388","402173","2028","120224","458526","462017","462389","38105","462017","NA","Sternberg Task","48","39404","62","yes","1024"
"77.77777777777777","77.77777777777777","636.031746031746","636.031746031746","black","experiment","legacy","legacy","legacy","0","uniform","1","undefined","1","left","62","62","62","0","0","62","62","0","0","62","62","62","0","62","0","Sun Oct 25 19:45:32 2020","The main experiment item","yes","SternbergTask-AL.osexp","/Users/annielenoir/Desktop","no","mono","no","18","no","white","no","no","768","legacy","50","11","/Users/annielenoir/Desktop/AL-subject-4.csv","legacy","6 9 7 4 5 1","Lentiform Loewenfeld","3.3.3","2","y","0","left","right","right","left","NA","666","36056","10072","666","NA","2","legacy","6","1024","2","48000","-16","experiment","4","even","9","466300","462535","463672","1867","130297","463808","402173","2028","120224","464955","468449","469116","38105","468449","NA","Sternberg Task","49","40070","63","yes","1024"
"78.125","78.125","635.453125","635.453125","black","experiment","legacy","legacy","legacy","0","uniform","1","undefined","1","right","63","63","63","0","0","63","63","0","0","63","63","63","0","63","0","Sun Oct 25 19:45:32 2020","The main experiment item","yes","SternbergTask-AL.osexp","/Users/annielenoir/Desktop","no","mono","no","18","no","white","no","no","768","legacy","51","11","/Users/annielenoir/Desktop/AL-subject-4.csv","legacy","8 5 7 3 6","Lentiform Loewenfeld","3.3.3","0","n","0","right","right","right","right","NA","599","36056","10072","599","NA","2","legacy","5","1024","2","48000","-16","experiment","4","even","9","473028","469260","470397","1867","130297","470535","402173","2028","120224","471681","475173","475773","38105","475173","NA","Sternberg Task","50","40669","64","yes","1024"
"78.46153846153847","78.46153846153847","631.8615384615384","631.8615384615384","black","experiment","legacy","legacy","legacy","0","uniform","1","undefined","1","right","64","64","64","0","0","64","64","0","0","64","64","64","0","64","0","Sun Oct 25 19:45:32 2020","The main experiment item","yes","SternbergTask-AL.osexp","/Users/annielenoir/Desktop","no","mono","no","18","no","white","no","no","768","legacy","52","11","/Users/annielenoir/Desktop/AL-subject-4.csv","legacy","5 2","Lentiform Loewenfeld","3.3.3","0","n","0","right","right","right","right","NA","402","36056","10072","402","NA","2","legacy","2","1024","2","48000","-16","experiment","4","even","7","479703","475922","477085","1867","130297","477220","402173","2028","120224","478355","481848","482251","38105","481848","NA","Sternberg Task","51","41071","65","yes","1024"
"78.78787878787878","78.78787878787878","634.2878787878788","634.2878787878788","black","experiment","legacy","legacy","legacy","0","uniform","1","undefined","1","left","65","65","65","0","0","65","65","0","0","65","65","65","0","65","0","Sun Oct 25 19:45:32 2020","The main experiment item","yes","SternbergTask-AL.osexp","/Users/annielenoir/Desktop","no","mono","no","18","no","white","no","no","768","legacy","53","11","/Users/annielenoir/Desktop/AL-subject-4.csv","legacy","3 2 1 4 7","Lentiform Loewenfeld","3.3.3","2","y","0","left","right","right","left","NA","792","36056","10072","792","NA","2","legacy","5","1024","2","48000","-16","experiment","4","even","2","486149","482395","483528","1867","130297","483664","402173","2028","120224","484813","488300","489094","38105","488300","NA","Sternberg Task","52","41863","66","yes","1024"
"77.61194029850746","77.61194029850746","632.8955223880597","632.8955223880597","black","experiment","legacy","legacy","legacy","0","uniform","0","undefined","0","left","66","66","66","0","0","66","66","0","0","66","66","66","0","66","0","Sun Oct 25 19:45:32 2020","The main experiment item","yes","SternbergTask-AL.osexp","/Users/annielenoir/Desktop","no","mono","no","18","no","white","no","no","768","legacy","54","11","/Users/annielenoir/Desktop/AL-subject-4.csv","legacy","7 8 6 3 1","Lentiform Loewenfeld","3.3.3","5","y","0","right","right","right","right","NA","541","36056","10072","541","NA","2","legacy","5","1024","2","48000","-16","experiment","4","even","1","493004","489239","490366","1867","130297","490508","402173","2028","120224","491658","495140","495682","38105","495140","NA","Sternberg Task","52","42404","67","yes","1024"
"76.47058823529412","76.47058823529412","639.9264705882352","639.9264705882352","black","experiment","legacy","legacy","legacy","0","uniform","0","undefined","0","left","67","67","67","0","0","67","67","0","0","67","67","67","0","67","0","Sun Oct 25 19:45:32 2020","The main experiment item","yes","SternbergTask-AL.osexp","/Users/annielenoir/Desktop","no","mono","no","18","no","white","no","no","768","legacy","55","11","/Users/annielenoir/Desktop/AL-subject-4.csv","legacy","9 1 6 7 8","Lentiform Loewenfeld","3.3.3","1","y","0","right","right","right","right","NA","1111","36056","10072","1111","NA","2","legacy","5","1024","2","48000","-16","experiment","4","even","9","499590","489239","496965","1867","130297","497100","495827","2028","120224","498247","501741","502853","38105","501741","NA","Sternberg Task","52","43515","68","yes","1024"
"76.81159420289855","76.81159420289855","637.304347826087","637.304347826087","black","experiment","legacy","legacy","legacy","0","uniform","1","undefined","1","right","68","68","68","0","0","68","68","0","0","68","68","68","0","68","0","Sun Oct 25 19:45:32 2020","The main experiment item","yes","SternbergTask-AL.osexp","/Users/annielenoir/Desktop","no","mono","no","18","no","white","no","no","768","legacy","56","11","/Users/annielenoir/Desktop/AL-subject-4.csv","legacy","4 1","Lentiform Loewenfeld","3.3.3","0","n","0","right","right","right","right","NA","459","36056","10072","459","NA","2","legacy","2","1024","2","48000","-16","experiment","4","even","6","506795","489239","504171","1867","130297","504308","503000","2028","120224","505445","508938","509398","38105","508938","NA","Sternberg Task","53","43974","69","yes","1024"
"77.14285714285714","77.14285714285714","636.3142857142857","636.3142857142857","black","experiment","legacy","legacy","legacy","0","uniform","1","undefined","1","right","69","69","69","0","0","69","69","0","0","69","69","69","0","69","0","Sun Oct 25 19:45:32 2020","The main experiment item","yes","SternbergTask-AL.osexp","/Users/annielenoir/Desktop","no","mono","no","18","no","white","no","no","768","legacy","57","11","/Users/annielenoir/Desktop/AL-subject-4.csv","legacy","6 9 5","Lentiform Loewenfeld","3.3.3","0","n","0","right","right","right","right","NA","568","36056","10072","568","NA","2","legacy","3","1024","2","48000","-16","experiment","4","even","8","513256","509545","510639","1867","130297","510771","503000","2028","120224","511916","515407","515976","38105","515407","NA","Sternberg Task","54","44542","70","yes","1024"
"77.46478873239437","77.46478873239437","635.1408450704225","635.1408450704225","black","experiment","legacy","legacy","legacy","0","uniform","1","undefined","1","right","70","70","70","0","0","70","70","0","0","70","70","70","0","70","0","Sun Oct 25 19:45:32 2020","The main experiment item","yes","SternbergTask-AL.osexp","/Users/annielenoir/Desktop","no","mono","no","18","no","white","no","no","768","legacy","58","11","/Users/annielenoir/Desktop/AL-subject-4.csv","legacy","7 3 2 8","Lentiform Loewenfeld","3.3.3","0","n","0","right","right","right","right","NA","553","36056","10072","553","NA","2","legacy","4","1024","2","48000","-16","experiment","4","even","4","519898","516113","517253","1867","130297","517399","503000","2028","120224","518547","522042","522596","38105","522042","NA","Sternberg Task","55","45095","71","yes","1024"
"76.38888888888889","76.38888888888889","643.9027777777778","643.9027777777778","black","experiment","legacy","legacy","legacy","0","uniform","0","undefined","0","right","71","71","71","0","0","71","71","0","0","71","71","71","0","71","0","Sun Oct 25 19:45:32 2020","The main experiment item","yes","SternbergTask-AL.osexp","/Users/annielenoir/Desktop","no","mono","no","18","no","white","no","no","768","legacy","59","11","/Users/annielenoir/Desktop/AL-subject-4.csv","legacy","2 7 5","Lentiform Loewenfeld","3.3.3","0","n","0","left","right","right","left","NA","1266","36056","10072","1266","NA","2","legacy","3","1024","2","48000","-16","experiment","4","even","8","526533","522742","523915","1867","130297","524049","503000","2028","120224","525185","528678","529945","38105","528678","NA","Sternberg Task","55","46361","72","yes","1024"
"76.71232876712328","76.71232876712328","646.6438356164383","646.6438356164383","black","experiment","legacy","legacy","legacy","0","uniform","1","undefined","1","left","72","72","72","0","0","72","72","0","0","72","72","72","0","72","0","Sun Oct 25 19:45:32 2020","The main experiment item","yes","SternbergTask-AL.osexp","/Users/annielenoir/Desktop","no","mono","no","18","no","white","no","no","768","legacy","60","11","/Users/annielenoir/Desktop/AL-subject-4.csv","legacy","4 1 8 7 5","Lentiform Loewenfeld","3.3.3","3","y","0","left","right","right","left","NA","844","36056","10072","844","NA","2","legacy","5","1024","2","48000","-16","experiment","4","even","8","533884","522742","531249","1867","130297","531392","530091","2028","120224","532537","536029","536874","38105","536029","NA","Sternberg Task","56","47205","73","yes","1024"
"77.02702702702703","77.02702702702703","644.3783783783783","644.3783783783783","black","experiment","legacy","legacy","legacy","0","uniform","1","undefined","1","right","73","73","73","0","0","73","73","0","0","73","73","73","0","73","0","Sun Oct 25 19:45:32 2020","The main experiment item","yes","SternbergTask-AL.osexp","/Users/annielenoir/Desktop","no","mono","no","18","no","white","no","no","768","legacy","61","11","/Users/annielenoir/Desktop/AL-subject-4.csv","legacy","2 8 9","Lentiform Loewenfeld","3.3.3","0","n","0","right","right","right","right","NA","479","36056","10072","479","NA","2","legacy","3","1024","2","48000","-16","experiment","4","even","6","540830","537026","538204","1867","130297","538341","530091","2028","120224","539482","542976","543456","38105","542976","NA","Sternberg Task","57","47684","74","yes","1024"
"77.33333333333333","77.33333333333333","645.5066666666667","645.5066666666667","black","experiment","legacy","legacy","legacy","0","uniform","1","undefined","1","right","74","74","74","0","0","74","74","0","0","74","74","74","0","74","0","Sun Oct 25 19:45:32 2020","The main experiment item","yes","SternbergTask-AL.osexp","/Users/annielenoir/Desktop","no","mono","no","18","no","white","no","no","768","legacy","62","11","/Users/annielenoir/Desktop/AL-subject-4.csv","legacy","8 6 3 4 7","Lentiform Loewenfeld","3.3.3","0","n","0","right","right","right","right","NA","729","36056","10072","729","NA","2","legacy","5","1024","2","48000","-16","experiment","4","even","1","547374","543602","544733","1867","130297","544872","530091","2028","120224","546023","549513","550243","38105","549513","NA","Sternberg Task","58","48413","75","yes","1024"
"77.63157894736842","77.63157894736842","645.5394736842105","645.5394736842105","black","experiment","legacy","legacy","legacy","0","uniform","1","undefined","1","right","75","75","75","0","0","75","75","0","0","75","75","75","0","75","0","Sun Oct 25 19:45:32 2020","The main experiment item","yes","SternbergTask-AL.osexp","/Users/annielenoir/Desktop","no","mono","no","18","no","white","no","no","768","legacy","63","11","/Users/annielenoir/Desktop/AL-subject-4.csv","legacy","8 9","Lentiform Loewenfeld","3.3.3","0","n","0","right","right","right","right","NA","648","36056","10072","648","NA","2","legacy","2","1024","2","48000","-16","experiment","4","even","5","554163","550389","551524","1867","130297","551668","530091","2028","120224","552818","556300","556949","38105","556299","NA","Sternberg Task","59","49061","76","yes","1024"
"77.92207792207792","77.92207792207792","651.2597402597403","651.2597402597403","black","experiment","legacy","legacy","legacy","0","uniform","1","undefined","1","right","76","76","76","0","0","76","76","0","0","76","76","76","0","76","0","Sun Oct 25 19:45:32 2020","The main experiment item","yes","SternbergTask-AL.osexp","/Users/annielenoir/Desktop","no","mono","no","18","no","white","no","no","768","legacy","64","11","/Users/annielenoir/Desktop/AL-subject-4.csv","legacy","1","Lentiform Loewenfeld","3.3.3","0","n","0","right","right","right","right","NA","1086","36056","10072","1086","NA","2","legacy","1","1024","2","48000","-16","experiment","4","even","7","560883","557092","558228","1867","130297","558372","530091","2028","120224","559536","563021","564108","38105","563021","NA","Sternberg Task","60","50147","77","yes","1024"
"78.2051282051282","78.2051282051282","652.525641025641","652.525641025641","black","experiment","legacy","legacy","legacy","0","uniform","1","undefined","1","left","77","77","77","0","0","77","77","0","0","77","77","77","0","77","0","Sun Oct 25 19:45:32 2020","The main experiment item","yes","SternbergTask-AL.osexp","/Users/annielenoir/Desktop","no","mono","no","18","no","white","no","no","768","legacy","65","11","/Users/annielenoir/Desktop/AL-subject-4.csv","legacy","2 8 5 1","Lentiform Loewenfeld","3.3.3","4","y","0","left","right","right","left","NA","750","36056","10072","750","NA","2","legacy","4","1024","2","48000","-16","experiment","4","even","1","568057","564258","565439","1867","130297","565576","530091","2028","120224","566711","570203","570954","38105","570203","NA","Sternberg Task","61","50897","78","yes","1024"
"78.48101265822785","78.48101265822785","651.2784810126582","651.2784810126582","black","experiment","legacy","legacy","legacy","0","uniform","1","undefined","1","right","78","78","78","0","0","78","78","0","0","78","78","78","0","78","0","Sun Oct 25 19:45:32 2020","The main experiment item","yes","SternbergTask-AL.osexp","/Users/annielenoir/Desktop","no","mono","no","18","no","white","no","no","768","legacy","66","11","/Users/annielenoir/Desktop/AL-subject-4.csv","legacy","4 2 6 9","Lentiform Loewenfeld","3.3.3","0","n","0","right","right","right","right","NA","554","36056","10072","554","NA","2","legacy","4","1024","2","48000","-16","experiment","4","even","7","574898","571104","572274","1867","130297","572412","530091","2028","120224","573551","577040","577595","38105","577040","NA","Sternberg Task","62","51451","79","yes","1024"
"77.5","77.5","650.6","650.6","black","experiment","legacy","legacy","legacy","0","uniform","0","undefined","0","left","79","79","79","0","0","79","79","0","0","79","79","79","0","79","0","Sun Oct 25 19:45:32 2020","The main experiment item","yes","SternbergTask-AL.osexp","/Users/annielenoir/Desktop","no","mono","no","18","no","white","no","no","768","legacy","67","11","/Users/annielenoir/Desktop/AL-subject-4.csv","legacy","7 2 3","Lentiform Loewenfeld","3.3.3","3","y","0","right","right","right","right","NA","597","36056","10072","597","NA","2","legacy","3","1024","2","48000","-16","experiment","4","even","3","581504","577741","578869","1867","130297","579007","530091","2028","120224","580157","583645","584243","38105","583645","NA","Sternberg Task","62","52048","80","yes","1024"
"76.54320987654322","76.54320987654322","650.9876543209876","650.9876543209876","black","experiment","legacy","legacy","legacy","0","uniform","0","undefined","0","right","80","80","80","0","0","80","80","0","0","80","80","80","0","80","0","Sun Oct 25 19:45:32 2020","The main experiment item","yes","SternbergTask-AL.osexp","/Users/annielenoir/Desktop","no","mono","no","18","no","white","no","no","768","legacy","68","11","/Users/annielenoir/Desktop/AL-subject-4.csv","legacy","2 8 7 9 5 3","Lentiform Loewenfeld","3.3.3","0","n","0","left","right","right","left","NA","682","36056","10072","682","NA","2","legacy","6","1024","2","48000","-16","experiment","4","even","6","588152","577741","585524","1867","130297","585660","584388","2028","120224","586809","590304","590987","38105","590303","NA","Sternberg Task","62","52730","81","yes","1024"
"76.82926829268293","76.82926829268293","653.8536585365854","653.8536585365854","black","experiment","legacy","legacy","legacy","0","uniform","1","undefined","1","left","81","81","81","0","0","81","81","0","0","81","81","81","0","81","0","Sun Oct 25 19:45:32 2020","The main experiment item","yes","SternbergTask-AL.osexp","/Users/annielenoir/Desktop","no","mono","no","18","no","white","no","no","768","legacy","69","11","/Users/annielenoir/Desktop/AL-subject-4.csv","legacy","6 8 9 3 4 9","Lentiform Loewenfeld","3.3.3","5","y","0","left","right","right","left","NA","886","36056","10072","886","NA","2","legacy","6","1024","2","48000","-16","experiment","4","even","4","594886","577741","592262","1867","130297","592402","591130","2028","120224","593551","597032","597919","38105","597032","NA","Sternberg Task","63","53616","82","yes","1024"
"75.90361445783132","75.90361445783132","653.1927710843373","653.1927710843373","black","experiment","legacy","legacy","legacy","0","uniform","0","undefined","0","left","82","82","82","0","0","82","82","0","0","82","82","82","0","82","0","Sun Oct 25 19:45:32 2020","The main experiment item","yes","SternbergTask-AL.osexp","/Users/annielenoir/Desktop","no","mono","no","18","no","white","no","no","768","legacy","70","11","/Users/annielenoir/Desktop/AL-subject-4.csv","legacy","3 4 9 6 2 9","Lentiform Loewenfeld","3.3.3","5","y","0","right","right","right","right","NA","599","36056","10072","599","NA","2","legacy","6","1024","2","48000","-16","experiment","4","even","2","601860","598065","599233","1867","130297","599373","591130","2028","120224","600513","604000","604600","38105","604000","NA","Sternberg Task","63","54215","83","yes","1024"
"76.19047619047619","76.19047619047619","652.8928571428571","652.8928571428571","black","experiment","legacy","legacy","legacy","0","uniform","1","undefined","1","right","83","83","83","0","0","83","83","0","0","83","83","83","0","83","0","Sun Oct 25 19:45:32 2020","The main experiment item","yes","SternbergTask-AL.osexp","/Users/annielenoir/Desktop","no","mono","no","18","no","white","no","no","768","legacy","71","11","/Users/annielenoir/Desktop/AL-subject-4.csv","legacy","1 8 7","Lentiform Loewenfeld","3.3.3","0","n","0","right","right","right","right","NA","628","36056","10072","628","NA","2","legacy","3","1024","2","48000","-16","experiment","4","even","4","608515","598065","605874","1867","130297","606016","604744","2028","120224","607168","610656","611286","38105","610656","NA","Sternberg Task","64","54843","84","yes","1024"
"75.29411764705883","75.29411764705883","652.3764705882353","652.3764705882353","black","experiment","legacy","legacy","legacy","0","uniform","0","undefined","0","left","84","84","84","0","0","84","84","0","0","84","84","84","0","84","0","Sun Oct 25 19:45:32 2020","The main experiment item","yes","SternbergTask-AL.osexp","/Users/annielenoir/Desktop","no","mono","no","18","no","white","no","no","768","legacy","72","11","/Users/annielenoir/Desktop/AL-subject-4.csv","legacy","7 4 2 6 3 5","Lentiform Loewenfeld","3.3.3","6","y","0","right","right","right","right","NA","609","36056","10072","609","NA","2","legacy","6","1024","2","48000","-16","experiment","4","even","5","615209","611431","612569","1867","130297","612711","604744","2028","120224","613865","617352","617962","38105","617352","NA","Sternberg Task","64","55452","85","yes","1024"
"74.4186046511628","74.4186046511628","650.6162790697674","650.6162790697674","black","experiment","legacy","legacy","legacy","0","uniform","0","undefined","0","left","85","85","85","0","0","85","85","0","0","85","85","85","0","85","0","Sun Oct 25 19:45:32 2020","The main experiment item","yes","SternbergTask-AL.osexp","/Users/annielenoir/Desktop","no","mono","no","18","no","white","no","no","768","legacy","73","11","/Users/annielenoir/Desktop/AL-subject-4.csv","legacy","8 3","Lentiform Loewenfeld","3.3.3","2","y","0","right","right","right","right","NA","501","36056","10072","501","NA","2","legacy","2","1024","2","48000","-16","experiment","4","even","3","621863","611431","619240","1867","130297","619377","618102","2028","120224","620526","624013","624515","38105","624012","NA","Sternberg Task","64","55953","86","yes","1024"
"74.71264367816092","74.71264367816092","653.3678160919541","653.3678160919541","black","experiment","legacy","legacy","legacy","0","uniform","1","undefined","1","left","86","86","86","0","0","86","86","0","0","86","86","86","0","86","0","Sun Oct 25 19:45:32 2020","The main experiment item","yes","SternbergTask-AL.osexp","/Users/annielenoir/Desktop","no","mono","no","18","no","white","no","no","768","legacy","74","11","/Users/annielenoir/Desktop/AL-subject-4.csv","legacy","9 3 8 2 1 4","Lentiform Loewenfeld","3.3.3","3","y","0","left","right","right","left","NA","890","36056","10072","890","NA","2","legacy","6","1024","2","48000","-16","experiment","4","even","8","628429","611431","625797","1867","130297","625933","624660","2028","120224","627077","630575","631466","38105","630575","NA","Sternberg Task","65","56843","87","yes","1024"
"75","75","651.0113636363636","651.0113636363636","black","experiment","legacy","legacy","legacy","0","uniform","1","undefined","1","left","87","87","87","0","0","87","87","0","0","87","87","87","0","87","0","Sun Oct 25 19:45:32 2020","The main experiment item","yes","SternbergTask-AL.osexp","/Users/annielenoir/Desktop","no","mono","no","18","no","white","no","no","768","legacy","75","11","/Users/annielenoir/Desktop/AL-subject-4.csv","legacy","7","Lentiform Loewenfeld","3.3.3","1","y","0","left","right","right","left","NA","446","36056","10072","446","NA","2","legacy","1","1024","2","48000","-16","experiment","4","even","7","635364","631614","632735","1867","130297","632871","624660","2028","120224","634015","637510","637956","38105","637510","NA","Sternberg Task","66","57289","88","yes","1024"
"75.28089887640449","75.28089887640449","649.3595505617977","649.3595505617977","black","experiment","legacy","legacy","legacy","0","uniform","1","undefined","1","left","88","88","88","0","0","88","88","0","0","88","88","88","0","88","0","Sun Oct 25 19:45:32 2020","The main experiment item","yes","SternbergTask-AL.osexp","/Users/annielenoir/Desktop","no","mono","no","18","no","white","no","no","768","legacy","76","11","/Users/annielenoir/Desktop/AL-subject-4.csv","legacy","6 2","Lentiform Loewenfeld","3.3.3","1","y","0","left","right","right","left","NA","504","36056","10072","504","NA","2","legacy","2","1024","2","48000","-16","experiment","4","even","6","641893","638105","639266","1867","130297","639406","624660","2028","120224","640546","644032","644538","38105","644032","NA","Sternberg Task","67","57793","89","yes","1024"
"75.55555555555556","75.55555555555556","649.6111111111111","649.6111111111111","black","experiment","legacy","legacy","legacy","0","uniform","1","undefined","1","left","89","89","89","0","0","89","89","0","0","89","89","89","0","89","0","Sun Oct 25 19:45:32 2020","The main experiment item","yes","SternbergTask-AL.osexp","/Users/annielenoir/Desktop","no","mono","no","18","no","white","no","no","768","legacy","77","11","/Users/annielenoir/Desktop/AL-subject-4.csv","legacy","5 7 3 6 2","Lentiform Loewenfeld","3.3.3","5","y","0","left","right","right","left","NA","672","36056","10072","672","NA","2","legacy","5","1024","2","48000","-16","experiment","4","even","2","648431","644683","645812","1867","130297","645948","624660","2028","120224","647094","650582","651255","38105","650582","NA","Sternberg Task","68","58465","90","yes","1024"
"75.82417582417582","75.82417582417582","648.7692307692307","648.7692307692307","black","experiment","legacy","legacy","legacy","0","uniform","1","undefined","1","right","90","90","90","0","0","90","90","0","0","90","90","90","0","90","0","Sun Oct 25 19:45:32 2020","The main experiment item","yes","SternbergTask-AL.osexp","/Users/annielenoir/Desktop","no","mono","no","18","no","white","no","no","768","legacy","78","11","/Users/annielenoir/Desktop/AL-subject-4.csv","legacy","5 9 2 3","Lentiform Loewenfeld","3.3.3","0","n","0","right","right","right","right","NA","573","36056","10072","573","NA","2","legacy","4","1024","2","48000","-16","experiment","4","even","8","655156","651397","652533","1867","130297","652669","624660","2028","120224","653820","657304","657878","38105","657303","NA","Sternberg Task","69","59038","91","yes","1024"
"75","75","649.7826086956521","649.7826086956521","black","experiment","legacy","legacy","legacy","0","uniform","0","undefined","0","right","91","91","91","0","0","91","91","0","0","91","91","91","0","91","0","Sun Oct 25 19:45:32 2020","The main experiment item","yes","SternbergTask-AL.osexp","/Users/annielenoir/Desktop","no","mono","no","18","no","white","no","no","768","legacy","79","11","/Users/annielenoir/Desktop/AL-subject-4.csv","legacy","7 9 1 6","Lentiform Loewenfeld","3.3.3","0","n","0","left","right","right","left","NA","742","36056","10072","742","NA","2","legacy","4","1024","2","48000","-16","experiment","4","even","4","661787","658022","659152","1867","130297","659288","624660","2028","120224","660434","663941","664684","38105","663941","NA","Sternberg Task","69","59780","92","yes","1024"
"75.26881720430107","75.26881720430107","658.0322580645161","658.0322580645161","black","experiment","legacy","legacy","legacy","0","uniform","1","undefined","1","left","92","92","92","0","0","92","92","0","0","92","92","92","0","92","0","Sun Oct 25 19:45:32 2020","The main experiment item","yes","SternbergTask-AL.osexp","/Users/annielenoir/Desktop","no","mono","no","18","no","white","no","no","768","legacy","80","11","/Users/annielenoir/Desktop/AL-subject-4.csv","legacy","5 2 9 6 1 7","Lentiform Loewenfeld","3.3.3","3","y","0","left","right","right","left","NA","1417","36056","10072","1417","NA","2","legacy","6","1024","2","48000","-16","experiment","4","even","9","668630","658022","665968","1867","130297","666103","664829","2028","120224","667275","670775","672194","38105","670775","NA","Sternberg Task","70","61197","93","yes","1024"
"75.53191489361703","75.53191489361703","660.7765957446809","660.7765957446809","black","experiment","legacy","legacy","legacy","0","uniform","1","undefined","1","left","93","93","93","0","0","93","93","0","0","93","93","93","0","93","0","Sun Oct 25 19:45:32 2020","The main experiment item","yes","SternbergTask-AL.osexp","/Users/annielenoir/Desktop","no","mono","no","18","no","white","no","no","768","legacy","81","11","/Users/annielenoir/Desktop/AL-subject-4.csv","legacy","3 5 7 1","Lentiform Loewenfeld","3.3.3","3","y","0","left","right","right","left","NA","916","36056","10072","916","NA","2","legacy","4","1024","2","48000","-16","experiment","4","even","7","676103","672339","673474","1867","130297","673610","664829","2028","120224","674756","678249","679166","38105","678249","NA","Sternberg Task","71","62113","94","yes","1024"
"75.78947368421052","75.78947368421052","661.1473684210526","661.1473684210526","black","experiment","legacy","legacy","legacy","0","uniform","1","undefined","1","left","94","94","94","0","0","94","94","0","0","94","94","94","0","94","0","Sun Oct 25 19:45:32 2020","The main experiment item","yes","SternbergTask-AL.osexp","/Users/annielenoir/Desktop","no","mono","no","18","no","white","no","no","768","legacy","82","11","/Users/annielenoir/Desktop/AL-subject-4.csv","legacy","9 5 8 1","Lentiform Loewenfeld","3.3.3","2","y","0","left","right","right","left","NA","696","36056","10072","696","NA","2","legacy","4","1024","2","48000","-16","experiment","4","even","5","683089","679313","680469","1867","130297","680602","664829","2028","120224","681743","685234","685932","38105","685234","NA","Sternberg Task","72","62809","95","yes","1024"
"76.04166666666667","76.04166666666667","661.2708333333334","661.2708333333334","black","experiment","legacy","legacy","legacy","0","uniform","1","undefined","1","right","95","95","95","0","0","95","95","0","0","95","95","95","0","95","0","Sun Oct 25 19:45:32 2020","The main experiment item","yes","SternbergTask-AL.osexp","/Users/annielenoir/Desktop","no","mono","no","18","no","white","no","no","768","legacy","83","11","/Users/annielenoir/Desktop/AL-subject-4.csv","legacy","3 4 9 6 7 8","Lentiform Loewenfeld","3.3.3","0","n","0","right","right","right","right","NA","673","36056","10072","673","NA","2","legacy","6","1024","2","48000","-16","experiment","4","even","2","689860","686080","687233","1867","130297","687372","664829","2028","120224","688511","692003","692677","38105","692003","NA","Sternberg Task","73","63482","96","yes","1024"
"76.28865979381443","76.28865979381443","661.8144329896908","661.8144329896908","black","experiment","legacy","legacy","legacy","0","uniform","1","undefined","1","left","96","96","96","0","0","96","96","0","0","96","96","96","0","96","0","Sun Oct 25 19:45:32 2020","The main experiment item","yes","SternbergTask-AL.osexp","/Users/annielenoir/Desktop","no","mono","no","18","no","white","no","no","768","legacy","84","11","/Users/annielenoir/Desktop/AL-subject-4.csv","legacy","4 6 2 5 1","Lentiform Loewenfeld","3.3.3","5","y","0","left","right","right","left","NA","714","36056","10072","714","NA","2","legacy","5","1024","2","48000","-16","experiment","4","even","1","696634","692826","694008","1867","130297","694147","664829","2028","120224","695286","698781","699497","38105","698781","NA","Sternberg Task","74","64196","97","yes","1024"
"76.53061224489795","76.53061224489795","661.6020408163265","661.6020408163265","black","experiment","legacy","legacy","legacy","0","uniform","1","undefined","1","right","97","97","97","0","0","97","97","0","0","97","97","97","0","97","0","Sun Oct 25 19:45:32 2020","The main experiment item","yes","SternbergTask-AL.osexp","/Users/annielenoir/Desktop","no","mono","no","18","no","white","no","no","768","legacy","85","11","/Users/annielenoir/Desktop/AL-subject-4.csv","legacy","4 2 7 6 1 3","Lentiform Loewenfeld","3.3.3","0","n","0","right","right","right","right","NA","641","36056","10072","641","NA","2","legacy","6","1024","2","48000","-16","experiment","4","even","8","703461","699646","700835","1867","130297","700974","664829","2028","120224","702114","705607","706249","38105","705606","NA","Sternberg Task","75","64837","98","yes","1024"
"76.76767676767676","76.76767676767676","662.0505050505051","662.0505050505051","black","experiment","legacy","legacy","legacy","0","uniform","1","undefined","1","left","98","98","98","0","0","98","98","0","0","98","98","98","0","98","0","Sun Oct 25 19:45:32 2020","The main experiment item","yes","SternbergTask-AL.osexp","/Users/annielenoir/Desktop","no","mono","no","18","no","white","no","no","768","legacy","86","11","/Users/annielenoir/Desktop/AL-subject-4.csv","legacy","8 9 6 1","Lentiform Loewenfeld","3.3.3","2","y","0","left","right","right","left","NA","706","36056","10072","706","NA","2","legacy","4","1024","2","48000","-16","experiment","4","even","9","710194","706396","707568","1867","130297","707708","664829","2028","120224","708847","712334","713041","38105","712334","NA","Sternberg Task","76","65543","99","yes","1024"
"77","77","661.15","661.15","black","experiment","legacy","legacy","legacy","0","uniform","1","undefined","1","left","99","99","99","0","0","99","99","0","0","99","99","99","0","99","0","Sun Oct 25 19:45:32 2020","The main experiment item","yes","SternbergTask-AL.osexp","/Users/annielenoir/Desktop","no","mono","no","18","no","white","no","no","768","legacy","87","11","/Users/annielenoir/Desktop/AL-subject-4.csv","legacy","6 9 3 1","Lentiform Loewenfeld","3.3.3","4","y","0","left","right","right","left","NA","572","36056","10072","572","NA","2","legacy","4","1024","2","48000","-16","experiment","4","even","1","716984","713189","714356","1867","130297","714497","664829","2028","120224","715637","719124","719697","38105","719124","NA","Sternberg Task","77","66115","100","yes","1024"
"77.22772277227723","77.22772277227723","661.009900990099","661.009900990099","black","experiment","legacy","legacy","legacy","0","uniform","1","undefined","1","left","100","100","100","0","0","100","100","0","0","100","100","100","0","100","0","Sun Oct 25 19:45:32 2020","The main experiment item","yes","SternbergTask-AL.osexp","/Users/annielenoir/Desktop","no","mono","no","18","no","white","no","no","768","legacy","88","11","/Users/annielenoir/Desktop/AL-subject-4.csv","legacy","7 6","Lentiform Loewenfeld","3.3.3","2","y","0","left","right","right","left","NA","647","36056","10072","647","NA","2","legacy","2","1024","2","48000","-16","experiment","4","even","6","723612","719842","720974","1867","130297","721115","664829","2028","120224","722266","725750","726399","38105","725750","NA","Sternberg Task","78","66762","101","yes","1024"
"76.47058823529412","76.47058823529412","674.1372549019608","674.1372549019608","black","experiment","legacy","legacy","legacy","0","uniform","0","undefined","0","right","101","101","101","0","0","101","101","0","0","101","101","101","0","101","0","Sun Oct 25 19:45:32 2020","The main experiment item","yes","SternbergTask-AL.osexp","/Users/annielenoir/Desktop","no","mono","no","18","no","white","no","no","768","legacy","89","11","/Users/annielenoir/Desktop/AL-subject-4.csv","legacy","6 2 9 3 8 4","Lentiform Loewenfeld","3.3.3","0","n","0","None","right","right","None","NA","2000","36056","10072","2000","NA","2","legacy","6","1024","2","48000","-16","experiment","4","even","1","730303","726544","727681","1867","130297","727820","664829","2028","120224","728968","732441","734441","38105","732440","NA","Sternberg Task","78","68762","102","yes","1024"
"76.69902912621359","76.69902912621359","673.9320388349514","673.9320388349514","black","experiment","legacy","legacy","legacy","0","uniform","1","undefined","1","left","102","102","102","0","0","102","102","0","0","102","102","102","0","102","0","Sun Oct 25 19:45:32 2020","The main experiment item","yes","SternbergTask-AL.osexp","/Users/annielenoir/Desktop","no","mono","no","18","no","white","no","no","768","legacy","90","11","/Users/annielenoir/Desktop/AL-subject-4.csv","legacy","7 1 8 5 6 2","Lentiform Loewenfeld","3.3.3","2","y","0","left","right","right","left","NA","653","36056","10072","653","NA","2","legacy","6","1024","2","48000","-16","experiment","4","even","1","738321","726544","735693","1867","130297","735827","734590","2028","120224","736973","740467","741121","38105","740467","NA","Sternberg Task","79","69415","103","yes","1024"
"76.92307692307692","76.92307692307692","673.2980769230769","673.2980769230769","black","experiment","legacy","legacy","legacy","0","uniform","1","undefined","1","left","103","103","103","0","0","103","103","0","0","103","103","103","0","103","0","Sun Oct 25 19:45:32 2020","The main experiment item","yes","SternbergTask-AL.osexp","/Users/annielenoir/Desktop","no","mono","no","18","no","white","no","no","768","legacy","91","11","/Users/annielenoir/Desktop/AL-subject-4.csv","legacy","6 1 2","Lentiform Loewenfeld","3.3.3","3","y","0","left","right","right","left","NA","608","36056","10072","608","NA","2","legacy","3","1024","2","48000","-16","experiment","4","even","2","745056","741269","742436","1867","130297","742574","734590","2028","120224","743709","747200","747809","38105","747200","NA","Sternberg Task","80","70023","104","yes","1024"
"76.19047619047619","76.19047619047619","673.3238095238095","673.3238095238095","black","experiment","legacy","legacy","legacy","0","uniform","0","undefined","0","left","104","104","104","0","0","104","104","0","0","104","104","104","0","104","0","Sun Oct 25 19:45:32 2020","The main experiment item","yes","SternbergTask-AL.osexp","/Users/annielenoir/Desktop","no","mono","no","18","no","white","no","no","768","legacy","92","11","/Users/annielenoir/Desktop/AL-subject-4.csv","legacy","8 9 5 6 7","Lentiform Loewenfeld","3.3.3","1","y","0","right","right","right","right","NA","676","36056","10072","676","NA","2","legacy","5","1024","2","48000","-16","experiment","4","even","8","751752","747956","749124","1867","130297","749265","734590","2028","120224","750404","753892","754569","38105","753892","NA","Sternberg Task","80","70699","105","yes","1024"
"76.41509433962264","76.41509433962264","673.2452830188679","673.2452830188679","black","experiment","legacy","legacy","legacy","0","uniform","1","undefined","1","left","105","105","105","0","0","105","105","0","0","105","105","105","0","105","0","Sun Oct 25 19:45:32 2020","The main experiment item","yes","SternbergTask-AL.osexp","/Users/annielenoir/Desktop","no","mono","no","18","no","white","no","no","768","legacy","93","11","/Users/annielenoir/Desktop/AL-subject-4.csv","legacy","3 5 4 7","Lentiform Loewenfeld","3.3.3","1","y","0","left","right","right","left","NA","665","36056","10072","665","NA","2","legacy","4","1024","2","48000","-16","experiment","4","even","3","758525","747956","755897","1867","130297","756035","754714","2028","120224","757175","760669","761335","38105","760669","NA","Sternberg Task","81","71364","106","yes","1024"
"76.6355140186916","76.6355140186916","670.803738317757","670.803738317757","black","experiment","legacy","legacy","legacy","0","uniform","1","undefined","1","left","106","106","106","0","0","106","106","0","0","106","106","106","0","106","0","Sun Oct 25 19:45:32 2020","The main experiment item","yes","SternbergTask-AL.osexp","/Users/annielenoir/Desktop","no","mono","no","18","no","white","no","no","768","legacy","94","11","/Users/annielenoir/Desktop/AL-subject-4.csv","legacy","4","Lentiform Loewenfeld","3.3.3","1","y","0","left","right","right","left","NA","412","36056","10072","412","NA","2","legacy","1","1024","2","48000","-16","experiment","4","even","4","765290","761484","762663","1867","130297","762802","754714","2028","120224","763942","767431","767844","38105","767431","NA","Sternberg Task","82","71776","107","yes","1024"
"75.92592592592592","75.92592592592592","674.6018518518518","674.6018518518518","black","experiment","legacy","legacy","legacy","0","uniform","0","undefined","0","right","107","107","107","0","0","107","107","0","0","107","107","107","0","107","0","Sun Oct 25 19:45:32 2020","The main experiment item","yes","SternbergTask-AL.osexp","/Users/annielenoir/Desktop","no","mono","no","18","no","white","no","no","768","legacy","95","11","/Users/annielenoir/Desktop/AL-subject-4.csv","legacy","1 4 9 3","Lentiform Loewenfeld","3.3.3","0","n","0","left","right","right","left","NA","1081","36056","10072","1081","NA","2","legacy","4","1024","2","48000","-16","experiment","4","even","5","771758","767989","769127","1867","130297","769263","754714","2028","120224","770410","773907","774989","38105","773906","NA","Sternberg Task","82","72857","108","yes","1024"
"76.14678899082568","76.14678899082568","674.5229357798165","674.5229357798165","black","experiment","legacy","legacy","legacy","0","uniform","1","undefined","1","left","108","108","108","0","0","108","108","0","0","108","108","108","0","108","0","Sun Oct 25 19:45:32 2020","The main experiment item","yes","SternbergTask-AL.osexp","/Users/annielenoir/Desktop","no","mono","no","18","no","white","no","no","768","legacy","96","11","/Users/annielenoir/Desktop/AL-subject-4.csv","legacy","4 1 5","Lentiform Loewenfeld","3.3.3","2","y","0","left","right","right","left","NA","666","36056","10072","666","NA","2","legacy","3","1024","2","48000","-16","experiment","4","even","1","778892","767989","776270","1867","130297","776408","775132","2028","120224","777557","781048","781716","38105","781047","NA","Sternberg Task","83","73523","109","yes","1024"
"75.45454545454545","75.45454545454545","674.5363636363636","674.5363636363636","black","experiment","legacy","legacy","legacy","0","uniform","0","undefined","0","right","109","109","109","0","0","109","109","0","0","109","109","109","0","109","0","Sun Oct 25 19:45:32 2020","The main experiment item","yes","SternbergTask-AL.osexp","/Users/annielenoir/Desktop","no","mono","no","18","no","white","no","no","768","legacy","97","11","/Users/annielenoir/Desktop/AL-subject-4.csv","legacy","9 8 2 7 4","Lentiform Loewenfeld","3.3.3","0","n","0","left","right","right","left","NA","676","36056","10072","676","NA","2","legacy","5","1024","2","48000","-16","experiment","4","even","5","785620","781860","782998","1867","130297","783134","775132","2028","120224","784283","787773","788450","38105","787773","NA","Sternberg Task","83","74199","110","yes","1024"
"75.67567567567568","75.67567567567568","673.4684684684685","673.4684684684685","black","experiment","legacy","legacy","legacy","0","uniform","1","undefined","1","right","110","110","110","0","0","110","110","0","0","110","110","110","0","110","0","Sun Oct 25 19:45:32 2020","The main experiment item","yes","SternbergTask-AL.osexp","/Users/annielenoir/Desktop","no","mono","no","18","no","white","no","no","768","legacy","98","11","/Users/annielenoir/Desktop/AL-subject-4.csv","legacy","1 7 5 2","Lentiform Loewenfeld","3.3.3","0","n","0","right","right","right","right","NA","556","36056","10072","556","NA","2","legacy","4","1024","2","48000","-16","experiment","4","even","3","792358","781860","789733","1867","130297","789875","788596","2028","120224","791022","794505","795063","38105","794505","NA","Sternberg Task","84","74755","111","yes","1024"
"75.89285714285714","75.89285714285714","675.4464285714286","675.4464285714286","black","experiment","legacy","legacy","legacy","0","uniform","1","undefined","1","right","111","111","111","0","0","111","111","0","0","111","111","111","0","111","0","Sun Oct 25 19:45:32 2020","The main experiment item","yes","SternbergTask-AL.osexp","/Users/annielenoir/Desktop","no","mono","no","18","no","white","no","no","768","legacy","99","11","/Users/annielenoir/Desktop/AL-subject-4.csv","legacy","3 9 1","Lentiform Loewenfeld","3.3.3","0","n","0","right","right","right","right","NA","895","36056","10072","895","NA","2","legacy","3","1024","2","48000","-16","experiment","4","even","7","798987","795209","796348","1867","130297","796486","788596","2028","120224","797633","801136","802033","38105","801136","NA","Sternberg Task","85","75650","112","yes","1024"
"76.10619469026548","76.10619469026548","675.2477876106195","675.2477876106195","black","experiment","legacy","legacy","legacy","0","uniform","1","undefined","1","left","112","112","112","0","0","112","112","0","0","112","112","112","0","112","0","Sun Oct 25 19:45:32 2020","The main experiment item","yes","SternbergTask-AL.osexp","/Users/annielenoir/Desktop","no","mono","no","18","no","white","no","no","768","legacy","100","11","/Users/annielenoir/Desktop/AL-subject-4.csv","legacy","6 5","Lentiform Loewenfeld","3.3.3","2","y","0","left","right","right","left","NA","653","36056","10072","653","NA","2","legacy","2","1024","2","48000","-16","experiment","4","even","5","805942","802179","803309","1867","130297","803445","788596","2028","120224","804591","808086","808740","38105","808086","NA","Sternberg Task","86","76303","113","yes","1024"
"76.3157894736842","76.3157894736842","677.4298245614035","677.4298245614035","black","experiment","legacy","legacy","legacy","0","uniform","1","undefined","1","right","113","113","113","0","0","113","113","0","0","113","113","113","0","113","0","Sun Oct 25 19:45:32 2020","The main experiment item","yes","SternbergTask-AL.osexp","/Users/annielenoir/Desktop","no","mono","no","18","no","white","no","no","768","legacy","101","11","/Users/annielenoir/Desktop/AL-subject-4.csv","legacy","8 5 4 2 9 6","Lentiform Loewenfeld","3.3.3","0","n","0","right","right","right","right","NA","924","36056","10072","924","NA","2","legacy","6","1024","2","48000","-16","experiment","4","even","3","812662","808895","810037","1867","130297","810171","788596","2028","120224","811314","814807","815732","38105","814807","NA","Sternberg Task","87","77227","114","yes","1024"
"76.52173913043478","76.52173913043478","675.8173913043478","675.8173913043478","black","experiment","legacy","legacy","legacy","0","uniform","1","undefined","1","left","114","114","114","0","0","114","114","0","0","114","114","114","0","114","0","Sun Oct 25 19:45:32 2020","The main experiment item","yes","SternbergTask-AL.osexp","/Users/annielenoir/Desktop","no","mono","no","18","no","white","no","no","768","legacy","102","11","/Users/annielenoir/Desktop/AL-subject-4.csv","legacy","3 4","Lentiform Loewenfeld","3.3.3","1","y","0","left","right","right","left","NA","492","36056","10072","492","NA","2","legacy","2","1024","2","48000","-16","experiment","4","even","3","819682","815883","817054","1867","130297","817197","788596","2028","120224","818334","821827","822320","38105","821827","NA","Sternberg Task","88","77719","115","yes","1024"
"76.72413793103448","76.72413793103448","675.7241379310345","675.7241379310345","black","experiment","legacy","legacy","legacy","0","uniform","1","undefined","1","right","115","115","115","0","0","115","115","0","0","115","115","115","0","115","0","Sun Oct 25 19:45:32 2020","The main experiment item","yes","SternbergTask-AL.osexp","/Users/annielenoir/Desktop","no","mono","no","18","no","white","no","no","768","legacy","103","11","/Users/annielenoir/Desktop/AL-subject-4.csv","legacy","7 1 5 6 3","Lentiform Loewenfeld","3.3.3","0","n","0","right","right","right","right","NA","665","36056","10072","665","NA","2","legacy","5","1024","2","48000","-16","experiment","4","even","8","826228","822466","823595","1867","130297","823733","788596","2028","120224","824885","828368","829034","38105","828368","NA","Sternberg Task","89","78384","116","yes","1024"
"76.92307692307692","76.92307692307692","675.4444444444445","675.4444444444445","black","experiment","legacy","legacy","legacy","0","uniform","1","undefined","1","left","116","116","116","0","0","116","116","0","0","116","116","116","0","116","0","Sun Oct 25 19:45:32 2020","The main experiment item","yes","SternbergTask-AL.osexp","/Users/annielenoir/Desktop","no","mono","no","18","no","white","no","no","768","legacy","104","11","/Users/annielenoir/Desktop/AL-subject-4.csv","legacy","2 4 6 9","Lentiform Loewenfeld","3.3.3","3","y","0","left","right","right","left","NA","643","36056","10072","643","NA","2","legacy","4","1024","2","48000","-16","experiment","4","even","6","832948","829178","830316","1867","130297","830455","788596","2028","120224","831605","835089","835733","38105","835089","NA","Sternberg Task","90","79027","117","yes","1024"
"76.27118644067797","76.27118644067797","676.771186440678","676.771186440678","black","experiment","legacy","legacy","legacy","0","uniform","0","undefined","0","right","117","117","117","0","0","117","117","0","0","117","117","117","0","117","0","Sun Oct 25 19:45:32 2020","The main experiment item","yes","SternbergTask-AL.osexp","/Users/annielenoir/Desktop","no","mono","no","18","no","white","no","no","768","legacy","105","11","/Users/annielenoir/Desktop/AL-subject-4.csv","legacy","6 7 5 9","Lentiform Loewenfeld","3.3.3","0","n","0","left","right","right","left","NA","832","36056","10072","832","NA","2","legacy","4","1024","2","48000","-16","experiment","4","even","2","839637","835878","837014","1867","130297","837152","788596","2028","120224","838302","841783","842616","38105","841783","NA","Sternberg Task","90","79859","118","yes","1024"
