acc,accuracy,average_response_time,avg_rt,background,block,canvas_backend,clock_backend,color_backend,compensation,coordinates,correct,correct_instruction1,correct_keyboard_response,correct_response,count_ISI,count_PracticeLoop,count_correctFeedback,count_expSequence,count_experiment,count_experimentLoop,count_fixation,count_incorrectFeedback,count_instruction1,count_instructions2,count_keyboard_response,count_logger,count_memorySet,count_probe,count_thankYou,datetime,description,disable_garbage_collection,experiment_file,experiment_path,font_bold,font_family,font_italic,font_size,font_underline,foreground,form_clicks,fullscreen,height,keyboard_backend,live_row,live_row_PracticeLoop,logfile,mouse_backend,numberSet,opensesame_codename,opensesame_version,posInSet,present,repeat_cycle,response,response_instruction1,response_instructions2,response_keyboard_response,response_thankYou,response_time,response_time_instruction1,response_time_instructions2,response_time_keyboard_response,response_time_thankYou,round_decimals,sampler_backend,setSize,sound_buf_size,sound_channels,sound_freq,sound_sample_size,start,subject_nr,subject_parity,target,time_ISI,time_PracticeLoop,time_correctFeedback,time_expSequence,time_experiment,time_experimentLoop,time_fixation,time_incorrectFeedback,time_instruction1,time_instructions2,time_keyboard_response,time_logger,time_memorySet,time_probe,time_thankYou,title,total_correct,total_response_time,total_responses,uniform_coordinates,width
100,100,1644,1644,black,practice,legacy,legacy,legacy,0,uniform,1,undefined,1,left,0,0,0,0,0,0,0,0,0,0,0,0,0,0,0,Thu Oct 24 14:05:04 2019,The main experiment item,yes,SternbergTask.osexp,/Users/cristianbotello/Desktop/Advanced Quant/Lab 3.1,no,mono,no,18,no,white,no,no,768,legacy,0,0,/Users/cristianbotello/Desktop/Advanced Quant/Lab 3.2/CB-subject-3.csv,legacy,1 7 9 8 5,Kafkaesque Koffka,3.2.8,4,y,0,left,left,NA,left,NA,1644,42787,NA,1644,NA,2,legacy,5,1024,2,48000,-16,experiment,3,odd,8,48318,45881,NA,46078,3045,NA,46091,NA,3082,NA,50332,51978,47106,50332,NA,Sternberg Task,1,1644,1,yes,1024
100,100,1682,1682,black,practice,legacy,legacy,legacy,0,uniform,1,undefined,1,right,1,0,1,1,0,0,1,1,0,0,1,1,1,1,0,Thu Oct 24 14:05:04 2019,The main experiment item,yes,SternbergTask.osexp,/Users/cristianbotello/Desktop/Advanced Quant/Lab 3.1,no,mono,no,18,no,white,no,no,768,legacy,1,1,/Users/cristianbotello/Desktop/Advanced Quant/Lab 3.2/CB-subject-3.csv,legacy,4 1 5,Kafkaesque Koffka,3.2.8,0,n,0,right,left,NA,right,NA,1720,42787,NA,1720,NA,2,legacy,3,1024,2,48000,-16,experiment,3,odd,2,55534,45881,52113,53295,3045,NA,53307,NA,3082,NA,57549,59270,54320,57549,NA,Sternberg Task,2,3364,2,yes,1024
66.66666667,66.66666667,1458.666667,1458.666667,black,practice,legacy,legacy,legacy,0,uniform,0,undefined,0,left,2,0,2,2,0,0,2,2,0,0,2,2,2,2,0,Thu Oct 24 14:05:04 2019,The main experiment item,yes,SternbergTask.osexp,/Users/cristianbotello/Desktop/Advanced Quant/Lab 3.1,no,mono,no,18,no,white,no,no,768,legacy,2,2,/Users/cristianbotello/Desktop/Advanced Quant/Lab 3.2/CB-subject-3.csv,legacy,4 3 1 7 9 8,Kafkaesque Koffka,3.2.8,1,y,0,right,left,NA,right,NA,1012,42787,NA,1012,NA,2,legacy,6,1024,2,48000,-16,experiment,3,odd,4,62699,45881,59290,60459,3045,NA,60471,NA,3082,NA,64712,65725,61483,64712,NA,Sternberg Task,2,4376,3,yes,1024
75,75,1234.25,1234.25,black,practice,legacy,legacy,legacy,0,uniform,1,undefined,1,left,3,0,3,3,0,0,3,3,0,0,3,3,3,3,0,Thu Oct 24 14:05:04 2019,The main experiment item,yes,SternbergTask.osexp,/Users/cristianbotello/Desktop/Advanced Quant/Lab 3.1,no,mono,no,18,no,white,no,no,768,legacy,3,3,/Users/cristianbotello/Desktop/Advanced Quant/Lab 3.2/CB-subject-3.csv,legacy,4 8,Kafkaesque Koffka,3.2.8,1,y,0,left,left,NA,left,NA,561,42787,NA,561,NA,2,legacy,2,1024,2,48000,-16,experiment,3,odd,4,69139,45881,59290,66900,3045,NA,66912,65743,3082,NA,71152,71714,67927,71152,NA,Sternberg Task,3,4937,4,yes,1024
80,80,1136.2,1136.2,black,practice,legacy,legacy,legacy,0,uniform,1,undefined,1,right,4,0,4,4,0,0,4,4,0,0,4,4,4,4,0,Thu Oct 24 14:05:04 2019,The main experiment item,yes,SternbergTask.osexp,/Users/cristianbotello/Desktop/Advanced Quant/Lab 3.1,no,mono,no,18,no,white,no,no,768,legacy,4,4,/Users/cristianbotello/Desktop/Advanced Quant/Lab 3.2/CB-subject-3.csv,legacy,9 6 7 4 5,Kafkaesque Koffka,3.2.8,0,n,0,right,left,NA,right,NA,744,42787,NA,744,NA,2,legacy,5,1024,2,48000,-16,experiment,3,odd,3,75132,45881,71731,72891,3045,NA,72903,65743,3082,NA,77146,77892,73919,77146,NA,Sternberg Task,4,5681,5,yes,1024
83.33333333,83.33333333,1042.5,1042.5,black,practice,legacy,legacy,legacy,0,uniform,1,undefined,1,left,5,0,5,5,0,0,5,5,0,0,5,5,5,5,0,Thu Oct 24 14:05:04 2019,The main experiment item,yes,SternbergTask.osexp,/Users/cristianbotello/Desktop/Advanced Quant/Lab 3.1,no,mono,no,18,no,white,no,no,768,legacy,5,5,/Users/cristianbotello/Desktop/Advanced Quant/Lab 3.2/CB-subject-3.csv,legacy,1 5 2 9,Kafkaesque Koffka,3.2.8,2,y,0,left,left,NA,left,NA,574,42787,NA,574,NA,2,legacy,4,1024,2,48000,-16,experiment,3,odd,5,81311,45881,77911,79069,3045,NA,79082,65743,3082,NA,83325,83900,80098,83325,NA,Sternberg Task,5,6255,6,yes,1024
85.71428571,85.71428571,969.4285714,969.4285714,black,practice,legacy,legacy,legacy,0,uniform,1,undefined,1,left,6,0,6,6,0,0,6,6,0,0,6,6,6,6,0,Thu Oct 24 14:05:04 2019,The main experiment item,yes,SternbergTask.osexp,/Users/cristianbotello/Desktop/Advanced Quant/Lab 3.1,no,mono,no,18,no,white,no,no,768,legacy,6,6,/Users/cristianbotello/Desktop/Advanced Quant/Lab 3.2/CB-subject-3.csv,legacy,2 9 4,Kafkaesque Koffka,3.2.8,3,y,0,left,left,NA,left,NA,531,42787,NA,531,NA,2,legacy,3,1024,2,48000,-16,experiment,3,odd,4,87312,45881,83918,85071,3045,NA,85083,65743,3082,NA,89327,89859,86099,89327,NA,Sternberg Task,6,6786,7,yes,1024
87.5,87.5,914.375,914.375,black,practice,legacy,legacy,legacy,0,uniform,1,undefined,1,right,7,0,7,7,0,0,7,7,0,0,7,7,7,7,0,Thu Oct 24 14:05:04 2019,The main experiment item,yes,SternbergTask.osexp,/Users/cristianbotello/Desktop/Advanced Quant/Lab 3.1,no,mono,no,18,no,white,no,no,768,legacy,7,7,/Users/cristianbotello/Desktop/Advanced Quant/Lab 3.2/CB-subject-3.csv,legacy,2 1,Kafkaesque Koffka,3.2.8,0,n,0,right,left,NA,right,NA,529,42787,NA,529,NA,2,legacy,2,1024,2,48000,-16,experiment,3,odd,5,93269,45881,89877,91026,3045,NA,91039,65743,3082,NA,95283,95813,92055,95282,NA,Sternberg Task,7,7315,8,yes,1024
88.88888889,88.88888889,893,893,black,practice,legacy,legacy,legacy,0,uniform,1,undefined,1,right,8,0,8,8,0,0,8,8,0,0,8,8,8,8,0,Thu Oct 24 14:05:04 2019,The main experiment item,yes,SternbergTask.osexp,/Users/cristianbotello/Desktop/Advanced Quant/Lab 3.1,no,mono,no,18,no,white,no,no,768,legacy,8,8,/Users/cristianbotello/Desktop/Advanced Quant/Lab 3.2/CB-subject-3.csv,legacy,5,Kafkaesque Koffka,3.2.8,0,n,0,right,left,NA,right,NA,722,42787,NA,722,NA,2,legacy,1,1024,2,48000,-16,experiment,3,odd,3,99229,45881,95832,96986,3045,NA,96998,65743,3082,NA,101244,101967,98012,101244,NA,Sternberg Task,8,8037,9,yes,1024
90,90,871.4,871.4,black,practice,legacy,legacy,legacy,0,uniform,1,undefined,1,right,9,0,9,9,0,0,9,9,0,0,9,9,9,9,0,Thu Oct 24 14:05:04 2019,The main experiment item,yes,SternbergTask.osexp,/Users/cristianbotello/Desktop/Advanced Quant/Lab 3.1,no,mono,no,18,no,white,no,no,768,legacy,9,9,/Users/cristianbotello/Desktop/Advanced Quant/Lab 3.2/CB-subject-3.csv,legacy,5 7 8 4 1 2,Kafkaesque Koffka,3.2.8,0,n,0,right,left,NA,right,NA,677,42787,NA,677,NA,2,legacy,6,1024,2,48000,-16,experiment,3,odd,6,105386,45881,101982,103143,3045,NA,103158,65743,3082,NA,107400,108078,104174,107400,NA,Sternberg Task,9,8714,10,yes,1024
90.90909091,90.90909091,853.9090909,853.9090909,black,practice,legacy,legacy,legacy,0,uniform,1,undefined,1,left,10,0,10,10,0,0,10,10,0,0,10,10,10,10,0,Thu Oct 24 14:05:04 2019,The main experiment item,yes,SternbergTask.osexp,/Users/cristianbotello/Desktop/Advanced Quant/Lab 3.1,no,mono,no,18,no,white,no,no,768,legacy,10,10,/Users/cristianbotello/Desktop/Advanced Quant/Lab 3.2/CB-subject-3.csv,legacy,6,Kafkaesque Koffka,3.2.8,1,y,0,left,left,NA,left,NA,679,42787,NA,679,NA,2,legacy,1,1024,2,48000,-16,experiment,3,odd,6,111476,45881,108095,109234,3045,NA,109247,65743,3082,NA,113491,114172,110262,113490,NA,Sternberg Task,10,9393,11,yes,1024
91.66666667,91.66666667,862.25,862.25,black,practice,legacy,legacy,legacy,0,uniform,1,undefined,1,right,11,0,11,11,0,0,11,11,0,0,11,11,11,11,0,Thu Oct 24 14:05:04 2019,The main experiment item,yes,SternbergTask.osexp,/Users/cristianbotello/Desktop/Advanced Quant/Lab 3.1,no,mono,no,18,no,white,no,no,768,legacy,11,11,/Users/cristianbotello/Desktop/Advanced Quant/Lab 3.2/CB-subject-3.csv,legacy,3 1 9 4,Kafkaesque Koffka,3.2.8,0,n,0,right,left,NA,right,NA,954,42787,NA,954,NA,2,legacy,4,1024,2,48000,-16,experiment,3,odd,6,117590,45881,114190,115348,3045,NA,115361,65743,3082,NA,119606,120562,116377,119606,NA,Sternberg Task,11,10347,12,yes,1024
92.30769231,92.30769231,839.3846154,839.3846154,black,experiment,legacy,legacy,legacy,0,uniform,1,undefined,1,left,12,0,12,12,0,0,12,12,0,0,12,12,12,12,0,Thu Oct 24 14:05:04 2019,The main experiment item,yes,SternbergTask.osexp,/Users/cristianbotello/Desktop/Advanced Quant/Lab 3.1,no,mono,no,18,no,white,no,no,768,legacy,0,11,/Users/cristianbotello/Desktop/Advanced Quant/Lab 3.2/CB-subject-3.csv,legacy,4,Kafkaesque Koffka,3.2.8,1,y,0,left,left,right,left,NA,565,42787,5490,565,NA,2,legacy,1,1024,2,48000,-16,experiment,3,odd,4,129577,45881,120582,127332,3045,127123,127347,65743,3082,121631,131590,132156,128359,131590,NA,Sternberg Task,12,10912,13,yes,1024
92.85714286,92.85714286,811.7857143,811.7857143,black,experiment,legacy,legacy,legacy,0,uniform,1,undefined,1,left,13,0,13,13,0,0,13,13,0,0,13,13,13,13,0,Thu Oct 24 14:05:04 2019,The main experiment item,yes,SternbergTask.osexp,/Users/cristianbotello/Desktop/Advanced Quant/Lab 3.1,no,mono,no,18,no,white,no,no,768,legacy,1,11,/Users/cristianbotello/Desktop/Advanced Quant/Lab 3.2/CB-subject-3.csv,legacy,6 2,Kafkaesque Koffka,3.2.8,1,y,0,left,left,right,left,NA,453,42787,5490,453,NA,2,legacy,2,1024,2,48000,-16,experiment,3,odd,6,135589,45881,132177,133349,3045,127123,133361,65743,3082,121631,137602,138057,134374,137602,NA,Sternberg Task,13,11365,14,yes,1024
93.33333333,93.33333333,797.0666667,797.0666667,black,experiment,legacy,legacy,legacy,0,uniform,1,undefined,1,right,14,0,14,14,0,0,14,14,0,0,14,14,14,14,0,Thu Oct 24 14:05:04 2019,The main experiment item,yes,SternbergTask.osexp,/Users/cristianbotello/Desktop/Advanced Quant/Lab 3.1,no,mono,no,18,no,white,no,no,768,legacy,2,11,/Users/cristianbotello/Desktop/Advanced Quant/Lab 3.2/CB-subject-3.csv,legacy,6 7 5 9,Kafkaesque Koffka,3.2.8,0,n,0,right,left,right,right,NA,591,42787,5490,591,NA,2,legacy,4,1024,2,48000,-16,experiment,3,odd,2,141457,45881,138072,139214,3045,127123,139227,65743,3082,121631,143471,144064,140243,143471,NA,Sternberg Task,14,11956,15,yes,1024
93.75,93.75,775.5625,775.5625,black,experiment,legacy,legacy,legacy,0,uniform,1,undefined,1,left,15,0,15,15,0,0,15,15,0,0,15,15,15,15,0,Thu Oct 24 14:05:04 2019,The main experiment item,yes,SternbergTask.osexp,/Users/cristianbotello/Desktop/Advanced Quant/Lab 3.1,no,mono,no,18,no,white,no,no,768,legacy,3,11,/Users/cristianbotello/Desktop/Advanced Quant/Lab 3.2/CB-subject-3.csv,legacy,9 8 4,Kafkaesque Koffka,3.2.8,1,y,0,left,left,right,left,NA,453,42787,5490,453,NA,2,legacy,3,1024,2,48000,-16,experiment,3,odd,9,147480,45881,144084,145236,3045,127123,145249,65743,3082,121631,149493,149948,146266,149493,NA,Sternberg Task,15,12409,16,yes,1024
94.11764706,94.11764706,767.1176471,767.1176471,black,experiment,legacy,legacy,legacy,0,uniform,1,undefined,1,right,16,0,16,16,0,0,16,16,0,0,16,16,16,16,0,Thu Oct 24 14:05:04 2019,The main experiment item,yes,SternbergTask.osexp,/Users/cristianbotello/Desktop/Advanced Quant/Lab 3.1,no,mono,no,18,no,white,no,no,768,legacy,4,11,/Users/cristianbotello/Desktop/Advanced Quant/Lab 3.2/CB-subject-3.csv,legacy,6 9 4 5 2,Kafkaesque Koffka,3.2.8,0,n,0,right,left,right,right,NA,632,42787,5490,632,NA,2,legacy,5,1024,2,48000,-16,experiment,3,odd,1,153356,45881,149966,151119,3045,127123,151131,65743,3082,121631,155370,156004,152145,155370,NA,Sternberg Task,16,13041,17,yes,1024
94.44444444,94.44444444,762.2777778,762.2777778,black,experiment,legacy,legacy,legacy,0,uniform,1,undefined,1,left,17,0,17,17,0,0,17,17,0,0,17,17,17,17,0,Thu Oct 24 14:05:04 2019,The main experiment item,yes,SternbergTask.osexp,/Users/cristianbotello/Desktop/Advanced Quant/Lab 3.1,no,mono,no,18,no,white,no,no,768,legacy,5,11,/Users/cristianbotello/Desktop/Advanced Quant/Lab 3.2/CB-subject-3.csv,legacy,7 2 3,Kafkaesque Koffka,3.2.8,3,y,0,left,left,right,left,NA,680,42787,5490,680,NA,2,legacy,3,1024,2,48000,-16,experiment,3,odd,3,159411,45881,156021,157170,3045,127123,157182,65743,3082,121631,161425,162108,158198,161425,NA,Sternberg Task,17,13721,18,yes,1024
94.73684211,94.73684211,775.8947368,775.8947368,black,experiment,legacy,legacy,legacy,0,uniform,1,undefined,1,left,18,0,18,18,0,0,18,18,0,0,18,18,18,18,0,Thu Oct 24 14:05:04 2019,The main experiment item,yes,SternbergTask.osexp,/Users/cristianbotello/Desktop/Advanced Quant/Lab 3.1,no,mono,no,18,no,white,no,no,768,legacy,6,11,/Users/cristianbotello/Desktop/Advanced Quant/Lab 3.2/CB-subject-3.csv,legacy,6 8 9 3 4 9,Kafkaesque Koffka,3.2.8,5,y,0,left,left,right,left,NA,1021,42787,5490,1021,NA,2,legacy,6,1024,2,48000,-16,experiment,3,odd,4,165524,45881,162126,163282,3045,127123,163295,65743,3082,121631,167539,168562,164311,167539,NA,Sternberg Task,18,14742,19,yes,1024
95,95,771.25,771.25,black,experiment,legacy,legacy,legacy,0,uniform,1,undefined,1,right,19,0,19,19,0,0,19,19,0,0,19,19,19,19,0,Thu Oct 24 14:05:04 2019,The main experiment item,yes,SternbergTask.osexp,/Users/cristianbotello/Desktop/Advanced Quant/Lab 3.1,no,mono,no,18,no,white,no,no,768,legacy,7,11,/Users/cristianbotello/Desktop/Advanced Quant/Lab 3.2/CB-subject-3.csv,legacy,8 5 7 3 6,Kafkaesque Koffka,3.2.8,0,n,0,right,left,right,right,NA,683,42787,5490,683,NA,2,legacy,5,1024,2,48000,-16,experiment,3,odd,9,171962,45881,168578,169722,3045,127123,169734,65743,3082,121631,173976,174661,170750,173975,NA,Sternberg Task,19,15425,20,yes,1024
95.23809524,95.23809524,772.2857143,772.2857143,black,experiment,legacy,legacy,legacy,0,uniform,1,undefined,1,right,20,0,20,20,0,0,20,20,0,0,20,20,20,20,0,Thu Oct 24 14:05:04 2019,The main experiment item,yes,SternbergTask.osexp,/Users/cristianbotello/Desktop/Advanced Quant/Lab 3.1,no,mono,no,18,no,white,no,no,768,legacy,8,11,/Users/cristianbotello/Desktop/Advanced Quant/Lab 3.2/CB-subject-3.csv,legacy,7 1 5 6 3,Kafkaesque Koffka,3.2.8,0,n,0,right,left,right,right,NA,793,42787,5490,793,NA,2,legacy,5,1024,2,48000,-16,experiment,3,odd,8,178073,45881,174677,175832,3045,127123,175844,65743,3082,121631,180087,180882,176861,180087,NA,Sternberg Task,20,16218,21,yes,1024
95.45454545,95.45454545,768.1363636,768.1363636,black,experiment,legacy,legacy,legacy,0,uniform,1,undefined,1,right,21,0,21,21,0,0,21,21,0,0,21,21,21,21,0,Thu Oct 24 14:05:04 2019,The main experiment item,yes,SternbergTask.osexp,/Users/cristianbotello/Desktop/Advanced Quant/Lab 3.1,no,mono,no,18,no,white,no,no,768,legacy,9,11,/Users/cristianbotello/Desktop/Advanced Quant/Lab 3.2/CB-subject-3.csv,legacy,6 8,Kafkaesque Koffka,3.2.8,0,n,0,right,left,right,right,NA,681,42787,5490,681,NA,2,legacy,2,1024,2,48000,-16,experiment,3,odd,9,184288,45881,180902,182046,3045,127123,182059,65743,3082,121631,186303,186986,183075,186303,NA,Sternberg Task,21,16899,22,yes,1024
95.65217391,95.65217391,775.5217391,775.5217391,black,experiment,legacy,legacy,legacy,0,uniform,1,undefined,1,left,22,0,22,22,0,0,22,22,0,0,22,22,22,22,0,Thu Oct 24 14:05:04 2019,The main experiment item,yes,SternbergTask.osexp,/Users/cristianbotello/Desktop/Advanced Quant/Lab 3.1,no,mono,no,18,no,white,no,no,768,legacy,10,11,/Users/cristianbotello/Desktop/Advanced Quant/Lab 3.2/CB-subject-3.csv,legacy,7 8 4 6 9 5,Kafkaesque Koffka,3.2.8,4,y,0,left,left,right,left,NA,938,42787,5490,938,NA,2,legacy,6,1024,2,48000,-16,experiment,3,odd,6,190399,45881,187005,188158,3045,127123,188171,65743,3082,121631,192413,193353,189187,192413,NA,Sternberg Task,22,17837,23,yes,1024
95.83333333,95.83333333,766.75,766.75,black,experiment,legacy,legacy,legacy,0,uniform,1,undefined,1,left,23,0,23,23,0,0,23,23,0,0,23,23,23,23,0,Thu Oct 24 14:05:04 2019,The main experiment item,yes,SternbergTask.osexp,/Users/cristianbotello/Desktop/Advanced Quant/Lab 3.1,no,mono,no,18,no,white,no,no,768,legacy,11,11,/Users/cristianbotello/Desktop/Advanced Quant/Lab 3.2/CB-subject-3.csv,legacy,4 6 2 5 1,Kafkaesque Koffka,3.2.8,5,y,0,left,left,right,left,NA,565,42787,5490,565,NA,2,legacy,5,1024,2,48000,-16,experiment,3,odd,1,196771,45881,193369,194529,3045,127123,194542,65743,3082,121631,198786,199353,195555,198786,NA,Sternberg Task,23,18402,24,yes,1024
96,96,754.8,754.8,black,experiment,legacy,legacy,legacy,0,uniform,1,undefined,1,left,24,0,24,24,0,0,24,24,0,0,24,24,24,24,0,Thu Oct 24 14:05:04 2019,The main experiment item,yes,SternbergTask.osexp,/Users/cristianbotello/Desktop/Advanced Quant/Lab 3.1,no,mono,no,18,no,white,no,no,768,legacy,12,11,/Users/cristianbotello/Desktop/Advanced Quant/Lab 3.2/CB-subject-3.csv,legacy,6 5,Kafkaesque Koffka,3.2.8,2,y,0,left,left,right,left,NA,468,42787,5490,468,NA,2,legacy,2,1024,2,48000,-16,experiment,3,odd,5,202766,45881,199369,200526,3045,127123,200539,65743,3082,121631,204780,205250,201554,204780,NA,Sternberg Task,24,18870,25,yes,1024
96.15384615,96.15384615,744.5,744.5,black,experiment,legacy,legacy,legacy,0,uniform,1,undefined,1,left,25,0,25,25,0,0,25,25,0,0,25,25,25,25,0,Thu Oct 24 14:05:04 2019,The main experiment item,yes,SternbergTask.osexp,/Users/cristianbotello/Desktop/Advanced Quant/Lab 3.1,no,mono,no,18,no,white,no,no,768,legacy,13,11,/Users/cristianbotello/Desktop/Advanced Quant/Lab 3.2/CB-subject-3.csv,legacy,3 5 4 7,Kafkaesque Koffka,3.2.8,1,y,0,left,left,right,left,NA,487,42787,5490,487,NA,2,legacy,4,1024,2,48000,-16,experiment,3,odd,3,208661,45881,205268,206418,3045,127123,206431,65743,3082,121631,210675,211163,207448,210675,NA,Sternberg Task,25,19357,26,yes,1024
96.2962963,96.2962963,744.1481481,744.1481481,black,experiment,legacy,legacy,legacy,0,uniform,1,undefined,1,right,26,0,26,26,0,0,26,26,0,0,26,26,26,26,0,Thu Oct 24 14:05:04 2019,The main experiment item,yes,SternbergTask.osexp,/Users/cristianbotello/Desktop/Advanced Quant/Lab 3.1,no,mono,no,18,no,white,no,no,768,legacy,14,11,/Users/cristianbotello/Desktop/Advanced Quant/Lab 3.2/CB-subject-3.csv,legacy,2 8 7 9 5 3,Kafkaesque Koffka,3.2.8,0,n,0,right,left,right,right,NA,735,42787,5490,735,NA,2,legacy,6,1024,2,48000,-16,experiment,3,odd,6,214583,45881,211179,212341,3045,127123,212354,65743,3082,121631,216597,217334,213367,216597,NA,Sternberg Task,26,20092,27,yes,1024
96.42857143,96.42857143,741.6428571,741.6428571,black,experiment,legacy,legacy,legacy,0,uniform,1,undefined,1,right,27,0,27,27,0,0,27,27,0,0,27,27,27,27,0,Thu Oct 24 14:05:04 2019,The main experiment item,yes,SternbergTask.osexp,/Users/cristianbotello/Desktop/Advanced Quant/Lab 3.1,no,mono,no,18,no,white,no,no,768,legacy,15,11,/Users/cristianbotello/Desktop/Advanced Quant/Lab 3.2/CB-subject-3.csv,legacy,6 3 1 7 9 8,Kafkaesque Koffka,3.2.8,0,n,0,right,left,right,right,NA,674,42787,5490,674,NA,2,legacy,6,1024,2,48000,-16,experiment,3,odd,4,220742,45881,217349,218500,3045,127123,218513,65743,3082,121631,222755,223431,219529,222755,NA,Sternberg Task,27,20766,28,yes,1024
96.55172414,96.55172414,737.6206897,737.6206897,black,experiment,legacy,legacy,legacy,0,uniform,1,undefined,1,right,28,0,28,28,0,0,28,28,0,0,28,28,28,28,0,Thu Oct 24 14:05:04 2019,The main experiment item,yes,SternbergTask.osexp,/Users/cristianbotello/Desktop/Advanced Quant/Lab 3.1,no,mono,no,18,no,white,no,no,768,legacy,16,11,/Users/cristianbotello/Desktop/Advanced Quant/Lab 3.2/CB-subject-3.csv,legacy,6 9 5,Kafkaesque Koffka,3.2.8,0,n,0,right,left,right,right,NA,625,42787,5490,625,NA,2,legacy,3,1024,2,48000,-16,experiment,3,odd,8,226857,45881,223449,224615,3045,127123,224630,65743,3082,121631,228871,229498,225643,228871,NA,Sternberg Task,28,21391,29,yes,1024
96.66666667,96.66666667,733.0333333,733.0333333,black,experiment,legacy,legacy,legacy,0,uniform,1,undefined,1,right,29,0,29,29,0,0,29,29,0,0,29,29,29,29,0,Thu Oct 24 14:05:04 2019,The main experiment item,yes,SternbergTask.osexp,/Users/cristianbotello/Desktop/Advanced Quant/Lab 3.1,no,mono,no,18,no,white,no,no,768,legacy,17,11,/Users/cristianbotello/Desktop/Advanced Quant/Lab 3.2/CB-subject-3.csv,legacy,7 3 2 8,Kafkaesque Koffka,3.2.8,0,n,0,right,left,right,right,NA,600,42787,5490,600,NA,2,legacy,4,1024,2,48000,-16,experiment,3,odd,4,232928,45881,229515,230677,3045,127123,230698,65743,3082,121631,234942,235544,231714,234942,NA,Sternberg Task,29,21991,30,yes,1024
96.77419355,96.77419355,723.5483871,723.5483871,black,experiment,legacy,legacy,legacy,0,uniform,1,undefined,1,left,30,0,30,30,0,0,30,30,0,0,30,30,30,30,0,Thu Oct 24 14:05:04 2019,The main experiment item,yes,SternbergTask.osexp,/Users/cristianbotello/Desktop/Advanced Quant/Lab 3.1,no,mono,no,18,no,white,no,no,768,legacy,18,11,/Users/cristianbotello/Desktop/Advanced Quant/Lab 3.2/CB-subject-3.csv,legacy,7,Kafkaesque Koffka,3.2.8,1,y,0,left,left,right,left,NA,439,42787,5490,439,NA,2,legacy,1,1024,2,48000,-16,experiment,3,odd,7,238963,45881,235563,236725,3045,127123,236738,65743,3082,121631,240977,241418,237752,240977,NA,Sternberg Task,30,22430,31,yes,1024
96.875,96.875,717.53125,717.53125,black,experiment,legacy,legacy,legacy,0,uniform,1,undefined,1,left,31,0,31,31,0,0,31,31,0,0,31,31,31,31,0,Thu Oct 24 14:05:04 2019,The main experiment item,yes,SternbergTask.osexp,/Users/cristianbotello/Desktop/Advanced Quant/Lab 3.1,no,mono,no,18,no,white,no,no,768,legacy,19,11,/Users/cristianbotello/Desktop/Advanced Quant/Lab 3.2/CB-subject-3.csv,legacy,2 4 8 5 1 3,Kafkaesque Koffka,3.2.8,1,y,0,left,left,right,left,NA,531,42787,5490,531,NA,2,legacy,6,1024,2,48000,-16,experiment,3,odd,2,244831,45881,241439,242589,3045,127123,242602,65743,3082,121631,246845,247378,243617,246845,NA,Sternberg Task,31,22961,32,yes,1024
96.96969697,96.96969697,717.9393939,717.9393939,black,experiment,legacy,legacy,legacy,0,uniform,1,undefined,1,left,32,0,32,32,0,0,32,32,0,0,32,32,32,32,0,Thu Oct 24 14:05:04 2019,The main experiment item,yes,SternbergTask.osexp,/Users/cristianbotello/Desktop/Advanced Quant/Lab 3.1,no,mono,no,18,no,white,no,no,768,legacy,20,11,/Users/cristianbotello/Desktop/Advanced Quant/Lab 3.2/CB-subject-3.csv,legacy,6 7 9 3 1 2,Kafkaesque Koffka,3.2.8,1,y,0,left,left,right,left,NA,731,42787,5490,731,NA,2,legacy,6,1024,2,48000,-16,experiment,3,odd,6,250794,45881,247396,248550,3045,127123,248562,65743,3082,121631,252808,253541,249579,252808,NA,Sternberg Task,32,23692,33,yes,1024
97.05882353,97.05882353,722.9705882,722.9705882,black,experiment,legacy,legacy,legacy,0,uniform,1,undefined,1,left,33,0,33,33,0,0,33,33,0,0,33,33,33,33,0,Thu Oct 24 14:05:04 2019,The main experiment item,yes,SternbergTask.osexp,/Users/cristianbotello/Desktop/Advanced Quant/Lab 3.1,no,mono,no,18,no,white,no,no,768,legacy,21,11,/Users/cristianbotello/Desktop/Advanced Quant/Lab 3.2/CB-subject-3.csv,legacy,7 1 3,Kafkaesque Koffka,3.2.8,2,y,0,left,left,right,left,NA,889,42787,5490,889,NA,2,legacy,3,1024,2,48000,-16,experiment,3,odd,1,256953,45881,253558,254713,3045,127123,254725,65743,3082,121631,258967,259858,255741,258967,NA,Sternberg Task,33,24581,34,yes,1024
97.14285714,97.14285714,721.3142857,721.3142857,black,experiment,legacy,legacy,legacy,0,uniform,1,undefined,1,left,34,0,34,34,0,0,34,34,0,0,34,34,34,34,0,Thu Oct 24 14:05:04 2019,The main experiment item,yes,SternbergTask.osexp,/Users/cristianbotello/Desktop/Advanced Quant/Lab 3.1,no,mono,no,18,no,white,no,no,768,legacy,22,11,/Users/cristianbotello/Desktop/Advanced Quant/Lab 3.2/CB-subject-3.csv,legacy,5 2 6,Kafkaesque Koffka,3.2.8,2,y,0,left,left,right,left,NA,665,42787,5490,665,NA,2,legacy,3,1024,2,48000,-16,experiment,3,odd,2,263274,45881,259876,261032,3045,127123,261045,65743,3082,121631,265288,265955,262061,265288,NA,Sternberg Task,34,25246,35,yes,1024
97.22222222,97.22222222,717.0277778,717.0277778,black,experiment,legacy,legacy,legacy,0,uniform,1,undefined,1,left,35,0,35,35,0,0,35,35,0,0,35,35,35,35,0,Thu Oct 24 14:05:04 2019,The main experiment item,yes,SternbergTask.osexp,/Users/cristianbotello/Desktop/Advanced Quant/Lab 3.1,no,mono,no,18,no,white,no,no,768,legacy,23,11,/Users/cristianbotello/Desktop/Advanced Quant/Lab 3.2/CB-subject-3.csv,legacy,4 1 8 7 5,Kafkaesque Koffka,3.2.8,3,y,0,left,left,right,left,NA,567,42787,5490,567,NA,2,legacy,5,1024,2,48000,-16,experiment,3,odd,8,269377,45881,265971,267133,3045,127123,267148,65743,3082,121631,271392,271961,268164,271392,NA,Sternberg Task,35,25813,36,yes,1024
97.2972973,97.2972973,716.5405405,716.5405405,black,experiment,legacy,legacy,legacy,0,uniform,1,undefined,1,right,36,0,36,36,0,0,36,36,0,0,36,36,36,36,0,Thu Oct 24 14:05:04 2019,The main experiment item,yes,SternbergTask.osexp,/Users/cristianbotello/Desktop/Advanced Quant/Lab 3.1,no,mono,no,18,no,white,no,no,768,legacy,24,11,/Users/cristianbotello/Desktop/Advanced Quant/Lab 3.2/CB-subject-3.csv,legacy,8 4 3 9,Kafkaesque Koffka,3.2.8,0,n,0,right,left,right,right,NA,699,42787,5490,699,NA,2,legacy,4,1024,2,48000,-16,experiment,3,odd,5,275377,45881,271977,273134,3045,127123,273149,65743,3082,121631,277391,278092,274164,277391,NA,Sternberg Task,36,26512,37,yes,1024
97.36842105,97.36842105,717.4736842,717.4736842,black,experiment,legacy,legacy,legacy,0,uniform,1,undefined,1,left,37,0,37,37,0,0,37,37,0,0,37,37,37,37,0,Thu Oct 24 14:05:04 2019,The main experiment item,yes,SternbergTask.osexp,/Users/cristianbotello/Desktop/Advanced Quant/Lab 3.1,no,mono,no,18,no,white,no,no,768,legacy,25,11,/Users/cristianbotello/Desktop/Advanced Quant/Lab 3.2/CB-subject-3.csv,legacy,9 5 8 1,Kafkaesque Koffka,3.2.8,2,y,0,left,left,right,left,NA,752,42787,5490,752,NA,2,legacy,4,1024,2,48000,-16,experiment,3,odd,5,281509,45881,278109,279269,3045,127123,279282,65743,3082,121631,283523,284277,280296,283523,NA,Sternberg Task,37,27264,38,yes,1024
97.43589744,97.43589744,720.4358974,720.4358974,black,experiment,legacy,legacy,legacy,0,uniform,1,undefined,1,right,38,0,38,38,0,0,38,38,0,0,38,38,38,38,0,Thu Oct 24 14:05:04 2019,The main experiment item,yes,SternbergTask.osexp,/Users/cristianbotello/Desktop/Advanced Quant/Lab 3.1,no,mono,no,18,no,white,no,no,768,legacy,26,11,/Users/cristianbotello/Desktop/Advanced Quant/Lab 3.2/CB-subject-3.csv,legacy,7 8 6 1,Kafkaesque Koffka,3.2.8,0,n,0,right,left,right,right,NA,833,42787,5490,833,NA,2,legacy,4,1024,2,48000,-16,experiment,3,odd,3,287704,45881,284296,285461,3045,127123,285473,65743,3082,121631,289718,290553,286487,289718,NA,Sternberg Task,38,28097,39,yes,1024
97.5,97.5,715.725,715.725,black,experiment,legacy,legacy,legacy,0,uniform,1,undefined,1,left,39,0,39,39,0,0,39,39,0,0,39,39,39,39,0,Thu Oct 24 14:05:04 2019,The main experiment item,yes,SternbergTask.osexp,/Users/cristianbotello/Desktop/Advanced Quant/Lab 3.1,no,mono,no,18,no,white,no,no,768,legacy,27,11,/Users/cristianbotello/Desktop/Advanced Quant/Lab 3.2/CB-subject-3.csv,legacy,8 1 6,Kafkaesque Koffka,3.2.8,3,y,0,left,left,right,left,NA,532,42787,5490,532,NA,2,legacy,3,1024,2,48000,-16,experiment,3,odd,6,293976,45881,290569,291732,3045,127123,291746,65743,3082,121631,295990,296524,292762,295990,NA,Sternberg Task,39,28629,40,yes,1024
97.56097561,97.56097561,714.902439,714.902439,black,experiment,legacy,legacy,legacy,0,uniform,1,undefined,1,left,40,0,40,40,0,0,40,40,0,0,40,40,40,40,0,Thu Oct 24 14:05:04 2019,The main experiment item,yes,SternbergTask.osexp,/Users/cristianbotello/Desktop/Advanced Quant/Lab 3.1,no,mono,no,18,no,white,no,no,768,legacy,28,11,/Users/cristianbotello/Desktop/Advanced Quant/Lab 3.2/CB-subject-3.csv,legacy,4 6 5 8,Kafkaesque Koffka,3.2.8,1,y,0,left,left,right,left,NA,682,42787,5490,682,NA,2,legacy,4,1024,2,48000,-16,experiment,3,odd,4,299939,45881,296541,297698,3045,127123,297711,65743,3082,121631,301953,302637,298727,301953,NA,Sternberg Task,40,29311,41,yes,1024
95.23809524,95.23809524,714.452381,714.452381,black,experiment,legacy,legacy,legacy,0,uniform,0,undefined,0,left,41,0,41,41,0,0,41,41,0,0,41,41,41,41,0,Thu Oct 24 14:05:04 2019,The main experiment item,yes,SternbergTask.osexp,/Users/cristianbotello/Desktop/Advanced Quant/Lab 3.1,no,mono,no,18,no,white,no,no,768,legacy,29,11,/Users/cristianbotello/Desktop/Advanced Quant/Lab 3.2/CB-subject-3.csv,legacy,5 7 3 6 2,Kafkaesque Koffka,3.2.8,5,y,0,right,left,right,right,NA,696,42787,5490,696,NA,2,legacy,5,1024,2,48000,-16,experiment,3,odd,2,306058,45881,302655,303815,3045,127123,303828,65743,3082,121631,308074,308772,304843,308073,NA,Sternberg Task,40,30007,42,yes,1024
95.34883721,95.34883721,716.255814,716.255814,black,experiment,legacy,legacy,legacy,0,uniform,1,undefined,1,left,42,0,42,42,0,0,42,42,0,0,42,42,42,42,0,Thu Oct 24 14:05:04 2019,The main experiment item,yes,SternbergTask.osexp,/Users/cristianbotello/Desktop/Advanced Quant/Lab 3.1,no,mono,no,18,no,white,no,no,768,legacy,30,11,/Users/cristianbotello/Desktop/Advanced Quant/Lab 3.2/CB-subject-3.csv,legacy,2 3,Kafkaesque Koffka,3.2.8,1,y,0,left,left,right,left,NA,792,42787,5490,792,NA,2,legacy,2,1024,2,48000,-16,experiment,3,odd,2,312193,45881,302655,309951,3045,127123,309964,308790,3082,121631,314207,315001,310980,314207,NA,Sternberg Task,41,30799,43,yes,1024
95.45454545,95.45454545,718.3181818,718.3181818,black,experiment,legacy,legacy,legacy,0,uniform,1,undefined,1,left,43,0,43,43,0,0,43,43,0,0,43,43,43,43,0,Thu Oct 24 14:05:04 2019,The main experiment item,yes,SternbergTask.osexp,/Users/cristianbotello/Desktop/Advanced Quant/Lab 3.1,no,mono,no,18,no,white,no,no,768,legacy,31,11,/Users/cristianbotello/Desktop/Advanced Quant/Lab 3.2/CB-subject-3.csv,legacy,6 1 2,Kafkaesque Koffka,3.2.8,3,y,0,left,left,right,left,NA,807,42787,5490,807,NA,2,legacy,3,1024,2,48000,-16,experiment,3,odd,2,318415,45881,315018,316173,3045,127123,316188,308790,3082,121631,320429,321238,317202,320429,NA,Sternberg Task,42,31606,44,yes,1024
95.55555556,95.55555556,725.0666667,725.0666667,black,experiment,legacy,legacy,legacy,0,uniform,1,undefined,1,right,44,0,44,44,0,0,44,44,0,0,44,44,44,44,0,Thu Oct 24 14:05:04 2019,The main experiment item,yes,SternbergTask.osexp,/Users/cristianbotello/Desktop/Advanced Quant/Lab 3.1,no,mono,no,18,no,white,no,no,768,legacy,32,11,/Users/cristianbotello/Desktop/Advanced Quant/Lab 3.2/CB-subject-3.csv,legacy,8 6 3 4 7,Kafkaesque Koffka,3.2.8,0,n,0,right,left,right,right,NA,1022,42787,5490,1022,NA,2,legacy,5,1024,2,48000,-16,experiment,3,odd,1,324660,45881,321257,322417,3045,127123,322429,308790,3082,121631,326674,327698,323447,326674,NA,Sternberg Task,43,32628,45,yes,1024
95.65217391,95.65217391,730.7391304,730.7391304,black,experiment,legacy,legacy,legacy,0,uniform,1,undefined,1,right,45,0,45,45,0,0,45,45,0,0,45,45,45,45,0,Thu Oct 24 14:05:04 2019,The main experiment item,yes,SternbergTask.osexp,/Users/cristianbotello/Desktop/Advanced Quant/Lab 3.1,no,mono,no,18,no,white,no,no,768,legacy,33,11,/Users/cristianbotello/Desktop/Advanced Quant/Lab 3.2/CB-subject-3.csv,legacy,6 9 4 5 3 2,Kafkaesque Koffka,3.2.8,0,n,0,right,left,right,right,NA,986,42787,5490,986,NA,2,legacy,6,1024,2,48000,-16,experiment,3,odd,8,331101,45881,327716,328861,3045,127123,328874,308790,3082,121631,333116,334104,329889,333115,NA,Sternberg Task,44,33614,46,yes,1024
95.74468085,95.74468085,734.0425532,734.0425532,black,experiment,legacy,legacy,legacy,0,uniform,1,undefined,1,right,46,0,46,46,0,0,46,46,0,0,46,46,46,46,0,Thu Oct 24 14:05:04 2019,The main experiment item,yes,SternbergTask.osexp,/Users/cristianbotello/Desktop/Advanced Quant/Lab 3.1,no,mono,no,18,no,white,no,no,768,legacy,34,11,/Users/cristianbotello/Desktop/Advanced Quant/Lab 3.2/CB-subject-3.csv,legacy,9 8 2 7 4,Kafkaesque Koffka,3.2.8,0,n,0,right,left,right,right,NA,886,42787,5490,886,NA,2,legacy,5,1024,2,48000,-16,experiment,3,odd,5,337523,45881,334122,335279,3045,127123,335292,308790,3082,121631,339537,340426,336306,339537,NA,Sternberg Task,45,34500,47,yes,1024
95.83333333,95.83333333,730.5208333,730.5208333,black,experiment,legacy,legacy,legacy,0,uniform,1,undefined,1,right,47,0,47,47,0,0,47,47,0,0,47,47,47,47,0,Thu Oct 24 14:05:04 2019,The main experiment item,yes,SternbergTask.osexp,/Users/cristianbotello/Desktop/Advanced Quant/Lab 3.1,no,mono,no,18,no,white,no,no,768,legacy,35,11,/Users/cristianbotello/Desktop/Advanced Quant/Lab 3.2/CB-subject-3.csv,legacy,7 9,Kafkaesque Koffka,3.2.8,0,n,0,right,left,right,right,NA,565,42787,5490,565,NA,2,legacy,2,1024,2,48000,-16,experiment,3,odd,1,343832,45881,340442,341592,3045,127123,341604,308790,3082,121631,345848,346416,342620,345848,NA,Sternberg Task,46,35065,48,yes,1024
95.91836735,95.91836735,726.4897959,726.4897959,black,experiment,legacy,legacy,legacy,0,uniform,1,undefined,1,right,48,0,48,48,0,0,48,48,0,0,48,48,48,48,0,Thu Oct 24 14:05:04 2019,The main experiment item,yes,SternbergTask.osexp,/Users/cristianbotello/Desktop/Advanced Quant/Lab 3.1,no,mono,no,18,no,white,no,no,768,legacy,36,11,/Users/cristianbotello/Desktop/Advanced Quant/Lab 3.2/CB-subject-3.csv,legacy,5 9 2 3,Kafkaesque Koffka,3.2.8,0,n,0,right,left,right,right,NA,533,42787,5490,533,NA,2,legacy,4,1024,2,48000,-16,experiment,3,odd,8,349834,45881,346435,347592,3045,127123,347605,308790,3082,121631,351848,352383,348621,351848,NA,Sternberg Task,47,35598,49,yes,1024
96,96,722.76,722.76,black,experiment,legacy,legacy,legacy,0,uniform,1,undefined,1,right,49,0,49,49,0,0,49,49,0,0,49,49,49,49,0,Thu Oct 24 14:05:04 2019,The main experiment item,yes,SternbergTask.osexp,/Users/cristianbotello/Desktop/Advanced Quant/Lab 3.1,no,mono,no,18,no,white,no,no,768,legacy,37,11,/Users/cristianbotello/Desktop/Advanced Quant/Lab 3.2/CB-subject-3.csv,legacy,8 9,Kafkaesque Koffka,3.2.8,0,n,0,right,left,right,right,NA,540,42787,5490,540,NA,2,legacy,2,1024,2,48000,-16,experiment,3,odd,5,355787,45881,352401,353546,3045,127123,353560,308790,3082,121631,357801,358343,354575,357801,NA,Sternberg Task,48,36138,50,yes,1024
96.07843137,96.07843137,723.1764706,723.1764706,black,experiment,legacy,legacy,legacy,0,uniform,1,undefined,1,right,50,0,50,50,0,0,50,50,0,0,50,50,50,50,0,Thu Oct 24 14:05:04 2019,The main experiment item,yes,SternbergTask.osexp,/Users/cristianbotello/Desktop/Advanced Quant/Lab 3.1,no,mono,no,18,no,white,no,no,768,legacy,38,11,/Users/cristianbotello/Desktop/Advanced Quant/Lab 3.2/CB-subject-3.csv,legacy,1 5 3 2 8,Kafkaesque Koffka,3.2.8,0,n,0,right,left,right,right,NA,744,42787,5490,744,NA,2,legacy,5,1024,2,48000,-16,experiment,3,odd,4,361764,45881,358362,359523,3045,127123,359538,308790,3082,121631,363778,364524,360551,363778,NA,Sternberg Task,49,36882,51,yes,1024
96.15384615,96.15384615,722.8846154,722.8846154,black,experiment,legacy,legacy,legacy,0,uniform,1,undefined,1,right,51,0,51,51,0,0,51,51,0,0,51,51,51,51,0,Thu Oct 24 14:05:04 2019,The main experiment item,yes,SternbergTask.osexp,/Users/cristianbotello/Desktop/Advanced Quant/Lab 3.1,no,mono,no,18,no,white,no,no,768,legacy,39,11,/Users/cristianbotello/Desktop/Advanced Quant/Lab 3.2/CB-subject-3.csv,legacy,1 7 5 2 9,Kafkaesque Koffka,3.2.8,0,n,0,right,left,right,right,NA,708,42787,5490,708,NA,2,legacy,5,1024,2,48000,-16,experiment,3,odd,3,367927,45881,364540,365686,3045,127123,365698,308790,3082,121631,369941,370651,366714,369941,NA,Sternberg Task,50,37590,52,yes,1024
96.22641509,96.22641509,733.2075472,733.2075472,black,experiment,legacy,legacy,legacy,0,uniform,1,undefined,1,left,52,0,52,52,0,0,52,52,0,0,52,52,52,52,0,Thu Oct 24 14:05:04 2019,The main experiment item,yes,SternbergTask.osexp,/Users/cristianbotello/Desktop/Advanced Quant/Lab 3.1,no,mono,no,18,no,white,no,no,768,legacy,40,11,/Users/cristianbotello/Desktop/Advanced Quant/Lab 3.2/CB-subject-3.csv,legacy,2 4 6 9,Kafkaesque Koffka,3.2.8,3,y,0,left,left,right,left,NA,1270,42787,5490,1270,NA,2,legacy,4,1024,2,48000,-16,experiment,3,odd,6,374057,45881,370669,371817,3045,127123,371829,308790,3082,121631,376071,377343,372845,376071,NA,Sternberg Task,51,38860,53,yes,1024
96.2962963,96.2962963,732.8333333,732.8333333,black,experiment,legacy,legacy,legacy,0,uniform,1,undefined,1,right,53,0,53,53,0,0,53,53,0,0,53,53,53,53,0,Thu Oct 24 14:05:04 2019,The main experiment item,yes,SternbergTask.osexp,/Users/cristianbotello/Desktop/Advanced Quant/Lab 3.1,no,mono,no,18,no,white,no,no,768,legacy,41,11,/Users/cristianbotello/Desktop/Advanced Quant/Lab 3.2/CB-subject-3.csv,legacy,4 8 1 2,Kafkaesque Koffka,3.2.8,0,n,0,right,left,right,right,NA,713,42787,5490,713,NA,2,legacy,4,1024,2,48000,-16,experiment,3,odd,7,380760,45881,377359,378514,3045,127123,378527,308790,3082,121631,382775,383491,379543,382774,NA,Sternberg Task,52,39573,54,yes,1024
94.54545455,94.54545455,755.8727273,755.8727273,black,experiment,legacy,legacy,legacy,0,uniform,0,undefined,0,right,54,0,54,54,0,0,54,54,0,0,54,54,54,54,0,Thu Oct 24 14:05:04 2019,The main experiment item,yes,SternbergTask.osexp,/Users/cristianbotello/Desktop/Advanced Quant/Lab 3.1,no,mono,no,18,no,white,no,no,768,legacy,42,11,/Users/cristianbotello/Desktop/Advanced Quant/Lab 3.2/CB-subject-3.csv,legacy,6 8 4,Kafkaesque Koffka,3.2.8,0,n,0,None,left,right,None,NA,2000,42787,5490,2000,NA,2,legacy,3,1024,2,48000,-16,experiment,3,odd,1,386892,45881,383508,384650,3045,127123,384663,308790,3082,121631,388906,390907,385679,388905,NA,Sternberg Task,52,41573,55,yes,1024
94.64285714,94.64285714,754.0892857,754.0892857,black,experiment,legacy,legacy,legacy,0,uniform,1,undefined,1,right,55,0,55,55,0,0,55,55,0,0,55,55,55,55,0,Thu Oct 24 14:05:04 2019,The main experiment item,yes,SternbergTask.osexp,/Users/cristianbotello/Desktop/Advanced Quant/Lab 3.1,no,mono,no,18,no,white,no,no,768,legacy,43,11,/Users/cristianbotello/Desktop/Advanced Quant/Lab 3.2/CB-subject-3.csv,legacy,7 6 4 8 1 2,Kafkaesque Koffka,3.2.8,0,n,0,right,left,right,right,NA,656,42787,5490,656,NA,2,legacy,6,1024,2,48000,-16,experiment,3,odd,9,394310,45881,383508,392067,3045,127123,392081,390925,3082,121631,396326,396984,393097,396326,NA,Sternberg Task,53,42229,56,yes,1024
94.73684211,94.73684211,753.0350877,753.0350877,black,experiment,legacy,legacy,legacy,0,uniform,1,undefined,1,left,56,0,56,56,0,0,56,56,0,0,56,56,56,56,0,Thu Oct 24 14:05:04 2019,The main experiment item,yes,SternbergTask.osexp,/Users/cristianbotello/Desktop/Advanced Quant/Lab 3.1,no,mono,no,18,no,white,no,no,768,legacy,44,11,/Users/cristianbotello/Desktop/Advanced Quant/Lab 3.2/CB-subject-3.csv,legacy,4 3 2 5 8,Kafkaesque Koffka,3.2.8,2,y,0,left,left,right,left,NA,694,42787,5490,694,NA,2,legacy,5,1024,2,48000,-16,experiment,3,odd,3,400387,45881,397000,398145,3045,127123,398158,390925,3082,121631,402401,403097,399175,402401,NA,Sternberg Task,54,42923,57,yes,1024
94.82758621,94.82758621,748.2586207,748.2586207,black,experiment,legacy,legacy,legacy,0,uniform,1,undefined,1,right,57,0,57,57,0,0,57,57,0,0,57,57,57,57,0,Thu Oct 24 14:05:04 2019,The main experiment item,yes,SternbergTask.osexp,/Users/cristianbotello/Desktop/Advanced Quant/Lab 3.1,no,mono,no,18,no,white,no,no,768,legacy,45,11,/Users/cristianbotello/Desktop/Advanced Quant/Lab 3.2/CB-subject-3.csv,legacy,5 2,Kafkaesque Koffka,3.2.8,0,n,0,right,left,right,right,NA,476,42787,5490,476,NA,2,legacy,2,1024,2,48000,-16,experiment,3,odd,7,406516,45881,403114,404274,3045,127123,404286,390925,3082,121631,408533,409012,405302,408533,NA,Sternberg Task,55,43399,58,yes,1024
94.91525424,94.91525424,747.8644068,747.8644068,black,experiment,legacy,legacy,legacy,0,uniform,1,undefined,1,right,58,0,58,58,0,0,58,58,0,0,58,58,58,58,0,Thu Oct 24 14:05:04 2019,The main experiment item,yes,SternbergTask.osexp,/Users/cristianbotello/Desktop/Advanced Quant/Lab 3.1,no,mono,no,18,no,white,no,no,768,legacy,46,11,/Users/cristianbotello/Desktop/Advanced Quant/Lab 3.2/CB-subject-3.csv,legacy,1 6 4 3 9 7,Kafkaesque Koffka,3.2.8,0,n,0,right,left,right,right,NA,725,42787,5490,725,NA,2,legacy,6,1024,2,48000,-16,experiment,3,odd,8,412432,45881,409028,410191,3045,127123,410203,390925,3082,121631,414447,415175,411220,414446,NA,Sternberg Task,56,44124,59,yes,1024
95,95,742.85,742.85,black,experiment,legacy,legacy,legacy,0,uniform,1,undefined,1,left,59,0,59,59,0,0,59,59,0,0,59,59,59,59,0,Thu Oct 24 14:05:04 2019,The main experiment item,yes,SternbergTask.osexp,/Users/cristianbotello/Desktop/Advanced Quant/Lab 3.1,no,mono,no,18,no,white,no,no,768,legacy,47,11,/Users/cristianbotello/Desktop/Advanced Quant/Lab 3.2/CB-subject-3.csv,legacy,4 9 7 8 5 3,Kafkaesque Koffka,3.2.8,4,y,0,left,left,right,left,NA,447,42787,5490,447,NA,2,legacy,6,1024,2,48000,-16,experiment,3,odd,8,418612,45881,415192,416368,3045,127123,416382,390925,3082,121631,420625,421074,417398,420625,NA,Sternberg Task,57,44571,60,yes,1024
95.08196721,95.08196721,741,741,black,experiment,legacy,legacy,legacy,0,uniform,1,undefined,1,left,60,0,60,60,0,0,60,60,0,0,60,60,60,60,0,Thu Oct 24 14:05:04 2019,The main experiment item,yes,SternbergTask.osexp,/Users/cristianbotello/Desktop/Advanced Quant/Lab 3.1,no,mono,no,18,no,white,no,no,768,legacy,48,11,/Users/cristianbotello/Desktop/Advanced Quant/Lab 3.2/CB-subject-3.csv,legacy,8 5 1 3 9,Kafkaesque Koffka,3.2.8,4,y,0,left,left,right,left,NA,630,42787,5490,630,NA,2,legacy,5,1024,2,48000,-16,experiment,3,odd,3,424492,45881,421092,422251,3045,127123,422266,390925,3082,121631,426507,427141,423279,426506,NA,Sternberg Task,58,45201,61,yes,1024
95.16129032,95.16129032,738.5,738.5,black,experiment,legacy,legacy,legacy,0,uniform,1,undefined,1,left,61,0,61,61,0,0,61,61,0,0,61,61,61,61,0,Thu Oct 24 14:05:04 2019,The main experiment item,yes,SternbergTask.osexp,/Users/cristianbotello/Desktop/Advanced Quant/Lab 3.1,no,mono,no,18,no,white,no,no,768,legacy,49,11,/Users/cristianbotello/Desktop/Advanced Quant/Lab 3.2/CB-subject-3.csv,legacy,5 2 9 6 1 7,Kafkaesque Koffka,3.2.8,3,y,0,left,left,right,left,NA,586,42787,5490,586,NA,2,legacy,6,1024,2,48000,-16,experiment,3,odd,9,430556,45881,427157,428316,3045,127123,428329,390925,3082,121631,432570,433158,429342,432570,NA,Sternberg Task,59,45787,62,yes,1024
95.23809524,95.23809524,733.8253968,733.8253968,black,experiment,legacy,legacy,legacy,0,uniform,1,undefined,1,left,62,0,62,62,0,0,62,62,0,0,62,62,62,62,0,Thu Oct 24 14:05:04 2019,The main experiment item,yes,SternbergTask.osexp,/Users/cristianbotello/Desktop/Advanced Quant/Lab 3.1,no,mono,no,18,no,white,no,no,768,legacy,50,11,/Users/cristianbotello/Desktop/Advanced Quant/Lab 3.2/CB-subject-3.csv,legacy,8 7 3,Kafkaesque Koffka,3.2.8,1,y,0,left,left,right,left,NA,444,42787,5490,444,NA,2,legacy,3,1024,2,48000,-16,experiment,3,odd,8,436582,45881,433175,434334,3045,127123,434349,390925,3082,121631,438597,439044,435365,438596,NA,Sternberg Task,60,46231,63,yes,1024
95.3125,95.3125,733.46875,733.46875,black,experiment,legacy,legacy,legacy,0,uniform,1,undefined,1,right,63,0,63,63,0,0,63,63,0,0,63,63,63,63,0,Thu Oct 24 14:05:04 2019,The main experiment item,yes,SternbergTask.osexp,/Users/cristianbotello/Desktop/Advanced Quant/Lab 3.1,no,mono,no,18,no,white,no,no,768,legacy,51,11,/Users/cristianbotello/Desktop/Advanced Quant/Lab 3.2/CB-subject-3.csv,legacy,7 1 8 4 9 3,Kafkaesque Koffka,3.2.8,0,n,0,right,left,right,right,NA,711,42787,5490,711,NA,2,legacy,6,1024,2,48000,-16,experiment,3,odd,6,442464,45881,439061,440221,3045,127123,440234,390925,3082,121631,444481,445195,441251,444481,NA,Sternberg Task,61,46942,64,yes,1024
95.38461538,95.38461538,732.2461538,732.2461538,black,experiment,legacy,legacy,legacy,0,uniform,1,undefined,1,left,64,0,64,64,0,0,64,64,0,0,64,64,64,64,0,Thu Oct 24 14:05:04 2019,The main experiment item,yes,SternbergTask.osexp,/Users/cristianbotello/Desktop/Advanced Quant/Lab 3.1,no,mono,no,18,no,white,no,no,768,legacy,52,11,/Users/cristianbotello/Desktop/Advanced Quant/Lab 3.2/CB-subject-3.csv,legacy,7 6,Kafkaesque Koffka,3.2.8,2,y,0,left,left,right,left,NA,654,42787,5490,654,NA,2,legacy,2,1024,2,48000,-16,experiment,3,odd,6,448580,45881,445213,446336,3045,127123,446352,390925,3082,121631,450593,451249,447367,450593,NA,Sternberg Task,62,47596,65,yes,1024
95.45454545,95.45454545,738.1818182,738.1818182,black,experiment,legacy,legacy,legacy,0,uniform,1,undefined,1,left,65,0,65,65,0,0,65,65,0,0,65,65,65,65,0,Thu Oct 24 14:05:04 2019,The main experiment item,yes,SternbergTask.osexp,/Users/cristianbotello/Desktop/Advanced Quant/Lab 3.1,no,mono,no,18,no,white,no,no,768,legacy,53,11,/Users/cristianbotello/Desktop/Advanced Quant/Lab 3.2/CB-subject-3.csv,legacy,6 9 7 4 5 1,Kafkaesque Koffka,3.2.8,2,y,0,left,left,right,left,NA,1124,42787,5490,1124,NA,2,legacy,6,1024,2,48000,-16,experiment,3,odd,9,454691,45881,451270,452446,3045,127123,452459,390925,3082,121631,456707,457833,453477,456707,NA,Sternberg Task,63,48720,66,yes,1024
95.52238806,95.52238806,739.2835821,739.2835821,black,experiment,legacy,legacy,legacy,0,uniform,1,undefined,1,right,66,0,66,66,0,0,66,66,0,0,66,66,66,66,0,Thu Oct 24 14:05:04 2019,The main experiment item,yes,SternbergTask.osexp,/Users/cristianbotello/Desktop/Advanced Quant/Lab 3.1,no,mono,no,18,no,white,no,no,768,legacy,54,11,/Users/cristianbotello/Desktop/Advanced Quant/Lab 3.2/CB-subject-3.csv,legacy,8 4 3 5,Kafkaesque Koffka,3.2.8,0,n,0,right,left,right,right,NA,812,42787,5490,812,NA,2,legacy,4,1024,2,48000,-16,experiment,3,odd,6,461247,45881,457851,459005,3045,127123,459019,390925,3082,121631,463259,464074,460035,463259,NA,Sternberg Task,64,49532,67,yes,1024
95.58823529,95.58823529,737.0735294,737.0735294,black,experiment,legacy,legacy,legacy,0,uniform,1,undefined,1,right,67,0,67,67,0,0,67,67,0,0,67,67,67,67,0,Thu Oct 24 14:05:04 2019,The main experiment item,yes,SternbergTask.osexp,/Users/cristianbotello/Desktop/Advanced Quant/Lab 3.1,no,mono,no,18,no,white,no,no,768,legacy,55,11,/Users/cristianbotello/Desktop/Advanced Quant/Lab 3.2/CB-subject-3.csv,legacy,5 3 2 6 9 8,Kafkaesque Koffka,3.2.8,0,n,0,right,left,right,right,NA,589,42787,5490,589,NA,2,legacy,6,1024,2,48000,-16,experiment,3,odd,4,467487,45881,464093,465245,3045,127123,465257,390925,3082,121631,469501,470094,466274,469501,NA,Sternberg Task,65,50121,68,yes,1024
95.65217391,95.65217391,734.826087,734.826087,black,experiment,legacy,legacy,legacy,0,uniform,1,undefined,1,right,68,0,68,68,0,0,68,68,0,0,68,68,68,68,0,Thu Oct 24 14:05:04 2019,The main experiment item,yes,SternbergTask.osexp,/Users/cristianbotello/Desktop/Advanced Quant/Lab 3.1,no,mono,no,18,no,white,no,no,768,legacy,56,11,/Users/cristianbotello/Desktop/Advanced Quant/Lab 3.2/CB-subject-3.csv,legacy,8 5 4 2 9 6,Kafkaesque Koffka,3.2.8,0,n,0,right,left,right,right,NA,582,42787,5490,582,NA,2,legacy,6,1024,2,48000,-16,experiment,3,odd,3,473509,45881,470109,471266,3045,127123,471280,390925,3082,121631,475523,476107,472295,475523,NA,Sternberg Task,66,50703,69,yes,1024
95.71428571,95.71428571,732.3571429,732.3571429,black,experiment,legacy,legacy,legacy,0,uniform,1,undefined,1,left,69,0,69,69,0,0,69,69,0,0,69,69,69,69,0,Thu Oct 24 14:05:04 2019,The main experiment item,yes,SternbergTask.osexp,/Users/cristianbotello/Desktop/Advanced Quant/Lab 3.1,no,mono,no,18,no,white,no,no,768,legacy,57,11,/Users/cristianbotello/Desktop/Advanced Quant/Lab 3.2/CB-subject-3.csv,legacy,9 4 2,Kafkaesque Koffka,3.2.8,1,y,0,left,left,right,left,NA,562,42787,5490,562,NA,2,legacy,3,1024,2,48000,-16,experiment,3,odd,9,479546,45881,476124,477305,3045,127123,477318,390925,3082,121631,481561,482126,478330,481560,NA,Sternberg Task,67,51265,70,yes,1024
95.77464789,95.77464789,728.8732394,728.8732394,black,experiment,legacy,legacy,legacy,0,uniform,1,undefined,1,left,70,0,70,70,0,0,70,70,0,0,70,70,70,70,0,Thu Oct 24 14:05:04 2019,The main experiment item,yes,SternbergTask.osexp,/Users/cristianbotello/Desktop/Advanced Quant/Lab 3.1,no,mono,no,18,no,white,no,no,768,legacy,58,11,/Users/cristianbotello/Desktop/Advanced Quant/Lab 3.2/CB-subject-3.csv,legacy,7 1 8 5 6 2,Kafkaesque Koffka,3.2.8,2,y,0,left,left,right,left,NA,485,42787,5490,485,NA,2,legacy,6,1024,2,48000,-16,experiment,3,odd,1,485557,45881,482143,483316,3045,127123,483329,390925,3082,121631,487571,488058,484343,487571,NA,Sternberg Task,68,51750,71,yes,1024
95.83333333,95.83333333,727.7916667,727.7916667,black,experiment,legacy,legacy,legacy,0,uniform,1,undefined,1,right,71,0,71,71,0,0,71,71,0,0,71,71,71,71,0,Thu Oct 24 14:05:04 2019,The main experiment item,yes,SternbergTask.osexp,/Users/cristianbotello/Desktop/Advanced Quant/Lab 3.1,no,mono,no,18,no,white,no,no,768,legacy,59,11,/Users/cristianbotello/Desktop/Advanced Quant/Lab 3.2/CB-subject-3.csv,legacy,2 8 6 3 1,Kafkaesque Koffka,3.2.8,0,n,0,right,left,right,right,NA,651,42787,5490,651,NA,2,legacy,5,1024,2,48000,-16,experiment,3,odd,7,491487,45881,488074,489247,3045,127123,489260,390925,3082,121631,493500,494155,490272,493500,NA,Sternberg Task,69,52401,72,yes,1024
95.89041096,95.89041096,734.4794521,734.4794521,black,experiment,legacy,legacy,legacy,0,uniform,1,undefined,1,right,72,0,72,72,0,0,72,72,0,0,72,72,72,72,0,Thu Oct 24 14:05:04 2019,The main experiment item,yes,SternbergTask.osexp,/Users/cristianbotello/Desktop/Advanced Quant/Lab 3.1,no,mono,no,18,no,white,no,no,768,legacy,60,11,/Users/cristianbotello/Desktop/Advanced Quant/Lab 3.2/CB-subject-3.csv,legacy,9,Kafkaesque Koffka,3.2.8,0,n,0,right,left,right,right,NA,1216,42787,5490,1216,NA,2,legacy,1,1024,2,48000,-16,experiment,3,odd,6,497569,45881,494171,495329,3045,127123,495342,390925,3082,121631,499583,500802,496355,499583,NA,Sternberg Task,70,53617,73,yes,1024
95.94594595,95.94594595,737.0675676,737.0675676,black,experiment,legacy,legacy,legacy,0,uniform,1,undefined,1,left,73,0,73,73,0,0,73,73,0,0,73,73,73,73,0,Thu Oct 24 14:05:04 2019,The main experiment item,yes,SternbergTask.osexp,/Users/cristianbotello/Desktop/Advanced Quant/Lab 3.1,no,mono,no,18,no,white,no,no,768,legacy,61,11,/Users/cristianbotello/Desktop/Advanced Quant/Lab 3.2/CB-subject-3.csv,legacy,9 5 3 8 4,Kafkaesque Koffka,3.2.8,1,y,0,left,left,right,left,NA,926,42787,5490,926,NA,2,legacy,5,1024,2,48000,-16,experiment,3,odd,9,504203,45881,500819,501963,3045,127123,501975,390925,3082,121631,506216,507146,502991,506216,NA,Sternberg Task,71,54543,74,yes,1024
96,96,737.8666667,737.8666667,black,experiment,legacy,legacy,legacy,0,uniform,1,undefined,1,left,74,0,74,74,0,0,74,74,0,0,74,74,74,74,0,Thu Oct 24 14:05:04 2019,The main experiment item,yes,SternbergTask.osexp,/Users/cristianbotello/Desktop/Advanced Quant/Lab 3.1,no,mono,no,18,no,white,no,no,768,legacy,62,11,/Users/cristianbotello/Desktop/Advanced Quant/Lab 3.2/CB-subject-3.csv,legacy,3 9 6 2,Kafkaesque Koffka,3.2.8,4,y,0,left,left,right,left,NA,797,42787,5490,797,NA,2,legacy,4,1024,2,48000,-16,experiment,3,odd,2,510531,45881,507168,508288,3045,127123,508302,390925,3082,121631,512544,513344,509318,512544,NA,Sternberg Task,72,55340,75,yes,1024
96.05263158,96.05263158,750.0263158,750.0263158,black,experiment,legacy,legacy,legacy,0,uniform,1,undefined,1,right,75,0,75,75,0,0,75,75,0,0,75,75,75,75,0,Thu Oct 24 14:05:04 2019,The main experiment item,yes,SternbergTask.osexp,/Users/cristianbotello/Desktop/Advanced Quant/Lab 3.1,no,mono,no,18,no,white,no,no,768,legacy,63,11,/Users/cristianbotello/Desktop/Advanced Quant/Lab 3.2/CB-subject-3.csv,legacy,7 4 2 8 1 9,Kafkaesque Koffka,3.2.8,0,n,0,right,left,right,right,NA,1662,42787,5490,1662,NA,2,legacy,6,1024,2,48000,-16,experiment,3,odd,5,516765,45881,513361,514524,3045,127123,514536,390925,3082,121631,518779,520443,515552,518779,NA,Sternberg Task,73,57002,76,yes,1024
96.1038961,96.1038961,748.3506494,748.3506494,black,experiment,legacy,legacy,legacy,0,uniform,1,undefined,1,right,76,0,76,76,0,0,76,76,0,0,76,76,76,76,0,Thu Oct 24 14:05:04 2019,The main experiment item,yes,SternbergTask.osexp,/Users/cristianbotello/Desktop/Advanced Quant/Lab 3.1,no,mono,no,18,no,white,no,no,768,legacy,64,11,/Users/cristianbotello/Desktop/Advanced Quant/Lab 3.2/CB-subject-3.csv,legacy,1 8 7,Kafkaesque Koffka,3.2.8,0,n,0,right,left,right,right,NA,621,42787,5490,621,NA,2,legacy,3,1024,2,48000,-16,experiment,3,odd,4,523847,45881,520459,521607,3045,127123,521619,390925,3082,121631,525861,526485,522635,525860,NA,Sternberg Task,74,57623,77,yes,1024
96.15384615,96.15384615,744.3974359,744.3974359,black,experiment,legacy,legacy,legacy,0,uniform,1,undefined,1,left,77,0,77,77,0,0,77,77,0,0,77,77,77,77,0,Thu Oct 24 14:05:04 2019,The main experiment item,yes,SternbergTask.osexp,/Users/cristianbotello/Desktop/Advanced Quant/Lab 3.1,no,mono,no,18,no,white,no,no,768,legacy,65,11,/Users/cristianbotello/Desktop/Advanced Quant/Lab 3.2/CB-subject-3.csv,legacy,2 3 7 4,Kafkaesque Koffka,3.2.8,1,y,0,left,left,right,left,NA,440,42787,5490,440,NA,2,legacy,4,1024,2,48000,-16,experiment,3,odd,2,529894,45881,526506,527652,3045,127123,527666,390925,3082,121631,531909,532352,528682,531909,NA,Sternberg Task,75,58063,78,yes,1024
96.20253165,96.20253165,747.6835443,747.6835443,black,experiment,legacy,legacy,legacy,0,uniform,1,undefined,1,left,78,0,78,78,0,0,78,78,0,0,78,78,78,78,0,Thu Oct 24 14:05:04 2019,The main experiment item,yes,SternbergTask.osexp,/Users/cristianbotello/Desktop/Advanced Quant/Lab 3.1,no,mono,no,18,no,white,no,no,768,legacy,66,11,/Users/cristianbotello/Desktop/Advanced Quant/Lab 3.2/CB-subject-3.csv,legacy,1 4 9 3 2 5,Kafkaesque Koffka,3.2.8,3,y,0,left,left,right,left,NA,1004,42787,5490,1004,NA,2,legacy,6,1024,2,48000,-16,experiment,3,odd,9,535759,45881,532368,533517,3045,127123,533530,390925,3082,121631,537773,538780,534546,537773,NA,Sternberg Task,76,59067,79,yes,1024
96.25,96.25,745.9875,745.9875,black,experiment,legacy,legacy,legacy,0,uniform,1,undefined,1,right,79,0,79,79,0,0,79,79,0,0,79,79,79,79,0,Thu Oct 24 14:05:04 2019,The main experiment item,yes,SternbergTask.osexp,/Users/cristianbotello/Desktop/Advanced Quant/Lab 3.1,no,mono,no,18,no,white,no,no,768,legacy,67,11,/Users/cristianbotello/Desktop/Advanced Quant/Lab 3.2/CB-subject-3.csv,legacy,4 1,Kafkaesque Koffka,3.2.8,0,n,0,right,left,right,right,NA,612,42787,5490,612,NA,2,legacy,2,1024,2,48000,-16,experiment,3,odd,6,542191,45881,538797,539946,3045,127123,539958,390925,3082,121631,544205,544820,540973,544205,NA,Sternberg Task,77,59679,80,yes,1024
96.2962963,96.2962963,743.2345679,743.2345679,black,experiment,legacy,legacy,legacy,0,uniform,1,undefined,1,left,80,0,80,80,0,0,80,80,0,0,80,80,80,80,0,Thu Oct 24 14:05:04 2019,The main experiment item,yes,SternbergTask.osexp,/Users/cristianbotello/Desktop/Advanced Quant/Lab 3.1,no,mono,no,18,no,white,no,no,768,legacy,68,11,/Users/cristianbotello/Desktop/Advanced Quant/Lab 3.2/CB-subject-3.csv,legacy,3 9 7 6 4,Kafkaesque Koffka,3.2.8,3,y,0,left,left,right,left,NA,523,42787,5490,523,NA,2,legacy,5,1024,2,48000,-16,experiment,3,odd,7,548243,45881,544837,546002,3045,127123,546015,390925,3082,121631,550257,550783,547030,550256,NA,Sternberg Task,78,60202,81,yes,1024
96.34146341,96.34146341,742.3292683,742.3292683,black,experiment,legacy,legacy,legacy,0,uniform,1,undefined,1,left,81,0,81,81,0,0,81,81,0,0,81,81,81,81,0,Thu Oct 24 14:05:04 2019,The main experiment item,yes,SternbergTask.osexp,/Users/cristianbotello/Desktop/Advanced Quant/Lab 3.1,no,mono,no,18,no,white,no,no,768,legacy,69,11,/Users/cristianbotello/Desktop/Advanced Quant/Lab 3.2/CB-subject-3.csv,legacy,3 2 1 4 7,Kafkaesque Koffka,3.2.8,2,y,0,left,left,right,left,NA,669,42787,5490,669,NA,2,legacy,5,1024,2,48000,-16,experiment,3,odd,2,554199,45881,550801,551959,3045,127123,551972,390925,3082,121631,556213,556885,552986,556213,NA,Sternberg Task,79,60871,82,yes,1024
95.18072289,95.18072289,741.939759,741.939759,black,experiment,legacy,legacy,legacy,0,uniform,0,undefined,0,right,82,0,82,82,0,0,82,82,0,0,82,82,82,82,0,Thu Oct 24 14:05:04 2019,The main experiment item,yes,SternbergTask.osexp,/Users/cristianbotello/Desktop/Advanced Quant/Lab 3.1,no,mono,no,18,no,white,no,no,768,legacy,70,11,/Users/cristianbotello/Desktop/Advanced Quant/Lab 3.2/CB-subject-3.csv,legacy,3 4 9 6 7 8,Kafkaesque Koffka,3.2.8,0,n,0,left,left,right,left,NA,710,42787,5490,710,NA,2,legacy,6,1024,2,48000,-16,experiment,3,odd,2,560284,45881,556902,558043,3045,127123,558056,390925,3082,121631,562298,563011,559072,562298,NA,Sternberg Task,79,61581,83,yes,1024
95.23809524,95.23809524,747.8928571,747.8928571,black,experiment,legacy,legacy,legacy,0,uniform,1,undefined,1,right,83,0,83,83,0,0,83,83,0,0,83,83,83,83,0,Thu Oct 24 14:05:04 2019,The main experiment item,yes,SternbergTask.osexp,/Users/cristianbotello/Desktop/Advanced Quant/Lab 3.1,no,mono,no,18,no,white,no,no,768,legacy,71,11,/Users/cristianbotello/Desktop/Advanced Quant/Lab 3.2/CB-subject-3.csv,legacy,5,Kafkaesque Koffka,3.2.8,0,n,0,right,left,right,right,NA,1242,42787,5490,1242,NA,2,legacy,1,1024,2,48000,-16,experiment,3,odd,8,566420,45881,556902,564179,3045,127123,564192,563027,3082,121631,568435,569680,565207,568435,NA,Sternberg Task,80,62823,84,yes,1024
95.29411765,95.29411765,747.6,747.6,black,experiment,legacy,legacy,legacy,0,uniform,1,undefined,1,right,84,0,84,84,0,0,84,84,0,0,84,84,84,84,0,Thu Oct 24 14:05:04 2019,The main experiment item,yes,SternbergTask.osexp,/Users/cristianbotello/Desktop/Advanced Quant/Lab 3.1,no,mono,no,18,no,white,no,no,768,legacy,72,11,/Users/cristianbotello/Desktop/Advanced Quant/Lab 3.2/CB-subject-3.csv,legacy,2 6 4 3 9,Kafkaesque Koffka,3.2.8,0,n,0,right,left,right,right,NA,723,42787,5490,723,NA,2,legacy,5,1024,2,48000,-16,experiment,3,odd,1,573097,45881,569696,570852,3045,127123,570864,563027,3082,121631,575111,575837,571880,575111,NA,Sternberg Task,81,63546,85,yes,1024
94.18604651,94.18604651,747.255814,747.255814,black,experiment,legacy,legacy,legacy,0,uniform,0,undefined,0,left,85,0,85,85,0,0,85,85,0,0,85,85,85,85,0,Thu Oct 24 14:05:04 2019,The main experiment item,yes,SternbergTask.osexp,/Users/cristianbotello/Desktop/Advanced Quant/Lab 3.1,no,mono,no,18,no,white,no,no,768,legacy,73,11,/Users/cristianbotello/Desktop/Advanced Quant/Lab 3.2/CB-subject-3.csv,legacy,8 9 5 7 1 6,Kafkaesque Koffka,3.2.8,4,y,0,right,left,right,right,NA,718,42787,5490,718,NA,2,legacy,6,1024,2,48000,-16,experiment,3,odd,7,579240,45881,575853,577000,3045,127123,577011,563027,3082,121631,581254,581975,578027,581254,NA,Sternberg Task,81,64264,86,yes,1024
94.25287356,94.25287356,742.7241379,742.7241379,black,experiment,legacy,legacy,legacy,0,uniform,1,undefined,1,left,86,0,86,86,0,0,86,86,0,0,86,86,86,86,0,Thu Oct 24 14:05:04 2019,The main experiment item,yes,SternbergTask.osexp,/Users/cristianbotello/Desktop/Advanced Quant/Lab 3.1,no,mono,no,18,no,white,no,no,768,legacy,74,11,/Users/cristianbotello/Desktop/Advanced Quant/Lab 3.2/CB-subject-3.csv,legacy,9 1 7 2,Kafkaesque Koffka,3.2.8,2,y,0,left,left,right,left,NA,353,42787,5490,353,NA,2,legacy,4,1024,2,48000,-16,experiment,3,odd,1,585370,45881,575853,583129,3045,127123,583142,581991,3082,121631,587385,587741,584158,587385,NA,Sternberg Task,82,64617,87,yes,1024
94.31818182,94.31818182,740.0454545,740.0454545,black,experiment,legacy,legacy,legacy,0,uniform,1,undefined,1,right,87,0,87,87,0,0,87,87,0,0,87,87,87,87,0,Thu Oct 24 14:05:04 2019,The main experiment item,yes,SternbergTask.osexp,/Users/cristianbotello/Desktop/Advanced Quant/Lab 3.1,no,mono,no,18,no,white,no,no,768,legacy,75,11,/Users/cristianbotello/Desktop/Advanced Quant/Lab 3.2/CB-subject-3.csv,legacy,1,Kafkaesque Koffka,3.2.8,0,n,0,right,left,right,right,NA,507,42787,5490,507,NA,2,legacy,1,1024,2,48000,-16,experiment,3,odd,7,591150,45881,587757,588906,3045,127123,588919,581991,3082,121631,593164,593674,589935,593164,NA,Sternberg Task,83,65124,88,yes,1024
94.38202247,94.38202247,739.4831461,739.4831461,black,experiment,legacy,legacy,legacy,0,uniform,1,undefined,1,right,88,0,88,88,0,0,88,88,0,0,88,88,88,88,0,Thu Oct 24 14:05:04 2019,The main experiment item,yes,SternbergTask.osexp,/Users/cristianbotello/Desktop/Advanced Quant/Lab 3.1,no,mono,no,18,no,white,no,no,768,legacy,76,11,/Users/cristianbotello/Desktop/Advanced Quant/Lab 3.2/CB-subject-3.csv,legacy,1 7 5 2,Kafkaesque Koffka,3.2.8,0,n,0,right,left,right,right,NA,690,42787,5490,690,NA,2,legacy,4,1024,2,48000,-16,experiment,3,odd,3,597082,45881,593691,594840,3045,127123,594852,581991,3082,121631,599096,599789,595868,599096,NA,Sternberg Task,84,65814,89,yes,1024
94.44444444,94.44444444,738.1777778,738.1777778,black,experiment,legacy,legacy,legacy,0,uniform,1,undefined,1,right,89,0,89,89,0,0,89,89,0,0,89,89,89,89,0,Thu Oct 24 14:05:04 2019,The main experiment item,yes,SternbergTask.osexp,/Users/cristianbotello/Desktop/Advanced Quant/Lab 3.1,no,mono,no,18,no,white,no,no,768,legacy,77,11,/Users/cristianbotello/Desktop/Advanced Quant/Lab 3.2/CB-subject-3.csv,legacy,6 9 7 3 8 2,Kafkaesque Koffka,3.2.8,0,n,0,right,left,right,right,NA,622,42787,5490,622,NA,2,legacy,6,1024,2,48000,-16,experiment,3,odd,5,603190,45881,599806,600950,3045,127123,600963,581991,3082,121631,605205,605830,601978,605205,NA,Sternberg Task,85,66436,90,yes,1024
94.50549451,94.50549451,735.6593407,735.6593407,black,experiment,legacy,legacy,legacy,0,uniform,1,undefined,1,right,90,0,90,90,0,0,90,90,0,0,90,90,90,90,0,Thu Oct 24 14:05:04 2019,The main experiment item,yes,SternbergTask.osexp,/Users/cristianbotello/Desktop/Advanced Quant/Lab 3.1,no,mono,no,18,no,white,no,no,768,legacy,78,11,/Users/cristianbotello/Desktop/Advanced Quant/Lab 3.2/CB-subject-3.csv,legacy,4 2 6 9,Kafkaesque Koffka,3.2.8,0,n,0,right,left,right,right,NA,509,42787,5490,509,NA,2,legacy,4,1024,2,48000,-16,experiment,3,odd,7,609234,45881,605846,606993,3045,127123,607005,581991,3082,121631,611248,611760,608021,611248,NA,Sternberg Task,86,66945,91,yes,1024
94.56521739,94.56521739,735.923913,735.923913,black,experiment,legacy,legacy,legacy,0,uniform,1,undefined,1,right,91,0,91,91,0,0,91,91,0,0,91,91,91,91,0,Thu Oct 24 14:05:04 2019,The main experiment item,yes,SternbergTask.osexp,/Users/cristianbotello/Desktop/Advanced Quant/Lab 3.1,no,mono,no,18,no,white,no,no,768,legacy,79,11,/Users/cristianbotello/Desktop/Advanced Quant/Lab 3.2/CB-subject-3.csv,legacy,3 9 8 1 6 4,Kafkaesque Koffka,3.2.8,0,n,0,right,left,right,right,NA,760,42787,5490,760,NA,2,legacy,6,1024,2,48000,-16,experiment,3,odd,7,615172,45881,611776,612933,3045,127123,612946,581991,3082,121631,617186,617950,613960,617186,NA,Sternberg Task,87,67705,92,yes,1024
94.62365591,94.62365591,735.3870968,735.3870968,black,experiment,legacy,legacy,legacy,0,uniform,1,undefined,1,right,92,0,92,92,0,0,92,92,0,0,92,92,92,92,0,Thu Oct 24 14:05:04 2019,The main experiment item,yes,SternbergTask.osexp,/Users/cristianbotello/Desktop/Advanced Quant/Lab 3.1,no,mono,no,18,no,white,no,no,768,legacy,80,11,/Users/cristianbotello/Desktop/Advanced Quant/Lab 3.2/CB-subject-3.csv,legacy,1 4 9 3,Kafkaesque Koffka,3.2.8,0,n,0,right,left,right,right,NA,686,42787,5490,686,NA,2,legacy,4,1024,2,48000,-16,experiment,3,odd,5,621358,45881,617968,619118,3045,127123,619132,581991,3082,121631,623371,624060,620144,623371,NA,Sternberg Task,88,68391,93,yes,1024
93.61702128,93.61702128,738.3085106,738.3085106,black,experiment,legacy,legacy,legacy,0,uniform,0,undefined,0,left,93,0,93,93,0,0,93,93,0,0,93,93,93,93,0,Thu Oct 24 14:05:04 2019,The main experiment item,yes,SternbergTask.osexp,/Users/cristianbotello/Desktop/Advanced Quant/Lab 3.1,no,mono,no,18,no,white,no,no,768,legacy,81,11,/Users/cristianbotello/Desktop/Advanced Quant/Lab 3.2/CB-subject-3.csv,legacy,9 3 8 2 1 4,Kafkaesque Koffka,3.2.8,3,y,0,right,left,right,right,NA,1010,42787,5490,1010,NA,2,legacy,6,1024,2,48000,-16,experiment,3,odd,8,627463,45881,624076,625221,3045,127123,625234,581991,3082,121631,629477,630490,626250,629477,NA,Sternberg Task,88,69401,94,yes,1024
93.68421053,93.68421053,736.9473684,736.9473684,black,experiment,legacy,legacy,legacy,0,uniform,1,undefined,1,right,94,0,94,94,0,0,94,94,0,0,94,94,94,94,0,Thu Oct 24 14:05:04 2019,The main experiment item,yes,SternbergTask.osexp,/Users/cristianbotello/Desktop/Advanced Quant/Lab 3.1,no,mono,no,18,no,white,no,no,768,legacy,82,11,/Users/cristianbotello/Desktop/Advanced Quant/Lab 3.2/CB-subject-3.csv,legacy,4 2 7 6 1 3,Kafkaesque Koffka,3.2.8,0,n,0,right,left,right,right,NA,609,42787,5490,609,NA,2,legacy,6,1024,2,48000,-16,experiment,3,odd,8,633928,45881,624076,631685,3045,127123,631697,630509,3082,121631,635940,636552,632711,635940,NA,Sternberg Task,89,70010,95,yes,1024
93.75,93.75,734.4583333,734.4583333,black,experiment,legacy,legacy,legacy,0,uniform,1,undefined,1,right,95,0,95,95,0,0,95,95,0,0,95,95,95,95,0,Thu Oct 24 14:05:04 2019,The main experiment item,yes,SternbergTask.osexp,/Users/cristianbotello/Desktop/Advanced Quant/Lab 3.1,no,mono,no,18,no,white,no,no,768,legacy,83,11,/Users/cristianbotello/Desktop/Advanced Quant/Lab 3.2/CB-subject-3.csv,legacy,7 9 1 6,Kafkaesque Koffka,3.2.8,0,n,0,right,left,right,right,NA,498,42787,5490,498,NA,2,legacy,4,1024,2,48000,-16,experiment,3,odd,4,639978,45881,636570,637739,3045,127123,637753,630509,3082,121631,641992,642493,638765,641992,NA,Sternberg Task,90,70508,96,yes,1024
92.78350515,92.78350515,732.9896907,732.9896907,black,experiment,legacy,legacy,legacy,0,uniform,0,undefined,0,left,96,0,96,96,0,0,96,96,0,0,96,96,96,96,0,Thu Oct 24 14:05:04 2019,The main experiment item,yes,SternbergTask.osexp,/Users/cristianbotello/Desktop/Advanced Quant/Lab 3.1,no,mono,no,18,no,white,no,no,768,legacy,84,11,/Users/cristianbotello/Desktop/Advanced Quant/Lab 3.2/CB-subject-3.csv,legacy,2 8 5 1,Kafkaesque Koffka,3.2.8,4,y,0,right,left,right,right,NA,592,42787,5490,592,NA,2,legacy,4,1024,2,48000,-16,experiment,3,odd,1,645897,45881,642509,643658,3045,127123,643670,630509,3082,121631,647911,648506,644686,647911,NA,Sternberg Task,90,71100,97,yes,1024
91.83673469,91.83673469,731.6530612,731.6530612,black,experiment,legacy,legacy,legacy,0,uniform,0,undefined,0,left,97,0,97,97,0,0,97,97,0,0,97,97,97,97,0,Thu Oct 24 14:05:04 2019,The main experiment item,yes,SternbergTask.osexp,/Users/cristianbotello/Desktop/Advanced Quant/Lab 3.1,no,mono,no,18,no,white,no,no,768,legacy,85,11,/Users/cristianbotello/Desktop/Advanced Quant/Lab 3.2/CB-subject-3.csv,legacy,3 5 9 6 2 4,Kafkaesque Koffka,3.2.8,1,y,0,right,left,right,right,NA,602,42787,5490,602,NA,2,legacy,6,1024,2,48000,-16,experiment,3,odd,3,651917,45881,642509,649677,3045,127123,649690,648522,3082,121631,653931,654536,650705,653931,NA,Sternberg Task,90,71702,98,yes,1024
91.91919192,91.91919192,728.8383838,728.8383838,black,experiment,legacy,legacy,legacy,0,uniform,1,undefined,1,left,98,0,98,98,0,0,98,98,0,0,98,98,98,98,0,Thu Oct 24 14:05:04 2019,The main experiment item,yes,SternbergTask.osexp,/Users/cristianbotello/Desktop/Advanced Quant/Lab 3.1,no,mono,no,18,no,white,no,no,768,legacy,86,11,/Users/cristianbotello/Desktop/Advanced Quant/Lab 3.2/CB-subject-3.csv,legacy,7 8 6 3 1,Kafkaesque Koffka,3.2.8,5,y,0,left,left,right,left,NA,453,42787,5490,453,NA,2,legacy,5,1024,2,48000,-16,experiment,3,odd,1,657950,45881,642509,655709,3045,127123,655722,654552,3082,121631,659963,660420,656737,659963,NA,Sternberg Task,91,72155,99,yes,1024
92,92,731.63,731.63,black,experiment,legacy,legacy,legacy,0,uniform,1,undefined,1,right,99,0,99,99,0,0,99,99,0,0,99,99,99,99,0,Thu Oct 24 14:05:04 2019,The main experiment item,yes,SternbergTask.osexp,/Users/cristianbotello/Desktop/Advanced Quant/Lab 3.1,no,mono,no,18,no,white,no,no,768,legacy,87,11,/Users/cristianbotello/Desktop/Advanced Quant/Lab 3.2/CB-subject-3.csv,legacy,9 7 4 5 8,Kafkaesque Koffka,3.2.8,0,n,0,right,left,right,right,NA,1008,42787,5490,1008,NA,2,legacy,5,1024,2,48000,-16,experiment,3,odd,6,663828,45881,660437,661582,3045,127123,661595,654552,3082,121631,665842,666854,662610,665842,NA,Sternberg Task,92,73163,100,yes,1024
92.07920792,92.07920792,730.029703,730.029703,black,experiment,legacy,legacy,legacy,0,uniform,1,undefined,1,right,100,0,100,100,0,0,100,100,0,0,100,100,100,100,0,Thu Oct 24 14:05:04 2019,The main experiment item,yes,SternbergTask.osexp,/Users/cristianbotello/Desktop/Advanced Quant/Lab 3.1,no,mono,no,18,no,white,no,no,768,legacy,88,11,/Users/cristianbotello/Desktop/Advanced Quant/Lab 3.2/CB-subject-3.csv,legacy,3 9 1,Kafkaesque Koffka,3.2.8,0,n,0,right,left,right,right,NA,570,42787,5490,570,NA,2,legacy,3,1024,2,48000,-16,experiment,3,odd,7,670267,45881,666871,668027,3045,127123,668040,654552,3082,121631,672283,672856,669056,672283,NA,Sternberg Task,93,73733,101,yes,1024
92.15686275,92.15686275,731.7352941,731.7352941,black,experiment,legacy,legacy,legacy,0,uniform,1,undefined,1,left,101,0,101,101,0,0,101,101,0,0,101,101,101,101,0,Thu Oct 24 14:05:04 2019,The main experiment item,yes,SternbergTask.osexp,/Users/cristianbotello/Desktop/Advanced Quant/Lab 3.1,no,mono,no,18,no,white,no,no,768,legacy,89,11,/Users/cristianbotello/Desktop/Advanced Quant/Lab 3.2/CB-subject-3.csv,legacy,8 5 4 7 3 1,Kafkaesque Koffka,3.2.8,2,y,0,left,left,right,left,NA,904,42787,5490,904,NA,2,legacy,6,1024,2,48000,-16,experiment,3,odd,5,676288,45881,672875,674050,3045,127123,674063,654552,3082,121631,678300,679207,675075,678300,NA,Sternberg Task,94,74637,102,yes,1024
91.26213592,91.26213592,735,735,black,experiment,legacy,legacy,legacy,0,uniform,0,undefined,0,left,102,0,102,102,0,0,102,102,0,0,102,102,102,102,0,Thu Oct 24 14:05:04 2019,The main experiment item,yes,SternbergTask.osexp,/Users/cristianbotello/Desktop/Advanced Quant/Lab 3.1,no,mono,no,18,no,white,no,no,768,legacy,90,11,/Users/cristianbotello/Desktop/Advanced Quant/Lab 3.2/CB-subject-3.csv,legacy,7 4 2 6 3 5,Kafkaesque Koffka,3.2.8,6,y,0,right,left,right,right,NA,1068,42787,5490,1068,NA,2,legacy,6,1024,2,48000,-16,experiment,3,odd,5,682634,45881,679225,680397,3045,127123,680409,654552,3082,121631,684648,685718,681421,684648,NA,Sternberg Task,94,75705,103,yes,1024
91.34615385,91.34615385,734.2884615,734.2884615,black,experiment,legacy,legacy,legacy,0,uniform,1,undefined,1,left,103,0,103,103,0,0,103,103,0,0,103,103,103,103,0,Thu Oct 24 14:05:04 2019,The main experiment item,yes,SternbergTask.osexp,/Users/cristianbotello/Desktop/Advanced Quant/Lab 3.1,no,mono,no,18,no,white,no,no,768,legacy,91,11,/Users/cristianbotello/Desktop/Advanced Quant/Lab 3.2/CB-subject-3.csv,legacy,3 5 7 1,Kafkaesque Koffka,3.2.8,3,y,0,left,left,right,left,NA,661,42787,5490,661,NA,2,legacy,4,1024,2,48000,-16,experiment,3,odd,7,689136,45881,679225,686897,3045,127123,686909,685738,3082,121631,691150,691814,687924,691150,NA,Sternberg Task,95,76366,104,yes,1024
91.42857143,91.42857143,732.1428571,732.1428571,black,experiment,legacy,legacy,legacy,0,uniform,1,undefined,1,right,104,0,104,104,0,0,104,104,0,0,104,104,104,104,0,Thu Oct 24 14:05:04 2019,The main experiment item,yes,SternbergTask.osexp,/Users/cristianbotello/Desktop/Advanced Quant/Lab 3.1,no,mono,no,18,no,white,no,no,768,legacy,92,11,/Users/cristianbotello/Desktop/Advanced Quant/Lab 3.2/CB-subject-3.csv,legacy,3 4 2,Kafkaesque Koffka,3.2.8,0,n,0,right,left,right,right,NA,509,42787,5490,509,NA,2,legacy,3,1024,2,48000,-16,experiment,3,odd,5,695251,45881,691832,693008,3045,127123,693021,685738,3082,121631,697263,697776,694037,697263,NA,Sternberg Task,96,76875,105,yes,1024
91.50943396,91.50943396,730.3490566,730.3490566,black,experiment,legacy,legacy,legacy,0,uniform,1,undefined,1,right,105,0,105,105,0,0,105,105,0,0,105,105,105,105,0,Thu Oct 24 14:05:04 2019,The main experiment item,yes,SternbergTask.osexp,/Users/cristianbotello/Desktop/Advanced Quant/Lab 3.1,no,mono,no,18,no,white,no,no,768,legacy,93,11,/Users/cristianbotello/Desktop/Advanced Quant/Lab 3.2/CB-subject-3.csv,legacy,1 6 4,Kafkaesque Koffka,3.2.8,0,n,0,right,left,right,right,NA,542,42787,5490,542,NA,2,legacy,3,1024,2,48000,-16,experiment,3,odd,7,701202,45881,697794,698964,3045,127123,698977,685738,3082,121631,703216,703762,699989,703216,NA,Sternberg Task,97,77417,106,yes,1024
91.58878505,91.58878505,728.5046729,728.5046729,black,experiment,legacy,legacy,legacy,0,uniform,1,undefined,1,left,106,0,106,106,0,0,106,106,0,0,106,106,106,106,0,Thu Oct 24 14:05:04 2019,The main experiment item,yes,SternbergTask.osexp,/Users/cristianbotello/Desktop/Advanced Quant/Lab 3.1,no,mono,no,18,no,white,no,no,768,legacy,94,11,/Users/cristianbotello/Desktop/Advanced Quant/Lab 3.2/CB-subject-3.csv,legacy,3 4,Kafkaesque Koffka,3.2.8,1,y,0,left,left,right,left,NA,533,42787,5490,533,NA,2,legacy,2,1024,2,48000,-16,experiment,3,odd,3,707181,45881,703777,704942,3045,127123,704955,685738,3082,121631,709194,709732,705968,709194,NA,Sternberg Task,98,77950,107,yes,1024
91.66666667,91.66666667,729.1018519,729.1018519,black,experiment,legacy,legacy,legacy,0,uniform,1,undefined,1,right,107,0,107,107,0,0,107,107,0,0,107,107,107,107,0,Thu Oct 24 14:05:04 2019,The main experiment item,yes,SternbergTask.osexp,/Users/cristianbotello/Desktop/Advanced Quant/Lab 3.1,no,mono,no,18,no,white,no,no,768,legacy,95,11,/Users/cristianbotello/Desktop/Advanced Quant/Lab 3.2/CB-subject-3.csv,legacy,2 8 9,Kafkaesque Koffka,3.2.8,0,n,0,right,left,right,right,NA,793,42787,5490,793,NA,2,legacy,3,1024,2,48000,-16,experiment,3,odd,6,713151,45881,709752,710912,3045,127123,710926,685738,3082,121631,715165,715962,711939,715165,NA,Sternberg Task,99,78743,108,yes,1024
91.74311927,91.74311927,728.9816514,728.9816514,black,experiment,legacy,legacy,legacy,0,uniform,1,undefined,1,right,108,0,108,108,0,0,108,108,0,0,108,108,108,108,0,Thu Oct 24 14:05:04 2019,The main experiment item,yes,SternbergTask.osexp,/Users/cristianbotello/Desktop/Advanced Quant/Lab 3.1,no,mono,no,18,no,white,no,no,768,legacy,96,11,/Users/cristianbotello/Desktop/Advanced Quant/Lab 3.2/CB-subject-3.csv,legacy,5 7 3,Kafkaesque Koffka,3.2.8,0,n,0,right,left,right,right,NA,716,42787,5490,716,NA,2,legacy,3,1024,2,48000,-16,experiment,3,odd,9,719381,45881,715979,717136,3045,127123,717152,685738,3082,121631,721395,722114,718168,721395,NA,Sternberg Task,100,79459,109,yes,1024
90.90909091,90.90909091,734.8272727,734.8272727,black,experiment,legacy,legacy,legacy,0,uniform,0,undefined,0,left,109,0,109,109,0,0,109,109,0,0,109,109,109,109,0,Thu Oct 24 14:05:04 2019,The main experiment item,yes,SternbergTask.osexp,/Users/cristianbotello/Desktop/Advanced Quant/Lab 3.1,no,mono,no,18,no,white,no,no,768,legacy,97,11,/Users/cristianbotello/Desktop/Advanced Quant/Lab 3.2/CB-subject-3.csv,legacy,6 9 3 1,Kafkaesque Koffka,3.2.8,4,y,0,right,left,right,right,NA,1372,42787,5490,1372,NA,2,legacy,4,1024,2,48000,-16,experiment,3,odd,1,725530,45881,722134,723289,3045,127123,723301,685738,3082,121631,727545,728920,724314,727544,NA,Sternberg Task,100,80831,110,yes,1024
90.99099099,90.99099099,734.1081081,734.1081081,black,experiment,legacy,legacy,legacy,0,uniform,1,undefined,1,right,110,0,110,110,0,0,110,110,0,0,110,110,110,110,0,Thu Oct 24 14:05:04 2019,The main experiment item,yes,SternbergTask.osexp,/Users/cristianbotello/Desktop/Advanced Quant/Lab 3.1,no,mono,no,18,no,white,no,no,768,legacy,98,11,/Users/cristianbotello/Desktop/Advanced Quant/Lab 3.2/CB-subject-3.csv,legacy,5 3 8 7 2 4,Kafkaesque Koffka,3.2.8,0,n,0,right,left,right,right,NA,655,42787,5490,655,NA,2,legacy,6,1024,2,48000,-16,experiment,3,odd,9,732336,45881,722134,730092,3045,127123,730107,728937,3082,121631,734350,735008,731123,734350,NA,Sternberg Task,101,81486,111,yes,1024
91.07142857,91.07142857,734,734,black,experiment,legacy,legacy,legacy,0,uniform,1,undefined,1,right,111,0,111,111,0,0,111,111,0,0,111,111,111,111,0,Thu Oct 24 14:05:04 2019,The main experiment item,yes,SternbergTask.osexp,/Users/cristianbotello/Desktop/Advanced Quant/Lab 3.1,no,mono,no,18,no,white,no,no,768,legacy,99,11,/Users/cristianbotello/Desktop/Advanced Quant/Lab 3.2/CB-subject-3.csv,legacy,7 1,Kafkaesque Koffka,3.2.8,0,n,0,right,left,right,right,NA,722,42787,5490,722,NA,2,legacy,2,1024,2,48000,-16,experiment,3,odd,8,738425,45881,735025,736185,3045,127123,736197,728937,3082,121631,740440,741165,737212,740440,NA,Sternberg Task,102,82208,112,yes,1024
91.15044248,91.15044248,733.5575221,733.5575221,black,experiment,legacy,legacy,legacy,0,uniform,1,undefined,1,left,112,0,112,112,0,0,112,112,0,0,112,112,112,112,0,Thu Oct 24 14:05:04 2019,The main experiment item,yes,SternbergTask.osexp,/Users/cristianbotello/Desktop/Advanced Quant/Lab 3.1,no,mono,no,18,no,white,no,no,768,legacy,100,11,/Users/cristianbotello/Desktop/Advanced Quant/Lab 3.2/CB-subject-3.csv,legacy,9 6 2 4 1,Kafkaesque Koffka,3.2.8,4,y,0,left,left,right,left,NA,684,42787,5490,684,NA,2,legacy,5,1024,2,48000,-16,experiment,3,odd,4,744571,45881,741181,742330,3045,127123,742342,728937,3082,121631,746585,747273,743358,746585,NA,Sternberg Task,103,82892,113,yes,1024
91.22807018,91.22807018,733.3157895,733.3157895,black,experiment,legacy,legacy,legacy,0,uniform,1,undefined,1,right,113,0,113,113,0,0,113,113,0,0,113,113,113,113,0,Thu Oct 24 14:05:04 2019,The main experiment item,yes,SternbergTask.osexp,/Users/cristianbotello/Desktop/Advanced Quant/Lab 3.1,no,mono,no,18,no,white,no,no,768,legacy,101,11,/Users/cristianbotello/Desktop/Advanced Quant/Lab 3.2/CB-subject-3.csv,legacy,2 8 9 4 1,Kafkaesque Koffka,3.2.8,0,n,0,right,left,right,right,NA,706,42787,5490,706,NA,2,legacy,5,1024,2,48000,-16,experiment,3,odd,5,750691,45881,747292,748452,3045,127123,748465,728937,3082,121631,752706,753415,749477,752706,NA,Sternberg Task,104,83598,114,yes,1024
91.30434783,91.30434783,732.6173913,732.6173913,black,experiment,legacy,legacy,legacy,0,uniform,1,undefined,1,left,114,0,114,114,0,0,114,114,0,0,114,114,114,114,0,Thu Oct 24 14:05:04 2019,The main experiment item,yes,SternbergTask.osexp,/Users/cristianbotello/Desktop/Advanced Quant/Lab 3.1,no,mono,no,18,no,white,no,no,768,legacy,102,11,/Users/cristianbotello/Desktop/Advanced Quant/Lab 3.2/CB-subject-3.csv,legacy,8 9 6 1,Kafkaesque Koffka,3.2.8,2,y,0,left,left,right,left,NA,653,42787,5490,653,NA,2,legacy,4,1024,2,48000,-16,experiment,3,odd,9,756835,45881,753430,754594,3045,127123,754608,728937,3082,121631,758849,759505,755622,758849,NA,Sternberg Task,105,84251,115,yes,1024
91.37931034,91.37931034,731.3534483,731.3534483,black,experiment,legacy,legacy,legacy,0,uniform,1,undefined,1,right,115,0,115,115,0,0,115,115,0,0,115,115,115,115,0,Thu Oct 24 14:05:04 2019,The main experiment item,yes,SternbergTask.osexp,/Users/cristianbotello/Desktop/Advanced Quant/Lab 3.1,no,mono,no,18,no,white,no,no,768,legacy,103,11,/Users/cristianbotello/Desktop/Advanced Quant/Lab 3.2/CB-subject-3.csv,legacy,1 3 2 6 9,Kafkaesque Koffka,3.2.8,0,n,0,right,left,right,right,NA,586,42787,5490,586,NA,2,legacy,5,1024,2,48000,-16,experiment,3,odd,5,762919,45881,759522,760676,3045,127123,760690,728937,3082,121631,764933,765522,761707,764933,NA,Sternberg Task,106,84837,116,yes,1024
91.45299145,91.45299145,731.9145299,731.9145299,black,experiment,legacy,legacy,legacy,0,uniform,1,undefined,1,left,116,0,116,116,0,0,116,116,0,0,116,116,116,116,0,Thu Oct 24 14:05:04 2019,The main experiment item,yes,SternbergTask.osexp,/Users/cristianbotello/Desktop/Advanced Quant/Lab 3.1,no,mono,no,18,no,white,no,no,768,legacy,104,11,/Users/cristianbotello/Desktop/Advanced Quant/Lab 3.2/CB-subject-3.csv,legacy,6 7 8 5,Kafkaesque Koffka,3.2.8,3,y,0,left,left,right,left,NA,797,42787,5490,797,NA,2,legacy,4,1024,2,48000,-16,experiment,3,odd,8,768934,45881,765540,766692,3045,127123,766705,728937,3082,121631,770948,771748,767720,770948,NA,Sternberg Task,107,85634,117,yes,1024
91.52542373,91.52542373,731.3050847,731.3050847,black,experiment,legacy,legacy,legacy,0,uniform,1,undefined,1,right,117,0,117,117,0,0,117,117,0,0,117,117,117,117,0,Thu Oct 24 14:05:04 2019,The main experiment item,yes,SternbergTask.osexp,/Users/cristianbotello/Desktop/Advanced Quant/Lab 3.1,no,mono,no,18,no,white,no,no,768,legacy,105,11,/Users/cristianbotello/Desktop/Advanced Quant/Lab 3.2/CB-subject-3.csv,legacy,6 2 9 3 8 4,Kafkaesque Koffka,3.2.8,0,n,0,right,left,right,right,NA,660,42787,5490,660,NA,2,legacy,6,1024,2,48000,-16,experiment,3,odd,1,775161,45881,771764,772924,3045,127123,772936,728937,3082,121631,777178,777841,773949,777177,NA,Sternberg Task,108,86294,118,yes,1024
91.59663866,91.59663866,729.8571429,729.8571429,black,experiment,legacy,legacy,legacy,0,uniform,1,undefined,1,right,118,0,118,118,0,0,118,118,0,0,118,118,118,118,0,Thu Oct 24 14:05:04 2019,The main experiment item,yes,SternbergTask.osexp,/Users/cristianbotello/Desktop/Advanced Quant/Lab 3.1,no,mono,no,18,no,white,no,no,768,legacy,106,11,/Users/cristianbotello/Desktop/Advanced Quant/Lab 3.2/CB-subject-3.csv,legacy,1 4 3 6 5,Kafkaesque Koffka,3.2.8,0,n,0,right,left,right,right,NA,559,42787,5490,559,NA,2,legacy,5,1024,2,48000,-16,experiment,3,odd,8,781248,45881,777859,779005,3045,127123,779019,728937,3082,121631,783262,783826,780035,783262,NA,Sternberg Task,109,86853,119,yes,1024
91.66666667,91.66666667,730.9416667,730.9416667,black,experiment,legacy,legacy,legacy,0,uniform,1,undefined,1,right,119,0,119,119,0,0,119,119,0,0,119,119,119,119,0,Thu Oct 24 14:05:04 2019,The main experiment item,yes,SternbergTask.osexp,/Users/cristianbotello/Desktop/Advanced Quant/Lab 3.1,no,mono,no,18,no,white,no,no,768,legacy,107,11,/Users/cristianbotello/Desktop/Advanced Quant/Lab 3.2/CB-subject-3.csv,legacy,2 3 8 5 6 7,Kafkaesque Koffka,3.2.8,0,n,0,right,left,right,right,NA,860,42787,5490,860,NA,2,legacy,6,1024,2,48000,-16,experiment,3,odd,1,787251,45881,783842,785010,3045,127123,785025,728937,3082,121631,789266,790130,786039,789266,NA,Sternberg Task,110,87713,120,yes,1024
91.73553719,91.73553719,732.1735537,732.1735537,black,experiment,legacy,legacy,legacy,0,uniform,1,undefined,1,left,120,0,120,120,0,0,120,120,0,0,120,120,120,120,0,Thu Oct 24 14:05:04 2019,The main experiment item,yes,SternbergTask.osexp,/Users/cristianbotello/Desktop/Advanced Quant/Lab 3.1,no,mono,no,18,no,white,no,no,768,legacy,108,11,/Users/cristianbotello/Desktop/Advanced Quant/Lab 3.2/CB-subject-3.csv,legacy,4 7 6 8 2 3,Kafkaesque Koffka,3.2.8,6,y,0,left,left,right,left,NA,880,42787,5490,880,NA,2,legacy,6,1024,2,48000,-16,experiment,3,odd,3,793544,45881,790147,791303,3045,127123,791316,728937,3082,121631,795558,796442,792330,795558,NA,Sternberg Task,111,88593,121,yes,1024
91.80327869,91.80327869,733.2213115,733.2213115,black,experiment,legacy,legacy,legacy,0,uniform,1,undefined,1,right,121,0,121,121,0,0,121,121,0,0,121,121,121,121,0,Thu Oct 24 14:05:04 2019,The main experiment item,yes,SternbergTask.osexp,/Users/cristianbotello/Desktop/Advanced Quant/Lab 3.1,no,mono,no,18,no,white,no,no,768,legacy,109,11,/Users/cristianbotello/Desktop/Advanced Quant/Lab 3.2/CB-subject-3.csv,legacy,2 7 5,Kafkaesque Koffka,3.2.8,0,n,0,right,left,right,right,NA,860,42787,5490,860,NA,2,legacy,3,1024,2,48000,-16,experiment,3,odd,8,799848,45881,796459,797607,3045,127123,797619,728937,3082,121631,801864,802728,798635,801863,NA,Sternberg Task,112,89453,122,yes,1024
91.8699187,91.8699187,734.7073171,734.7073171,black,experiment,legacy,legacy,legacy,0,uniform,1,undefined,1,left,122,0,122,122,0,0,122,122,0,0,122,122,122,122,0,Thu Oct 24 14:05:04 2019,The main experiment item,yes,SternbergTask.osexp,/Users/cristianbotello/Desktop/Advanced Quant/Lab 3.1,no,mono,no,18,no,white,no,no,768,legacy,110,11,/Users/cristianbotello/Desktop/Advanced Quant/Lab 3.2/CB-subject-3.csv,legacy,3 4 9 6 2 9,Kafkaesque Koffka,3.2.8,5,y,0,left,left,right,left,NA,916,42787,5490,916,NA,2,legacy,6,1024,2,48000,-16,experiment,3,odd,2,806135,45881,802744,803894,3045,127123,803907,728937,3082,121631,808149,809069,804924,808149,NA,Sternberg Task,113,90369,123,yes,1024
91.93548387,91.93548387,733.766129,733.766129,black,experiment,legacy,legacy,legacy,0,uniform,1,undefined,1,right,123,0,123,123,0,0,123,123,0,0,123,123,123,123,0,Thu Oct 24 14:05:04 2019,The main experiment item,yes,SternbergTask.osexp,/Users/cristianbotello/Desktop/Advanced Quant/Lab 3.1,no,mono,no,18,no,white,no,no,768,legacy,111,11,/Users/cristianbotello/Desktop/Advanced Quant/Lab 3.2/CB-subject-3.csv,legacy,8 2 1 4 5 9,Kafkaesque Koffka,3.2.8,0,n,0,right,left,right,right,NA,618,42787,5490,618,NA,2,legacy,6,1024,2,48000,-16,experiment,3,odd,7,812466,45881,809086,810225,3045,127123,810238,728937,3082,121631,814480,815101,811253,814480,NA,Sternberg Task,114,90987,124,yes,1024
92,92,734.432,734.432,black,experiment,legacy,legacy,legacy,0,uniform,1,undefined,1,left,124,0,124,124,0,0,124,124,0,0,124,124,124,124,0,Thu Oct 24 14:05:04 2019,The main experiment item,yes,SternbergTask.osexp,/Users/cristianbotello/Desktop/Advanced Quant/Lab 3.1,no,mono,no,18,no,white,no,no,768,legacy,112,11,/Users/cristianbotello/Desktop/Advanced Quant/Lab 3.2/CB-subject-3.csv,legacy,4 1 5,Kafkaesque Koffka,3.2.8,2,y,0,left,left,right,left,NA,817,42787,5490,817,NA,2,legacy,3,1024,2,48000,-16,experiment,3,odd,1,818524,45881,815117,816281,3045,127123,816294,728937,3082,121631,820538,821359,817310,820537,NA,Sternberg Task,115,91804,125,yes,1024
92.06349206,92.06349206,735.0714286,735.0714286,black,experiment,legacy,legacy,legacy,0,uniform,1,undefined,1,left,125,0,125,125,0,0,125,125,0,0,125,125,125,125,0,Thu Oct 24 14:05:04 2019,The main experiment item,yes,SternbergTask.osexp,/Users/cristianbotello/Desktop/Advanced Quant/Lab 3.1,no,mono,no,18,no,white,no,no,768,legacy,113,11,/Users/cristianbotello/Desktop/Advanced Quant/Lab 3.2/CB-subject-3.csv,legacy,8 9 5 6 7,Kafkaesque Koffka,3.2.8,1,y,0,left,left,right,left,NA,815,42787,5490,815,NA,2,legacy,5,1024,2,48000,-16,experiment,3,odd,8,824774,45881,821374,822535,3045,127123,822547,728937,3082,121631,826788,827606,823561,826788,NA,Sternberg Task,116,92619,126,yes,1024
92.12598425,92.12598425,733.3307087,733.3307087,black,experiment,legacy,legacy,legacy,0,uniform,1,undefined,1,left,126,0,126,126,0,0,126,126,0,0,126,126,126,126,0,Thu Oct 24 14:05:04 2019,The main experiment item,yes,SternbergTask.osexp,/Users/cristianbotello/Desktop/Advanced Quant/Lab 3.1,no,mono,no,18,no,white,no,no,768,legacy,114,11,/Users/cristianbotello/Desktop/Advanced Quant/Lab 3.2/CB-subject-3.csv,legacy,9 1 6 7 8,Kafkaesque Koffka,3.2.8,1,y,0,left,left,right,left,NA,514,42787,5490,514,NA,2,legacy,5,1024,2,48000,-16,experiment,3,odd,9,831029,45881,827626,828790,3045,127123,828803,728937,3082,121631,833042,833560,829818,833042,NA,Sternberg Task,117,93133,127,yes,1024
92.1875,92.1875,735.34375,735.34375,black,experiment,legacy,legacy,legacy,0,uniform,1,undefined,1,left,127,0,127,127,0,0,127,127,0,0,127,127,127,127,0,Thu Oct 24 14:05:04 2019,The main experiment item,yes,SternbergTask.osexp,/Users/cristianbotello/Desktop/Advanced Quant/Lab 3.1,no,mono,no,18,no,white,no,no,768,legacy,115,11,/Users/cristianbotello/Desktop/Advanced Quant/Lab 3.2/CB-subject-3.csv,legacy,5 7 8 2 3 8,Kafkaesque Koffka,3.2.8,5,y,0,left,left,right,left,NA,991,42787,5490,991,NA,2,legacy,6,1024,2,48000,-16,experiment,3,odd,3,836972,45881,833580,834730,3045,127123,834744,728937,3082,121631,838987,839981,835760,838987,NA,Sternberg Task,118,94124,128,yes,1024
92.24806202,92.24806202,732.7054264,732.7054264,black,experiment,legacy,legacy,legacy,0,uniform,1,undefined,1,left,128,0,128,128,0,0,128,128,0,0,128,128,128,128,0,Thu Oct 24 14:05:04 2019,The main experiment item,yes,SternbergTask.osexp,/Users/cristianbotello/Desktop/Advanced Quant/Lab 3.1,no,mono,no,18,no,white,no,no,768,legacy,116,11,/Users/cristianbotello/Desktop/Advanced Quant/Lab 3.2/CB-subject-3.csv,legacy,8 3,Kafkaesque Koffka,3.2.8,2,y,0,left,left,right,left,NA,395,42787,5490,395,NA,2,legacy,2,1024,2,48000,-16,experiment,3,odd,3,843400,45881,839998,841158,3045,127123,841173,728937,3082,121631,845416,845814,842187,845416,NA,Sternberg Task,119,94519,129,yes,1024
92.30769231,92.30769231,731.5769231,731.5769231,black,experiment,legacy,legacy,legacy,0,uniform,1,undefined,1,left,129,0,129,129,0,0,129,129,0,0,129,129,129,129,0,Thu Oct 24 14:05:04 2019,The main experiment item,yes,SternbergTask.osexp,/Users/cristianbotello/Desktop/Advanced Quant/Lab 3.1,no,mono,no,18,no,white,no,no,768,legacy,117,11,/Users/cristianbotello/Desktop/Advanced Quant/Lab 3.2/CB-subject-3.csv,legacy,8,Kafkaesque Koffka,3.2.8,1,y,0,left,left,right,left,NA,586,42787,5490,586,NA,2,legacy,1,1024,2,48000,-16,experiment,3,odd,8,849235,45881,845835,846995,3045,127123,847008,728937,3082,121631,851249,851838,848022,851249,NA,Sternberg Task,120,95105,130,yes,1024
92.36641221,92.36641221,732.6717557,732.6717557,black,experiment,legacy,legacy,legacy,0,uniform,1,undefined,1,right,130,0,130,130,0,0,130,130,0,0,130,130,130,130,0,Thu Oct 24 14:05:04 2019,The main experiment item,yes,SternbergTask.osexp,/Users/cristianbotello/Desktop/Advanced Quant/Lab 3.1,no,mono,no,18,no,white,no,no,768,legacy,118,11,/Users/cristianbotello/Desktop/Advanced Quant/Lab 3.2/CB-subject-3.csv,legacy,1 7 8 3 9,Kafkaesque Koffka,3.2.8,0,n,0,right,left,right,right,NA,875,42787,5490,875,NA,2,legacy,5,1024,2,48000,-16,experiment,3,odd,2,855253,45881,851856,853011,3045,127123,853023,728937,3082,121631,857268,858147,854040,857268,NA,Sternberg Task,121,95980,131,yes,1024
92.42424242,92.42424242,732.9545455,732.9545455,black,experiment,legacy,legacy,legacy,0,uniform,1,undefined,1,right,131,0,131,131,0,0,131,131,0,0,131,131,131,131,0,Thu Oct 24 14:05:04 2019,The main experiment item,yes,SternbergTask.osexp,/Users/cristianbotello/Desktop/Advanced Quant/Lab 3.1,no,mono,no,18,no,white,no,no,768,legacy,119,11,/Users/cristianbotello/Desktop/Advanced Quant/Lab 3.2/CB-subject-3.csv,legacy,2 5 1 4,Kafkaesque Koffka,3.2.8,0,n,0,right,left,right,right,NA,770,42787,5490,770,NA,2,legacy,4,1024,2,48000,-16,experiment,3,odd,6,861565,45881,858165,859325,3045,127123,859338,728937,3082,121631,863579,864353,860351,863579,NA,Sternberg Task,122,96750,132,yes,1024
92.48120301,92.48120301,731.7518797,731.7518797,black,experiment,legacy,legacy,legacy,0,uniform,1,undefined,1,left,132,0,132,132,0,0,132,132,0,0,132,132,132,132,0,Thu Oct 24 14:05:04 2019,The main experiment item,yes,SternbergTask.osexp,/Users/cristianbotello/Desktop/Advanced Quant/Lab 3.1,no,mono,no,18,no,white,no,no,768,legacy,120,11,/Users/cristianbotello/Desktop/Advanced Quant/Lab 3.2/CB-subject-3.csv,legacy,2 5 4 8 7,Kafkaesque Koffka,3.2.8,3,y,0,left,left,right,left,NA,573,42787,5490,573,NA,2,legacy,5,1024,2,48000,-16,experiment,3,odd,4,867767,45881,864368,865522,3045,127123,865535,728937,3082,121631,869783,870360,866550,869783,NA,Sternberg Task,123,97323,133,yes,1024
92.53731343,92.53731343,734.2089552,734.2089552,black,experiment,legacy,legacy,legacy,0,uniform,1,undefined,1,left,133,0,133,133,0,0,133,133,0,0,133,133,133,133,0,Thu Oct 24 14:05:04 2019,The main experiment item,yes,SternbergTask.osexp,/Users/cristianbotello/Desktop/Advanced Quant/Lab 3.1,no,mono,no,18,no,white,no,no,768,legacy,121,11,/Users/cristianbotello/Desktop/Advanced Quant/Lab 3.2/CB-subject-3.csv,legacy,8 5 3 7 4 6,Kafkaesque Koffka,3.2.8,6,y,0,left,left,right,left,NA,1061,42787,5490,1061,NA,2,legacy,6,1024,2,48000,-16,experiment,3,odd,6,873766,45881,870376,871525,3045,127123,871538,728937,3082,121631,875781,876846,872554,875780,NA,Sternberg Task,124,98384,134,yes,1024
92.59259259,92.59259259,732.3925926,732.3925926,black,experiment,legacy,legacy,legacy,0,uniform,1,undefined,1,left,134,0,134,134,0,0,134,134,0,0,134,134,134,134,0,Thu Oct 24 14:05:04 2019,The main experiment item,yes,SternbergTask.osexp,/Users/cristianbotello/Desktop/Advanced Quant/Lab 3.1,no,mono,no,18,no,white,no,no,768,legacy,122,11,/Users/cristianbotello/Desktop/Advanced Quant/Lab 3.2/CB-subject-3.csv,legacy,9 3 1 2 5,Kafkaesque Koffka,3.2.8,4,y,0,left,left,right,left,NA,489,42787,5490,489,NA,2,legacy,5,1024,2,48000,-16,experiment,3,odd,2,880250,45881,876863,878011,3045,127123,878023,728937,3082,121631,882264,882758,879039,882263,NA,Sternberg Task,125,98873,135,yes,1024
92.64705882,92.64705882,732.5294118,732.5294118,black,experiment,legacy,legacy,legacy,0,uniform,1,undefined,1,right,135,0,135,135,0,0,135,135,0,0,135,135,135,135,0,Thu Oct 24 14:05:04 2019,The main experiment item,yes,SternbergTask.osexp,/Users/cristianbotello/Desktop/Advanced Quant/Lab 3.1,no,mono,no,18,no,white,no,no,768,legacy,123,11,/Users/cristianbotello/Desktop/Advanced Quant/Lab 3.2/CB-subject-3.csv,legacy,1 4 9 2 5,Kafkaesque Koffka,3.2.8,0,n,0,right,left,right,right,NA,751,42787,5490,751,NA,2,legacy,5,1024,2,48000,-16,experiment,3,odd,7,886171,45881,882774,883930,3045,127123,883943,728937,3082,121631,888185,888940,884959,888185,NA,Sternberg Task,126,99624,136,yes,1024
92.70072993,92.70072993,731.9562044,731.9562044,black,experiment,legacy,legacy,legacy,0,uniform,1,undefined,1,right,136,0,136,136,0,0,136,136,0,0,136,136,136,136,0,Thu Oct 24 14:05:04 2019,The main experiment item,yes,SternbergTask.osexp,/Users/cristianbotello/Desktop/Advanced Quant/Lab 3.1,no,mono,no,18,no,white,no,no,768,legacy,124,11,/Users/cristianbotello/Desktop/Advanced Quant/Lab 3.2/CB-subject-3.csv,legacy,9 5 3 2 8 6,Kafkaesque Koffka,3.2.8,0,n,0,right,left,right,right,NA,654,42787,5490,654,NA,2,legacy,6,1024,2,48000,-16,experiment,3,odd,7,892347,45881,888958,890106,3045,127123,890118,728937,3082,121631,894361,895018,891133,894361,NA,Sternberg Task,127,100278,137,yes,1024
92.75362319,92.75362319,733.942029,733.942029,black,experiment,legacy,legacy,legacy,0,uniform,1,undefined,1,left,137,0,137,137,0,0,137,137,0,0,137,137,137,137,0,Thu Oct 24 14:05:04 2019,The main experiment item,yes,SternbergTask.osexp,/Users/cristianbotello/Desktop/Advanced Quant/Lab 3.1,no,mono,no,18,no,white,no,no,768,legacy,125,11,/Users/cristianbotello/Desktop/Advanced Quant/Lab 3.2/CB-subject-3.csv,legacy,2 6 1 7 4,Kafkaesque Koffka,3.2.8,2,y,0,left,left,right,left,NA,1006,42787,5490,1006,NA,2,legacy,5,1024,2,48000,-16,experiment,3,odd,6,898415,45881,895035,896178,3045,127123,896190,728937,3082,121631,900432,901441,897203,900432,NA,Sternberg Task,128,101284,138,yes,1024