"acc","accuracy","average_response_time","avg_rt","background","block","canvas_backend","clock_backend","color_backend","correct","correct_instruction1","correct_keyboard_response","correct_response","count_ISI","count_correctFeedback","count_expSequence","count_experiment","count_experimentLoop","count_fixation","count_incorrectFeedback","count_instruction1","count_instructions2","count_keyboard_response","count_logger","count_memorySet","count_practiceLoop","count_probe","count_thankYou","datetime","description","disable_garbage_collection","experiment_file","experiment_path","font_bold","font_family","font_italic","font_size","font_underline","foreground","form_clicks","fullscreen","height","keyboard_backend","live_row","live_row_practiceLoop","logfile","mouse_backend","numberSet","opensesame_codename","opensesame_version","posInSet","present","repeat_cycle","response","response_instruction1","response_instructions2","response_keyboard_response","response_thankYou","response_time","response_time_instruction1","response_time_instructions2","response_time_keyboard_response","response_time_thankYou","round_decimals","sampler_backend","setSize","sound_buf_size","sound_channels","sound_freq","sound_sample_size","start","subject_nr","subject_parity","target","time_ISI","time_correctFeedback","time_expSequence","time_experiment","time_experimentLoop","time_fixation","time_incorrectFeedback","time_instruction1","time_instructions2","time_keyboard_response","time_logger","time_memorySet","time_practiceLoop","time_probe","time_thankYou","title","total_correct","total_response_time","total_responses","width"
"100","100","1332","1332","#3d3846","practice","legacy","legacy","legacy","1","undefined","1","left","0","0","0","0","0","0","0","0","0","0","0","0","0","0","0","Sun Oct 15 11:02:45 2023","The main experiment item","False","SternbergTask.osexp","C:\Users\juzal\OneDrive\Documents\Masters of Equine Science\Advanced Quantitative Methods and Experiment Design","False","mono","False","18","no","white","no","yes","768","legacy","0","0","C:/Users/juzal/OneDrive/Documents/Masters of Equine Science/Advanced Quantitative Methods and Experiment Design/CH-subject-2.csv","legacy","2 9 4","Melodramatic Milgram","4.0.5","3","y","0","left","left","NA","left","NA","1332.0","36325","NA","1332","NA","2","legacy","3","1024","2","48000","-16","experiment","2","even","4","43446","NA","41244","3159","NA","41245","NA","3165","NA","45446","46779","42245","39492","45446","NA","Sternberg Task","1","1332.0","1","1024"
"100","100","1308","1308","#3d3846","practice","legacy","legacy","legacy","1","undefined","1","right","1","1","1","0","0","1","1","0","0","1","1","1","0","1","0","Sun Oct 15 11:02:45 2023","The main experiment item","False","SternbergTask.osexp","C:\Users\juzal\OneDrive\Documents\Masters of Equine Science\Advanced Quantitative Methods and Experiment Design","False","mono","False","18","no","white","no","yes","768","legacy","1","1","C:/Users/juzal/OneDrive/Documents/Masters of Equine Science/Advanced Quantitative Methods and Experiment Design/CH-subject-2.csv","legacy","5","Melodramatic Milgram","4.0.5","0","n","0","right","left","NA","right","NA","1285.0","36325","NA","1285","NA","2","legacy","1","1024","2","48000","-16","experiment","2","even","3","50056","46821","47854","3159","NA","47855","NA","3165","NA","52056","53341","48856","39492","52056","NA","Sternberg Task","2","2617.0","2","1024"
"100","100","1059","1059","#3d3846","practice","legacy","legacy","legacy","1","undefined","1","left","2","2","2","0","0","2","2","0","0","2","2","2","0","2","0","Sun Oct 15 11:02:45 2023","The main experiment item","False","SternbergTask.osexp","C:\Users\juzal\OneDrive\Documents\Masters of Equine Science\Advanced Quantitative Methods and Experiment Design","False","mono","False","18","no","white","no","yes","768","legacy","2","2","C:/Users/juzal/OneDrive/Documents/Masters of Equine Science/Advanced Quantitative Methods and Experiment Design/CH-subject-2.csv","legacy","4 8","Melodramatic Milgram","4.0.5","1","y","0","left","left","NA","left","NA","561.0","36325","NA","561","NA","2","legacy","2","1024","2","48000","-16","experiment","2","even","4","56574","53345","54372","3159","NA","54373","NA","3165","NA","58576","59137","55374","39492","58575","NA","Sternberg Task","3","3178.0","3","1024"
"100","100","1129","1129","#3d3846","practice","legacy","legacy","legacy","1","undefined","1","right","3","3","3","0","0","3","3","0","0","3","3","3","0","3","0","Sun Oct 15 11:02:45 2023","The main experiment item","False","SternbergTask.osexp","C:\Users\juzal\OneDrive\Documents\Masters of Equine Science\Advanced Quantitative Methods and Experiment Design","False","mono","False","18","no","white","no","yes","768","legacy","3","3","C:/Users/juzal/OneDrive/Documents/Masters of Equine Science/Advanced Quantitative Methods and Experiment Design/CH-subject-2.csv","legacy","3 1 9 4","Melodramatic Milgram","4.0.5","0","n","0","right","left","NA","right","NA","1340.0","36325","NA","1340","NA","2","legacy","4","1024","2","48000","-16","experiment","2","even","6","62389","59142","60186","3159","NA","60188","NA","3165","NA","64390","65731","61188","39492","64389","NA","Sternberg Task","4","4518.0","4","1024"
"100","100","1102","1102","#3d3846","practice","legacy","legacy","legacy","1","undefined","1","left","4","4","4","0","0","4","4","0","0","4","4","4","0","4","0","Sun Oct 15 11:02:45 2023","The main experiment item","False","SternbergTask.osexp","C:\Users\juzal\OneDrive\Documents\Masters of Equine Science\Advanced Quantitative Methods and Experiment Design","False","mono","False","18","no","white","no","yes","768","legacy","4","4","C:/Users/juzal/OneDrive/Documents/Masters of Equine Science/Advanced Quantitative Methods and Experiment Design/CH-subject-2.csv","legacy","4 3 1 7 9 8","Melodramatic Milgram","4.0.5","1","y","0","left","left","NA","left","NA","992.0","36325","NA","992","NA","2","legacy","6","1024","2","48000","-16","experiment","2","even","4","68968","65735","66766","3159","NA","66767","NA","3165","NA","70968","71960","67767","39492","70968","NA","Sternberg Task","5","5510.0","5","1024"
"100","100","1025","1025","#3d3846","practice","legacy","legacy","legacy","1","undefined","1","right","5","5","5","0","0","5","5","0","0","5","5","5","0","5","0","Sun Oct 15 11:02:45 2023","The main experiment item","False","SternbergTask.osexp","C:\Users\juzal\OneDrive\Documents\Masters of Equine Science\Advanced Quantitative Methods and Experiment Design","False","mono","False","18","no","white","no","yes","768","legacy","5","5","C:/Users/juzal/OneDrive/Documents/Masters of Equine Science/Advanced Quantitative Methods and Experiment Design/CH-subject-2.csv","legacy","5 7 8 4 1 2","Melodramatic Milgram","4.0.5","0","n","0","right","left","NA","right","NA","642.0","36325","NA","642","NA","2","legacy","6","1024","2","48000","-16","experiment","2","even","6","75206","71964","73005","3159","NA","73006","NA","3165","NA","77206","77848","74006","39492","77206","NA","Sternberg Task","6","6152.0","6","1024"
"100","100","978","978","#3d3846","practice","legacy","legacy","legacy","1","undefined","1","left","6","6","6","0","0","6","6","0","0","6","6","6","0","6","0","Sun Oct 15 11:02:45 2023","The main experiment item","False","SternbergTask.osexp","C:\Users\juzal\OneDrive\Documents\Masters of Equine Science\Advanced Quantitative Methods and Experiment Design","False","mono","False","18","no","white","no","yes","768","legacy","6","6","C:/Users/juzal/OneDrive/Documents/Masters of Equine Science/Advanced Quantitative Methods and Experiment Design/CH-subject-2.csv","legacy","6","Melodramatic Milgram","4.0.5","1","y","0","left","left","NA","left","NA","697.0","36325","NA","697","NA","2","legacy","1","1024","2","48000","-16","experiment","2","even","6","81128","77894","78927","3159","NA","78928","NA","3165","NA","83128","83826","79928","39492","83128","NA","Sternberg Task","7","6849.0","7","1024"
"100","100","1029","1029","#3d3846","practice","legacy","legacy","legacy","1","undefined","1","left","7","7","7","0","0","7","7","0","0","7","7","7","0","7","0","Sun Oct 15 11:02:45 2023","The main experiment item","False","SternbergTask.osexp","C:\Users\juzal\OneDrive\Documents\Masters of Equine Science\Advanced Quantitative Methods and Experiment Design","False","mono","False","18","no","white","no","yes","768","legacy","7","7","C:/Users/juzal/OneDrive/Documents/Masters of Equine Science/Advanced Quantitative Methods and Experiment Design/CH-subject-2.csv","legacy","1 7 9 8 5","Melodramatic Milgram","4.0.5","4","y","0","left","left","NA","left","NA","1384.0","36325","NA","1384","NA","2","legacy","5","1024","2","48000","-16","experiment","2","even","8","87064","83831","84863","3159","NA","84864","NA","3165","NA","89065","90449","85864","39492","89064","NA","Sternberg Task","8","8233.0","8","1024"
"100","100","974","974","#3d3846","practice","legacy","legacy","legacy","1","undefined","1","right","8","8","8","0","0","8","8","0","0","8","8","8","0","8","0","Sun Oct 15 11:02:45 2023","The main experiment item","False","SternbergTask.osexp","C:\Users\juzal\OneDrive\Documents\Masters of Equine Science\Advanced Quantitative Methods and Experiment Design","False","mono","False","18","no","white","no","yes","768","legacy","8","8","C:/Users/juzal/OneDrive/Documents/Masters of Equine Science/Advanced Quantitative Methods and Experiment Design/CH-subject-2.csv","legacy","2 1","Melodramatic Milgram","4.0.5","0","n","0","right","left","NA","right","NA","538.0","36325","NA","538","NA","2","legacy","2","1024","2","48000","-16","experiment","2","even","5","93723","90495","91522","3159","NA","91523","NA","3165","NA","95723","96262","92523","39492","95723","NA","Sternberg Task","9","8771.0","9","1024"
"100","100","982","982","#3d3846","practice","legacy","legacy","legacy","1","undefined","1","left","9","9","9","0","0","9","9","0","0","9","9","9","0","9","0","Sun Oct 15 11:02:45 2023","The main experiment item","False","SternbergTask.osexp","C:\Users\juzal\OneDrive\Documents\Masters of Equine Science\Advanced Quantitative Methods and Experiment Design","False","mono","False","18","no","white","no","yes","768","legacy","9","9","C:/Users/juzal/OneDrive/Documents/Masters of Equine Science/Advanced Quantitative Methods and Experiment Design/CH-subject-2.csv","legacy","1 5 2 9","Melodramatic Milgram","4.0.5","2","y","0","left","left","NA","left","NA","1054.0","36325","NA","1054","NA","2","legacy","4","1024","2","48000","-16","experiment","2","even","5","99536","96308","97334","3159","NA","97335","NA","3165","NA","101538","102592","98336","39492","101538","NA","Sternberg Task","10","9825.0","10","1024"
"100","100","1042","1042","#3d3846","practice","legacy","legacy","legacy","1","undefined","1","right","10","10","10","0","0","10","10","0","0","10","10","10","0","10","0","Sun Oct 15 11:02:45 2023","The main experiment item","False","SternbergTask.osexp","C:\Users\juzal\OneDrive\Documents\Masters of Equine Science\Advanced Quantitative Methods and Experiment Design","False","mono","False","18","no","white","no","yes","768","legacy","10","10","C:/Users/juzal/OneDrive/Documents/Masters of Equine Science/Advanced Quantitative Methods and Experiment Design/CH-subject-2.csv","legacy","4 1 5","Melodramatic Milgram","4.0.5","0","n","0","right","left","NA","right","NA","1637.0","36325","NA","1637","NA","2","legacy","3","1024","2","48000","-16","experiment","2","even","2","105845","102597","103642","3159","NA","103644","NA","3165","NA","107845","109483","104644","39492","107845","NA","Sternberg Task","11","11462.0","11","1024"
"100","100","1008","1008","#3d3846","practice","legacy","legacy","legacy","1","undefined","1","right","11","11","11","0","0","11","11","0","0","11","11","11","0","11","0","Sun Oct 15 11:02:45 2023","The main experiment item","False","SternbergTask.osexp","C:\Users\juzal\OneDrive\Documents\Masters of Equine Science\Advanced Quantitative Methods and Experiment Design","False","mono","False","18","no","white","no","yes","768","legacy","11","11","C:/Users/juzal/OneDrive/Documents/Masters of Equine Science/Advanced Quantitative Methods and Experiment Design/CH-subject-2.csv","legacy","9 6 7 4 5","Melodramatic Milgram","4.0.5","0","n","0","right","left","NA","right","NA","640.0","36325","NA","640","NA","2","legacy","5","1024","2","48000","-16","experiment","2","even","3","112764","109526","110562","3159","NA","110563","NA","3165","NA","114765","115405","111564","39492","114765","NA","Sternberg Task","12","12102.0","12","1024"
"100","100","1001","1001","#3d3846","experiment","legacy","legacy","legacy","1","undefined","1","left","12","12","12","0","0","12","12","0","0","12","12","12","0","12","0","Sun Oct 15 11:02:45 2023","The main experiment item","False","SternbergTask.osexp","C:\Users\juzal\OneDrive\Documents\Masters of Equine Science\Advanced Quantitative Methods and Experiment Design","False","mono","False","18","no","white","no","yes","768","legacy","0","11","C:/Users/juzal/OneDrive/Documents/Masters of Equine Science/Advanced Quantitative Methods and Experiment Design/CH-subject-2.csv","legacy","8 5 4 7 3 1","Melodramatic Milgram","4.0.5","2","y","0","left","left","left","left","NA","919.0","36325","20403","919","NA","2","legacy","6","1024","2","48000","-16","experiment","2","even","5","139114","115409","136913","3159","136813","136914","NA","3165","116409","141115","142035","137914","39492","141115","NA","Sternberg Task","13","13021.0","13","1024"
"100","100","983","983","#3d3846","experiment","legacy","legacy","legacy","1","undefined","1","left","13","13","13","0","0","13","13","0","0","13","13","13","0","13","0","Sun Oct 15 11:02:45 2023","The main experiment item","False","SternbergTask.osexp","C:\Users\juzal\OneDrive\Documents\Masters of Equine Science\Advanced Quantitative Methods and Experiment Design","False","mono","False","18","no","white","no","yes","768","legacy","1","11","C:/Users/juzal/OneDrive/Documents/Masters of Equine Science/Advanced Quantitative Methods and Experiment Design/CH-subject-2.csv","legacy","9 6 2 4 1","Melodramatic Milgram","4.0.5","4","y","0","left","left","left","left","NA","746.0","36325","20403","746","NA","2","legacy","5","1024","2","48000","-16","experiment","2","even","4","145273","142039","143071","3159","136813","143072","NA","3165","116409","147273","148019","144072","39492","147273","NA","Sternberg Task","14","13767.0","14","1024"
"100","100","972","972","#3d3846","experiment","legacy","legacy","legacy","1","undefined","1","left","14","14","14","0","0","14","14","0","0","14","14","14","0","14","0","Sun Oct 15 11:02:45 2023","The main experiment item","False","SternbergTask.osexp","C:\Users\juzal\OneDrive\Documents\Masters of Equine Science\Advanced Quantitative Methods and Experiment Design","False","mono","False","18","no","white","no","yes","768","legacy","2","11","C:/Users/juzal/OneDrive/Documents/Masters of Equine Science/Advanced Quantitative Methods and Experiment Design/CH-subject-2.csv","legacy","3 4 9 6 2 9","Melodramatic Milgram","4.0.5","5","y","0","left","left","left","left","NA","825.0","36325","20403","825","NA","2","legacy","6","1024","2","48000","-16","experiment","2","even","2","151288","148055","149087","3159","136813","149088","NA","3165","116409","153288","154113","150088","39492","153288","NA","Sternberg Task","15","14592.0","15","1024"
"100","100","965","965","#3d3846","experiment","legacy","legacy","legacy","1","undefined","1","right","15","15","15","0","0","15","15","0","0","15","15","15","0","15","0","Sun Oct 15 11:02:45 2023","The main experiment item","False","SternbergTask.osexp","C:\Users\juzal\OneDrive\Documents\Masters of Equine Science\Advanced Quantitative Methods and Experiment Design","False","mono","False","18","no","white","no","yes","768","legacy","3","11","C:/Users/juzal/OneDrive/Documents/Masters of Equine Science/Advanced Quantitative Methods and Experiment Design/CH-subject-2.csv","legacy","1 7 8 3 9","Melodramatic Milgram","4.0.5","0","n","0","right","left","left","right","NA","857.0","36325","20403","857","NA","2","legacy","5","1024","2","48000","-16","experiment","2","even","2","157385","154158","155184","3159","136813","155185","NA","3165","116409","159387","160245","156185","39492","159387","NA","Sternberg Task","16","15449.0","16","1024"
"100","100","957","957","#3d3846","experiment","legacy","legacy","legacy","1","undefined","1","right","16","16","16","0","0","16","16","0","0","16","16","16","0","16","0","Sun Oct 15 11:02:45 2023","The main experiment item","False","SternbergTask.osexp","C:\Users\juzal\OneDrive\Documents\Masters of Equine Science\Advanced Quantitative Methods and Experiment Design","False","mono","False","18","no","white","no","yes","768","legacy","4","11","C:/Users/juzal/OneDrive/Documents/Masters of Equine Science/Advanced Quantitative Methods and Experiment Design/CH-subject-2.csv","legacy","2 8 9","Melodramatic Milgram","4.0.5","0","n","0","right","left","left","right","NA","831.0","36325","20403","831","NA","2","legacy","3","1024","2","48000","-16","experiment","2","even","6","163519","160287","161318","3159","136813","161319","NA","3165","116409","165520","166352","162319","39492","165519","NA","Sternberg Task","17","16280.0","17","1024"
"94","94","951","951","#3d3846","experiment","legacy","legacy","legacy","0","undefined","0","left","17","17","17","0","0","17","17","0","0","17","17","17","0","17","0","Sun Oct 15 11:02:45 2023","The main experiment item","False","SternbergTask.osexp","C:\Users\juzal\OneDrive\Documents\Masters of Equine Science\Advanced Quantitative Methods and Experiment Design","False","mono","False","18","no","white","no","yes","768","legacy","5","11","C:/Users/juzal/OneDrive/Documents/Masters of Equine Science/Advanced Quantitative Methods and Experiment Design/CH-subject-2.csv","legacy","2 6 1 7 4","Melodramatic Milgram","4.0.5","2","y","0","right","left","left","right","NA","849.0","36325","20403","849","NA","2","legacy","5","1024","2","48000","-16","experiment","2","even","6","169604","166371","167402","3159","136813","167404","NA","3165","116409","171604","172455","168404","39492","171604","NA","Sternberg Task","17","17129.0","18","1024"
"94","94","967","967","#3d3846","experiment","legacy","legacy","legacy","1","undefined","1","left","18","18","18","0","0","18","18","0","0","18","18","18","0","18","0","Sun Oct 15 11:02:45 2023","The main experiment item","False","SternbergTask.osexp","C:\Users\juzal\OneDrive\Documents\Masters of Equine Science\Advanced Quantitative Methods and Experiment Design","False","mono","False","18","no","white","no","yes","768","legacy","6","11","C:/Users/juzal/OneDrive/Documents/Masters of Equine Science/Advanced Quantitative Methods and Experiment Design/CH-subject-2.csv","legacy","1 4 9 3 2 5","Melodramatic Milgram","4.0.5","3","y","0","left","left","left","left","NA","1259.0","36325","20403","1259","NA","2","legacy","6","1024","2","48000","-16","experiment","2","even","9","175690","166371","173490","3159","136813","173490","172459","3165","116409","177691","178951","174490","39492","177690","NA","Sternberg Task","18","18388.0","19","1024"
"95","95","963","963","#3d3846","experiment","legacy","legacy","legacy","1","undefined","1","right","19","19","19","0","0","19","19","0","0","19","19","19","0","19","0","Sun Oct 15 11:02:45 2023","The main experiment item","False","SternbergTask.osexp","C:\Users\juzal\OneDrive\Documents\Masters of Equine Science\Advanced Quantitative Methods and Experiment Design","False","mono","False","18","no","white","no","yes","768","legacy","7","11","C:/Users/juzal/OneDrive/Documents/Masters of Equine Science/Advanced Quantitative Methods and Experiment Design/CH-subject-2.csv","legacy","8 6 3 4 7","Melodramatic Milgram","4.0.5","0","n","0","right","left","left","right","NA","889.0","36325","20403","889","NA","2","legacy","5","1024","2","48000","-16","experiment","2","even","1","182191","178955","179987","3159","136813","179991","172459","3165","116409","184191","185081","180991","39492","184191","NA","Sternberg Task","19","19277.0","20","1024"
"95","95","948","948","#3d3846","experiment","legacy","legacy","legacy","1","undefined","1","right","20","20","20","0","0","20","20","0","0","20","20","20","0","20","0","Sun Oct 15 11:02:45 2023","The main experiment item","False","SternbergTask.osexp","C:\Users\juzal\OneDrive\Documents\Masters of Equine Science\Advanced Quantitative Methods and Experiment Design","False","mono","False","18","no","white","no","yes","768","legacy","8","11","C:/Users/juzal/OneDrive/Documents/Masters of Equine Science/Advanced Quantitative Methods and Experiment Design/CH-subject-2.csv","legacy","1 5 3 2 8","Melodramatic Milgram","4.0.5","0","n","0","right","left","left","right","NA","631.0","36325","20403","631","NA","2","legacy","5","1024","2","48000","-16","experiment","2","even","4","188357","185127","186156","3159","136813","186157","172459","3165","116409","190357","190989","187157","39492","190357","NA","Sternberg Task","20","19908.0","21","1024"
"95","95","939","939","#3d3846","experiment","legacy","legacy","legacy","1","undefined","1","right","21","21","21","0","0","21","21","0","0","21","21","21","0","21","0","Sun Oct 15 11:02:45 2023","The main experiment item","False","SternbergTask.osexp","C:\Users\juzal\OneDrive\Documents\Masters of Equine Science\Advanced Quantitative Methods and Experiment Design","False","mono","False","18","no","white","no","yes","768","legacy","9","11","C:/Users/juzal/OneDrive/Documents/Masters of Equine Science/Advanced Quantitative Methods and Experiment Design/CH-subject-2.csv","legacy","7 1 5 6 3","Melodramatic Milgram","4.0.5","0","n","0","right","left","left","right","NA","767.0","36325","20403","767","NA","2","legacy","5","1024","2","48000","-16","experiment","2","even","8","194268","191028","192066","3159","136813","192067","172459","3165","116409","196270","197038","193068","39492","196269","NA","Sternberg Task","21","20675.0","22","1024"
"95","95","933","933","#3d3846","experiment","legacy","legacy","legacy","1","undefined","1","left","22","22","22","0","0","22","22","0","0","22","22","22","0","22","0","Sun Oct 15 11:02:45 2023","The main experiment item","False","SternbergTask.osexp","C:\Users\juzal\OneDrive\Documents\Masters of Equine Science\Advanced Quantitative Methods and Experiment Design","False","mono","False","18","no","white","no","yes","768","legacy","10","11","C:/Users/juzal/OneDrive/Documents/Masters of Equine Science/Advanced Quantitative Methods and Experiment Design/CH-subject-2.csv","legacy","2 5 4 8 7","Melodramatic Milgram","4.0.5","3","y","0","left","left","left","left","NA","787.0","36325","20403","787","NA","2","legacy","5","1024","2","48000","-16","experiment","2","even","4","200297","197062","198096","3159","136813","198097","172459","3165","116409","202297","203085","199097","39492","202297","NA","Sternberg Task","22","21462.0","23","1024"
"95","95","920","920","#3d3846","experiment","legacy","legacy","legacy","1","undefined","1","right","23","23","23","0","0","23","23","0","0","23","23","23","0","23","0","Sun Oct 15 11:02:45 2023","The main experiment item","False","SternbergTask.osexp","C:\Users\juzal\OneDrive\Documents\Masters of Equine Science\Advanced Quantitative Methods and Experiment Design","False","mono","False","18","no","white","no","yes","768","legacy","11","11","C:/Users/juzal/OneDrive/Documents/Masters of Equine Science/Advanced Quantitative Methods and Experiment Design/CH-subject-2.csv","legacy","5 7 3","Melodramatic Milgram","4.0.5","0","n","0","right","left","left","right","NA","623.0","36325","20403","623","NA","2","legacy","3","1024","2","48000","-16","experiment","2","even","9","206390","203122","204189","3159","136813","204190","172459","3165","116409","208391","209015","205190","39492","208391","NA","Sternberg Task","23","22085.0","24","1024"
"96","96","912","912","#3d3846","experiment","legacy","legacy","legacy","1","undefined","1","left","24","24","24","0","0","24","24","0","0","24","24","24","0","24","0","Sun Oct 15 11:02:45 2023","The main experiment item","False","SternbergTask.osexp","C:\Users\juzal\OneDrive\Documents\Masters of Equine Science\Advanced Quantitative Methods and Experiment Design","False","mono","False","18","no","white","no","yes","768","legacy","12","11","C:/Users/juzal/OneDrive/Documents/Masters of Equine Science/Advanced Quantitative Methods and Experiment Design/CH-subject-2.csv","legacy","8 7 3","Melodramatic Milgram","4.0.5","1","y","0","left","left","left","left","NA","728.0","36325","20403","728","NA","2","legacy","3","1024","2","48000","-16","experiment","2","even","8","212251","209020","210050","3159","136813","210051","172459","3165","116409","214253","214981","211051","39492","214253","NA","Sternberg Task","24","22813.0","25","1024"
"96","96","909","909","#3d3846","experiment","legacy","legacy","legacy","1","undefined","1","left","25","25","25","0","0","25","25","0","0","25","25","25","0","25","0","Sun Oct 15 11:02:45 2023","The main experiment item","False","SternbergTask.osexp","C:\Users\juzal\OneDrive\Documents\Masters of Equine Science\Advanced Quantitative Methods and Experiment Design","False","mono","False","18","no","white","no","yes","768","legacy","13","11","C:/Users/juzal/OneDrive/Documents/Masters of Equine Science/Advanced Quantitative Methods and Experiment Design/CH-subject-2.csv","legacy","3 9 7 6 4","Melodramatic Milgram","4.0.5","3","y","0","left","left","left","left","NA","845.0","36325","20403","845","NA","2","legacy","5","1024","2","48000","-16","experiment","2","even","7","218254","215024","216053","3159","136813","216054","172459","3165","116409","220255","221101","217054","39492","220254","NA","Sternberg Task","25","23658.0","26","1024"
"96","96","904","904","#3d3846","experiment","legacy","legacy","legacy","1","undefined","1","right","26","26","26","0","0","26","26","0","0","26","26","26","0","26","0","Sun Oct 15 11:02:45 2023","The main experiment item","False","SternbergTask.osexp","C:\Users\juzal\OneDrive\Documents\Masters of Equine Science\Advanced Quantitative Methods and Experiment Design","False","mono","False","18","no","white","no","yes","768","legacy","14","11","C:/Users/juzal/OneDrive/Documents/Masters of Equine Science/Advanced Quantitative Methods and Experiment Design/CH-subject-2.csv","legacy","6 3 1 7 9 8","Melodramatic Milgram","4.0.5","0","n","0","right","left","left","right","NA","752.0","36325","20403","752","NA","2","legacy","6","1024","2","48000","-16","experiment","2","even","4","224337","221105","222135","3159","136813","222136","172459","3165","116409","226337","227089","223137","39492","226337","NA","Sternberg Task","26","24410.0","27","1024"
"96","96","893","893","#3d3846","experiment","legacy","legacy","legacy","1","undefined","1","left","27","27","27","0","0","27","27","0","0","27","27","27","0","27","0","Sun Oct 15 11:02:45 2023","The main experiment item","False","SternbergTask.osexp","C:\Users\juzal\OneDrive\Documents\Masters of Equine Science\Advanced Quantitative Methods and Experiment Design","False","mono","False","18","no","white","no","yes","768","legacy","15","11","C:/Users/juzal/OneDrive/Documents/Masters of Equine Science/Advanced Quantitative Methods and Experiment Design/CH-subject-2.csv","legacy","3 5 7 1","Melodramatic Milgram","4.0.5","3","y","0","left","left","left","left","NA","598.0","36325","20403","598","NA","2","legacy","4","1024","2","48000","-16","experiment","2","even","7","230363","227094","228161","3159","136813","228162","172459","3165","116409","232363","232962","229162","39492","232363","NA","Sternberg Task","27","25008.0","28","1024"
"96","96","887","887","#3d3846","experiment","legacy","legacy","legacy","1","undefined","1","right","28","28","28","0","0","28","28","0","0","28","28","28","0","28","0","Sun Oct 15 11:02:45 2023","The main experiment item","False","SternbergTask.osexp","C:\Users\juzal\OneDrive\Documents\Masters of Equine Science\Advanced Quantitative Methods and Experiment Design","False","mono","False","18","no","white","no","yes","768","legacy","16","11","C:/Users/juzal/OneDrive/Documents/Masters of Equine Science/Advanced Quantitative Methods and Experiment Design/CH-subject-2.csv","legacy","7 4 2 8 1 9","Melodramatic Milgram","4.0.5","0","n","0","right","left","left","right","NA","732.0","36325","20403","732","NA","2","legacy","6","1024","2","48000","-16","experiment","2","even","5","236198","232966","233997","3159","136813","233998","172459","3165","116409","238198","238930","234998","39492","238198","NA","Sternberg Task","28","25740.0","29","1024"
"96","96","883","883","#3d3846","experiment","legacy","legacy","legacy","1","undefined","1","right","29","29","29","0","0","29","29","0","0","29","29","29","0","29","0","Sun Oct 15 11:02:45 2023","The main experiment item","False","SternbergTask.osexp","C:\Users\juzal\OneDrive\Documents\Masters of Equine Science\Advanced Quantitative Methods and Experiment Design","False","mono","False","18","no","white","no","yes","768","legacy","17","11","C:/Users/juzal/OneDrive/Documents/Masters of Equine Science/Advanced Quantitative Methods and Experiment Design/CH-subject-2.csv","legacy","7 3 2 8","Melodramatic Milgram","4.0.5","0","n","0","right","left","left","right","NA","755.0","36325","20403","755","NA","2","legacy","4","1024","2","48000","-16","experiment","2","even","4","242165","238934","239964","3159","136813","239965","172459","3165","116409","244166","244921","240965","39492","244166","NA","Sternberg Task","29","26495.0","30","1024"
"96","96","877","877","#3d3846","experiment","legacy","legacy","legacy","1","undefined","1","left","30","30","30","0","0","30","30","0","0","30","30","30","0","30","0","Sun Oct 15 11:02:45 2023","The main experiment item","False","SternbergTask.osexp","C:\Users\juzal\OneDrive\Documents\Masters of Equine Science\Advanced Quantitative Methods and Experiment Design","False","mono","False","18","no","white","no","yes","768","legacy","18","11","C:/Users/juzal/OneDrive/Documents/Masters of Equine Science/Advanced Quantitative Methods and Experiment Design/CH-subject-2.csv","legacy","5 2 6","Melodramatic Milgram","4.0.5","2","y","0","left","left","left","left","NA","705.0","36325","20403","705","NA","2","legacy","3","1024","2","48000","-16","experiment","2","even","2","248183","244952","245982","3159","136813","245983","172459","3165","116409","250183","250888","246983","39492","250183","NA","Sternberg Task","30","27200.0","31","1024"
"96","96","866","866","#3d3846","experiment","legacy","legacy","legacy","1","undefined","1","right","31","31","31","0","0","31","31","0","0","31","31","31","0","31","0","Sun Oct 15 11:02:45 2023","The main experiment item","False","SternbergTask.osexp","C:\Users\juzal\OneDrive\Documents\Masters of Equine Science\Advanced Quantitative Methods and Experiment Design","False","mono","False","18","no","white","no","yes","768","legacy","19","11","C:/Users/juzal/OneDrive/Documents/Masters of Equine Science/Advanced Quantitative Methods and Experiment Design/CH-subject-2.csv","legacy","6 9 5","Melodramatic Milgram","4.0.5","0","n","0","right","left","left","right","NA","539.0","36325","20403","539","NA","2","legacy","3","1024","2","48000","-16","experiment","2","even","8","254171","250925","251967","3159","136813","251969","172459","3165","116409","256171","256710","252970","39492","256171","NA","Sternberg Task","31","27739.0","32","1024"
"96","96","870","870","#3d3846","experiment","legacy","legacy","legacy","1","undefined","1","left","32","32","32","0","0","32","32","0","0","32","32","32","0","32","0","Sun Oct 15 11:02:45 2023","The main experiment item","False","SternbergTask.osexp","C:\Users\juzal\OneDrive\Documents\Masters of Equine Science\Advanced Quantitative Methods and Experiment Design","False","mono","False","18","no","white","no","yes","768","legacy","20","11","C:/Users/juzal/OneDrive/Documents/Masters of Equine Science/Advanced Quantitative Methods and Experiment Design/CH-subject-2.csv","legacy","5 2 9 6 1 7","Melodramatic Milgram","4.0.5","3","y","0","left","left","left","left","NA","997.0","36325","20403","997","NA","2","legacy","6","1024","2","48000","-16","experiment","2","even","9","259943","256714","257741","3159","136813","257742","172459","3165","116409","261943","262941","258742","39492","261943","NA","Sternberg Task","32","28736.0","33","1024"
"97","97","863","863","#3d3846","experiment","legacy","legacy","legacy","1","undefined","1","right","33","33","33","0","0","33","33","0","0","33","33","33","0","33","0","Sun Oct 15 11:02:45 2023","The main experiment item","False","SternbergTask.osexp","C:\Users\juzal\OneDrive\Documents\Masters of Equine Science\Advanced Quantitative Methods and Experiment Design","False","mono","False","18","no","white","no","yes","768","legacy","21","11","C:/Users/juzal/OneDrive/Documents/Masters of Equine Science/Advanced Quantitative Methods and Experiment Design/CH-subject-2.csv","legacy","4 2 7 6 1 3","Melodramatic Milgram","4.0.5","0","n","0","right","left","left","right","NA","620.0","36325","20403","620","NA","2","legacy","6","1024","2","48000","-16","experiment","2","even","8","266178","262945","263976","3159","136813","263978","172459","3165","116409","268178","268798","264978","39492","268178","NA","Sternberg Task","33","29356.0","34","1024"
"97","97","858","858","#3d3846","experiment","legacy","legacy","legacy","1","undefined","1","right","34","34","34","0","0","34","34","0","0","34","34","34","0","34","0","Sun Oct 15 11:02:45 2023","The main experiment item","False","SternbergTask.osexp","C:\Users\juzal\OneDrive\Documents\Masters of Equine Science\Advanced Quantitative Methods and Experiment Design","False","mono","False","18","no","white","no","yes","768","legacy","22","11","C:/Users/juzal/OneDrive/Documents/Masters of Equine Science/Advanced Quantitative Methods and Experiment Design/CH-subject-2.csv","legacy","1 4 9 3","Melodramatic Milgram","4.0.5","0","n","0","right","left","left","right","NA","679.0","36325","20403","679","NA","2","legacy","4","1024","2","48000","-16","experiment","2","even","5","272036","268803","269835","3159","136813","269836","172459","3165","116409","274037","274716","270836","39492","274037","NA","Sternberg Task","34","30035.0","35","1024"
"97","97","856","856","#3d3846","experiment","legacy","legacy","legacy","1","undefined","1","right","35","35","35","0","0","35","35","0","0","35","35","35","0","35","0","Sun Oct 15 11:02:45 2023","The main experiment item","False","SternbergTask.osexp","C:\Users\juzal\OneDrive\Documents\Masters of Equine Science\Advanced Quantitative Methods and Experiment Design","False","mono","False","18","no","white","no","yes","768","legacy","23","11","C:/Users/juzal/OneDrive/Documents/Masters of Equine Science/Advanced Quantitative Methods and Experiment Design/CH-subject-2.csv","legacy","9 7 4 5 8","Melodramatic Milgram","4.0.5","0","n","0","right","left","left","right","NA","788.0","36325","20403","788","NA","2","legacy","5","1024","2","48000","-16","experiment","2","even","6","277987","274749","275786","3159","136813","275787","172459","3165","116409","279987","280775","276787","39492","279987","NA","Sternberg Task","35","30823.0","36","1024"
"97","97","867","867","#3d3846","experiment","legacy","legacy","legacy","1","undefined","1","right","36","36","36","0","0","36","36","0","0","36","36","36","0","36","0","Sun Oct 15 11:02:45 2023","The main experiment item","False","SternbergTask.osexp","C:\Users\juzal\OneDrive\Documents\Masters of Equine Science\Advanced Quantitative Methods and Experiment Design","False","mono","False","18","no","white","no","yes","768","legacy","24","11","C:/Users/juzal/OneDrive/Documents/Masters of Equine Science/Advanced Quantitative Methods and Experiment Design/CH-subject-2.csv","legacy","1 6 4","Melodramatic Milgram","4.0.5","0","n","0","right","left","left","right","NA","1291.0","36325","20403","1291","NA","2","legacy","3","1024","2","48000","-16","experiment","2","even","7","284032","280803","281831","3159","136813","281832","172459","3165","116409","286032","287324","282832","39492","286032","NA","Sternberg Task","36","32114.0","37","1024"
"97","97","868","868","#3d3846","experiment","legacy","legacy","legacy","1","undefined","1","right","37","37","37","0","0","37","37","0","0","37","37","37","0","37","0","Sun Oct 15 11:02:45 2023","The main experiment item","False","SternbergTask.osexp","C:\Users\juzal\OneDrive\Documents\Masters of Equine Science\Advanced Quantitative Methods and Experiment Design","False","mono","False","18","no","white","no","yes","768","legacy","25","11","C:/Users/juzal/OneDrive/Documents/Masters of Equine Science/Advanced Quantitative Methods and Experiment Design/CH-subject-2.csv","legacy","5 3 8 7 2 4","Melodramatic Milgram","4.0.5","0","n","0","right","left","left","right","NA","888.0","36325","20403","888","NA","2","legacy","6","1024","2","48000","-16","experiment","2","even","9","290595","287364","288393","3159","136813","288394","172459","3165","116409","292595","293484","289394","39492","292595","NA","Sternberg Task","37","33002.0","38","1024"
"97","97","872","872","#3d3846","experiment","legacy","legacy","legacy","1","undefined","1","left","38","38","38","0","0","38","38","0","0","38","38","38","0","38","0","Sun Oct 15 11:02:45 2023","The main experiment item","False","SternbergTask.osexp","C:\Users\juzal\OneDrive\Documents\Masters of Equine Science\Advanced Quantitative Methods and Experiment Design","False","mono","False","18","no","white","no","yes","768","legacy","26","11","C:/Users/juzal/OneDrive/Documents/Masters of Equine Science/Advanced Quantitative Methods and Experiment Design/CH-subject-2.csv","legacy","3 4","Melodramatic Milgram","4.0.5","1","y","0","left","left","left","left","NA","1021.0","36325","20403","1021","NA","2","legacy","2","1024","2","48000","-16","experiment","2","even","3","296729","293490","294526","3159","136813","294527","172459","3165","116409","298730","299752","295527","39492","298729","NA","Sternberg Task","38","34023.0","39","1024"
"97","97","862","862","#3d3846","experiment","legacy","legacy","legacy","1","undefined","1","right","39","39","39","0","0","39","39","0","0","39","39","39","0","39","0","Sun Oct 15 11:02:45 2023","The main experiment item","False","SternbergTask.osexp","C:\Users\juzal\OneDrive\Documents\Masters of Equine Science\Advanced Quantitative Methods and Experiment Design","False","mono","False","18","no","white","no","yes","768","legacy","27","11","C:/Users/juzal/OneDrive/Documents/Masters of Equine Science/Advanced Quantitative Methods and Experiment Design/CH-subject-2.csv","legacy","3 4 2","Melodramatic Milgram","4.0.5","0","n","0","right","left","left","right","NA","495.0","36325","20403","495","NA","2","legacy","3","1024","2","48000","-16","experiment","2","even","5","303028","299799","300825","3159","136813","300826","172459","3165","116409","305028","305523","301827","39492","305028","NA","Sternberg Task","39","34518.0","40","1024"
"97","97","870","870","#3d3846","experiment","legacy","legacy","legacy","1","undefined","1","right","40","40","40","0","0","40","40","0","0","40","40","40","0","40","0","Sun Oct 15 11:02:45 2023","The main experiment item","False","SternbergTask.osexp","C:\Users\juzal\OneDrive\Documents\Masters of Equine Science\Advanced Quantitative Methods and Experiment Design","False","mono","False","18","no","white","no","yes","768","legacy","28","11","C:/Users/juzal/OneDrive/Documents/Masters of Equine Science/Advanced Quantitative Methods and Experiment Design/CH-subject-2.csv","legacy","3 9 8 1 6 4","Melodramatic Milgram","4.0.5","0","n","0","right","left","left","right","NA","1163.0","36325","20403","1163","NA","2","legacy","6","1024","2","48000","-16","experiment","2","even","7","308775","305546","306573","3159","136813","306573","172459","3165","116409","310775","311938","307574","39492","310775","NA","Sternberg Task","40","35681.0","41","1024"
"97","97","870","870","#3d3846","experiment","legacy","legacy","legacy","1","undefined","1","left","41","41","41","0","0","41","41","0","0","41","41","41","0","41","0","Sun Oct 15 11:02:45 2023","The main experiment item","False","SternbergTask.osexp","C:\Users\juzal\OneDrive\Documents\Masters of Equine Science\Advanced Quantitative Methods and Experiment Design","False","mono","False","18","no","white","no","yes","768","legacy","29","11","C:/Users/juzal/OneDrive/Documents/Masters of Equine Science/Advanced Quantitative Methods and Experiment Design/CH-subject-2.csv","legacy","8 9 5 6 7","Melodramatic Milgram","4.0.5","1","y","0","left","left","left","left","NA","865.0","36325","20403","865","NA","2","legacy","5","1024","2","48000","-16","experiment","2","even","8","315172","311943","312969","3159","136813","312970","172459","3165","116409","317172","318038","313970","39492","317172","NA","Sternberg Task","41","36546.0","42","1024"
"97","97","868","868","#3d3846","experiment","legacy","legacy","legacy","1","undefined","1","right","42","42","42","0","0","42","42","0","0","42","42","42","0","42","0","Sun Oct 15 11:02:45 2023","The main experiment item","False","SternbergTask.osexp","C:\Users\juzal\OneDrive\Documents\Masters of Equine Science\Advanced Quantitative Methods and Experiment Design","False","mono","False","18","no","white","no","yes","768","legacy","30","11","C:/Users/juzal/OneDrive/Documents/Masters of Equine Science/Advanced Quantitative Methods and Experiment Design/CH-subject-2.csv","legacy","1","Melodramatic Milgram","4.0.5","0","n","0","right","left","left","right","NA","794.0","36325","20403","794","NA","2","legacy","1","1024","2","48000","-16","experiment","2","even","7","321292","318063","319089","3159","136813","319090","172459","3165","116409","323292","324087","320091","39492","323292","NA","Sternberg Task","42","37340.0","43","1024"
"97","97","867","867","#3d3846","experiment","legacy","legacy","legacy","1","undefined","1","left","43","43","43","0","0","43","43","0","0","43","43","43","0","43","0","Sun Oct 15 11:02:45 2023","The main experiment item","False","SternbergTask.osexp","C:\Users\juzal\OneDrive\Documents\Masters of Equine Science\Advanced Quantitative Methods and Experiment Design","False","mono","False","18","no","white","no","yes","768","legacy","31","11","C:/Users/juzal/OneDrive/Documents/Masters of Equine Science/Advanced Quantitative Methods and Experiment Design/CH-subject-2.csv","legacy","2 4 8 5 1 3","Melodramatic Milgram","4.0.5","1","y","0","left","left","left","left","NA","808.0","36325","20403","808","NA","2","legacy","6","1024","2","48000","-16","experiment","2","even","2","327357","324126","325155","3159","136813","325155","172459","3165","116409","329357","330166","326156","39492","329357","NA","Sternberg Task","43","38148.0","44","1024"
"97","97","868","868","#3d3846","experiment","legacy","legacy","legacy","1","undefined","1","left","44","44","44","0","0","44","44","0","0","44","44","44","0","44","0","Sun Oct 15 11:02:45 2023","The main experiment item","False","SternbergTask.osexp","C:\Users\juzal\OneDrive\Documents\Masters of Equine Science\Advanced Quantitative Methods and Experiment Design","False","mono","False","18","no","white","no","yes","768","legacy","32","11","C:/Users/juzal/OneDrive/Documents/Masters of Equine Science/Advanced Quantitative Methods and Experiment Design/CH-subject-2.csv","legacy","8 9 6 1","Melodramatic Milgram","4.0.5","2","y","0","left","left","left","left","NA","952.0","36325","20403","952","NA","2","legacy","4","1024","2","48000","-16","experiment","2","even","9","333405","330174","331203","3159","136813","331204","172459","3165","116409","335405","336358","332204","39492","335405","NA","Sternberg Task","44","39100.0","45","1024"
"97","97","863","863","#3d3846","experiment","legacy","legacy","legacy","1","undefined","1","right","45","45","45","0","0","45","45","0","0","45","45","45","0","45","0","Sun Oct 15 11:02:45 2023","The main experiment item","False","SternbergTask.osexp","C:\Users\juzal\OneDrive\Documents\Masters of Equine Science\Advanced Quantitative Methods and Experiment Design","False","mono","False","18","no","white","no","yes","768","legacy","33","11","C:/Users/juzal/OneDrive/Documents/Masters of Equine Science/Advanced Quantitative Methods and Experiment Design/CH-subject-2.csv","legacy","6 9 4 5 2","Melodramatic Milgram","4.0.5","0","n","0","right","left","left","right","NA","631.0","36325","20403","631","NA","2","legacy","5","1024","2","48000","-16","experiment","2","even","1","339631","336403","337429","3159","136813","337430","172459","3165","116409","341631","342263","338430","39492","341631","NA","Sternberg Task","45","39731.0","46","1024"
"97","97","864","864","#3d3846","experiment","legacy","legacy","legacy","1","undefined","1","left","46","46","46","0","0","46","46","0","0","46","46","46","0","46","0","Sun Oct 15 11:02:45 2023","The main experiment item","False","SternbergTask.osexp","C:\Users\juzal\OneDrive\Documents\Masters of Equine Science\Advanced Quantitative Methods and Experiment Design","False","mono","False","18","no","white","no","yes","768","legacy","34","11","C:/Users/juzal/OneDrive/Documents/Masters of Equine Science/Advanced Quantitative Methods and Experiment Design/CH-subject-2.csv","legacy","7","Melodramatic Milgram","4.0.5","1","y","0","left","left","left","left","NA","908.0","36325","20403","908","NA","2","legacy","1","1024","2","48000","-16","experiment","2","even","7","345535","342299","343331","3159","136813","343332","172459","3165","116409","347535","348444","344334","39492","347535","NA","Sternberg Task","46","40639.0","47","1024"
"97","97","865","865","#3d3846","experiment","legacy","legacy","legacy","1","undefined","1","left","47","47","47","0","0","47","47","0","0","47","47","47","0","47","0","Sun Oct 15 11:02:45 2023","The main experiment item","False","SternbergTask.osexp","C:\Users\juzal\OneDrive\Documents\Masters of Equine Science\Advanced Quantitative Methods and Experiment Design","False","mono","False","18","no","white","no","yes","768","legacy","35","11","C:/Users/juzal/OneDrive/Documents/Masters of Equine Science/Advanced Quantitative Methods and Experiment Design/CH-subject-2.csv","legacy","7 4 2 6 3 5","Melodramatic Milgram","4.0.5","6","y","0","left","left","left","left","NA","890.0","36325","20403","890","NA","2","legacy","6","1024","2","48000","-16","experiment","2","even","5","351720","348493","349518","3159","136813","349519","172459","3165","116409","353721","354611","350519","39492","353720","NA","Sternberg Task","47","41529.0","48","1024"
"97","97","867","867","#3d3846","experiment","legacy","legacy","legacy","1","undefined","1","right","48","48","48","0","0","48","48","0","0","48","48","48","0","48","0","Sun Oct 15 11:02:45 2023","The main experiment item","False","SternbergTask.osexp","C:\Users\juzal\OneDrive\Documents\Masters of Equine Science\Advanced Quantitative Methods and Experiment Design","False","mono","False","18","no","white","no","yes","768","legacy","36","11","C:/Users/juzal/OneDrive/Documents/Masters of Equine Science/Advanced Quantitative Methods and Experiment Design/CH-subject-2.csv","legacy","6 2 9 3 8 4","Melodramatic Milgram","4.0.5","0","n","0","right","left","left","right","NA","980.0","36325","20403","980","NA","2","legacy","6","1024","2","48000","-16","experiment","2","even","1","357845","354616","355642","3159","136813","355643","172459","3165","116409","359845","360826","356644","39492","359845","NA","Sternberg Task","48","42509.0","49","1024"
"98","98","875","875","#3d3846","experiment","legacy","legacy","legacy","1","undefined","1","right","49","49","49","0","0","49","49","0","0","49","49","49","0","49","0","Sun Oct 15 11:02:45 2023","The main experiment item","False","SternbergTask.osexp","C:\Users\juzal\OneDrive\Documents\Masters of Equine Science\Advanced Quantitative Methods and Experiment Design","False","mono","False","18","no","white","no","yes","768","legacy","37","11","C:/Users/juzal/OneDrive/Documents/Masters of Equine Science/Advanced Quantitative Methods and Experiment Design/CH-subject-2.csv","legacy","3 4 9 6 7 8","Melodramatic Milgram","4.0.5","0","n","0","right","left","left","right","NA","1285.0","36325","20403","1285","NA","2","legacy","6","1024","2","48000","-16","experiment","2","even","2","364078","360851","361877","3159","136813","361877","172459","3165","116409","366078","367363","362877","39492","366078","NA","Sternberg Task","49","43794.0","50","1024"
"96","96","882","882","#3d3846","experiment","legacy","legacy","legacy","0","undefined","0","right","50","50","50","0","0","50","50","0","0","50","50","50","0","50","0","Sun Oct 15 11:02:45 2023","The main experiment item","False","SternbergTask.osexp","C:\Users\juzal\OneDrive\Documents\Masters of Equine Science\Advanced Quantitative Methods and Experiment Design","False","mono","False","18","no","white","no","yes","768","legacy","38","11","C:/Users/juzal/OneDrive/Documents/Masters of Equine Science/Advanced Quantitative Methods and Experiment Design/CH-subject-2.csv","legacy","7 6 4 8 1 2","Melodramatic Milgram","4.0.5","0","n","0","left","left","left","left","NA","1192.0","36325","20403","1192","NA","2","legacy","6","1024","2","48000","-16","experiment","2","even","9","370618","367389","368415","3159","136813","368417","172459","3165","116409","372618","373811","369417","39492","372618","NA","Sternberg Task","49","44986.0","51","1024"
"96","96","888","888","#3d3846","experiment","legacy","legacy","legacy","1","undefined","1","left","51","51","51","0","0","51","51","0","0","51","51","51","0","51","0","Sun Oct 15 11:02:45 2023","The main experiment item","False","SternbergTask.osexp","C:\Users\juzal\OneDrive\Documents\Masters of Equine Science\Advanced Quantitative Methods and Experiment Design","False","mono","False","18","no","white","no","yes","768","legacy","39","11","C:/Users/juzal/OneDrive/Documents/Masters of Equine Science/Advanced Quantitative Methods and Experiment Design/CH-subject-2.csv","legacy","5 7 8 2 3 8","Melodramatic Milgram","4.0.5","5","y","0","left","left","left","left","NA","1229.0","36325","20403","1229","NA","2","legacy","6","1024","2","48000","-16","experiment","2","even","3","377078","367389","374876","3159","136813","374876","373850","3165","116409","379078","380307","375877","39492","379078","NA","Sternberg Task","50","46215.0","52","1024"
"96","96","891","891","#3d3846","experiment","legacy","legacy","legacy","1","undefined","1","left","52","52","52","0","0","52","52","0","0","52","52","52","0","52","0","Sun Oct 15 11:02:45 2023","The main experiment item","False","SternbergTask.osexp","C:\Users\juzal\OneDrive\Documents\Masters of Equine Science\Advanced Quantitative Methods and Experiment Design","False","mono","False","18","no","white","no","yes","768","legacy","40","11","C:/Users/juzal/OneDrive/Documents/Masters of Equine Science/Advanced Quantitative Methods and Experiment Design/CH-subject-2.csv","legacy","4 6 2 5 1","Melodramatic Milgram","4.0.5","5","y","0","left","left","left","left","NA","1036.0","36325","20403","1036","NA","2","legacy","5","1024","2","48000","-16","experiment","2","even","1","383580","380350","381377","3159","136813","381378","373850","3165","116409","385580","386617","382379","39492","385580","NA","Sternberg Task","51","47251.0","53","1024"
"96","96","893","893","#3d3846","experiment","legacy","legacy","legacy","1","undefined","1","left","53","53","53","0","0","53","53","0","0","53","53","53","0","53","0","Sun Oct 15 11:02:45 2023","The main experiment item","False","SternbergTask.osexp","C:\Users\juzal\OneDrive\Documents\Masters of Equine Science\Advanced Quantitative Methods and Experiment Design","False","mono","False","18","no","white","no","yes","768","legacy","41","11","C:/Users/juzal/OneDrive/Documents/Masters of Equine Science/Advanced Quantitative Methods and Experiment Design/CH-subject-2.csv","legacy","6 8 9 3 4 9","Melodramatic Milgram","4.0.5","5","y","0","left","left","left","left","NA","994.0","36325","20403","994","NA","2","legacy","6","1024","2","48000","-16","experiment","2","even","4","389892","386656","387689","3159","136813","387690","373850","3165","116409","391892","392887","388691","39492","391892","NA","Sternberg Task","52","48245.0","54","1024"
"96","96","888","888","#3d3846","experiment","legacy","legacy","legacy","1","undefined","1","left","54","54","54","0","0","54","54","0","0","54","54","54","0","54","0","Sun Oct 15 11:02:45 2023","The main experiment item","False","SternbergTask.osexp","C:\Users\juzal\OneDrive\Documents\Masters of Equine Science\Advanced Quantitative Methods and Experiment Design","False","mono","False","18","no","white","no","yes","768","legacy","42","11","C:/Users/juzal/OneDrive/Documents/Masters of Equine Science/Advanced Quantitative Methods and Experiment Design/CH-subject-2.csv","legacy","3 5 9 6 2 4","Melodramatic Milgram","4.0.5","1","y","0","left","left","left","left","NA","611.0","36325","20403","611","NA","2","legacy","6","1024","2","48000","-16","experiment","2","even","3","396162","392934","393960","3159","136813","393961","373850","3165","116409","398162","398773","394961","39492","398162","NA","Sternberg Task","53","48856.0","55","1024"
"96","96","886","886","#3d3846","experiment","legacy","legacy","legacy","1","undefined","1","left","55","55","55","0","0","55","55","0","0","55","55","55","0","55","0","Sun Oct 15 11:02:45 2023","The main experiment item","False","SternbergTask.osexp","C:\Users\juzal\OneDrive\Documents\Masters of Equine Science\Advanced Quantitative Methods and Experiment Design","False","mono","False","18","no","white","no","yes","768","legacy","43","11","C:/Users/juzal/OneDrive/Documents/Masters of Equine Science/Advanced Quantitative Methods and Experiment Design/CH-subject-2.csv","legacy","6 7 9 3 1 2","Melodramatic Milgram","4.0.5","1","y","0","left","left","left","left","NA","809.0","36325","20403","809","NA","2","legacy","6","1024","2","48000","-16","experiment","2","even","6","402051","398822","399848","3159","136813","399849","373850","3165","116409","404051","404861","400850","39492","404051","NA","Sternberg Task","54","49665.0","56","1024"
"96","96","882","882","#3d3846","experiment","legacy","legacy","legacy","1","undefined","1","left","56","56","56","0","0","56","56","0","0","56","56","56","0","56","0","Sun Oct 15 11:02:45 2023","The main experiment item","False","SternbergTask.osexp","C:\Users\juzal\OneDrive\Documents\Masters of Equine Science\Advanced Quantitative Methods and Experiment Design","False","mono","False","18","no","white","no","yes","768","legacy","44","11","C:/Users/juzal/OneDrive/Documents/Masters of Equine Science/Advanced Quantitative Methods and Experiment Design/CH-subject-2.csv","legacy","4 9 7 8 5 3","Melodramatic Milgram","4.0.5","4","y","0","left","left","left","left","NA","651.0","36325","20403","651","NA","2","legacy","6","1024","2","48000","-16","experiment","2","even","8","408126","404893","405923","3159","136813","405924","373850","3165","116409","410126","410778","406925","39492","410126","NA","Sternberg Task","55","50316.0","57","1024"
"96","96","883","883","#3d3846","experiment","legacy","legacy","legacy","1","undefined","1","right","57","57","57","0","0","57","57","0","0","57","57","57","0","57","0","Sun Oct 15 11:02:45 2023","The main experiment item","False","SternbergTask.osexp","C:\Users\juzal\OneDrive\Documents\Masters of Equine Science\Advanced Quantitative Methods and Experiment Design","False","mono","False","18","no","white","no","yes","768","legacy","45","11","C:/Users/juzal/OneDrive/Documents/Masters of Equine Science/Advanced Quantitative Methods and Experiment Design/CH-subject-2.csv","legacy","5","Melodramatic Milgram","4.0.5","0","n","0","right","left","left","right","NA","902.0","36325","20403","902","NA","2","legacy","1","1024","2","48000","-16","experiment","2","even","8","414012","410783","411808","3159","136813","411810","373850","3165","116409","416012","416915","412811","39492","416012","NA","Sternberg Task","56","51218.0","58","1024"
"96","96","885","885","#3d3846","experiment","legacy","legacy","legacy","1","undefined","1","right","58","58","58","0","0","58","58","0","0","58","58","58","0","58","0","Sun Oct 15 11:02:45 2023","The main experiment item","False","SternbergTask.osexp","C:\Users\juzal\OneDrive\Documents\Masters of Equine Science\Advanced Quantitative Methods and Experiment Design","False","mono","False","18","no","white","no","yes","768","legacy","46","11","C:/Users/juzal/OneDrive/Documents/Masters of Equine Science/Advanced Quantitative Methods and Experiment Design/CH-subject-2.csv","legacy","1 7 5 2","Melodramatic Milgram","4.0.5","0","n","0","right","left","left","right","NA","1055.0","36325","20403","1055","NA","2","legacy","4","1024","2","48000","-16","experiment","2","even","3","420170","416943","417969","3159","136813","417969","373850","3165","116409","422171","423227","418969","39492","422170","NA","Sternberg Task","57","52273.0","59","1024"
"96","96","887","887","#3d3846","experiment","legacy","legacy","legacy","1","undefined","1","right","59","59","59","0","0","59","59","0","0","59","59","59","0","59","0","Sun Oct 15 11:02:45 2023","The main experiment item","False","SternbergTask.osexp","C:\Users\juzal\OneDrive\Documents\Masters of Equine Science\Advanced Quantitative Methods and Experiment Design","False","mono","False","18","no","white","no","yes","768","legacy","47","11","C:/Users/juzal/OneDrive/Documents/Masters of Equine Science/Advanced Quantitative Methods and Experiment Design/CH-subject-2.csv","legacy","7 9 1 6","Melodramatic Milgram","4.0.5","0","n","0","right","left","left","right","NA","964.0","36325","20403","964","NA","2","legacy","4","1024","2","48000","-16","experiment","2","even","4","426504","423276","424302","3159","136813","424302","373850","3165","116409","428504","429468","425303","39492","428504","NA","Sternberg Task","58","53237.0","60","1024"
"96","96","883","883","#3d3846","experiment","legacy","legacy","legacy","1","undefined","1","left","60","60","60","0","0","60","60","0","0","60","60","60","0","60","0","Sun Oct 15 11:02:45 2023","The main experiment item","False","SternbergTask.osexp","C:\Users\juzal\OneDrive\Documents\Masters of Equine Science\Advanced Quantitative Methods and Experiment Design","False","mono","False","18","no","white","no","yes","768","legacy","48","11","C:/Users/juzal/OneDrive/Documents/Masters of Equine Science/Advanced Quantitative Methods and Experiment Design/CH-subject-2.csv","legacy","2 3","Melodramatic Milgram","4.0.5","1","y","0","left","left","left","left","NA","662.0","36325","20403","662","NA","2","legacy","2","1024","2","48000","-16","experiment","2","even","2","432722","429493","430520","3159","136813","430521","373850","3165","116409","434722","435384","431521","39492","434722","NA","Sternberg Task","59","53899.0","61","1024"
"96","96","881","881","#3d3846","experiment","legacy","legacy","legacy","1","undefined","1","right","61","61","61","0","0","61","61","0","0","61","61","61","0","61","0","Sun Oct 15 11:02:45 2023","The main experiment item","False","SternbergTask.osexp","C:\Users\juzal\OneDrive\Documents\Masters of Equine Science\Advanced Quantitative Methods and Experiment Design","False","mono","False","18","no","white","no","yes","768","legacy","49","11","C:/Users/juzal/OneDrive/Documents/Masters of Equine Science/Advanced Quantitative Methods and Experiment Design/CH-subject-2.csv","legacy","5 9 2 3","Melodramatic Milgram","4.0.5","0","n","0","right","left","left","right","NA","775.0","36325","20403","775","NA","2","legacy","4","1024","2","48000","-16","experiment","2","even","8","438645","435410","436443","3159","136813","436444","373850","3165","116409","440646","441422","437444","39492","440645","NA","Sternberg Task","60","54674.0","62","1024"
"96","96","884","884","#3d3846","experiment","legacy","legacy","legacy","1","undefined","1","right","62","62","62","0","0","62","62","0","0","62","62","62","0","62","0","Sun Oct 15 11:02:45 2023","The main experiment item","False","SternbergTask.osexp","C:\Users\juzal\OneDrive\Documents\Masters of Equine Science\Advanced Quantitative Methods and Experiment Design","False","mono","False","18","no","white","no","yes","768","legacy","50","11","C:/Users/juzal/OneDrive/Documents/Masters of Equine Science/Advanced Quantitative Methods and Experiment Design/CH-subject-2.csv","legacy","1 4 3 6 5","Melodramatic Milgram","4.0.5","0","n","0","right","left","left","right","NA","1049.0","36325","20403","1049","NA","2","legacy","5","1024","2","48000","-16","experiment","2","even","8","444692","441463","442489","3159","136813","442490","373850","3165","116409","446692","447742","443491","39492","446692","NA","Sternberg Task","61","55723.0","63","1024"
"96","96","879","879","#3d3846","experiment","legacy","legacy","legacy","1","undefined","1","right","63","63","63","0","0","63","63","0","0","63","63","63","0","63","0","Sun Oct 15 11:02:45 2023","The main experiment item","False","SternbergTask.osexp","C:\Users\juzal\OneDrive\Documents\Masters of Equine Science\Advanced Quantitative Methods and Experiment Design","False","mono","False","18","no","white","no","yes","768","legacy","51","11","C:/Users/juzal/OneDrive/Documents/Masters of Equine Science/Advanced Quantitative Methods and Experiment Design/CH-subject-2.csv","legacy","6 8 4","Melodramatic Milgram","4.0.5","0","n","0","right","left","left","right","NA","590.0","36325","20403","590","NA","2","legacy","3","1024","2","48000","-16","experiment","2","even","1","451012","447783","448810","3159","136813","448811","373850","3165","116409","453012","453603","449811","39492","453012","NA","Sternberg Task","62","56313.0","64","1024"
"96","96","882","882","#3d3846","experiment","legacy","legacy","legacy","1","undefined","1","right","64","64","64","0","0","64","64","0","0","64","64","64","0","64","0","Sun Oct 15 11:02:45 2023","The main experiment item","False","SternbergTask.osexp","C:\Users\juzal\OneDrive\Documents\Masters of Equine Science\Advanced Quantitative Methods and Experiment Design","False","mono","False","18","no","white","no","yes","768","legacy","52","11","C:/Users/juzal/OneDrive/Documents/Masters of Equine Science/Advanced Quantitative Methods and Experiment Design/CH-subject-2.csv","legacy","1 6 4 3 9 7","Melodramatic Milgram","4.0.5","0","n","0","right","left","left","right","NA","1073.0","36325","20403","1073","NA","2","legacy","6","1024","2","48000","-16","experiment","2","even","8","456882","453650","454679","3159","136813","454680","373850","3165","116409","458883","459957","455681","39492","458883","NA","Sternberg Task","63","57386.0","65","1024"
"96","96","883","883","#3d3846","experiment","legacy","legacy","legacy","1","undefined","1","right","65","65","65","0","0","65","65","0","0","65","65","65","0","65","0","Sun Oct 15 11:02:45 2023","The main experiment item","False","SternbergTask.osexp","C:\Users\juzal\OneDrive\Documents\Masters of Equine Science\Advanced Quantitative Methods and Experiment Design","False","mono","False","18","no","white","no","yes","768","legacy","53","11","C:/Users/juzal/OneDrive/Documents/Masters of Equine Science/Advanced Quantitative Methods and Experiment Design/CH-subject-2.csv","legacy","7 1 8 4 9 3","Melodramatic Milgram","4.0.5","0","n","0","right","left","left","right","NA","935.0","36325","20403","935","NA","2","legacy","6","1024","2","48000","-16","experiment","2","even","6","463235","460005","461033","3159","136813","461034","373850","3165","116409","465235","466171","462034","39492","465235","NA","Sternberg Task","64","58321.0","66","1024"
"97","97","881","881","#3d3846","experiment","legacy","legacy","legacy","1","undefined","1","right","66","66","66","0","0","66","66","0","0","66","66","66","0","66","0","Sun Oct 15 11:02:45 2023","The main experiment item","False","SternbergTask.osexp","C:\Users\juzal\OneDrive\Documents\Masters of Equine Science\Advanced Quantitative Methods and Experiment Design","False","mono","False","18","no","white","no","yes","768","legacy","54","11","C:/Users/juzal/OneDrive/Documents/Masters of Equine Science/Advanced Quantitative Methods and Experiment Design/CH-subject-2.csv","legacy","2 8 9 4 1","Melodramatic Milgram","4.0.5","0","n","0","right","left","left","right","NA","767.0","36325","20403","767","NA","2","legacy","5","1024","2","48000","-16","experiment","2","even","5","469447","466219","467246","3159","136813","467246","373850","3165","116409","471448","472216","468246","39492","471447","NA","Sternberg Task","65","59088.0","67","1024"
"97","97","880","880","#3d3846","experiment","legacy","legacy","legacy","1","undefined","1","right","67","67","67","0","0","67","67","0","0","67","67","67","0","67","0","Sun Oct 15 11:02:45 2023","The main experiment item","False","SternbergTask.osexp","C:\Users\juzal\OneDrive\Documents\Masters of Equine Science\Advanced Quantitative Methods and Experiment Design","False","mono","False","18","no","white","no","yes","768","legacy","55","11","C:/Users/juzal/OneDrive/Documents/Masters of Equine Science/Advanced Quantitative Methods and Experiment Design/CH-subject-2.csv","legacy","2 8 6 3 1","Melodramatic Milgram","4.0.5","0","n","0","right","left","left","right","NA","768.0","36325","20403","768","NA","2","legacy","5","1024","2","48000","-16","experiment","2","even","7","475495","472265","473293","3159","136813","473294","373850","3165","116409","477495","478264","474294","39492","477495","NA","Sternberg Task","66","59856.0","68","1024"
"97","97","879","879","#3d3846","experiment","legacy","legacy","legacy","1","undefined","1","right","68","68","68","0","0","68","68","0","0","68","68","68","0","68","0","Sun Oct 15 11:02:45 2023","The main experiment item","False","SternbergTask.osexp","C:\Users\juzal\OneDrive\Documents\Masters of Equine Science\Advanced Quantitative Methods and Experiment Design","False","mono","False","18","no","white","no","yes","768","legacy","56","11","C:/Users/juzal/OneDrive/Documents/Masters of Equine Science/Advanced Quantitative Methods and Experiment Design/CH-subject-2.csv","legacy","6 9 7 3 8 2","Melodramatic Milgram","4.0.5","0","n","0","right","left","left","right","NA","801.0","36325","20403","801","NA","2","legacy","6","1024","2","48000","-16","experiment","2","even","5","481548","478290","479345","3159","136813","479346","373850","3165","116409","483549","484351","480347","39492","483549","NA","Sternberg Task","67","60657.0","69","1024"
"95","95","885","885","#3d3846","experiment","legacy","legacy","legacy","0","undefined","0","left","69","69","69","0","0","69","69","0","0","69","69","69","0","69","0","Sun Oct 15 11:02:45 2023","The main experiment item","False","SternbergTask.osexp","C:\Users\juzal\OneDrive\Documents\Masters of Equine Science\Advanced Quantitative Methods and Experiment Design","False","mono","False","18","no","white","no","yes","768","legacy","57","11","C:/Users/juzal/OneDrive/Documents/Masters of Equine Science/Advanced Quantitative Methods and Experiment Design/CH-subject-2.csv","legacy","7 1 8 5 6 2","Melodramatic Milgram","4.0.5","2","y","0","right","left","left","right","NA","1344.0","36325","20403","1344","NA","2","legacy","6","1024","2","48000","-16","experiment","2","even","1","487585","484355","485382","3159","136813","485383","373850","3165","116409","489585","490930","486383","39492","489585","NA","Sternberg Task","67","62001.0","70","1024"
"94","94","886","886","#3d3846","experiment","legacy","legacy","legacy","0","undefined","0","left","70","70","70","0","0","70","70","0","0","70","70","70","0","70","0","Sun Oct 15 11:02:45 2023","The main experiment item","False","SternbergTask.osexp","C:\Users\juzal\OneDrive\Documents\Masters of Equine Science\Advanced Quantitative Methods and Experiment Design","False","mono","False","18","no","white","no","yes","768","legacy","58","11","C:/Users/juzal/OneDrive/Documents/Masters of Equine Science/Advanced Quantitative Methods and Experiment Design/CH-subject-2.csv","legacy","5 7 3 6 2","Melodramatic Milgram","4.0.5","5","y","0","right","left","left","right","NA","912.0","36325","20403","912","NA","2","legacy","5","1024","2","48000","-16","experiment","2","even","2","494165","484355","491963","3159","136813","491963","490935","3165","116409","496165","497077","492964","39492","496165","NA","Sternberg Task","67","62913.0","71","1024"
"93","93","892","892","#3d3846","experiment","legacy","legacy","legacy","0","undefined","0","left","71","71","71","0","0","71","71","0","0","71","71","71","0","71","0","Sun Oct 15 11:02:45 2023","The main experiment item","False","SternbergTask.osexp","C:\Users\juzal\OneDrive\Documents\Masters of Equine Science\Advanced Quantitative Methods and Experiment Design","False","mono","False","18","no","white","no","yes","768","legacy","59","11","C:/Users/juzal/OneDrive/Documents/Masters of Equine Science/Advanced Quantitative Methods and Experiment Design/CH-subject-2.csv","legacy","7 1 3","Melodramatic Milgram","4.0.5","2","y","0","right","left","left","right","NA","1316.0","36325","20403","1316","NA","2","legacy","3","1024","2","48000","-16","experiment","2","even","1","500336","484355","498134","3159","136813","498135","497105","3165","116409","502336","503653","499135","39492","502336","NA","Sternberg Task","67","64229.0","72","1024"
"93","93","891","891","#3d3846","experiment","legacy","legacy","legacy","1","undefined","1","left","72","72","72","0","0","72","72","0","0","72","72","72","0","72","0","Sun Oct 15 11:02:45 2023","The main experiment item","False","SternbergTask.osexp","C:\Users\juzal\OneDrive\Documents\Masters of Equine Science\Advanced Quantitative Methods and Experiment Design","False","mono","False","18","no","white","no","yes","768","legacy","60","11","C:/Users/juzal/OneDrive/Documents/Masters of Equine Science/Advanced Quantitative Methods and Experiment Design/CH-subject-2.csv","legacy","8","Melodramatic Milgram","4.0.5","1","y","0","left","left","left","left","NA","851.0","36325","20403","851","NA","2","legacy","1","1024","2","48000","-16","experiment","2","even","8","506932","484355","504728","3159","136813","504730","503701","3165","116409","508932","509783","505731","39492","508932","NA","Sternberg Task","68","65080.0","73","1024"
"93","93","888","888","#3d3846","experiment","legacy","legacy","legacy","1","undefined","1","right","73","73","73","0","0","73","73","0","0","73","73","73","0","73","0","Sun Oct 15 11:02:45 2023","The main experiment item","False","SternbergTask.osexp","C:\Users\juzal\OneDrive\Documents\Masters of Equine Science\Advanced Quantitative Methods and Experiment Design","False","mono","False","18","no","white","no","yes","768","legacy","61","11","C:/Users/juzal/OneDrive/Documents/Masters of Equine Science/Advanced Quantitative Methods and Experiment Design/CH-subject-2.csv","legacy","9 8 2 7 4","Melodramatic Milgram","4.0.5","0","n","0","right","left","left","right","NA","700.0","36325","20403","700","NA","2","legacy","5","1024","2","48000","-16","experiment","2","even","5","513059","509829","510856","3159","136813","510856","503701","3165","116409","515060","515760","511857","39492","515060","NA","Sternberg Task","69","65780.0","74","1024"
"93","93","886","886","#3d3846","experiment","legacy","legacy","legacy","1","undefined","1","right","74","74","74","0","0","74","74","0","0","74","74","74","0","74","0","Sun Oct 15 11:02:45 2023","The main experiment item","False","SternbergTask.osexp","C:\Users\juzal\OneDrive\Documents\Masters of Equine Science\Advanced Quantitative Methods and Experiment Design","False","mono","False","18","no","white","no","yes","768","legacy","62","11","C:/Users/juzal/OneDrive/Documents/Masters of Equine Science/Advanced Quantitative Methods and Experiment Design/CH-subject-2.csv","legacy","1 8 7","Melodramatic Milgram","4.0.5","0","n","0","right","left","left","right","NA","740.0","36325","20403","740","NA","2","legacy","3","1024","2","48000","-16","experiment","2","even","4","519037","515810","516835","3159","136813","516836","503701","3165","116409","521037","521778","517836","39492","521037","NA","Sternberg Task","70","66520.0","75","1024"
"93","93","886","886","#3d3846","experiment","legacy","legacy","legacy","1","undefined","1","right","75","75","75","0","0","75","75","0","0","75","75","75","0","75","0","Sun Oct 15 11:02:45 2023","The main experiment item","False","SternbergTask.osexp","C:\Users\juzal\OneDrive\Documents\Masters of Equine Science\Advanced Quantitative Methods and Experiment Design","False","mono","False","18","no","white","no","yes","768","legacy","63","11","C:/Users/juzal/OneDrive/Documents/Masters of Equine Science/Advanced Quantitative Methods and Experiment Design/CH-subject-2.csv","legacy","8 4 3 5","Melodramatic Milgram","4.0.5","0","n","0","right","left","left","right","NA","829.0","36325","20403","829","NA","2","legacy","4","1024","2","48000","-16","experiment","2","even","6","525057","521828","522854","3159","136813","522855","503701","3165","116409","527057","527887","523856","39492","527057","NA","Sternberg Task","71","67349.0","76","1024"
"93","93","887","887","#3d3846","experiment","legacy","legacy","legacy","1","undefined","1","left","76","76","76","0","0","76","76","0","0","76","76","76","0","76","0","Sun Oct 15 11:02:45 2023","The main experiment item","False","SternbergTask.osexp","C:\Users\juzal\OneDrive\Documents\Masters of Equine Science\Advanced Quantitative Methods and Experiment Design","False","mono","False","18","no","white","no","yes","768","legacy","64","11","C:/Users/juzal/OneDrive/Documents/Masters of Equine Science/Advanced Quantitative Methods and Experiment Design/CH-subject-2.csv","legacy","2 4 6 9","Melodramatic Milgram","4.0.5","3","y","0","left","left","left","left","NA","994.0","36325","20403","994","NA","2","legacy","4","1024","2","48000","-16","experiment","2","even","6","531154","527920","528952","3159","136813","528953","503701","3165","116409","533154","534150","529953","39492","533154","NA","Sternberg Task","72","68343.0","77","1024"
"93","93","888","888","#3d3846","experiment","legacy","legacy","legacy","1","undefined","1","right","77","77","77","0","0","77","77","0","0","77","77","77","0","77","0","Sun Oct 15 11:02:45 2023","The main experiment item","False","SternbergTask.osexp","C:\Users\juzal\OneDrive\Documents\Masters of Equine Science\Advanced Quantitative Methods and Experiment Design","False","mono","False","18","no","white","no","yes","768","legacy","65","11","C:/Users/juzal/OneDrive/Documents/Masters of Equine Science/Advanced Quantitative Methods and Experiment Design/CH-subject-2.csv","legacy","2 8 7 9 5 3","Melodramatic Milgram","4.0.5","0","n","0","right","left","left","right","NA","958.0","36325","20403","958","NA","2","legacy","6","1024","2","48000","-16","experiment","2","even","6","537421","534192","535219","3159","136813","535219","503701","3165","116409","539421","540380","536221","39492","539421","NA","Sternberg Task","73","69301.0","78","1024"
"93","93","884","884","#3d3846","experiment","legacy","legacy","legacy","1","undefined","1","left","78","78","78","0","0","78","78","0","0","78","78","78","0","78","0","Sun Oct 15 11:02:45 2023","The main experiment item","False","SternbergTask.osexp","C:\Users\juzal\OneDrive\Documents\Masters of Equine Science\Advanced Quantitative Methods and Experiment Design","False","mono","False","18","no","white","no","yes","768","legacy","66","11","C:/Users/juzal/OneDrive/Documents/Masters of Equine Science/Advanced Quantitative Methods and Experiment Design/CH-subject-2.csv","legacy","4","Melodramatic Milgram","4.0.5","1","y","0","left","left","left","left","NA","597.0","36325","20403","597","NA","2","legacy","1","1024","2","48000","-16","experiment","2","even","4","543647","540417","541445","3159","136813","541445","503701","3165","116409","545648","546247","542446","39492","545648","NA","Sternberg Task","74","69898.0","79","1024"
"93","93","884","884","#3d3846","experiment","legacy","legacy","legacy","1","undefined","1","left","79","79","79","0","0","79","79","0","0","79","79","79","0","79","0","Sun Oct 15 11:02:45 2023","The main experiment item","False","SternbergTask.osexp","C:\Users\juzal\OneDrive\Documents\Masters of Equine Science\Advanced Quantitative Methods and Experiment Design","False","mono","False","18","no","white","no","yes","768","legacy","67","11","C:/Users/juzal/OneDrive/Documents/Masters of Equine Science/Advanced Quantitative Methods and Experiment Design/CH-subject-2.csv","legacy","9 3 8 2 1 4","Melodramatic Milgram","4.0.5","3","y","0","left","left","left","left","NA","896.0","36325","20403","896","NA","2","legacy","6","1024","2","48000","-16","experiment","2","even","8","549521","546290","547318","3159","136813","547319","503701","3165","116409","551521","552418","548320","39492","551521","NA","Sternberg Task","75","70794.0","80","1024"
"93","93","883","883","#3d3846","experiment","legacy","legacy","legacy","1","undefined","1","left","80","80","80","0","0","80","80","0","0","80","80","80","0","80","0","Sun Oct 15 11:02:45 2023","The main experiment item","False","SternbergTask.osexp","C:\Users\juzal\OneDrive\Documents\Masters of Equine Science\Advanced Quantitative Methods and Experiment Design","False","mono","False","18","no","white","no","yes","768","legacy","68","11","C:/Users/juzal/OneDrive/Documents/Masters of Equine Science/Advanced Quantitative Methods and Experiment Design/CH-subject-2.csv","legacy","4 1 5","Melodramatic Milgram","4.0.5","2","y","0","left","left","left","left","NA","775.0","36325","20403","775","NA","2","legacy","3","1024","2","48000","-16","experiment","2","even","1","555675","552443","553472","3159","136813","553473","503701","3165","116409","557675","558451","554474","39492","557675","NA","Sternberg Task","76","71569.0","81","1024"
"93","93","879","879","#3d3846","experiment","legacy","legacy","legacy","1","undefined","1","left","81","81","81","0","0","81","81","0","0","81","81","81","0","81","0","Sun Oct 15 11:02:45 2023","The main experiment item","False","SternbergTask.osexp","C:\Users\juzal\OneDrive\Documents\Masters of Equine Science\Advanced Quantitative Methods and Experiment Design","False","mono","False","18","no","white","no","yes","768","legacy","69","11","C:/Users/juzal/OneDrive/Documents/Masters of Equine Science/Advanced Quantitative Methods and Experiment Design/CH-subject-2.csv","legacy","6 2","Melodramatic Milgram","4.0.5","1","y","0","left","left","left","left","NA","543.0","36325","20403","543","NA","2","legacy","2","1024","2","48000","-16","experiment","2","even","6","561727","558493","559525","3159","136813","559526","503701","3165","116409","563728","564272","560526","39492","563728","NA","Sternberg Task","77","72112.0","82","1024"
"93","93","878","878","#3d3846","experiment","legacy","legacy","legacy","1","undefined","1","right","82","82","82","0","0","82","82","0","0","82","82","82","0","82","0","Sun Oct 15 11:02:45 2023","The main experiment item","False","SternbergTask.osexp","C:\Users\juzal\OneDrive\Documents\Masters of Equine Science\Advanced Quantitative Methods and Experiment Design","False","mono","False","18","no","white","no","yes","768","legacy","70","11","C:/Users/juzal/OneDrive/Documents/Masters of Equine Science/Advanced Quantitative Methods and Experiment Design/CH-subject-2.csv","legacy","4 8 1 2","Melodramatic Milgram","4.0.5","0","n","0","right","left","left","right","NA","786.0","36325","20403","786","NA","2","legacy","4","1024","2","48000","-16","experiment","2","even","7","567545","564314","565342","3159","136813","565343","503701","3165","116409","569545","570332","566344","39492","569545","NA","Sternberg Task","78","72898.0","83","1024"
"94","94","880","880","#3d3846","experiment","legacy","legacy","legacy","1","undefined","1","right","83","83","83","0","0","83","83","0","0","83","83","83","0","83","0","Sun Oct 15 11:02:45 2023","The main experiment item","False","SternbergTask.osexp","C:\Users\juzal\OneDrive\Documents\Masters of Equine Science\Advanced Quantitative Methods and Experiment Design","False","mono","False","18","no","white","no","yes","768","legacy","71","11","C:/Users/juzal/OneDrive/Documents/Masters of Equine Science/Advanced Quantitative Methods and Experiment Design/CH-subject-2.csv","legacy","4 2 6 9","Melodramatic Milgram","4.0.5","0","n","0","right","left","left","right","NA","1032.0","36325","20403","1032","NA","2","legacy","4","1024","2","48000","-16","experiment","2","even","7","573614","570381","571411","3159","136813","571413","503701","3165","116409","575614","576648","572413","39492","575614","NA","Sternberg Task","79","73930.0","84","1024"
"94","94","881","881","#3d3846","experiment","legacy","legacy","legacy","1","undefined","1","left","84","84","84","0","0","84","84","0","0","84","84","84","0","84","0","Sun Oct 15 11:02:45 2023","The main experiment item","False","SternbergTask.osexp","C:\Users\juzal\OneDrive\Documents\Masters of Equine Science\Advanced Quantitative Methods and Experiment Design","False","mono","False","18","no","white","no","yes","768","legacy","72","11","C:/Users/juzal/OneDrive/Documents/Masters of Equine Science/Advanced Quantitative Methods and Experiment Design/CH-subject-2.csv","legacy","8 5 3 7 4 6","Melodramatic Milgram","4.0.5","6","y","0","left","left","left","left","NA","1014.0","36325","20403","1014","NA","2","legacy","6","1024","2","48000","-16","experiment","2","even","6","579924","576696","577722","3159","136813","577723","503701","3165","116409","581924","582939","578723","39492","581924","NA","Sternberg Task","80","74944.0","85","1024"
"94","94","878","878","#3d3846","experiment","legacy","legacy","legacy","1","undefined","1","right","85","85","85","0","0","85","85","0","0","85","85","85","0","85","0","Sun Oct 15 11:02:45 2023","The main experiment item","False","SternbergTask.osexp","C:\Users\juzal\OneDrive\Documents\Masters of Equine Science\Advanced Quantitative Methods and Experiment Design","False","mono","False","18","no","white","no","yes","768","legacy","73","11","C:/Users/juzal/OneDrive/Documents/Masters of Equine Science/Advanced Quantitative Methods and Experiment Design/CH-subject-2.csv","legacy","5 2","Melodramatic Milgram","4.0.5","0","n","0","right","left","left","right","NA","608.0","36325","20403","608","NA","2","legacy","2","1024","2","48000","-16","experiment","2","even","7","586214","582985","584012","3159","136813","584013","503701","3165","116409","588214","588823","585013","39492","588214","NA","Sternberg Task","81","75552.0","86","1024"
"94","94","878","878","#3d3846","experiment","legacy","legacy","legacy","1","undefined","1","right","86","86","86","0","0","86","86","0","0","86","86","86","0","86","0","Sun Oct 15 11:02:45 2023","The main experiment item","False","SternbergTask.osexp","C:\Users\juzal\OneDrive\Documents\Masters of Equine Science\Advanced Quantitative Methods and Experiment Design","False","mono","False","18","no","white","no","yes","768","legacy","74","11","C:/Users/juzal/OneDrive/Documents/Masters of Equine Science/Advanced Quantitative Methods and Experiment Design/CH-subject-2.csv","legacy","8 5 7 3 6","Melodramatic Milgram","4.0.5","0","n","0","right","left","left","right","NA","893.0","36325","20403","893","NA","2","legacy","5","1024","2","48000","-16","experiment","2","even","9","592083","588854","589881","3159","136813","589882","503701","3165","116409","594083","594976","590882","39492","594083","NA","Sternberg Task","82","76445.0","87","1024"
"94","94","881","881","#3d3846","experiment","legacy","legacy","legacy","1","undefined","1","right","87","87","87","0","0","87","87","0","0","87","87","87","0","87","0","Sun Oct 15 11:02:45 2023","The main experiment item","False","SternbergTask.osexp","C:\Users\juzal\OneDrive\Documents\Masters of Equine Science\Advanced Quantitative Methods and Experiment Design","False","mono","False","18","no","white","no","yes","768","legacy","75","11","C:/Users/juzal/OneDrive/Documents/Masters of Equine Science/Advanced Quantitative Methods and Experiment Design/CH-subject-2.csv","legacy","9","Melodramatic Milgram","4.0.5","0","n","0","right","left","left","right","NA","1104.0","36325","20403","1104","NA","2","legacy","1","1024","2","48000","-16","experiment","2","even","6","598242","595011","596039","3159","136813","596040","503701","3165","116409","600242","601347","597041","39492","600242","NA","Sternberg Task","83","77549.0","88","1024"
"94","94","885","885","#3d3846","experiment","legacy","legacy","legacy","1","undefined","1","left","88","88","88","0","0","88","88","0","0","88","88","88","0","88","0","Sun Oct 15 11:02:45 2023","The main experiment item","False","SternbergTask.osexp","C:\Users\juzal\OneDrive\Documents\Masters of Equine Science\Advanced Quantitative Methods and Experiment Design","False","mono","False","18","no","white","no","yes","768","legacy","76","11","C:/Users/juzal/OneDrive/Documents/Masters of Equine Science/Advanced Quantitative Methods and Experiment Design/CH-subject-2.csv","legacy","7 8 4 6 9 5","Melodramatic Milgram","4.0.5","4","y","0","left","left","left","left","NA","1250.0","36325","20403","1250","NA","2","legacy","6","1024","2","48000","-16","experiment","2","even","6","604580","601351","602377","3159","136813","602379","503701","3165","116409","606580","607830","603380","39492","606580","NA","Sternberg Task","84","78799.0","89","1024"
"94","94","886","886","#3d3846","experiment","legacy","legacy","legacy","1","undefined","1","left","89","89","89","0","0","89","89","0","0","89","89","89","0","89","0","Sun Oct 15 11:02:45 2023","The main experiment item","False","SternbergTask.osexp","C:\Users\juzal\OneDrive\Documents\Masters of Equine Science\Advanced Quantitative Methods and Experiment Design","False","mono","False","18","no","white","no","yes","768","legacy","77","11","C:/Users/juzal/OneDrive/Documents/Masters of Equine Science/Advanced Quantitative Methods and Experiment Design/CH-subject-2.csv","legacy","2 8 5 1","Melodramatic Milgram","4.0.5","4","y","0","left","left","left","left","NA","1028.0","36325","20403","1028","NA","2","legacy","4","1024","2","48000","-16","experiment","2","even","1","611063","607834","608860","3159","136813","608861","503701","3165","116409","613063","614094","609861","39492","613063","NA","Sternberg Task","85","79827.0","90","1024"
"94","94","885","885","#3d3846","experiment","legacy","legacy","legacy","1","undefined","1","left","90","90","90","0","0","90","90","0","0","90","90","90","0","90","0","Sun Oct 15 11:02:45 2023","The main experiment item","False","SternbergTask.osexp","C:\Users\juzal\OneDrive\Documents\Masters of Equine Science\Advanced Quantitative Methods and Experiment Design","False","mono","False","18","no","white","no","yes","768","legacy","78","11","C:/Users/juzal/OneDrive/Documents/Masters of Equine Science/Advanced Quantitative Methods and Experiment Design/CH-subject-2.csv","legacy","7 2 3","Melodramatic Milgram","4.0.5","3","y","0","left","left","left","left","NA","727.0","36325","20403","727","NA","2","legacy","3","1024","2","48000","-16","experiment","2","even","3","617372","614141","615170","3159","136813","615170","503701","3165","116409","619372","620100","616171","39492","619372","NA","Sternberg Task","86","80554.0","91","1024"
"94","94","884","884","#3d3846","experiment","legacy","legacy","legacy","1","undefined","1","right","91","91","91","0","0","91","91","0","0","91","91","91","0","91","0","Sun Oct 15 11:02:45 2023","The main experiment item","False","SternbergTask.osexp","C:\Users\juzal\OneDrive\Documents\Masters of Equine Science\Advanced Quantitative Methods and Experiment Design","False","mono","False","18","no","white","no","yes","768","legacy","79","11","C:/Users/juzal/OneDrive/Documents/Masters of Equine Science/Advanced Quantitative Methods and Experiment Design/CH-subject-2.csv","legacy","6 8","Melodramatic Milgram","4.0.5","0","n","0","right","left","left","right","NA","823.0","36325","20403","823","NA","2","legacy","2","1024","2","48000","-16","experiment","2","even","9","623382","620145","621179","3159","136813","621180","503701","3165","116409","625382","626206","622181","39492","625382","NA","Sternberg Task","87","81377.0","92","1024"
"94","94","881","881","#3d3846","experiment","legacy","legacy","legacy","1","undefined","1","left","92","92","92","0","0","92","92","0","0","92","92","92","0","92","0","Sun Oct 15 11:02:45 2023","The main experiment item","False","SternbergTask.osexp","C:\Users\juzal\OneDrive\Documents\Masters of Equine Science\Advanced Quantitative Methods and Experiment Design","False","mono","False","18","no","white","no","yes","768","legacy","80","11","C:/Users/juzal/OneDrive/Documents/Masters of Equine Science/Advanced Quantitative Methods and Experiment Design/CH-subject-2.csv","legacy","7 6","Melodramatic Milgram","4.0.5","2","y","0","left","left","left","left","NA","595.0","36325","20403","595","NA","2","legacy","2","1024","2","48000","-16","experiment","2","even","6","629477","626210","627274","3159","136813","627275","503701","3165","116409","631478","632074","628276","39492","631478","NA","Sternberg Task","88","81972.0","93","1024"
"94","94","878","878","#3d3846","experiment","legacy","legacy","legacy","1","undefined","1","right","93","93","93","0","0","93","93","0","0","93","93","93","0","93","0","Sun Oct 15 11:02:45 2023","The main experiment item","False","SternbergTask.osexp","C:\Users\juzal\OneDrive\Documents\Masters of Equine Science\Advanced Quantitative Methods and Experiment Design","False","mono","False","18","no","white","no","yes","768","legacy","81","11","C:/Users/juzal/OneDrive/Documents/Masters of Equine Science/Advanced Quantitative Methods and Experiment Design/CH-subject-2.csv","legacy","2 6 4 3 9","Melodramatic Milgram","4.0.5","0","n","0","right","left","left","right","NA","638.0","36325","20403","638","NA","2","legacy","5","1024","2","48000","-16","experiment","2","even","1","635332","632104","633130","3159","136813","633131","503701","3165","116409","637332","637971","634131","39492","637332","NA","Sternberg Task","89","82610.0","94","1024"
"94","94","876","876","#3d3846","experiment","legacy","legacy","legacy","1","undefined","1","left","94","94","94","0","0","94","94","0","0","94","94","94","0","94","0","Sun Oct 15 11:02:45 2023","The main experiment item","False","SternbergTask.osexp","C:\Users\juzal\OneDrive\Documents\Masters of Equine Science\Advanced Quantitative Methods and Experiment Design","False","mono","False","18","no","white","no","yes","768","legacy","82","11","C:/Users/juzal/OneDrive/Documents/Masters of Equine Science/Advanced Quantitative Methods and Experiment Design/CH-subject-2.csv","legacy","3 9 6 2","Melodramatic Milgram","4.0.5","4","y","0","left","left","left","left","NA","652.0","36325","20403","652","NA","2","legacy","4","1024","2","48000","-16","experiment","2","even","2","641248","638019","639046","3159","136813","639046","503701","3165","116409","643248","643901","640046","39492","643248","NA","Sternberg Task","90","83262.0","95","1024"
"94","94","875","875","#3d3846","experiment","legacy","legacy","legacy","1","undefined","1","left","95","95","95","0","0","95","95","0","0","95","95","95","0","95","0","Sun Oct 15 11:02:45 2023","The main experiment item","False","SternbergTask.osexp","C:\Users\juzal\OneDrive\Documents\Masters of Equine Science\Advanced Quantitative Methods and Experiment Design","False","mono","False","18","no","white","no","yes","768","legacy","83","11","C:/Users/juzal/OneDrive/Documents/Masters of Equine Science/Advanced Quantitative Methods and Experiment Design/CH-subject-2.csv","legacy","3 2 1 4 7","Melodramatic Milgram","4.0.5","2","y","0","left","left","left","left","NA","772.0","36325","20403","772","NA","2","legacy","5","1024","2","48000","-16","experiment","2","even","2","647158","643928","644955","3159","136813","644956","503701","3165","116409","649158","649931","645957","39492","649158","NA","Sternberg Task","91","84034.0","96","1024"
"94","94","875","875","#3d3846","experiment","legacy","legacy","legacy","1","undefined","1","left","96","96","96","0","0","96","96","0","0","96","96","96","0","96","0","Sun Oct 15 11:02:45 2023","The main experiment item","False","SternbergTask.osexp","C:\Users\juzal\OneDrive\Documents\Masters of Equine Science\Advanced Quantitative Methods and Experiment Design","False","mono","False","18","no","white","no","yes","768","legacy","84","11","C:/Users/juzal/OneDrive/Documents/Masters of Equine Science/Advanced Quantitative Methods and Experiment Design/CH-subject-2.csv","legacy","8 1 6","Melodramatic Milgram","4.0.5","3","y","0","left","left","left","left","NA","879.0","36325","20403","879","NA","2","legacy","3","1024","2","48000","-16","experiment","2","even","6","653197","649966","650994","3159","136813","650995","503701","3165","116409","655197","656077","651996","39492","655197","NA","Sternberg Task","92","84913.0","97","1024"
"94","94","875","875","#3d3846","experiment","legacy","legacy","legacy","1","undefined","1","right","97","97","97","0","0","97","97","0","0","97","97","97","0","97","0","Sun Oct 15 11:02:45 2023","The main experiment item","False","SternbergTask.osexp","C:\Users\juzal\OneDrive\Documents\Masters of Equine Science\Advanced Quantitative Methods and Experiment Design","False","mono","False","18","no","white","no","yes","768","legacy","85","11","C:/Users/juzal/OneDrive/Documents/Masters of Equine Science/Advanced Quantitative Methods and Experiment Design/CH-subject-2.csv","legacy","7 9","Melodramatic Milgram","4.0.5","0","n","0","right","left","left","right","NA","840.0","36325","20403","840","NA","2","legacy","2","1024","2","48000","-16","experiment","2","even","1","659341","656111","657139","3159","136813","657140","503701","3165","116409","661341","662181","658140","39492","661341","NA","Sternberg Task","93","85753.0","98","1024"
"94","94","876","876","#3d3846","experiment","legacy","legacy","legacy","1","undefined","1","right","98","98","98","0","0","98","98","0","0","98","98","98","0","98","0","Sun Oct 15 11:02:45 2023","The main experiment item","False","SternbergTask.osexp","C:\Users\juzal\OneDrive\Documents\Masters of Equine Science\Advanced Quantitative Methods and Experiment Design","False","mono","False","18","no","white","no","yes","768","legacy","86","11","C:/Users/juzal/OneDrive/Documents/Masters of Equine Science/Advanced Quantitative Methods and Experiment Design/CH-subject-2.csv","legacy","2 7 5","Melodramatic Milgram","4.0.5","0","n","0","right","left","left","right","NA","975.0","36325","20403","975","NA","2","legacy","3","1024","2","48000","-16","experiment","2","even","8","665446","662212","663243","3159","136813","663244","503701","3165","116409","667446","668422","664245","39492","667446","NA","Sternberg Task","94","86728.0","99","1024"
"95","95","875","875","#3d3846","experiment","legacy","legacy","legacy","1","undefined","1","left","99","99","99","0","0","99","99","0","0","99","99","99","0","99","0","Sun Oct 15 11:02:45 2023","The main experiment item","False","SternbergTask.osexp","C:\Users\juzal\OneDrive\Documents\Masters of Equine Science\Advanced Quantitative Methods and Experiment Design","False","mono","False","18","no","white","no","yes","768","legacy","87","11","C:/Users/juzal/OneDrive/Documents/Masters of Equine Science/Advanced Quantitative Methods and Experiment Design/CH-subject-2.csv","legacy","8 5 1 3 9","Melodramatic Milgram","4.0.5","4","y","0","left","left","left","left","NA","787.0","36325","20403","787","NA","2","legacy","5","1024","2","48000","-16","experiment","2","even","3","671691","668459","669488","3159","136813","669489","503701","3165","116409","673691","674480","670490","39492","673691","NA","Sternberg Task","95","87515.0","100","1024"
"95","95","872","872","#3d3846","experiment","legacy","legacy","legacy","1","undefined","1","left","100","100","100","0","0","100","100","0","0","100","100","100","0","100","0","Sun Oct 15 11:02:45 2023","The main experiment item","False","SternbergTask.osexp","C:\Users\juzal\OneDrive\Documents\Masters of Equine Science\Advanced Quantitative Methods and Experiment Design","False","mono","False","18","no","white","no","yes","768","legacy","88","11","C:/Users/juzal/OneDrive/Documents/Masters of Equine Science/Advanced Quantitative Methods and Experiment Design/CH-subject-2.csv","legacy","2 3 7 4","Melodramatic Milgram","4.0.5","1","y","0","left","left","left","left","NA","647.0","36325","20403","647","NA","2","legacy","4","1024","2","48000","-16","experiment","2","even","2","677746","674517","675543","3159","136813","675544","503701","3165","116409","679747","680395","676545","39492","679746","NA","Sternberg Task","96","88162.0","101","1024"
"95","95","876","876","#3d3846","experiment","legacy","legacy","legacy","1","undefined","1","right","101","101","101","0","0","101","101","0","0","101","101","101","0","101","0","Sun Oct 15 11:02:45 2023","The main experiment item","False","SternbergTask.osexp","C:\Users\juzal\OneDrive\Documents\Masters of Equine Science\Advanced Quantitative Methods and Experiment Design","False","mono","False","18","no","white","no","yes","768","legacy","89","11","C:/Users/juzal/OneDrive/Documents/Masters of Equine Science/Advanced Quantitative Methods and Experiment Design/CH-subject-2.csv","legacy","7 8 6 1","Melodramatic Milgram","4.0.5","0","n","0","right","left","left","right","NA","1252.0","36325","20403","1252","NA","2","legacy","4","1024","2","48000","-16","experiment","2","even","3","683630","680399","681428","3159","136813","681429","503701","3165","116409","685630","686883","682429","39492","685630","NA","Sternberg Task","97","89414.0","102","1024"
"95","95","875","875","#3d3846","experiment","legacy","legacy","legacy","1","undefined","1","left","102","102","102","0","0","102","102","0","0","102","102","102","0","102","0","Sun Oct 15 11:02:45 2023","The main experiment item","False","SternbergTask.osexp","C:\Users\juzal\OneDrive\Documents\Masters of Equine Science\Advanced Quantitative Methods and Experiment Design","False","mono","False","18","no","white","no","yes","768","legacy","90","11","C:/Users/juzal/OneDrive/Documents/Masters of Equine Science/Advanced Quantitative Methods and Experiment Design/CH-subject-2.csv","legacy","9 5 8 1","Melodramatic Milgram","4.0.5","2","y","0","left","left","left","left","NA","713.0","36325","20403","713","NA","2","legacy","4","1024","2","48000","-16","experiment","2","even","5","690116","686887","687914","3159","136813","687914","503701","3165","116409","692116","692830","688914","39492","692116","NA","Sternberg Task","98","90127.0","103","1024"
"95","95","875","875","#3d3846","experiment","legacy","legacy","legacy","1","undefined","1","left","103","103","103","0","0","103","103","0","0","103","103","103","0","103","0","Sun Oct 15 11:02:45 2023","The main experiment item","False","SternbergTask.osexp","C:\Users\juzal\OneDrive\Documents\Masters of Equine Science\Advanced Quantitative Methods and Experiment Design","False","mono","False","18","no","white","no","yes","768","legacy","91","11","C:/Users/juzal/OneDrive/Documents/Masters of Equine Science/Advanced Quantitative Methods and Experiment Design/CH-subject-2.csv","legacy","4 1 8 7 5","Melodramatic Milgram","4.0.5","3","y","0","left","left","left","left","NA","962.0","36325","20403","962","NA","2","legacy","5","1024","2","48000","-16","experiment","2","even","8","696097","692869","693896","3159","136813","693896","503701","3165","116409","698097","699061","694896","39492","698097","NA","Sternberg Task","99","91089.0","104","1024"
