"acc","accuracy","average_response_time","avg_rt","background","block","canvas_backend","clock_backend","color_backend","correct","correct_instruction1","correct_new_keyboard_response","correct_response","count_ISI","count_correctFeedback","count_expSequence","count_experiment","count_experimentLoop","count_fixation","count_incorrectFeedback","count_instruction1","count_instructions2","count_memorySet","count_new_keyboard_response","count_new_logger","count_practiceLoop","count_probe","count_thankYou","datetime","description","disable_garbage_collection","experiment_file","experiment_path","font_bold","font_family","font_italic","font_size","font_underline","foreground","form_clicks","fullscreen","height","keyboard_backend","live_row","live_row_practiceLoop","logfile","mouse_backend","numberSet","opensesame_codename","opensesame_version","posInSet","present","repeat_cycle","response","response_instruction1","response_instructions2","response_new_keyboard_response","response_thankYou","response_time","response_time_instruction1","response_time_instructions2","response_time_new_keyboard_response","response_time_thankYou","round_decimals","sampler_backend","setSize","sound_buf_size","sound_channels","sound_freq","sound_sample_size","start","subject_nr","subject_parity","target","time_ISI","time_correctFeedback","time_expSequence","time_experiment","time_experimentLoop","time_fixation","time_incorrectFeedback","time_instruction1","time_instructions2","time_memorySet","time_new_keyboard_response","time_new_logger","time_practiceLoop","time_probe","time_thankYou","title","total_correct","total_response_time","total_responses","width"
"100","100","924","924","#3d3846","practice","legacy","legacy","legacy","1","undefined","1","right","0","0","0","0","0","0","0","0","0","0","0","0","0","0","0","Sun Oct 15 16:34:24 2023","The main experiment item","False","SternbergTask.osexp","/Users/xaleyelyse/Desktop","False","mono","False","18","no","white","no","yes","768","legacy","0","0","/Users/xaleyelyse/Downloads/XWsubject_1.csv","legacy","3 1 9 4","Melodramatic Milgram","4.0.5","0","n","0","right","left","NA","right","NA","924.0","23694","NA","924","NA","2","legacy","4","1024","2","48000","-16","experiment","1","odd","6","28579","NA","26367","2281","NA","26373","NA","2347","NA","27376","30581","31506","26066","30581","NA","Sternberg Task","1","924.0","1","1024"
"100","100","824","824","#3d3846","practice","legacy","legacy","legacy","1","undefined","1","right","1","1","1","0","0","1","1","0","0","1","1","1","0","1","0","Sun Oct 15 16:34:24 2023","The main experiment item","False","SternbergTask.osexp","/Users/xaleyelyse/Desktop","False","mono","False","18","no","white","no","yes","768","legacy","1","1","/Users/xaleyelyse/Downloads/XWsubject_1.csv","legacy","2 1","Melodramatic Milgram","4.0.5","0","n","0","right","left","NA","right","NA","725.0","23694","NA","725","NA","2","legacy","2","1024","2","48000","-16","experiment","1","odd","5","34778","31531","32568","2281","NA","32573","NA","2347","NA","33575","36781","37510","26066","36780","NA","Sternberg Task","2","1649.0","2","1024"
"100","100","715","715","#3d3846","practice","legacy","legacy","legacy","1","undefined","1","left","2","2","2","0","0","2","2","0","0","2","2","2","0","2","0","Sun Oct 15 16:34:24 2023","The main experiment item","False","SternbergTask.osexp","/Users/xaleyelyse/Desktop","False","mono","False","18","no","white","no","yes","768","legacy","2","2","/Users/xaleyelyse/Downloads/XWsubject_1.csv","legacy","4 3 1 7 9 8","Melodramatic Milgram","4.0.5","1","y","0","left","left","NA","left","NA","498.0","23694","NA","498","NA","2","legacy","6","1024","2","48000","-16","experiment","1","odd","4","40759","37512","38552","2281","NA","38554","NA","2347","NA","39556","42761","43259","26066","42761","NA","Sternberg Task","3","2147.0","3","1024"
"100","100","715","715","#3d3846","practice","legacy","legacy","legacy","1","undefined","1","left","3","3","3","0","0","3","3","0","0","3","3","3","0","3","0","Sun Oct 15 16:34:24 2023","The main experiment item","False","SternbergTask.osexp","/Users/xaleyelyse/Desktop","False","mono","False","18","no","white","no","yes","768","legacy","3","3","/Users/xaleyelyse/Downloads/XWsubject_1.csv","legacy","2 9 4","Melodramatic Milgram","4.0.5","3","y","0","left","left","NA","left","NA","715.0","23694","NA","715","NA","2","legacy","3","1024","2","48000","-16","experiment","1","odd","4","46506","43263","44299","2281","NA","44302","NA","2347","NA","45304","48510","49225","26066","48509","NA","Sternberg Task","4","2862.0","4","1024"
"100","100","731","731","#3d3846","practice","legacy","legacy","legacy","1","undefined","1","left","4","4","4","0","0","4","4","0","0","4","4","4","0","4","0","Sun Oct 15 16:34:24 2023","The main experiment item","False","SternbergTask.osexp","/Users/xaleyelyse/Desktop","False","mono","False","18","no","white","no","yes","768","legacy","4","4","/Users/xaleyelyse/Downloads/XWsubject_1.csv","legacy","1 7 9 8 5","Melodramatic Milgram","4.0.5","4","y","0","left","left","NA","left","NA","797.0","23694","NA","797","NA","2","legacy","5","1024","2","48000","-16","experiment","1","odd","8","52475","49229","50268","2281","NA","50270","NA","2347","NA","51272","54477","55274","26066","54477","NA","Sternberg Task","5","3659.0","5","1024"
"100","100","680","680","#3d3846","practice","legacy","legacy","legacy","1","undefined","1","left","5","5","5","0","0","5","5","0","0","5","5","5","0","5","0","Sun Oct 15 16:34:24 2023","The main experiment item","False","SternbergTask.osexp","/Users/xaleyelyse/Desktop","False","mono","False","18","no","white","no","yes","768","legacy","5","5","/Users/xaleyelyse/Downloads/XWsubject_1.csv","legacy","4 8","Melodramatic Milgram","4.0.5","1","y","0","left","left","NA","left","NA","426.0","23694","NA","426","NA","2","legacy","2","1024","2","48000","-16","experiment","1","odd","4","58523","55277","56315","2281","NA","56318","NA","2347","NA","57320","60526","60953","26066","60526","NA","Sternberg Task","6","4085.0","6","1024"
"100","100","666","666","#3d3846","practice","legacy","legacy","legacy","1","undefined","1","right","6","6","6","0","0","6","6","0","0","6","6","6","0","6","0","Sun Oct 15 16:34:24 2023","The main experiment item","False","SternbergTask.osexp","/Users/xaleyelyse/Desktop","False","mono","False","18","no","white","no","yes","768","legacy","6","6","/Users/xaleyelyse/Downloads/XWsubject_1.csv","legacy","5 7 8 4 1 2","Melodramatic Milgram","4.0.5","0","n","0","right","left","NA","right","NA","577.0","23694","NA","577","NA","2","legacy","6","1024","2","48000","-16","experiment","1","odd","6","64209","60956","62002","2281","NA","62004","NA","2347","NA","63006","66211","66789","26066","66211","NA","Sternberg Task","7","4662.0","7","1024"
"100","100","646","646","#3d3846","practice","legacy","legacy","legacy","1","undefined","1","right","7","7","7","0","0","7","7","0","0","7","7","7","0","7","0","Sun Oct 15 16:34:24 2023","The main experiment item","False","SternbergTask.osexp","/Users/xaleyelyse/Desktop","False","mono","False","18","no","white","no","yes","768","legacy","7","7","/Users/xaleyelyse/Downloads/XWsubject_1.csv","legacy","9 6 7 4 5","Melodramatic Milgram","4.0.5","0","n","0","right","left","NA","right","NA","506.0","23694","NA","506","NA","2","legacy","5","1024","2","48000","-16","experiment","1","odd","3","70023","66791","67817","2281","NA","67819","NA","2347","NA","68821","72026","72533","26066","72026","NA","Sternberg Task","8","5168.0","8","1024"
"100","100","644","644","#3d3846","practice","legacy","legacy","legacy","1","undefined","1","right","8","8","8","0","0","8","8","0","0","8","8","8","0","8","0","Sun Oct 15 16:34:24 2023","The main experiment item","False","SternbergTask.osexp","/Users/xaleyelyse/Desktop","False","mono","False","18","no","white","no","yes","768","legacy","8","8","/Users/xaleyelyse/Downloads/XWsubject_1.csv","legacy","5","Melodramatic Milgram","4.0.5","0","n","0","right","left","NA","right","NA","633.0","23694","NA","633","NA","2","legacy","1","1024","2","48000","-16","experiment","1","odd","3","75774","72536","73568","2281","NA","73570","NA","2347","NA","74572","77776","78410","26066","77776","NA","Sternberg Task","9","5801.0","9","1024"
"100","100","634","634","#3d3846","practice","legacy","legacy","legacy","1","undefined","1","left","9","9","9","0","0","9","9","0","0","9","9","9","0","9","0","Sun Oct 15 16:34:24 2023","The main experiment item","False","SternbergTask.osexp","/Users/xaleyelyse/Desktop","False","mono","False","18","no","white","no","yes","768","legacy","9","9","/Users/xaleyelyse/Downloads/XWsubject_1.csv","legacy","1 5 2 9","Melodramatic Milgram","4.0.5","2","y","0","left","left","NA","left","NA","542.0","23694","NA","542","NA","2","legacy","4","1024","2","48000","-16","experiment","1","odd","5","81656","78413","79449","2281","NA","79451","NA","2347","NA","80453","83658","84200","26066","83658","NA","Sternberg Task","10","6343.0","10","1024"
"100","100","641","641","#3d3846","practice","legacy","legacy","legacy","1","undefined","1","right","10","10","10","0","0","10","10","0","0","10","10","10","0","10","0","Sun Oct 15 16:34:24 2023","The main experiment item","False","SternbergTask.osexp","/Users/xaleyelyse/Desktop","False","mono","False","18","no","white","no","yes","768","legacy","10","10","/Users/xaleyelyse/Downloads/XWsubject_1.csv","legacy","4 1 5","Melodramatic Milgram","4.0.5","0","n","0","right","left","NA","right","NA","710.0","23694","NA","710","NA","2","legacy","3","1024","2","48000","-16","experiment","1","odd","2","87446","84203","85240","2281","NA","85242","NA","2347","NA","86244","89448","90159","26066","89448","NA","Sternberg Task","11","7053.0","11","1024"
"100","100","621","621","#3d3846","practice","legacy","legacy","legacy","1","undefined","1","left","11","11","11","0","0","11","11","0","0","11","11","11","0","11","0","Sun Oct 15 16:34:24 2023","The main experiment item","False","SternbergTask.osexp","/Users/xaleyelyse/Desktop","False","mono","False","18","no","white","no","yes","768","legacy","11","11","/Users/xaleyelyse/Downloads/XWsubject_1.csv","legacy","6","Melodramatic Milgram","4.0.5","1","y","0","left","left","NA","left","NA","408.0","23694","NA","408","NA","2","legacy","1","1024","2","48000","-16","experiment","1","odd","6","93409","90162","91201","2281","NA","91203","NA","2347","NA","92205","95411","95820","26066","95411","NA","Sternberg Task","12","7461.0","12","1024"
"100","100","616","616","#3d3846","experiment","legacy","legacy","legacy","1","undefined","1","right","12","12","12","0","0","12","12","0","0","12","12","12","0","12","0","Sun Oct 15 16:34:24 2023","The main experiment item","False","SternbergTask.osexp","/Users/xaleyelyse/Desktop","False","mono","False","18","no","white","no","yes","768","legacy","0","11","/Users/xaleyelyse/Downloads/XWsubject_1.csv","legacy","9 8 2 7 4","Melodramatic Milgram","4.0.5","0","n","0","right","left","left","right","NA","557.0","23694","10255","557","NA","2","legacy","5","1024","2","48000","-16","experiment","1","odd","5","109337","95822","107127","2281","107080","107131","NA","2347","96825","108134","111339","111897","26066","111339","NA","Sternberg Task","13","8018.0","13","1024"
"100","100","607","607","#3d3846","experiment","legacy","legacy","legacy","1","undefined","1","left","13","13","13","0","0","13","13","0","0","13","13","13","0","13","0","Sun Oct 15 16:34:24 2023","The main experiment item","False","SternbergTask.osexp","/Users/xaleyelyse/Desktop","False","mono","False","18","no","white","no","yes","768","legacy","1","11","/Users/xaleyelyse/Downloads/XWsubject_1.csv","legacy","5 2 6","Melodramatic Milgram","4.0.5","2","y","0","left","left","left","left","NA","487.0","23694","10255","487","NA","2","legacy","3","1024","2","48000","-16","experiment","1","odd","2","115135","111900","112929","2281","107080","112931","NA","2347","96825","113933","117137","117625","26066","117137","NA","Sternberg Task","14","8505.0","14","1024"
"93","93","603","603","#3d3846","experiment","legacy","legacy","legacy","0","undefined","0","left","14","14","14","0","0","14","14","0","0","14","14","14","0","14","0","Sun Oct 15 16:34:24 2023","The main experiment item","False","SternbergTask.osexp","/Users/xaleyelyse/Desktop","False","mono","False","18","no","white","no","yes","768","legacy","2","11","/Users/xaleyelyse/Downloads/XWsubject_1.csv","legacy","7 8 6 3 1","Melodramatic Milgram","4.0.5","5","y","0","right","left","left","right","NA","544.0","23694","10255","544","NA","2","legacy","5","1024","2","48000","-16","experiment","1","odd","1","120871","117627","118662","2281","107080","118665","NA","2347","96825","119668","122873","123418","26066","122873","NA","Sternberg Task","14","9049.0","15","1024"
"93","93","610","610","#3d3846","experiment","legacy","legacy","legacy","1","undefined","1","right","15","15","15","0","0","15","15","0","0","15","15","15","0","15","0","Sun Oct 15 16:34:24 2023","The main experiment item","False","SternbergTask.osexp","/Users/xaleyelyse/Desktop","False","mono","False","18","no","white","no","yes","768","legacy","3","11","/Users/xaleyelyse/Downloads/XWsubject_1.csv","legacy","6 8 4","Melodramatic Milgram","4.0.5","0","n","0","right","left","left","right","NA","721.0","23694","10255","721","NA","2","legacy","3","1024","2","48000","-16","experiment","1","odd","1","126668","117627","124461","2281","107080","124463","123422","2347","96825","125466","128670","129392","26066","128670","NA","Sternberg Task","15","9770.0","16","1024"
"94","94","618","618","#3d3846","experiment","legacy","legacy","legacy","1","undefined","1","right","16","16","16","0","0","16","16","0","0","16","16","16","0","16","0","Sun Oct 15 16:34:24 2023","The main experiment item","False","SternbergTask.osexp","/Users/xaleyelyse/Desktop","False","mono","False","18","no","white","no","yes","768","legacy","4","11","/Users/xaleyelyse/Downloads/XWsubject_1.csv","legacy","6 9 4 5 3 2","Melodramatic Milgram","4.0.5","0","n","0","right","left","left","right","NA","742.0","23694","10255","742","NA","2","legacy","6","1024","2","48000","-16","experiment","1","odd","8","132630","129395","130423","2281","107080","130425","123422","2347","96825","131427","134632","135374","26066","134632","NA","Sternberg Task","16","10512.0","17","1024"
"94","94","605","605","#3d3846","experiment","legacy","legacy","legacy","1","undefined","1","left","17","17","17","0","0","17","17","0","0","17","17","17","0","17","0","Sun Oct 15 16:34:24 2023","The main experiment item","False","SternbergTask.osexp","/Users/xaleyelyse/Desktop","False","mono","False","18","no","white","no","yes","768","legacy","5","11","/Users/xaleyelyse/Downloads/XWsubject_1.csv","legacy","8 3","Melodramatic Milgram","4.0.5","2","y","0","left","left","left","left","NA","381.0","23694","10255","381","NA","2","legacy","2","1024","2","48000","-16","experiment","1","odd","3","138617","135378","136410","2281","107080","136412","123422","2347","96825","137414","140619","141001","26066","140619","NA","Sternberg Task","17","10893.0","18","1024"
"94","94","594","594","#3d3846","experiment","legacy","legacy","legacy","1","undefined","1","left","18","18","18","0","0","18","18","0","0","18","18","18","0","18","0","Sun Oct 15 16:34:24 2023","The main experiment item","False","SternbergTask.osexp","/Users/xaleyelyse/Desktop","False","mono","False","18","no","white","no","yes","768","legacy","6","11","/Users/xaleyelyse/Downloads/XWsubject_1.csv","legacy","8 9 5 7 1 6","Melodramatic Milgram","4.0.5","4","y","0","left","left","left","left","NA","408.0","23694","10255","408","NA","2","legacy","6","1024","2","48000","-16","experiment","1","odd","7","144249","141003","142041","2281","107080","142043","123422","2347","96825","143046","146251","146659","26066","146251","NA","Sternberg Task","18","11301.0","19","1024"
"95","95","590","590","#3d3846","experiment","legacy","legacy","legacy","1","undefined","1","left","19","19","19","0","0","19","19","0","0","19","19","19","0","19","0","Sun Oct 15 16:34:24 2023","The main experiment item","False","SternbergTask.osexp","/Users/xaleyelyse/Desktop","False","mono","False","18","no","white","no","yes","768","legacy","7","11","/Users/xaleyelyse/Downloads/XWsubject_1.csv","legacy","8 7 3","Melodramatic Milgram","4.0.5","1","y","0","left","left","left","left","NA","512.0","23694","10255","512","NA","2","legacy","3","1024","2","48000","-16","experiment","1","odd","8","149906","146662","147698","2281","107080","147701","123422","2347","96825","148703","151908","152421","26066","151908","NA","Sternberg Task","19","11813.0","20","1024"
"95","95","589","589","#3d3846","experiment","legacy","legacy","legacy","1","undefined","1","right","20","20","20","0","0","20","20","0","0","20","20","20","0","20","0","Sun Oct 15 16:34:24 2023","The main experiment item","False","SternbergTask.osexp","/Users/xaleyelyse/Desktop","False","mono","False","18","no","white","no","yes","768","legacy","8","11","/Users/xaleyelyse/Downloads/XWsubject_1.csv","legacy","3 4 9 6 7 8","Melodramatic Milgram","4.0.5","0","n","0","right","left","left","right","NA","563.0","23694","10255","563","NA","2","legacy","6","1024","2","48000","-16","experiment","1","odd","2","155669","152424","153461","2281","107080","153464","123422","2347","96825","154466","157671","158234","26066","157671","NA","Sternberg Task","20","12376.0","21","1024"
"95","95","579","579","#3d3846","experiment","legacy","legacy","legacy","1","undefined","1","left","21","21","21","0","0","21","21","0","0","21","21","21","0","21","0","Sun Oct 15 16:34:24 2023","The main experiment item","False","SternbergTask.osexp","/Users/xaleyelyse/Desktop","False","mono","False","18","no","white","no","yes","768","legacy","9","11","/Users/xaleyelyse/Downloads/XWsubject_1.csv","legacy","5 7 3 6 2","Melodramatic Milgram","4.0.5","5","y","0","left","left","left","left","NA","380.0","23694","10255","380","NA","2","legacy","5","1024","2","48000","-16","experiment","1","odd","2","161493","158237","159286","2281","107080","159288","123422","2347","96825","160290","163495","163876","26066","163495","NA","Sternberg Task","21","12756.0","22","1024"
"95","95","577","577","#3d3846","experiment","legacy","legacy","legacy","1","undefined","1","right","22","22","22","0","0","22","22","0","0","22","22","22","0","22","0","Sun Oct 15 16:34:24 2023","The main experiment item","False","SternbergTask.osexp","/Users/xaleyelyse/Desktop","False","mono","False","18","no","white","no","yes","768","legacy","10","11","/Users/xaleyelyse/Downloads/XWsubject_1.csv","legacy","8 6 3 4 7","Melodramatic Milgram","4.0.5","0","n","0","right","left","left","right","NA","532.0","23694","10255","532","NA","2","legacy","5","1024","2","48000","-16","experiment","1","odd","1","167114","163878","164907","2281","107080","164909","123422","2347","96825","165911","169116","169649","26066","169116","NA","Sternberg Task","22","13288.0","23","1024"
"95","95","579","579","#3d3846","experiment","legacy","legacy","legacy","1","undefined","1","right","23","23","23","0","0","23","23","0","0","23","23","23","0","23","0","Sun Oct 15 16:34:24 2023","The main experiment item","False","SternbergTask.osexp","/Users/xaleyelyse/Desktop","False","mono","False","18","no","white","no","yes","768","legacy","11","11","/Users/xaleyelyse/Downloads/XWsubject_1.csv","legacy","7 6 4 8 1 2","Melodramatic Milgram","4.0.5","0","n","0","right","left","left","right","NA","610.0","23694","10255","610","NA","2","legacy","6","1024","2","48000","-16","experiment","1","odd","9","172892","169651","170686","2281","107080","170688","123422","2347","96825","171690","174894","175505","26066","174894","NA","Sternberg Task","23","13898.0","24","1024"
"96","96","585","585","#3d3846","experiment","legacy","legacy","legacy","1","undefined","1","right","24","24","24","0","0","24","24","0","0","24","24","24","0","24","0","Sun Oct 15 16:34:24 2023","The main experiment item","False","SternbergTask.osexp","/Users/xaleyelyse/Desktop","False","mono","False","18","no","white","no","yes","768","legacy","12","11","/Users/xaleyelyse/Downloads/XWsubject_1.csv","legacy","2 8 7 9 5 3","Melodramatic Milgram","4.0.5","0","n","0","right","left","left","right","NA","729.0","23694","10255","729","NA","2","legacy","6","1024","2","48000","-16","experiment","1","odd","6","178751","175508","176544","2281","107080","176546","123422","2347","96825","177548","180753","181483","26066","180753","NA","Sternberg Task","24","14627.0","25","1024"
"96","96","581","581","#3d3846","experiment","legacy","legacy","legacy","1","undefined","1","right","25","25","25","0","0","25","25","0","0","25","25","25","0","25","0","Sun Oct 15 16:34:24 2023","The main experiment item","False","SternbergTask.osexp","/Users/xaleyelyse/Desktop","False","mono","False","18","no","white","no","yes","768","legacy","13","11","/Users/xaleyelyse/Downloads/XWsubject_1.csv","legacy","6 8","Melodramatic Milgram","4.0.5","0","n","0","right","left","left","right","NA","495.0","23694","10255","495","NA","2","legacy","2","1024","2","48000","-16","experiment","1","odd","9","184731","181487","182523","2281","107080","182526","123422","2347","96825","183528","186733","187229","26066","186733","NA","Sternberg Task","25","15122.0","26","1024"
"96","96","584","584","#3d3846","experiment","legacy","legacy","legacy","1","undefined","1","right","26","26","26","0","0","26","26","0","0","26","26","26","0","26","0","Sun Oct 15 16:34:24 2023","The main experiment item","False","SternbergTask.osexp","/Users/xaleyelyse/Desktop","False","mono","False","18","no","white","no","yes","768","legacy","14","11","/Users/xaleyelyse/Downloads/XWsubject_1.csv","legacy","4 2 7 6 1 3","Melodramatic Milgram","4.0.5","0","n","0","right","left","left","right","NA","653.0","23694","10255","653","NA","2","legacy","6","1024","2","48000","-16","experiment","1","odd","8","190477","187231","188268","2281","107080","188271","123422","2347","96825","189274","192479","193133","26066","192479","NA","Sternberg Task","26","15775.0","27","1024"
"96","96","582","582","#3d3846","experiment","legacy","legacy","legacy","1","undefined","1","right","27","27","27","0","0","27","27","0","0","27","27","27","0","27","0","Sun Oct 15 16:34:24 2023","The main experiment item","False","SternbergTask.osexp","/Users/xaleyelyse/Desktop","False","mono","False","18","no","white","no","yes","768","legacy","15","11","/Users/xaleyelyse/Downloads/XWsubject_1.csv","legacy","1 6 4","Melodramatic Milgram","4.0.5","0","n","0","right","left","left","right","NA","546.0","23694","10255","546","NA","2","legacy","3","1024","2","48000","-16","experiment","1","odd","7","196408","193136","194201","2281","107080","194203","123422","2347","96825","195205","198410","198957","26066","198409","NA","Sternberg Task","27","16321.0","28","1024"
"96","96","586","586","#3d3846","experiment","legacy","legacy","legacy","1","undefined","1","left","28","28","28","0","0","28","28","0","0","28","28","28","0","28","0","Sun Oct 15 16:34:24 2023","The main experiment item","False","SternbergTask.osexp","/Users/xaleyelyse/Desktop","False","mono","False","18","no","white","no","yes","768","legacy","16","11","/Users/xaleyelyse/Downloads/XWsubject_1.csv","legacy","9 5 3 8 4","Melodramatic Milgram","4.0.5","1","y","0","left","left","left","left","NA","680.0","23694","10255","680","NA","2","legacy","5","1024","2","48000","-16","experiment","1","odd","9","202197","198959","199990","2281","107080","199992","123422","2347","96825","200994","204199","204880","26066","204199","NA","Sternberg Task","28","17001.0","29","1024"
"96","96","582","582","#3d3846","experiment","legacy","legacy","legacy","1","undefined","1","left","29","29","29","0","0","29","29","0","0","29","29","29","0","29","0","Sun Oct 15 16:34:24 2023","The main experiment item","False","SternbergTask.osexp","/Users/xaleyelyse/Desktop","False","mono","False","18","no","white","no","yes","768","legacy","17","11","/Users/xaleyelyse/Downloads/XWsubject_1.csv","legacy","6 7 9 3 1 2","Melodramatic Milgram","4.0.5","1","y","0","left","left","left","left","NA","473.0","23694","10255","473","NA","2","legacy","6","1024","2","48000","-16","experiment","1","odd","6","208123","204883","205916","2281","107080","205918","123422","2347","96825","206920","210125","210599","26066","210125","NA","Sternberg Task","29","17474.0","30","1024"
"96","96","577","577","#3d3846","experiment","legacy","legacy","legacy","1","undefined","1","left","30","30","30","0","0","30","30","0","0","30","30","30","0","30","0","Sun Oct 15 16:34:24 2023","The main experiment item","False","SternbergTask.osexp","/Users/xaleyelyse/Desktop","False","mono","False","18","no","white","no","yes","768","legacy","18","11","/Users/xaleyelyse/Downloads/XWsubject_1.csv","legacy","6 9 7 4 5 1","Melodramatic Milgram","4.0.5","2","y","0","left","left","left","left","NA","441.0","23694","10255","441","NA","2","legacy","6","1024","2","48000","-16","experiment","1","odd","9","213844","210601","211638","2281","107080","211640","123422","2347","96825","212642","215846","216288","26066","215846","NA","Sternberg Task","30","17915.0","31","1024"
"96","96","572","572","#3d3846","experiment","legacy","legacy","legacy","1","undefined","1","left","31","31","31","0","0","31","31","0","0","31","31","31","0","31","0","Sun Oct 15 16:34:24 2023","The main experiment item","False","SternbergTask.osexp","/Users/xaleyelyse/Desktop","False","mono","False","18","no","white","no","yes","768","legacy","19","11","/Users/xaleyelyse/Downloads/XWsubject_1.csv","legacy","6 2","Melodramatic Milgram","4.0.5","1","y","0","left","left","left","left","NA","394.0","23694","10255","394","NA","2","legacy","2","1024","2","48000","-16","experiment","1","odd","6","219534","216291","217327","2281","107080","217329","123422","2347","96825","218331","221536","221930","26066","221536","NA","Sternberg Task","31","18309.0","32","1024"
"96","96","567","567","#3d3846","experiment","legacy","legacy","legacy","1","undefined","1","left","32","32","32","0","0","32","32","0","0","32","32","32","0","32","0","Sun Oct 15 16:34:24 2023","The main experiment item","False","SternbergTask.osexp","/Users/xaleyelyse/Desktop","False","mono","False","18","no","white","no","yes","768","legacy","20","11","/Users/xaleyelyse/Downloads/XWsubject_1.csv","legacy","9 1 7 2","Melodramatic Milgram","4.0.5","2","y","0","left","left","left","left","NA","413.0","23694","10255","413","NA","2","legacy","4","1024","2","48000","-16","experiment","1","odd","1","225176","221933","222970","2281","107080","222972","123422","2347","96825","223974","227179","227593","26066","227178","NA","Sternberg Task","32","18722.0","33","1024"
"97","97","565","565","#3d3846","experiment","legacy","legacy","legacy","1","undefined","1","left","33","33","33","0","0","33","33","0","0","33","33","33","0","33","0","Sun Oct 15 16:34:24 2023","The main experiment item","False","SternbergTask.osexp","/Users/xaleyelyse/Desktop","False","mono","False","18","no","white","no","yes","768","legacy","21","11","/Users/xaleyelyse/Downloads/XWsubject_1.csv","legacy","6 7 8 5","Melodramatic Milgram","4.0.5","3","y","0","left","left","left","left","NA","517.0","23694","10255","517","NA","2","legacy","4","1024","2","48000","-16","experiment","1","odd","8","230848","227596","228640","2281","107080","228643","123422","2347","96825","229645","232850","233368","26066","232850","NA","Sternberg Task","33","19239.0","34","1024"
"97","97","568","568","#3d3846","experiment","legacy","legacy","legacy","1","undefined","1","right","34","34","34","0","0","34","34","0","0","34","34","34","0","34","0","Sun Oct 15 16:34:24 2023","The main experiment item","False","SternbergTask.osexp","/Users/xaleyelyse/Desktop","False","mono","False","18","no","white","no","yes","768","legacy","22","11","/Users/xaleyelyse/Downloads/XWsubject_1.csv","legacy","8 5 7 3 6","Melodramatic Milgram","4.0.5","0","n","0","right","left","left","right","NA","649.0","23694","10255","649","NA","2","legacy","5","1024","2","48000","-16","experiment","1","odd","9","236606","233371","234400","2281","107080","234402","123422","2347","96825","235404","238609","239258","26066","238609","NA","Sternberg Task","34","19888.0","35","1024"
"97","97","570","570","#3d3846","experiment","legacy","legacy","legacy","1","undefined","1","left","35","35","35","0","0","35","35","0","0","35","35","35","0","35","0","Sun Oct 15 16:34:24 2023","The main experiment item","False","SternbergTask.osexp","/Users/xaleyelyse/Desktop","False","mono","False","18","no","white","no","yes","768","legacy","23","11","/Users/xaleyelyse/Downloads/XWsubject_1.csv","legacy","8 5 4 7 3 1","Melodramatic Milgram","4.0.5","2","y","0","left","left","left","left","NA","638.0","23694","10255","638","NA","2","legacy","6","1024","2","48000","-16","experiment","1","odd","5","242499","239261","240292","2281","107080","240295","123422","2347","96825","241297","244501","245140","26066","244501","NA","Sternberg Task","35","20526.0","36","1024"
"97","97","580","580","#3d3846","experiment","legacy","legacy","legacy","1","undefined","1","right","36","36","36","0","0","36","36","0","0","36","36","36","0","36","0","Sun Oct 15 16:34:24 2023","The main experiment item","False","SternbergTask.osexp","/Users/xaleyelyse/Desktop","False","mono","False","18","no","white","no","yes","768","legacy","24","11","/Users/xaleyelyse/Downloads/XWsubject_1.csv","legacy","5 3 2 6 9 8","Melodramatic Milgram","4.0.5","0","n","0","right","left","left","right","NA","943.0","23694","10255","943","NA","2","legacy","6","1024","2","48000","-16","experiment","1","odd","4","248387","245143","246180","2281","107080","246182","123422","2347","96825","247184","250390","251334","26066","250389","NA","Sternberg Task","36","21469.0","37","1024"
"97","97","578","578","#3d3846","experiment","legacy","legacy","legacy","1","undefined","1","right","37","37","37","0","0","37","37","0","0","37","37","37","0","37","0","Sun Oct 15 16:34:24 2023","The main experiment item","False","SternbergTask.osexp","/Users/xaleyelyse/Desktop","False","mono","False","18","no","white","no","yes","768","legacy","25","11","/Users/xaleyelyse/Downloads/XWsubject_1.csv","legacy","6 7 5 9","Melodramatic Milgram","4.0.5","0","n","0","right","left","left","right","NA","522.0","23694","10255","522","NA","2","legacy","4","1024","2","48000","-16","experiment","1","odd","2","254580","251337","252373","2281","107080","252375","123422","2347","96825","253377","256582","257105","26066","256582","NA","Sternberg Task","37","21991.0","38","1024"
"97","97","578","578","#3d3846","experiment","legacy","legacy","legacy","1","undefined","1","left","38","38","38","0","0","38","38","0","0","38","38","38","0","38","0","Sun Oct 15 16:34:24 2023","The main experiment item","False","SternbergTask.osexp","/Users/xaleyelyse/Desktop","False","mono","False","18","no","white","no","yes","768","legacy","26","11","/Users/xaleyelyse/Downloads/XWsubject_1.csv","legacy","9 3 1 2 5","Melodramatic Milgram","4.0.5","4","y","0","left","left","left","left","NA","578.0","23694","10255","578","NA","2","legacy","5","1024","2","48000","-16","experiment","1","odd","2","260350","257107","258143","2281","107080","258146","123422","2347","96825","259148","262353","262932","26066","262353","NA","Sternberg Task","38","22569.0","39","1024"
"97","97","579","579","#3d3846","experiment","legacy","legacy","legacy","1","undefined","1","left","39","39","39","0","0","39","39","0","0","39","39","39","0","39","0","Sun Oct 15 16:34:24 2023","The main experiment item","False","SternbergTask.osexp","/Users/xaleyelyse/Desktop","False","mono","False","18","no","white","no","yes","768","legacy","27","11","/Users/xaleyelyse/Downloads/XWsubject_1.csv","legacy","3 4 9 6 2 9","Melodramatic Milgram","4.0.5","5","y","0","left","left","left","left","NA","629.0","23694","10255","629","NA","2","legacy","6","1024","2","48000","-16","experiment","1","odd","2","266186","262934","263979","2281","107080","263981","123422","2347","96825","264983","268188","268818","26066","268188","NA","Sternberg Task","39","23198.0","40","1024"
"97","97","580","580","#3d3846","experiment","legacy","legacy","legacy","1","undefined","1","left","40","40","40","0","0","40","40","0","0","40","40","40","0","40","0","Sun Oct 15 16:34:24 2023","The main experiment item","False","SternbergTask.osexp","/Users/xaleyelyse/Desktop","False","mono","False","18","no","white","no","yes","768","legacy","28","11","/Users/xaleyelyse/Downloads/XWsubject_1.csv","legacy","1 4 9 3 2 5","Melodramatic Milgram","4.0.5","3","y","0","left","left","left","left","NA","592.0","23694","10255","592","NA","2","legacy","6","1024","2","48000","-16","experiment","1","odd","9","272070","268834","269864","2281","107080","269866","123422","2347","96825","270868","274072","274665","26066","274072","NA","Sternberg Task","40","23790.0","41","1024"
"97","97","578","578","#3d3846","experiment","legacy","legacy","legacy","1","undefined","1","right","41","41","41","0","0","41","41","0","0","41","41","41","0","41","0","Sun Oct 15 16:34:24 2023","The main experiment item","False","SternbergTask.osexp","/Users/xaleyelyse/Desktop","False","mono","False","18","no","white","no","yes","768","legacy","29","11","/Users/xaleyelyse/Downloads/XWsubject_1.csv","legacy","6 3 1 7 9 8","Melodramatic Milgram","4.0.5","0","n","0","right","left","left","right","NA","508.0","23694","10255","508","NA","2","legacy","6","1024","2","48000","-16","experiment","1","odd","4","277909","274668","275702","2281","107080","275704","123422","2347","96825","276706","279911","280420","26066","279911","NA","Sternberg Task","41","24298.0","42","1024"
"97","97","577","577","#3d3846","experiment","legacy","legacy","legacy","1","undefined","1","left","42","42","42","0","0","42","42","0","0","42","42","42","0","42","0","Sun Oct 15 16:34:24 2023","The main experiment item","False","SternbergTask.osexp","/Users/xaleyelyse/Desktop","False","mono","False","18","no","white","no","yes","768","legacy","30","11","/Users/xaleyelyse/Downloads/XWsubject_1.csv","legacy","6 8 9 3 4 9","Melodramatic Milgram","4.0.5","5","y","0","left","left","left","left","NA","520.0","23694","10255","520","NA","2","legacy","6","1024","2","48000","-16","experiment","1","odd","4","283667","280422","281459","2281","107080","281461","123422","2347","96825","282463","285669","286190","26066","285669","NA","Sternberg Task","42","24818.0","43","1024"
"97","97","573","573","#3d3846","experiment","legacy","legacy","legacy","1","undefined","1","left","43","43","43","0","0","43","43","0","0","43","43","43","0","43","0","Sun Oct 15 16:34:24 2023","The main experiment item","False","SternbergTask.osexp","/Users/xaleyelyse/Desktop","False","mono","False","18","no","white","no","yes","768","legacy","31","11","/Users/xaleyelyse/Downloads/XWsubject_1.csv","legacy","2 3","Melodramatic Milgram","4.0.5","1","y","0","left","left","left","left","NA","399.0","23694","10255","399","NA","2","legacy","2","1024","2","48000","-16","experiment","1","odd","2","289435","286193","287229","2281","107080","287231","123422","2347","96825","288233","291437","291837","26066","291437","NA","Sternberg Task","43","25217.0","44","1024"
"97","97","572","572","#3d3846","experiment","legacy","legacy","legacy","1","undefined","1","right","44","44","44","0","0","44","44","0","0","44","44","44","0","44","0","Sun Oct 15 16:34:24 2023","The main experiment item","False","SternbergTask.osexp","/Users/xaleyelyse/Desktop","False","mono","False","18","no","white","no","yes","768","legacy","32","11","/Users/xaleyelyse/Downloads/XWsubject_1.csv","legacy","3 4 2","Melodramatic Milgram","4.0.5","0","n","0","right","left","left","right","NA","531.0","23694","10255","531","NA","2","legacy","3","1024","2","48000","-16","experiment","1","odd","5","295086","291840","292878","2281","107080","292881","123422","2347","96825","293883","297088","297620","26066","297088","NA","Sternberg Task","44","25748.0","45","1024"
"97","97","571","571","#3d3846","experiment","legacy","legacy","legacy","1","undefined","1","right","45","45","45","0","0","45","45","0","0","45","45","45","0","45","0","Sun Oct 15 16:34:24 2023","The main experiment item","False","SternbergTask.osexp","/Users/xaleyelyse/Desktop","False","mono","False","18","no","white","no","yes","768","legacy","33","11","/Users/xaleyelyse/Downloads/XWsubject_1.csv","legacy","7 3 2 8","Melodramatic Milgram","4.0.5","0","n","0","right","left","left","right","NA","525.0","23694","10255","525","NA","2","legacy","4","1024","2","48000","-16","experiment","1","odd","4","300880","297623","298672","2281","107080","298674","123422","2347","96825","299677","302882","303408","26066","302882","NA","Sternberg Task","45","26273.0","46","1024"
"97","97","569","569","#3d3846","experiment","legacy","legacy","legacy","1","undefined","1","left","46","46","46","0","0","46","46","0","0","46","46","46","0","46","0","Sun Oct 15 16:34:24 2023","The main experiment item","False","SternbergTask.osexp","/Users/xaleyelyse/Desktop","False","mono","False","18","no","white","no","yes","768","legacy","34","11","/Users/xaleyelyse/Downloads/XWsubject_1.csv","legacy","6 1 2","Melodramatic Milgram","4.0.5","3","y","0","left","left","left","left","NA","490.0","23694","10255","490","NA","2","legacy","3","1024","2","48000","-16","experiment","1","odd","2","306645","303410","304438","2281","107080","304440","123422","2347","96825","305442","308647","309138","26066","308647","NA","Sternberg Task","46","26763.0","47","1024"
"97","97","572","572","#3d3846","experiment","legacy","legacy","legacy","1","undefined","1","left","47","47","47","0","0","47","47","0","0","47","47","47","0","47","0","Sun Oct 15 16:34:24 2023","The main experiment item","False","SternbergTask.osexp","/Users/xaleyelyse/Desktop","False","mono","False","18","no","white","no","yes","768","legacy","35","11","/Users/xaleyelyse/Downloads/XWsubject_1.csv","legacy","4 1 8 7 5","Melodramatic Milgram","4.0.5","3","y","0","left","left","left","left","NA","702.0","23694","10255","702","NA","2","legacy","5","1024","2","48000","-16","experiment","1","odd","8","312381","309141","310174","2281","107080","310176","123422","2347","96825","311178","314383","315086","26066","314383","NA","Sternberg Task","47","27465.0","48","1024"
"97","97","573","573","#3d3846","experiment","legacy","legacy","legacy","1","undefined","1","right","48","48","48","0","0","48","48","0","0","48","48","48","0","48","0","Sun Oct 15 16:34:24 2023","The main experiment item","False","SternbergTask.osexp","/Users/xaleyelyse/Desktop","False","mono","False","18","no","white","no","yes","768","legacy","36","11","/Users/xaleyelyse/Downloads/XWsubject_1.csv","legacy","5 2","Melodramatic Milgram","4.0.5","0","n","0","right","left","left","right","NA","638.0","23694","10255","638","NA","2","legacy","2","1024","2","48000","-16","experiment","1","odd","7","318330","315088","316123","2281","107080","316125","123422","2347","96825","317127","320332","320971","26066","320332","NA","Sternberg Task","48","28103.0","49","1024"
"98","98","571","571","#3d3846","experiment","legacy","legacy","legacy","1","undefined","1","left","49","49","49","0","0","49","49","0","0","49","49","49","0","49","0","Sun Oct 15 16:34:24 2023","The main experiment item","False","SternbergTask.osexp","/Users/xaleyelyse/Desktop","False","mono","False","18","no","white","no","yes","768","legacy","37","11","/Users/xaleyelyse/Downloads/XWsubject_1.csv","legacy","4","Melodramatic Milgram","4.0.5","1","y","0","left","left","left","left","NA","483.0","23694","10255","483","NA","2","legacy","1","1024","2","48000","-16","experiment","1","odd","4","324214","320973","322008","2281","107080","322010","123422","2347","96825","323012","326217","326701","26066","326216","NA","Sternberg Task","49","28586.0","50","1024"
"98","98","571","571","#3d3846","experiment","legacy","legacy","legacy","1","undefined","1","right","50","50","50","0","0","50","50","0","0","50","50","50","0","50","0","Sun Oct 15 16:34:24 2023","The main experiment item","False","SternbergTask.osexp","/Users/xaleyelyse/Desktop","False","mono","False","18","no","white","no","yes","768","legacy","38","11","/Users/xaleyelyse/Downloads/XWsubject_1.csv","legacy","6 2 9 3 8 4","Melodramatic Milgram","4.0.5","0","n","0","right","left","left","right","NA","563.0","23694","10255","563","NA","2","legacy","6","1024","2","48000","-16","experiment","1","odd","1","329946","326703","327740","2281","107080","327742","123422","2347","96825","328744","331949","332513","26066","331948","NA","Sternberg Task","50","29149.0","51","1024"
"98","98","570","570","#3d3846","experiment","legacy","legacy","legacy","1","undefined","1","left","51","51","51","0","0","51","51","0","0","51","51","51","0","51","0","Sun Oct 15 16:34:24 2023","The main experiment item","False","SternbergTask.osexp","/Users/xaleyelyse/Desktop","False","mono","False","18","no","white","no","yes","768","legacy","39","11","/Users/xaleyelyse/Downloads/XWsubject_1.csv","legacy","3 9 7 6 4","Melodramatic Milgram","4.0.5","3","y","0","left","left","left","left","NA","504.0","23694","10255","504","NA","2","legacy","5","1024","2","48000","-16","experiment","1","odd","7","335771","332516","333562","2281","107080","333565","123422","2347","96825","334567","337774","338279","26066","337773","NA","Sternberg Task","51","29653.0","52","1024"
"98","98","567","567","#3d3846","experiment","legacy","legacy","legacy","1","undefined","1","right","52","52","52","0","0","52","52","0","0","52","52","52","0","52","0","Sun Oct 15 16:34:24 2023","The main experiment item","False","SternbergTask.osexp","/Users/xaleyelyse/Desktop","False","mono","False","18","no","white","no","yes","768","legacy","40","11","/Users/xaleyelyse/Downloads/XWsubject_1.csv","legacy","7 9","Melodramatic Milgram","4.0.5","0","n","0","right","left","left","right","NA","442.0","23694","10255","442","NA","2","legacy","2","1024","2","48000","-16","experiment","1","odd","1","341517","338281","339310","2281","107080","339312","123422","2347","96825","340314","343519","343962","26066","343519","NA","Sternberg Task","52","30095.0","53","1024"
"98","98","568","568","#3d3846","experiment","legacy","legacy","legacy","1","undefined","1","right","53","53","53","0","0","53","53","0","0","53","53","53","0","53","0","Sun Oct 15 16:34:24 2023","The main experiment item","False","SternbergTask.osexp","/Users/xaleyelyse/Desktop","False","mono","False","18","no","white","no","yes","768","legacy","41","11","/Users/xaleyelyse/Downloads/XWsubject_1.csv","legacy","7 1 8 4 9 3","Melodramatic Milgram","4.0.5","0","n","0","right","left","left","right","NA","584.0","23694","10255","584","NA","2","legacy","6","1024","2","48000","-16","experiment","1","odd","6","347205","343965","344998","2281","107080","345001","123422","2347","96825","346003","349207","349791","26066","349207","NA","Sternberg Task","53","30679.0","54","1024"
"98","98","566","566","#3d3846","experiment","legacy","legacy","legacy","1","undefined","1","left","54","54","54","0","0","54","54","0","0","54","54","54","0","54","0","Sun Oct 15 16:34:24 2023","The main experiment item","False","SternbergTask.osexp","/Users/xaleyelyse/Desktop","False","mono","False","18","no","white","no","yes","768","legacy","42","11","/Users/xaleyelyse/Downloads/XWsubject_1.csv","legacy","4 6 2 5 1","Melodramatic Milgram","4.0.5","5","y","0","left","left","left","left","NA","472.0","23694","10255","472","NA","2","legacy","5","1024","2","48000","-16","experiment","1","odd","1","353038","349794","350832","2281","107080","350834","123422","2347","96825","351836","355041","355513","26066","355041","NA","Sternberg Task","54","31151.0","55","1024"
"98","98","564","564","#3d3846","experiment","legacy","legacy","legacy","1","undefined","1","left","55","55","55","0","0","55","55","0","0","55","55","55","0","55","0","Sun Oct 15 16:34:24 2023","The main experiment item","False","SternbergTask.osexp","/Users/xaleyelyse/Desktop","False","mono","False","18","no","white","no","yes","768","legacy","43","11","/Users/xaleyelyse/Downloads/XWsubject_1.csv","legacy","3 5 4 7","Melodramatic Milgram","4.0.5","1","y","0","left","left","left","left","NA","453.0","23694","10255","453","NA","2","legacy","4","1024","2","48000","-16","experiment","1","odd","3","358760","355516","356553","2281","107080","356555","123422","2347","96825","357557","360762","361216","26066","360762","NA","Sternberg Task","55","31604.0","56","1024"
"98","98","563","563","#3d3846","experiment","legacy","legacy","legacy","1","undefined","1","left","56","56","56","0","0","56","56","0","0","56","56","56","0","56","0","Sun Oct 15 16:34:24 2023","The main experiment item","False","SternbergTask.osexp","/Users/xaleyelyse/Desktop","False","mono","False","18","no","white","no","yes","768","legacy","44","11","/Users/xaleyelyse/Downloads/XWsubject_1.csv","legacy","5 2 9 6 1 7","Melodramatic Milgram","4.0.5","3","y","0","left","left","left","left","NA","537.0","23694","10255","537","NA","2","legacy","6","1024","2","48000","-16","experiment","1","odd","9","364462","361219","362255","2281","107080","362258","123422","2347","96825","363260","366464","367002","26066","366464","NA","Sternberg Task","56","32141.0","57","1024"
"98","98","562","562","#3d3846","experiment","legacy","legacy","legacy","1","undefined","1","right","57","57","57","0","0","57","57","0","0","57","57","57","0","57","0","Sun Oct 15 16:34:24 2023","The main experiment item","False","SternbergTask.osexp","/Users/xaleyelyse/Desktop","False","mono","False","18","no","white","no","yes","768","legacy","45","11","/Users/xaleyelyse/Downloads/XWsubject_1.csv","legacy","7 9 1 6","Melodramatic Milgram","4.0.5","0","n","0","right","left","left","right","NA","512.0","23694","10255","512","NA","2","legacy","4","1024","2","48000","-16","experiment","1","odd","4","370257","367004","368050","2281","107080","368052","123422","2347","96825","369054","372259","372772","26066","372259","NA","Sternberg Task","57","32653.0","58","1024"
"98","98","563","563","#3d3846","experiment","legacy","legacy","legacy","1","undefined","1","left","58","58","58","0","0","58","58","0","0","58","58","58","0","58","0","Sun Oct 15 16:34:24 2023","The main experiment item","False","SternbergTask.osexp","/Users/xaleyelyse/Desktop","False","mono","False","18","no","white","no","yes","768","legacy","46","11","/Users/xaleyelyse/Downloads/XWsubject_1.csv","legacy","9 8 4","Melodramatic Milgram","4.0.5","1","y","0","left","left","left","left","NA","594.0","23694","10255","594","NA","2","legacy","3","1024","2","48000","-16","experiment","1","odd","9","376009","372775","373803","2281","107080","373805","123422","2347","96825","374807","378011","378606","26066","378011","NA","Sternberg Task","58","33247.0","59","1024"
"98","98","563","563","#3d3846","experiment","legacy","legacy","legacy","1","undefined","1","right","59","59","59","0","0","59","59","0","0","59","59","59","0","59","0","Sun Oct 15 16:34:24 2023","The main experiment item","False","SternbergTask.osexp","/Users/xaleyelyse/Desktop","False","mono","False","18","no","white","no","yes","768","legacy","47","11","/Users/xaleyelyse/Downloads/XWsubject_1.csv","legacy","1 7 8 3 9","Melodramatic Milgram","4.0.5","0","n","0","right","left","left","right","NA","559.0","23694","10255","559","NA","2","legacy","5","1024","2","48000","-16","experiment","1","odd","2","381847","378608","379641","2281","107080","379643","123422","2347","96825","380645","383850","384410","26066","383850","NA","Sternberg Task","59","33806.0","60","1024"
"98","98","566","566","#3d3846","experiment","legacy","legacy","legacy","1","undefined","1","left","60","60","60","0","0","60","60","0","0","60","60","60","0","60","0","Sun Oct 15 16:34:24 2023","The main experiment item","False","SternbergTask.osexp","/Users/xaleyelyse/Desktop","False","mono","False","18","no","white","no","yes","768","legacy","48","11","/Users/xaleyelyse/Downloads/XWsubject_1.csv","legacy","9 3 8 2 1 4","Melodramatic Milgram","4.0.5","3","y","0","left","left","left","left","NA","780.0","23694","10255","780","NA","2","legacy","6","1024","2","48000","-16","experiment","1","odd","8","387656","384412","385449","2281","107080","385451","123422","2347","96825","386453","389658","390439","26066","389658","NA","Sternberg Task","60","34586.0","61","1024"
"98","98","566","566","#3d3846","experiment","legacy","legacy","legacy","1","undefined","1","left","61","61","61","0","0","61","61","0","0","61","61","61","0","61","0","Sun Oct 15 16:34:24 2023","The main experiment item","False","SternbergTask.osexp","/Users/xaleyelyse/Desktop","False","mono","False","18","no","white","no","yes","768","legacy","49","11","/Users/xaleyelyse/Downloads/XWsubject_1.csv","legacy","3 5 7 1","Melodramatic Milgram","4.0.5","3","y","0","left","left","left","left","NA","553.0","23694","10255","553","NA","2","legacy","4","1024","2","48000","-16","experiment","1","odd","7","393684","390441","391477","2281","107080","391479","123422","2347","96825","392481","395686","396240","26066","395686","NA","Sternberg Task","61","35139.0","62","1024"
"98","98","569","569","#3d3846","experiment","legacy","legacy","legacy","1","undefined","1","right","62","62","62","0","0","62","62","0","0","62","62","62","0","62","0","Sun Oct 15 16:34:24 2023","The main experiment item","False","SternbergTask.osexp","/Users/xaleyelyse/Desktop","False","mono","False","18","no","white","no","yes","768","legacy","50","11","/Users/xaleyelyse/Downloads/XWsubject_1.csv","legacy","8 4 3 9","Melodramatic Milgram","4.0.5","0","n","0","right","left","left","right","NA","770.0","23694","10255","770","NA","2","legacy","4","1024","2","48000","-16","experiment","1","odd","5","399486","396243","397279","2281","107080","397281","123422","2347","96825","398283","401488","402259","26066","401488","NA","Sternberg Task","62","35909.0","63","1024"
"98","98","569","569","#3d3846","experiment","legacy","legacy","legacy","1","undefined","1","right","63","63","63","0","0","63","63","0","0","63","63","63","0","63","0","Sun Oct 15 16:34:24 2023","The main experiment item","False","SternbergTask.osexp","/Users/xaleyelyse/Desktop","False","mono","False","18","no","white","no","yes","768","legacy","51","11","/Users/xaleyelyse/Downloads/XWsubject_1.csv","legacy","1 6 4 3 9 7","Melodramatic Milgram","4.0.5","0","n","0","right","left","left","right","NA","567.0","23694","10255","567","NA","2","legacy","6","1024","2","48000","-16","experiment","1","odd","8","405514","402262","403307","2281","107080","403309","123422","2347","96825","404311","407516","408084","26066","407516","NA","Sternberg Task","63","36476.0","64","1024"
"98","98","571","571","#3d3846","experiment","legacy","legacy","legacy","1","undefined","1","right","64","64","64","0","0","64","64","0","0","64","64","64","0","64","0","Sun Oct 15 16:34:24 2023","The main experiment item","False","SternbergTask.osexp","/Users/xaleyelyse/Desktop","False","mono","False","18","no","white","no","yes","768","legacy","52","11","/Users/xaleyelyse/Downloads/XWsubject_1.csv","legacy","9 5 3 2 8 6","Melodramatic Milgram","4.0.5","0","n","0","right","left","left","right","NA","659.0","23694","10255","659","NA","2","legacy","6","1024","2","48000","-16","experiment","1","odd","7","411322","408086","409115","2281","107080","409117","123422","2347","96825","410120","413324","413984","26066","413324","NA","Sternberg Task","64","37135.0","65","1024"
"98","98","569","569","#3d3846","experiment","legacy","legacy","legacy","1","undefined","1","left","65","65","65","0","0","65","65","0","0","65","65","65","0","65","0","Sun Oct 15 16:34:24 2023","The main experiment item","False","SternbergTask.osexp","/Users/xaleyelyse/Desktop","False","mono","False","18","no","white","no","yes","768","legacy","53","11","/Users/xaleyelyse/Downloads/XWsubject_1.csv","legacy","9 6 2 4 1","Melodramatic Milgram","4.0.5","4","y","0","left","left","left","left","NA","446.0","23694","10255","446","NA","2","legacy","5","1024","2","48000","-16","experiment","1","odd","4","417226","413987","415020","2281","107080","415022","123422","2347","96825","416024","419229","419676","26066","419229","NA","Sternberg Task","65","37581.0","66","1024"
"98","98","568","568","#3d3846","experiment","legacy","legacy","legacy","1","undefined","1","left","66","66","66","0","0","66","66","0","0","66","66","66","0","66","0","Sun Oct 15 16:34:24 2023","The main experiment item","False","SternbergTask.osexp","/Users/xaleyelyse/Desktop","False","mono","False","18","no","white","no","yes","768","legacy","54","11","/Users/xaleyelyse/Downloads/XWsubject_1.csv","legacy","9 1 6 7 8","Melodramatic Milgram","4.0.5","1","y","0","left","left","left","left","NA","506.0","23694","10255","506","NA","2","legacy","5","1024","2","48000","-16","experiment","1","odd","9","422921","419678","420715","2281","107080","420717","123422","2347","96825","421719","424923","425430","26066","424923","NA","Sternberg Task","66","38087.0","67","1024"
"98","98","572","572","#3d3846","experiment","legacy","legacy","legacy","1","undefined","1","left","67","67","67","0","0","67","67","0","0","67","67","67","0","67","0","Sun Oct 15 16:34:24 2023","The main experiment item","False","SternbergTask.osexp","/Users/xaleyelyse/Desktop","False","mono","False","18","no","white","no","yes","768","legacy","55","11","/Users/xaleyelyse/Downloads/XWsubject_1.csv","legacy","3 5 9 6 2 4","Melodramatic Milgram","4.0.5","1","y","0","left","left","left","left","NA","819.0","23694","10255","819","NA","2","legacy","6","1024","2","48000","-16","experiment","1","odd","3","428677","425434","426471","2281","107080","426473","123422","2347","96825","427475","430680","431500","26066","430680","NA","Sternberg Task","67","38906.0","68","1024"
"98","98","571","571","#3d3846","experiment","legacy","legacy","legacy","1","undefined","1","left","68","68","68","0","0","68","68","0","0","68","68","68","0","68","0","Sun Oct 15 16:34:24 2023","The main experiment item","False","SternbergTask.osexp","/Users/xaleyelyse/Desktop","False","mono","False","18","no","white","no","yes","768","legacy","56","11","/Users/xaleyelyse/Downloads/XWsubject_1.csv","legacy","2 4 8 5 1 3","Melodramatic Milgram","4.0.5","1","y","0","left","left","left","left","NA","537.0","23694","10255","537","NA","2","legacy","6","1024","2","48000","-16","experiment","1","odd","2","434746","431503","432539","2281","107080","432541","123422","2347","96825","433543","436748","437286","26066","436748","NA","Sternberg Task","68","39443.0","69","1024"
"98","98","572","572","#3d3846","experiment","legacy","legacy","legacy","1","undefined","1","right","69","69","69","0","0","69","69","0","0","69","69","69","0","69","0","Sun Oct 15 16:34:24 2023","The main experiment item","False","SternbergTask.osexp","/Users/xaleyelyse/Desktop","False","mono","False","18","no","white","no","yes","768","legacy","57","11","/Users/xaleyelyse/Downloads/XWsubject_1.csv","legacy","7 1 5 6 3","Melodramatic Milgram","4.0.5","0","n","0","right","left","left","right","NA","656.0","23694","10255","656","NA","2","legacy","5","1024","2","48000","-16","experiment","1","odd","8","440540","437289","438333","2281","107080","438335","123422","2347","96825","439337","442542","443199","26066","442542","NA","Sternberg Task","69","40099.0","70","1024"
"98","98","571","571","#3d3846","experiment","legacy","legacy","legacy","1","undefined","1","right","70","70","70","0","0","70","70","0","0","70","70","70","0","70","0","Sun Oct 15 16:34:24 2023","The main experiment item","False","SternbergTask.osexp","/Users/xaleyelyse/Desktop","False","mono","False","18","no","white","no","yes","768","legacy","58","11","/Users/xaleyelyse/Downloads/XWsubject_1.csv","legacy","7 1","Melodramatic Milgram","4.0.5","0","n","0","right","left","left","right","NA","483.0","23694","10255","483","NA","2","legacy","2","1024","2","48000","-16","experiment","1","odd","8","446436","443201","444230","2281","107080","444232","123422","2347","96825","445234","448438","448922","26066","448438","NA","Sternberg Task","70","40582.0","71","1024"
"98","98","572","572","#3d3846","experiment","legacy","legacy","legacy","1","undefined","1","left","71","71","71","0","0","71","71","0","0","71","71","71","0","71","0","Sun Oct 15 16:34:24 2023","The main experiment item","False","SternbergTask.osexp","/Users/xaleyelyse/Desktop","False","mono","False","18","no","white","no","yes","768","legacy","59","11","/Users/xaleyelyse/Downloads/XWsubject_1.csv","legacy","2 5 4 8 7","Melodramatic Milgram","4.0.5","3","y","0","left","left","left","left","NA","633.0","23694","10255","633","NA","2","legacy","5","1024","2","48000","-16","experiment","1","odd","4","452164","448924","449956","2281","107080","449959","123422","2347","96825","450961","454166","454800","26066","454166","NA","Sternberg Task","71","41215.0","72","1024"
"98","98","575","575","#3d3846","experiment","legacy","legacy","legacy","1","undefined","1","right","72","72","72","0","0","72","72","0","0","72","72","72","0","72","0","Sun Oct 15 16:34:24 2023","The main experiment item","False","SternbergTask.osexp","/Users/xaleyelyse/Desktop","False","mono","False","18","no","white","no","yes","768","legacy","60","11","/Users/xaleyelyse/Downloads/XWsubject_1.csv","legacy","5 9 2 3","Melodramatic Milgram","4.0.5","0","n","0","right","left","left","right","NA","819.0","23694","10255","819","NA","2","legacy","4","1024","2","48000","-16","experiment","1","odd","8","458046","454803","455840","2281","107080","455842","123422","2347","96825","456843","460048","460868","26066","460048","NA","Sternberg Task","72","42034.0","73","1024"
"98","98","578","578","#3d3846","experiment","legacy","legacy","legacy","1","undefined","1","right","73","73","73","0","0","73","73","0","0","73","73","73","0","73","0","Sun Oct 15 16:34:24 2023","The main experiment item","False","SternbergTask.osexp","/Users/xaleyelyse/Desktop","False","mono","False","18","no","white","no","yes","768","legacy","61","11","/Users/xaleyelyse/Downloads/XWsubject_1.csv","legacy","5 3 8 7 2 4","Melodramatic Milgram","4.0.5","0","n","0","right","left","left","right","NA","774.0","23694","10255","774","NA","2","legacy","6","1024","2","48000","-16","experiment","1","odd","9","464115","460870","461907","2281","107080","461909","123422","2347","96825","462911","466117","466892","26066","466117","NA","Sternberg Task","73","42808.0","74","1024"
"98","98","580","580","#3d3846","experiment","legacy","legacy","legacy","1","undefined","1","right","74","74","74","0","0","74","74","0","0","74","74","74","0","74","0","Sun Oct 15 16:34:24 2023","The main experiment item","False","SternbergTask.osexp","/Users/xaleyelyse/Desktop","False","mono","False","18","no","white","no","yes","768","legacy","62","11","/Users/xaleyelyse/Downloads/XWsubject_1.csv","legacy","8 2 1 4 5 9","Melodramatic Milgram","4.0.5","0","n","0","right","left","left","right","NA","723.0","23694","10255","723","NA","2","legacy","6","1024","2","48000","-16","experiment","1","odd","7","470140","466894","467931","2281","107080","467933","123422","2347","96825","468936","472142","472866","26066","472142","NA","Sternberg Task","74","43531.0","75","1024"
"98","98","578","578","#3d3846","experiment","legacy","legacy","legacy","1","undefined","1","left","75","75","75","0","0","75","75","0","0","75","75","75","0","75","0","Sun Oct 15 16:34:24 2023","The main experiment item","False","SternbergTask.osexp","/Users/xaleyelyse/Desktop","False","mono","False","18","no","white","no","yes","768","legacy","63","11","/Users/xaleyelyse/Downloads/XWsubject_1.csv","legacy","2 3 7 4","Melodramatic Milgram","4.0.5","1","y","0","left","left","left","left","NA","426.0","23694","10255","426","NA","2","legacy","4","1024","2","48000","-16","experiment","1","odd","2","476122","472869","473914","2281","107080","473916","123422","2347","96825","474918","478124","478551","26066","478124","NA","Sternberg Task","75","43957.0","76","1024"
"98","98","579","579","#3d3846","experiment","legacy","legacy","legacy","1","undefined","1","right","76","76","76","0","0","76","76","0","0","76","76","76","0","76","0","Sun Oct 15 16:34:24 2023","The main experiment item","False","SternbergTask.osexp","/Users/xaleyelyse/Desktop","False","mono","False","18","no","white","no","yes","768","legacy","64","11","/Users/xaleyelyse/Downloads/XWsubject_1.csv","legacy","6 9 5","Melodramatic Milgram","4.0.5","0","n","0","right","left","left","right","NA","663.0","23694","10255","663","NA","2","legacy","3","1024","2","48000","-16","experiment","1","odd","8","481788","478553","479581","2281","107080","479583","123422","2347","96825","480585","483790","484454","26066","483790","NA","Sternberg Task","76","44620.0","77","1024"
"98","98","578","578","#3d3846","experiment","legacy","legacy","legacy","1","undefined","1","left","77","77","77","0","0","77","77","0","0","77","77","77","0","77","0","Sun Oct 15 16:34:24 2023","The main experiment item","False","SternbergTask.osexp","/Users/xaleyelyse/Desktop","False","mono","False","18","no","white","no","yes","768","legacy","65","11","/Users/xaleyelyse/Downloads/XWsubject_1.csv","legacy","8 9 5 6 7","Melodramatic Milgram","4.0.5","1","y","0","left","left","left","left","NA","488.0","23694","10255","488","NA","2","legacy","5","1024","2","48000","-16","experiment","1","odd","8","487696","484456","485488","2281","107080","485491","123422","2347","96825","486493","489698","490187","26066","489698","NA","Sternberg Task","77","45108.0","78","1024"
"98","98","578","578","#3d3846","experiment","legacy","legacy","legacy","1","undefined","1","left","78","78","78","0","0","78","78","0","0","78","78","78","0","78","0","Sun Oct 15 16:34:24 2023","The main experiment item","False","SternbergTask.osexp","/Users/xaleyelyse/Desktop","False","mono","False","18","no","white","no","yes","768","legacy","66","11","/Users/xaleyelyse/Downloads/XWsubject_1.csv","legacy","7 1 3","Melodramatic Milgram","4.0.5","2","y","0","left","left","left","left","NA","604.0","23694","10255","604","NA","2","legacy","3","1024","2","48000","-16","experiment","1","odd","1","493432","490189","491226","2281","107080","491228","123422","2347","96825","492230","495435","496040","26066","495435","NA","Sternberg Task","78","45712.0","79","1024"
"98","98","582","582","#3d3846","experiment","legacy","legacy","legacy","1","undefined","1","right","79","79","79","0","0","79","79","0","0","79","79","79","0","79","0","Sun Oct 15 16:34:24 2023","The main experiment item","False","SternbergTask.osexp","/Users/xaleyelyse/Desktop","False","mono","False","18","no","white","no","yes","768","legacy","67","11","/Users/xaleyelyse/Downloads/XWsubject_1.csv","legacy","1 8 7","Melodramatic Milgram","4.0.5","0","n","0","right","left","left","right","NA","918.0","23694","10255","918","NA","2","legacy","3","1024","2","48000","-16","experiment","1","odd","4","499286","496043","497079","2281","107080","497082","123422","2347","96825","498084","501289","502208","26066","501289","NA","Sternberg Task","79","46630.0","80","1024"
"98","98","585","585","#3d3846","experiment","legacy","legacy","legacy","1","undefined","1","right","80","80","80","0","0","80","80","0","0","80","80","80","0","80","0","Sun Oct 15 16:34:24 2023","The main experiment item","False","SternbergTask.osexp","/Users/xaleyelyse/Desktop","False","mono","False","18","no","white","no","yes","768","legacy","68","11","/Users/xaleyelyse/Downloads/XWsubject_1.csv","legacy","6 9 7 3 8 2","Melodramatic Milgram","4.0.5","0","n","0","right","left","left","right","NA","789.0","23694","10255","789","NA","2","legacy","6","1024","2","48000","-16","experiment","1","odd","5","505454","502210","503247","2281","107080","503250","123422","2347","96825","504252","507456","508246","26066","507456","NA","Sternberg Task","80","47419.0","81","1024"
"98","98","584","584","#3d3846","experiment","legacy","legacy","legacy","1","undefined","1","left","81","81","81","0","0","81","81","0","0","81","81","81","0","81","0","Sun Oct 15 16:34:24 2023","The main experiment item","False","SternbergTask.osexp","/Users/xaleyelyse/Desktop","False","mono","False","18","no","white","no","yes","768","legacy","69","11","/Users/xaleyelyse/Downloads/XWsubject_1.csv","legacy","4 1 5","Melodramatic Milgram","4.0.5","2","y","0","left","left","left","left","NA","520.0","23694","10255","520","NA","2","legacy","3","1024","2","48000","-16","experiment","1","odd","1","511502","508249","509294","2281","107080","509296","123422","2347","96825","510298","513504","514025","26066","513504","NA","Sternberg Task","81","47939.0","82","1024"
"98","98","586","586","#3d3846","experiment","legacy","legacy","legacy","1","undefined","1","right","82","82","82","0","0","82","82","0","0","82","82","82","0","82","0","Sun Oct 15 16:34:24 2023","The main experiment item","False","SternbergTask.osexp","/Users/xaleyelyse/Desktop","False","mono","False","18","no","white","no","yes","768","legacy","70","11","/Users/xaleyelyse/Downloads/XWsubject_1.csv","legacy","1 4 3 6 5","Melodramatic Milgram","4.0.5","0","n","0","right","left","left","right","NA","708.0","23694","10255","708","NA","2","legacy","5","1024","2","48000","-16","experiment","1","odd","8","517264","514027","515057","2281","107080","515059","123422","2347","96825","516061","519266","519975","26066","519266","NA","Sternberg Task","82","48647.0","83","1024"
"98","98","585","585","#3d3846","experiment","legacy","legacy","legacy","1","undefined","1","left","83","83","83","0","0","83","83","0","0","83","83","83","0","83","0","Sun Oct 15 16:34:24 2023","The main experiment item","False","SternbergTask.osexp","/Users/xaleyelyse/Desktop","False","mono","False","18","no","white","no","yes","768","legacy","71","11","/Users/xaleyelyse/Downloads/XWsubject_1.csv","legacy","8 1 6","Melodramatic Milgram","4.0.5","3","y","0","left","left","left","left","NA","497.0","23694","10255","497","NA","2","legacy","3","1024","2","48000","-16","experiment","1","odd","6","523217","519978","521011","2281","107080","521013","123422","2347","96825","522015","525221","525719","26066","525220","NA","Sternberg Task","83","49144.0","84","1024"
"98","98","583","583","#3d3846","experiment","legacy","legacy","legacy","1","undefined","1","left","84","84","84","0","0","84","84","0","0","84","84","84","0","84","0","Sun Oct 15 16:34:24 2023","The main experiment item","False","SternbergTask.osexp","/Users/xaleyelyse/Desktop","False","mono","False","18","no","white","no","yes","768","legacy","72","11","/Users/xaleyelyse/Downloads/XWsubject_1.csv","legacy","2 6 1 7 4","Melodramatic Milgram","4.0.5","2","y","0","left","left","left","left","NA","440.0","23694","10255","440","NA","2","legacy","5","1024","2","48000","-16","experiment","1","odd","6","528966","525722","526759","2281","107080","526761","123422","2347","96825","527763","530968","531409","26066","530968","NA","Sternberg Task","84","49584.0","85","1024"
"98","98","582","582","#3d3846","experiment","legacy","legacy","legacy","1","undefined","1","left","85","85","85","0","0","85","85","0","0","85","85","85","0","85","0","Sun Oct 15 16:34:24 2023","The main experiment item","False","SternbergTask.osexp","/Users/xaleyelyse/Desktop","False","mono","False","18","no","white","no","yes","768","legacy","73","11","/Users/xaleyelyse/Downloads/XWsubject_1.csv","legacy","7 2 3","Melodramatic Milgram","4.0.5","3","y","0","left","left","left","left","NA","492.0","23694","10255","492","NA","2","legacy","3","1024","2","48000","-16","experiment","1","odd","3","534655","531411","532449","2281","107080","532451","123422","2347","96825","533453","536657","537150","26066","536657","NA","Sternberg Task","85","50076.0","86","1024"
"98","98","581","581","#3d3846","experiment","legacy","legacy","legacy","1","undefined","1","right","86","86","86","0","0","86","86","0","0","86","86","86","0","86","0","Sun Oct 15 16:34:24 2023","The main experiment item","False","SternbergTask.osexp","/Users/xaleyelyse/Desktop","False","mono","False","18","no","white","no","yes","768","legacy","74","11","/Users/xaleyelyse/Downloads/XWsubject_1.csv","legacy","8 9","Melodramatic Milgram","4.0.5","0","n","0","right","left","left","right","NA","497.0","23694","10255","497","NA","2","legacy","2","1024","2","48000","-16","experiment","1","odd","5","540395","537152","538189","2281","107080","538191","123422","2347","96825","539193","542397","542895","26066","542397","NA","Sternberg Task","86","50573.0","87","1024"
"98","98","583","583","#3d3846","experiment","legacy","legacy","legacy","1","undefined","1","right","87","87","87","0","0","87","87","0","0","87","87","87","0","87","0","Sun Oct 15 16:34:24 2023","The main experiment item","False","SternbergTask.osexp","/Users/xaleyelyse/Desktop","False","mono","False","18","no","white","no","yes","768","legacy","75","11","/Users/xaleyelyse/Downloads/XWsubject_1.csv","legacy","2 7 5","Melodramatic Milgram","4.0.5","0","n","0","right","left","left","right","NA","807.0","23694","10255","807","NA","2","legacy","3","1024","2","48000","-16","experiment","1","odd","8","546152","542898","543943","2281","107080","543946","123422","2347","96825","544948","548155","548963","26066","548154","NA","Sternberg Task","87","51380.0","88","1024"
"98","98","590","590","#3d3846","experiment","legacy","legacy","legacy","1","undefined","1","left","88","88","88","0","0","88","88","0","0","88","88","88","0","88","0","Sun Oct 15 16:34:24 2023","The main experiment item","False","SternbergTask.osexp","/Users/xaleyelyse/Desktop","False","mono","False","18","no","white","no","yes","768","legacy","76","11","/Users/xaleyelyse/Downloads/XWsubject_1.csv","legacy","3 2 1 4 7","Melodramatic Milgram","4.0.5","2","y","0","left","left","left","left","NA","1185.0","23694","10255","1185","NA","2","legacy","5","1024","2","48000","-16","experiment","1","odd","2","552202","548966","549996","2281","107080","549998","123422","2347","96825","551000","554205","555391","26066","554205","NA","Sternberg Task","88","52565.0","89","1024"
"98","98","590","590","#3d3846","experiment","legacy","legacy","legacy","1","undefined","1","right","89","89","89","0","0","89","89","0","0","89","89","89","0","89","0","Sun Oct 15 16:34:24 2023","The main experiment item","False","SternbergTask.osexp","/Users/xaleyelyse/Desktop","False","mono","False","18","no","white","no","yes","768","legacy","77","11","/Users/xaleyelyse/Downloads/XWsubject_1.csv","legacy","5","Melodramatic Milgram","4.0.5","0","n","0","right","left","left","right","NA","565.0","23694","10255","565","NA","2","legacy","1","1024","2","48000","-16","experiment","1","odd","8","558631","555394","556425","2281","107080","556427","123422","2347","96825","557429","560634","561200","26066","560634","NA","Sternberg Task","89","53130.0","90","1024"
"98","98","589","589","#3d3846","experiment","legacy","legacy","legacy","1","undefined","1","right","90","90","90","0","0","90","90","0","0","90","90","90","0","90","0","Sun Oct 15 16:34:24 2023","The main experiment item","False","SternbergTask.osexp","/Users/xaleyelyse/Desktop","False","mono","False","18","no","white","no","yes","768","legacy","78","11","/Users/xaleyelyse/Downloads/XWsubject_1.csv","legacy","4 1","Melodramatic Milgram","4.0.5","0","n","0","right","left","left","right","NA","498.0","23694","10255","498","NA","2","legacy","2","1024","2","48000","-16","experiment","1","odd","6","564446","561202","562239","2281","107080","562242","123422","2347","96825","563244","566449","566948","26066","566449","NA","Sternberg Task","90","53628.0","91","1024"
"98","98","594","594","#3d3846","experiment","legacy","legacy","legacy","1","undefined","1","right","91","91","91","0","0","91","91","0","0","91","91","91","0","91","0","Sun Oct 15 16:34:24 2023","The main experiment item","False","SternbergTask.osexp","/Users/xaleyelyse/Desktop","False","mono","False","18","no","white","no","yes","768","legacy","79","11","/Users/xaleyelyse/Downloads/XWsubject_1.csv","legacy","1 7 5 2 9","Melodramatic Milgram","4.0.5","0","n","0","right","left","left","right","NA","1036.0","23694","10255","1036","NA","2","legacy","5","1024","2","48000","-16","experiment","1","odd","3","570194","566950","567987","2281","107080","567990","123422","2347","96825","568992","572197","573235","26066","572197","NA","Sternberg Task","91","54664.0","92","1024"
"98","98","597","597","#3d3846","experiment","legacy","legacy","legacy","1","undefined","1","right","92","92","92","0","0","92","92","0","0","92","92","92","0","92","0","Sun Oct 15 16:34:24 2023","The main experiment item","False","SternbergTask.osexp","/Users/xaleyelyse/Desktop","False","mono","False","18","no","white","no","yes","768","legacy","80","11","/Users/xaleyelyse/Downloads/XWsubject_1.csv","legacy","2 8 9","Melodramatic Milgram","4.0.5","0","n","0","right","left","left","right","NA","904.0","23694","10255","904","NA","2","legacy","3","1024","2","48000","-16","experiment","1","odd","6","576482","573238","574274","2281","107080","574277","123422","2347","96825","575279","578484","579389","26066","578484","NA","Sternberg Task","92","55568.0","93","1024"
"98","98","599","599","#3d3846","experiment","legacy","legacy","legacy","1","undefined","1","left","93","93","93","0","0","93","93","0","0","93","93","93","0","93","0","Sun Oct 15 16:34:24 2023","The main experiment item","False","SternbergTask.osexp","/Users/xaleyelyse/Desktop","False","mono","False","18","no","white","no","yes","768","legacy","81","11","/Users/xaleyelyse/Downloads/XWsubject_1.csv","legacy","2 4 6 9","Melodramatic Milgram","4.0.5","3","y","0","left","left","left","left","NA","750.0","23694","10255","750","NA","2","legacy","4","1024","2","48000","-16","experiment","1","odd","6","582645","579392","580438","2281","107080","580440","123422","2347","96825","581442","584647","585398","26066","584647","NA","Sternberg Task","93","56318.0","94","1024"
"98","98","598","598","#3d3846","experiment","legacy","legacy","legacy","1","undefined","1","left","94","94","94","0","0","94","94","0","0","94","94","94","0","94","0","Sun Oct 15 16:34:24 2023","The main experiment item","False","SternbergTask.osexp","/Users/xaleyelyse/Desktop","False","mono","False","18","no","white","no","yes","768","legacy","82","11","/Users/xaleyelyse/Downloads/XWsubject_1.csv","legacy","4 6 5 8","Melodramatic Milgram","4.0.5","1","y","0","left","left","left","left","NA","500.0","23694","10255","500","NA","2","legacy","4","1024","2","48000","-16","experiment","1","odd","4","588638","585401","586430","2281","107080","586432","123422","2347","96825","587435","590640","591141","26066","590640","NA","Sternberg Task","94","56818.0","95","1024"
"98","98","597","597","#3d3846","experiment","legacy","legacy","legacy","1","undefined","1","left","95","95","95","0","0","95","95","0","0","95","95","95","0","95","0","Sun Oct 15 16:34:24 2023","The main experiment item","False","SternbergTask.osexp","/Users/xaleyelyse/Desktop","False","mono","False","18","no","white","no","yes","768","legacy","83","11","/Users/xaleyelyse/Downloads/XWsubject_1.csv","legacy","4 3 2 5 8","Melodramatic Milgram","4.0.5","2","y","0","left","left","left","left","NA","540.0","23694","10255","540","NA","2","legacy","5","1024","2","48000","-16","experiment","1","odd","3","594383","591144","592176","2281","107080","592178","123422","2347","96825","593180","596385","596926","26066","596385","NA","Sternberg Task","95","57358.0","96","1024"
"98","98","596","596","#3d3846","experiment","legacy","legacy","legacy","1","undefined","1","right","96","96","96","0","0","96","96","0","0","96","96","96","0","96","0","Sun Oct 15 16:34:24 2023","The main experiment item","False","SternbergTask.osexp","/Users/xaleyelyse/Desktop","False","mono","False","18","no","white","no","yes","768","legacy","84","11","/Users/xaleyelyse/Downloads/XWsubject_1.csv","legacy","2 8 6 3 1","Melodramatic Milgram","4.0.5","0","n","0","right","left","left","right","NA","475.0","23694","10255","475","NA","2","legacy","5","1024","2","48000","-16","experiment","1","odd","7","600172","596929","597965","2281","107080","597968","123422","2347","96825","598970","602175","602651","26066","602175","NA","Sternberg Task","96","57833.0","97","1024"
"98","98","594","594","#3d3846","experiment","legacy","legacy","legacy","1","undefined","1","right","97","97","97","0","0","97","97","0","0","97","97","97","0","97","0","Sun Oct 15 16:34:24 2023","The main experiment item","False","SternbergTask.osexp","/Users/xaleyelyse/Desktop","False","mono","False","18","no","white","no","yes","768","legacy","85","11","/Users/xaleyelyse/Downloads/XWsubject_1.csv","legacy","3 9 1","Melodramatic Milgram","4.0.5","0","n","0","right","left","left","right","NA","408.0","23694","10255","408","NA","2","legacy","3","1024","2","48000","-16","experiment","1","odd","7","605897","602654","603690","2281","107080","603692","123422","2347","96825","604694","607899","608308","26066","607899","NA","Sternberg Task","97","58241.0","98","1024"
"98","98","592","592","#3d3846","experiment","legacy","legacy","legacy","1","undefined","1","left","98","98","98","0","0","98","98","0","0","98","98","98","0","98","0","Sun Oct 15 16:34:24 2023","The main experiment item","False","SternbergTask.osexp","/Users/xaleyelyse/Desktop","False","mono","False","18","no","white","no","yes","768","legacy","86","11","/Users/xaleyelyse/Downloads/XWsubject_1.csv","legacy","9 5 8 1","Melodramatic Milgram","4.0.5","2","y","0","left","left","left","left","NA","389.0","23694","10255","389","NA","2","legacy","4","1024","2","48000","-16","experiment","1","odd","5","611549","608311","609342","2281","107080","609344","123422","2347","96825","610346","613551","613941","26066","613551","NA","Sternberg Task","98","58630.0","99","1024"
"99","99","590","590","#3d3846","experiment","legacy","legacy","legacy","1","undefined","1","left","99","99","99","0","0","99","99","0","0","99","99","99","0","99","0","Sun Oct 15 16:34:24 2023","The main experiment item","False","SternbergTask.osexp","/Users/xaleyelyse/Desktop","False","mono","False","18","no","white","no","yes","768","legacy","87","11","/Users/xaleyelyse/Downloads/XWsubject_1.csv","legacy","8","Melodramatic Milgram","4.0.5","1","y","0","left","left","left","left","NA","409.0","23694","10255","409","NA","2","legacy","1","1024","2","48000","-16","experiment","1","odd","8","617235","613943","615027","2281","107080","615030","123422","2347","96825","616032","619237","619648","26066","619237","NA","Sternberg Task","99","59039.0","100","1024"
"99","99","591","591","#3d3846","experiment","legacy","legacy","legacy","1","undefined","1","right","100","100","100","0","0","100","100","0","0","100","100","100","0","100","0","Sun Oct 15 16:34:24 2023","The main experiment item","False","SternbergTask.osexp","/Users/xaleyelyse/Desktop","False","mono","False","18","no","white","no","yes","768","legacy","88","11","/Users/xaleyelyse/Downloads/XWsubject_1.csv","legacy","1 4 9 3","Melodramatic Milgram","4.0.5","0","n","0","right","left","left","right","NA","681.0","23694","10255","681","NA","2","legacy","4","1024","2","48000","-16","experiment","1","odd","5","622886","619650","620679","2281","107080","620681","123422","2347","96825","621683","624888","625571","26066","624888","NA","Sternberg Task","100","59720.0","101","1024"
"99","99","591","591","#3d3846","experiment","legacy","legacy","legacy","1","undefined","1","left","101","101","101","0","0","101","101","0","0","101","101","101","0","101","0","Sun Oct 15 16:34:24 2023","The main experiment item","False","SternbergTask.osexp","/Users/xaleyelyse/Desktop","False","mono","False","18","no","white","no","yes","768","legacy","89","11","/Users/xaleyelyse/Downloads/XWsubject_1.csv","legacy","2 8 5 1","Melodramatic Milgram","4.0.5","4","y","0","left","left","left","left","NA","599.0","23694","10255","599","NA","2","legacy","4","1024","2","48000","-16","experiment","1","odd","1","628811","625573","626604","2281","107080","626606","123422","2347","96825","627608","630813","631413","26066","630813","NA","Sternberg Task","101","60319.0","102","1024"
"99","99","590","590","#3d3846","experiment","legacy","legacy","legacy","1","undefined","1","right","102","102","102","0","0","102","102","0","0","102","102","102","0","102","0","Sun Oct 15 16:34:24 2023","The main experiment item","False","SternbergTask.osexp","/Users/xaleyelyse/Desktop","False","mono","False","18","no","white","no","yes","768","legacy","90","11","/Users/xaleyelyse/Downloads/XWsubject_1.csv","legacy","5 7 3","Melodramatic Milgram","4.0.5","0","n","0","right","left","left","right","NA","468.0","23694","10255","468","NA","2","legacy","3","1024","2","48000","-16","experiment","1","odd","9","634659","631416","632452","2281","107080","632454","123422","2347","96825","633456","636661","637130","26066","636661","NA","Sternberg Task","102","60787.0","103","1024"
"99","99","589","589","#3d3846","experiment","legacy","legacy","legacy","1","undefined","1","right","103","103","103","0","0","103","103","0","0","103","103","103","0","103","0","Sun Oct 15 16:34:24 2023","The main experiment item","False","SternbergTask.osexp","/Users/xaleyelyse/Desktop","False","mono","False","18","no","white","no","yes","768","legacy","91","11","/Users/xaleyelyse/Downloads/XWsubject_1.csv","legacy","3 9 8 1 6 4","Melodramatic Milgram","4.0.5","0","n","0","right","left","left","right","NA","532.0","23694","10255","532","NA","2","legacy","6","1024","2","48000","-16","experiment","1","odd","7","640377","637132","638170","2281","107080","638172","123422","2347","96825","639174","642379","642912","26066","642379","NA","Sternberg Task","103","61319.0","104","1024"
"99","99","589","589","#3d3846","experiment","legacy","legacy","legacy","1","undefined","1","right","104","104","104","0","0","104","104","0","0","104","104","104","0","104","0","Sun Oct 15 16:34:24 2023","The main experiment item","False","SternbergTask.osexp","/Users/xaleyelyse/Desktop","False","mono","False","18","no","white","no","yes","768","legacy","92","11","/Users/xaleyelyse/Downloads/XWsubject_1.csv","legacy","7 4 2 8 1 9","Melodramatic Milgram","4.0.5","0","n","0","right","left","left","right","NA","541.0","23694","10255","541","NA","2","legacy","6","1024","2","48000","-16","experiment","1","odd","5","646158","642915","643952","2281","107080","643954","123422","2347","96825","644956","648161","648703","26066","648160","NA","Sternberg Task","104","61860.0","105","1024"
"99","99","588","588","#3d3846","experiment","legacy","legacy","legacy","1","undefined","1","left","105","105","105","0","0","105","105","0","0","105","105","105","0","105","0","Sun Oct 15 16:34:24 2023","The main experiment item","False","SternbergTask.osexp","/Users/xaleyelyse/Desktop","False","mono","False","18","no","white","no","yes","768","legacy","93","11","/Users/xaleyelyse/Downloads/XWsubject_1.csv","legacy","7 1 8 5 6 2","Melodramatic Milgram","4.0.5","2","y","0","left","left","left","left","NA","564.0","23694","10255","564","NA","2","legacy","6","1024","2","48000","-16","experiment","1","odd","1","651958","648706","649751","2281","107080","649753","123422","2347","96825","650755","653960","654525","26066","653960","NA","Sternberg Task","105","62424.0","106","1024"
"99","99","588","588","#3d3846","experiment","legacy","legacy","legacy","1","undefined","1","left","106","106","106","0","0","106","106","0","0","106","106","106","0","106","0","Sun Oct 15 16:34:24 2023","The main experiment item","False","SternbergTask.osexp","/Users/xaleyelyse/Desktop","False","mono","False","18","no","white","no","yes","768","legacy","94","11","/Users/xaleyelyse/Downloads/XWsubject_1.csv","legacy","8 5 3 7 4 6","Melodramatic Milgram","4.0.5","6","y","0","left","left","left","left","NA","585.0","23694","10255","585","NA","2","legacy","6","1024","2","48000","-16","experiment","1","odd","6","657764","654527","655557","2281","107080","655559","123422","2347","96825","656561","659766","660352","26066","659766","NA","Sternberg Task","106","63009.0","107","1024"
"99","99","589","589","#3d3846","experiment","legacy","legacy","legacy","1","undefined","1","right","107","107","107","0","0","107","107","0","0","107","107","107","0","107","0","Sun Oct 15 16:34:24 2023","The main experiment item","False","SternbergTask.osexp","/Users/xaleyelyse/Desktop","False","mono","False","18","no","white","no","yes","768","legacy","95","11","/Users/xaleyelyse/Downloads/XWsubject_1.csv","legacy","9","Melodramatic Milgram","4.0.5","0","n","0","right","left","left","right","NA","611.0","23694","10255","611","NA","2","legacy","1","1024","2","48000","-16","experiment","1","odd","6","663592","660354","661386","2281","107080","661388","123422","2347","96825","662390","665594","666206","26066","665594","NA","Sternberg Task","107","63620.0","108","1024"
"99","99","588","588","#3d3846","experiment","legacy","legacy","legacy","1","undefined","1","left","108","108","108","0","0","108","108","0","0","108","108","108","0","108","0","Sun Oct 15 16:34:24 2023","The main experiment item","False","SternbergTask.osexp","/Users/xaleyelyse/Desktop","False","mono","False","18","no","white","no","yes","768","legacy","96","11","/Users/xaleyelyse/Downloads/XWsubject_1.csv","legacy","9 4 2","Melodramatic Milgram","4.0.5","1","y","0","left","left","left","left","NA","522.0","23694","10255","522","NA","2","legacy","3","1024","2","48000","-16","experiment","1","odd","9","669452","666209","667244","2281","107080","667247","123422","2347","96825","668249","671454","671977","26066","671454","NA","Sternberg Task","108","64142.0","109","1024"
"99","99","587","587","#3d3846","experiment","legacy","legacy","legacy","1","undefined","1","right","109","109","109","0","0","109","109","0","0","109","109","109","0","109","0","Sun Oct 15 16:34:24 2023","The main experiment item","False","SternbergTask.osexp","/Users/xaleyelyse/Desktop","False","mono","False","18","no","white","no","yes","768","legacy","97","11","/Users/xaleyelyse/Downloads/XWsubject_1.csv","legacy","4 8 1 2","Melodramatic Milgram","4.0.5","0","n","0","right","left","left","right","NA","468.0","23694","10255","468","NA","2","legacy","4","1024","2","48000","-16","experiment","1","odd","7","675221","671980","673014","2281","107080","673017","123422","2347","96825","674019","677224","677694","26066","677224","NA","Sternberg Task","109","64610.0","110","1024"
"99","99","588","588","#3d3846","experiment","legacy","legacy","legacy","1","undefined","1","right","110","110","110","0","0","110","110","0","0","110","110","110","0","110","0","Sun Oct 15 16:34:24 2023","The main experiment item","False","SternbergTask.osexp","/Users/xaleyelyse/Desktop","False","mono","False","18","no","white","no","yes","768","legacy","98","11","/Users/xaleyelyse/Downloads/XWsubject_1.csv","legacy","1 5 3 2 8","Melodramatic Milgram","4.0.5","0","n","0","right","left","left","right","NA","719.0","23694","10255","719","NA","2","legacy","5","1024","2","48000","-16","experiment","1","odd","4","680940","677696","678733","2281","107080","678735","123422","2347","96825","679737","682942","683662","26066","682942","NA","Sternberg Task","110","65329.0","111","1024"
"99","99","587","587","#3d3846","experiment","legacy","legacy","legacy","1","undefined","1","right","111","111","111","0","0","111","111","0","0","111","111","111","0","111","0","Sun Oct 15 16:34:24 2023","The main experiment item","False","SternbergTask.osexp","/Users/xaleyelyse/Desktop","False","mono","False","18","no","white","no","yes","768","legacy","99","11","/Users/xaleyelyse/Downloads/XWsubject_1.csv","legacy","4 2 6 9","Melodramatic Milgram","4.0.5","0","n","0","right","left","left","right","NA","522.0","23694","10255","522","NA","2","legacy","4","1024","2","48000","-16","experiment","1","odd","7","686917","683665","684709","2281","107080","684712","123422","2347","96825","685714","688919","689443","26066","688919","NA","Sternberg Task","111","65851.0","112","1024"
"99","99","588","588","#3d3846","experiment","legacy","legacy","legacy","1","undefined","1","right","112","112","112","0","0","112","112","0","0","112","112","112","0","112","0","Sun Oct 15 16:34:24 2023","The main experiment item","False","SternbergTask.osexp","/Users/xaleyelyse/Desktop","False","mono","False","18","no","white","no","yes","768","legacy","100","11","/Users/xaleyelyse/Downloads/XWsubject_1.csv","legacy","9 7 4 5 8","Melodramatic Milgram","4.0.5","0","n","0","right","left","left","right","NA","650.0","23694","10255","650","NA","2","legacy","5","1024","2","48000","-16","experiment","1","odd","6","692681","689445","690475","2281","107080","690477","123422","2347","96825","691479","694683","695334","26066","694683","NA","Sternberg Task","112","66501.0","113","1024"
"99","99","589","589","#3d3846","experiment","legacy","legacy","legacy","1","undefined","1","right","113","113","113","0","0","113","113","0","0","113","113","113","0","113","0","Sun Oct 15 16:34:24 2023","The main experiment item","False","SternbergTask.osexp","/Users/xaleyelyse/Desktop","False","mono","False","18","no","white","no","yes","768","legacy","101","11","/Users/xaleyelyse/Downloads/XWsubject_1.csv","legacy","2 8 9 4 1","Melodramatic Milgram","4.0.5","0","n","0","right","left","left","right","NA","664.0","23694","10255","664","NA","2","legacy","5","1024","2","48000","-16","experiment","1","odd","5","698575","695336","696368","2281","107080","696371","123422","2347","96825","697373","700577","701242","26066","700577","NA","Sternberg Task","113","67165.0","114","1024"
"99","99","594","594","#3d3846","experiment","legacy","legacy","legacy","1","undefined","1","left","114","114","114","0","0","114","114","0","0","114","114","114","0","114","0","Sun Oct 15 16:34:24 2023","The main experiment item","False","SternbergTask.osexp","/Users/xaleyelyse/Desktop","False","mono","False","18","no","white","no","yes","768","legacy","102","11","/Users/xaleyelyse/Downloads/XWsubject_1.csv","legacy","5 7 8 2 3 8","Melodramatic Milgram","4.0.5","5","y","0","left","left","left","left","NA","1147.0","23694","10255","1147","NA","2","legacy","6","1024","2","48000","-16","experiment","1","odd","3","704490","701245","702282","2281","107080","702285","123422","2347","96825","703287","706492","707640","26066","706492","NA","Sternberg Task","114","68312.0","115","1024"
"99","99","593","593","#3d3846","experiment","legacy","legacy","legacy","1","undefined","1","right","115","115","115","0","0","115","115","0","0","115","115","115","0","115","0","Sun Oct 15 16:34:24 2023","The main experiment item","False","SternbergTask.osexp","/Users/xaleyelyse/Desktop","False","mono","False","18","no","white","no","yes","768","legacy","103","11","/Users/xaleyelyse/Downloads/XWsubject_1.csv","legacy","1 7 5 2","Melodramatic Milgram","4.0.5","0","n","0","right","left","left","right","NA","513.0","23694","10255","513","NA","2","legacy","4","1024","2","48000","-16","experiment","1","odd","3","710883","707643","708676","2281","107080","708678","123422","2347","96825","709680","712885","713400","26066","712885","NA","Sternberg Task","115","68825.0","116","1024"
"99","99","592","592","#3d3846","experiment","legacy","legacy","legacy","1","undefined","1","right","116","116","116","0","0","116","116","0","0","116","116","116","0","116","0","Sun Oct 15 16:34:24 2023","The main experiment item","False","SternbergTask.osexp","/Users/xaleyelyse/Desktop","False","mono","False","18","no","white","no","yes","768","legacy","104","11","/Users/xaleyelyse/Downloads/XWsubject_1.csv","legacy","2 5 1 4","Melodramatic Milgram","4.0.5","0","n","0","right","left","left","right","NA","512.0","23694","10255","512","NA","2","legacy","4","1024","2","48000","-16","experiment","1","odd","6","716645","713403","714439","2281","107080","714441","123422","2347","96825","715443","718648","719161","26066","718648","NA","Sternberg Task","116","69337.0","117","1024"
"99","99","592","592","#3d3846","experiment","legacy","legacy","legacy","1","undefined","1","right","117","117","117","0","0","117","117","0","0","117","117","117","0","117","0","Sun Oct 15 16:34:24 2023","The main experiment item","False","SternbergTask.osexp","/Users/xaleyelyse/Desktop","False","mono","False","18","no","white","no","yes","768","legacy","105","11","/Users/xaleyelyse/Downloads/XWsubject_1.csv","legacy","1 3 2 6 9","Melodramatic Milgram","4.0.5","0","n","0","right","left","left","right","NA","544.0","23694","10255","544","NA","2","legacy","5","1024","2","48000","-16","experiment","1","odd","5","722414","719163","720207","2281","107080","720209","123422","2347","96825","721211","724416","724961","26066","724416","NA","Sternberg Task","117","69881.0","118","1024"
"99","99","591","591","#3d3846","experiment","legacy","legacy","legacy","1","undefined","1","left","118","118","118","0","0","118","118","0","0","118","118","118","0","118","0","Sun Oct 15 16:34:24 2023","The main experiment item","False","SternbergTask.osexp","/Users/xaleyelyse/Desktop","False","mono","False","18","no","white","no","yes","768","legacy","106","11","/Users/xaleyelyse/Downloads/XWsubject_1.csv","legacy","7 6","Melodramatic Milgram","4.0.5","2","y","0","left","left","left","left","NA","499.0","23694","10255","499","NA","2","legacy","2","1024","2","48000","-16","experiment","1","odd","6","728200","724963","725992","2281","107080","725995","123422","2347","96825","726997","730202","730702","26066","730202","NA","Sternberg Task","118","70380.0","119","1024"
"99","99","591","591","#3d3846","experiment","legacy","legacy","legacy","1","undefined","1","right","119","119","119","0","0","119","119","0","0","119","119","119","0","119","0","Sun Oct 15 16:34:24 2023","The main experiment item","False","SternbergTask.osexp","/Users/xaleyelyse/Desktop","False","mono","False","18","no","white","no","yes","768","legacy","107","11","/Users/xaleyelyse/Downloads/XWsubject_1.csv","legacy","8 4 3 5","Melodramatic Milgram","4.0.5","0","n","0","right","left","left","right","NA","596.0","23694","10255","596","NA","2","legacy","4","1024","2","48000","-16","experiment","1","odd","6","733945","730705","731738","2281","107080","731740","123422","2347","96825","732742","735947","736545","26066","735947","NA","Sternberg Task","119","70976.0","120","1024"
"99","99","591","591","#3d3846","experiment","legacy","legacy","legacy","1","undefined","1","right","120","120","120","0","0","120","120","0","0","120","120","120","0","120","0","Sun Oct 15 16:34:24 2023","The main experiment item","False","SternbergTask.osexp","/Users/xaleyelyse/Desktop","False","mono","False","18","no","white","no","yes","768","legacy","108","11","/Users/xaleyelyse/Downloads/XWsubject_1.csv","legacy","1","Melodramatic Milgram","4.0.5","0","n","0","right","left","left","right","NA","585.0","23694","10255","585","NA","2","legacy","1","1024","2","48000","-16","experiment","1","odd","7","739790","736547","737584","2281","107080","737586","123422","2347","96825","738588","741793","742379","26066","741793","NA","Sternberg Task","120","71561.0","121","1024"
"99","99","592","592","#3d3846","experiment","legacy","legacy","legacy","1","undefined","1","left","121","121","121","0","0","121","121","0","0","121","121","121","0","121","0","Sun Oct 15 16:34:24 2023","The main experiment item","False","SternbergTask.osexp","/Users/xaleyelyse/Desktop","False","mono","False","18","no","white","no","yes","768","legacy","109","11","/Users/xaleyelyse/Downloads/XWsubject_1.csv","legacy","4 9 7 8 5 3","Melodramatic Milgram","4.0.5","4","y","0","left","left","left","left","NA","719.0","23694","10255","719","NA","2","legacy","6","1024","2","48000","-16","experiment","1","odd","8","745625","742382","743419","2281","107080","743421","123422","2347","96825","744423","747628","748348","26066","747628","NA","Sternberg Task","121","72280.0","122","1024"
"99","99","593","593","#3d3846","experiment","legacy","legacy","legacy","1","undefined","1","left","122","122","122","0","0","122","122","0","0","122","122","122","0","122","0","Sun Oct 15 16:34:24 2023","The main experiment item","False","SternbergTask.osexp","/Users/xaleyelyse/Desktop","False","mono","False","18","no","white","no","yes","768","legacy","110","11","/Users/xaleyelyse/Downloads/XWsubject_1.csv","legacy","7 4 2 6 3 5","Melodramatic Milgram","4.0.5","6","y","0","left","left","left","left","NA","659.0","23694","10255","659","NA","2","legacy","6","1024","2","48000","-16","experiment","1","odd","5","751595","748351","749388","2281","107080","749390","123422","2347","96825","750392","753597","754257","26066","753597","NA","Sternberg Task","122","72939.0","123","1024"
"99","99","593","593","#3d3846","experiment","legacy","legacy","legacy","1","undefined","1","right","123","123","123","0","0","123","123","0","0","123","123","123","0","123","0","Sun Oct 15 16:34:24 2023","The main experiment item","False","SternbergTask.osexp","/Users/xaleyelyse/Desktop","False","mono","False","18","no","white","no","yes","768","legacy","111","11","/Users/xaleyelyse/Downloads/XWsubject_1.csv","legacy","1 4 9 2 5","Melodramatic Milgram","4.0.5","0","n","0","right","left","left","right","NA","666.0","23694","10255","666","NA","2","legacy","5","1024","2","48000","-16","experiment","1","odd","7","757511","754259","755304","2281","107080","755306","123422","2347","96825","756308","759513","760180","26066","759513","NA","Sternberg Task","123","73605.0","124","1024"
"99","99","594","594","#3d3846","experiment","legacy","legacy","legacy","1","undefined","1","right","124","124","124","0","0","124","124","0","0","124","124","124","0","124","0","Sun Oct 15 16:34:24 2023","The main experiment item","False","SternbergTask.osexp","/Users/xaleyelyse/Desktop","False","mono","False","18","no","white","no","yes","768","legacy","112","11","/Users/xaleyelyse/Downloads/XWsubject_1.csv","legacy","2 3 8 5 6 7","Melodramatic Milgram","4.0.5","0","n","0","right","left","left","right","NA","727.0","23694","10255","727","NA","2","legacy","6","1024","2","48000","-16","experiment","1","odd","1","763416","760183","761210","2281","107080","761212","123422","2347","96825","762214","765419","766148","26066","765419","NA","Sternberg Task","124","74332.0","125","1024"
"99","99","594","594","#3d3846","experiment","legacy","legacy","legacy","1","undefined","1","left","125","125","125","0","0","125","125","0","0","125","125","125","0","125","0","Sun Oct 15 16:34:24 2023","The main experiment item","False","SternbergTask.osexp","/Users/xaleyelyse/Desktop","False","mono","False","18","no","white","no","yes","768","legacy","113","11","/Users/xaleyelyse/Downloads/XWsubject_1.csv","legacy","7 8 4 6 9 5","Melodramatic Milgram","4.0.5","4","y","0","left","left","left","left","NA","563.0","23694","10255","563","NA","2","legacy","6","1024","2","48000","-16","experiment","1","odd","6","769390","766150","767183","2281","107080","767185","123422","2347","96825","768187","771392","771956","26066","771392","NA","Sternberg Task","125","74895.0","126","1024"
"99","99","593","593","#3d3846","experiment","legacy","legacy","legacy","1","undefined","1","left","126","126","126","0","0","126","126","0","0","126","126","126","0","126","0","Sun Oct 15 16:34:24 2023","The main experiment item","False","SternbergTask.osexp","/Users/xaleyelyse/Desktop","False","mono","False","18","no","white","no","yes","768","legacy","114","11","/Users/xaleyelyse/Downloads/XWsubject_1.csv","legacy","3 4","Melodramatic Milgram","4.0.5","1","y","0","left","left","left","left","NA","462.0","23694","10255","462","NA","2","legacy","2","1024","2","48000","-16","experiment","1","odd","3","775203","771959","772995","2281","107080","772998","123422","2347","96825","774000","777205","777668","26066","777205","NA","Sternberg Task","126","75357.0","127","1024"
