"acc","accuracy","average_response_time","avg_rt","background","block","canvas_backend","clock_backend","color_backend","compensation","coordinates","correct","correct_instruction1","correct_keyboard_response","correct_response","count_ISI","count_Practiceloop","count_correctFeedback","count_expSequence","count_experiment","count_experimentLoop","count_fixation","count_incorrectFeedback","count_instruction1","count_instructions2","count_keyboard_response","count_logger","count_memorySet","count_probe","count_thankYou","datetime","description","disable_garbage_collection","experiment_file","experiment_path","font_bold","font_family","font_italic","font_size","font_underline","foreground","form_clicks","fullscreen","height","keyboard_backend","live_row","live_row_Practiceloop","logfile","mouse_backend","numberSet","opensesame_codename","opensesame_version","posInSet","present","repeat_cycle","response","response_instruction1","response_instructions2","response_keyboard_response","response_thankYou","response_time","response_time_instruction1","response_time_instructions2","response_time_keyboard_response","response_time_thankYou","round_decimals","sampler_backend","setSize","sound_buf_size","sound_channels","sound_freq","sound_sample_size","start","subject_nr","subject_parity","target","time_ISI","time_Practiceloop","time_correctFeedback","time_expSequence","time_experiment","time_experimentLoop","time_fixation","time_incorrectFeedback","time_instruction1","time_instructions2","time_keyboard_response","time_logger","time_memorySet","time_probe","time_thankYou","title","total_correct","total_response_time","total_responses","uniform_coordinates","width"
"100","100","752","752","black","practice","legacy","legacy","legacy","0","uniform","1","undefined","1","left","0","0","0","0","0","0","0","0","0","0","0","0","0","0","0","Sun Oct 17 22:35:09 2021","The main experiment item","yes","Sternbergtask.osexp","C:/Users/Simon M. Rook/Documents/School/1Tarleton/Classes/Adv Quant/Lab 3","no","mono","no","18","no","white","no","no","768","legacy","0","0","C:/Users/Simon M. Rook/Documents/School/1Tarleton/Classes/Adv Quant/Lab 3/New folder/sr-subject-3.csv","legacy","1 5 2 9","Lentiform Loewenfeld","3.3.10","2","y","0","left","left","NA","left","NA","752","45682","NA","752","NA","2","legacy","4","1024","2","48000","-16","experiment","3","odd","5","49350","46903","NA","47144","1217","NA","47146","NA","1220","NA","51351","52103","48147","51351","NA","Sternberg task","1","752","1","yes","1024"
"100","100","693.5","693.5","black","practice","legacy","legacy","legacy","0","uniform","1","undefined","1","right","1","0","1","1","0","0","1","1","0","0","1","1","1","1","0","Sun Oct 17 22:35:09 2021","The main experiment item","yes","Sternbergtask.osexp","C:/Users/Simon M. Rook/Documents/School/1Tarleton/Classes/Adv Quant/Lab 3","no","mono","no","18","no","white","no","no","768","legacy","1","1","C:/Users/Simon M. Rook/Documents/School/1Tarleton/Classes/Adv Quant/Lab 3/New folder/sr-subject-3.csv","legacy","5","Lentiform Loewenfeld","3.3.10","0","n","0","right","left","NA","right","NA","635","45682","NA","635","NA","2","legacy","1","1024","2","48000","-16","experiment","3","odd","3","55467","46903","52165","53263","1217","NA","53265","NA","1220","NA","57468","58104","54266","57468","NA","Sternberg task","2","1387","2","yes","1024"
"100","100","777","777","black","practice","legacy","legacy","legacy","0","uniform","1","undefined","1","left","2","0","2","2","0","0","2","2","0","0","2","2","2","2","0","Sun Oct 17 22:35:09 2021","The main experiment item","yes","Sternbergtask.osexp","C:/Users/Simon M. Rook/Documents/School/1Tarleton/Classes/Adv Quant/Lab 3","no","mono","no","18","no","white","no","no","768","legacy","2","2","C:/Users/Simon M. Rook/Documents/School/1Tarleton/Classes/Adv Quant/Lab 3/New folder/sr-subject-3.csv","legacy","4 8","Lentiform Loewenfeld","3.3.10","1","y","0","left","left","NA","left","NA","944","45682","NA","944","NA","2","legacy","2","1024","2","48000","-16","experiment","3","odd","4","61399","46903","58107","59196","1217","NA","59197","NA","1220","NA","63400","64344","60198","63400","NA","Sternberg task","3","2331","3","yes","1024"
"100","100","757.25","757.25","black","practice","legacy","legacy","legacy","0","uniform","1","undefined","1","right","3","0","3","3","0","0","3","3","0","0","3","3","3","3","0","Sun Oct 17 22:35:09 2021","The main experiment item","yes","Sternbergtask.osexp","C:/Users/Simon M. Rook/Documents/School/1Tarleton/Classes/Adv Quant/Lab 3","no","mono","no","18","no","white","no","no","768","legacy","3","3","C:/Users/Simon M. Rook/Documents/School/1Tarleton/Classes/Adv Quant/Lab 3/New folder/sr-subject-3.csv","legacy","4 1 5","Lentiform Loewenfeld","3.3.10","0","n","0","right","left","NA","right","NA","698","45682","NA","698","NA","2","legacy","3","1024","2","48000","-16","experiment","3","odd","2","67638","46903","64349","65434","1217","NA","65436","NA","1220","NA","69639","70338","66437","69639","NA","Sternberg task","4","3029","4","yes","1024"
"100","100","769.4","769.4","black","practice","legacy","legacy","legacy","0","uniform","1","undefined","1","right","4","0","4","4","0","0","4","4","0","0","4","4","4","4","0","Sun Oct 17 22:35:09 2021","The main experiment item","yes","Sternbergtask.osexp","C:/Users/Simon M. Rook/Documents/School/1Tarleton/Classes/Adv Quant/Lab 3","no","mono","no","18","no","white","no","no","768","legacy","4","4","C:/Users/Simon M. Rook/Documents/School/1Tarleton/Classes/Adv Quant/Lab 3/New folder/sr-subject-3.csv","legacy","3 1 9 4","Lentiform Loewenfeld","3.3.10","0","n","0","right","left","NA","right","NA","818","45682","NA","818","NA","2","legacy","4","1024","2","48000","-16","experiment","3","odd","6","73639","46903","70350","71435","1217","NA","71437","NA","1220","NA","75640","76458","72438","75640","NA","Sternberg task","5","3847","5","yes","1024"
"100","100","727.5","727.5","black","practice","legacy","legacy","legacy","0","uniform","1","undefined","1","left","5","0","5","5","0","0","5","5","0","0","5","5","5","5","0","Sun Oct 17 22:35:09 2021","The main experiment item","yes","Sternbergtask.osexp","C:/Users/Simon M. Rook/Documents/School/1Tarleton/Classes/Adv Quant/Lab 3","no","mono","no","18","no","white","no","no","768","legacy","5","5","C:/Users/Simon M. Rook/Documents/School/1Tarleton/Classes/Adv Quant/Lab 3/New folder/sr-subject-3.csv","legacy","6","Lentiform Loewenfeld","3.3.10","1","y","0","left","left","NA","left","NA","518","45682","NA","518","NA","2","legacy","1","1024","2","48000","-16","experiment","3","odd","6","79755","46903","76467","77552","1217","NA","77553","NA","1220","NA","81756","82274","78554","81756","NA","Sternberg task","6","4365","6","yes","1024"
"100","100","765.2857142857143","765.2857142857143","black","practice","legacy","legacy","legacy","0","uniform","1","undefined","1","left","6","0","6","6","0","0","6","6","0","0","6","6","6","6","0","Sun Oct 17 22:35:09 2021","The main experiment item","yes","Sternbergtask.osexp","C:/Users/Simon M. Rook/Documents/School/1Tarleton/Classes/Adv Quant/Lab 3","no","mono","no","18","no","white","no","no","768","legacy","6","6","C:/Users/Simon M. Rook/Documents/School/1Tarleton/Classes/Adv Quant/Lab 3/New folder/sr-subject-3.csv","legacy","1 7 9 8 5","Lentiform Loewenfeld","3.3.10","4","y","0","left","left","NA","left","NA","992","45682","NA","992","NA","2","legacy","5","1024","2","48000","-16","experiment","3","odd","8","85570","46903","82280","83366","1217","NA","83368","NA","1220","NA","87571","88564","84369","87571","NA","Sternberg task","7","5357","7","yes","1024"
"100","100","780.625","780.625","black","practice","legacy","legacy","legacy","0","uniform","1","undefined","1","left","7","0","7","7","0","0","7","7","0","0","7","7","7","7","0","Sun Oct 17 22:35:09 2021","The main experiment item","yes","Sternbergtask.osexp","C:/Users/Simon M. Rook/Documents/School/1Tarleton/Classes/Adv Quant/Lab 3","no","mono","no","18","no","white","no","no","768","legacy","7","7","C:/Users/Simon M. Rook/Documents/School/1Tarleton/Classes/Adv Quant/Lab 3/New folder/sr-subject-3.csv","legacy","4 3 1 7 9 8","Lentiform Loewenfeld","3.3.10","1","y","0","left","left","NA","left","NA","888","45682","NA","888","NA","2","legacy","6","1024","2","48000","-16","experiment","3","odd","4","91858","46903","88568","89654","1217","NA","89656","NA","1220","NA","93859","94748","90657","93859","NA","Sternberg task","8","6245","8","yes","1024"
"100","100","804.4444444444445","804.4444444444445","black","practice","legacy","legacy","legacy","0","uniform","1","undefined","1","right","8","0","8","8","0","0","8","8","0","0","8","8","8","8","0","Sun Oct 17 22:35:09 2021","The main experiment item","yes","Sternbergtask.osexp","C:/Users/Simon M. Rook/Documents/School/1Tarleton/Classes/Adv Quant/Lab 3","no","mono","no","18","no","white","no","no","768","legacy","8","8","C:/Users/Simon M. Rook/Documents/School/1Tarleton/Classes/Adv Quant/Lab 3/New folder/sr-subject-3.csv","legacy","5 7 8 4 1 2","Lentiform Loewenfeld","3.3.10","0","n","0","right","left","NA","right","NA","995","45682","NA","995","NA","2","legacy","6","1024","2","48000","-16","experiment","3","odd","6","98041","46903","94752","95838","1217","NA","95839","NA","1220","NA","100042","101037","96840","100042","NA","Sternberg task","9","7240","9","yes","1024"
"90","90","828","828","black","practice","legacy","legacy","legacy","0","uniform","0","undefined","0","right","9","0","9","9","0","0","9","9","0","0","9","9","9","9","0","Sun Oct 17 22:35:09 2021","The main experiment item","yes","Sternbergtask.osexp","C:/Users/Simon M. Rook/Documents/School/1Tarleton/Classes/Adv Quant/Lab 3","no","mono","no","18","no","white","no","no","768","legacy","9","9","C:/Users/Simon M. Rook/Documents/School/1Tarleton/Classes/Adv Quant/Lab 3/New folder/sr-subject-3.csv","legacy","9 6 7 4 5","Lentiform Loewenfeld","3.3.10","0","n","0","left","left","NA","left","NA","1040","45682","NA","1040","NA","2","legacy","5","1024","2","48000","-16","experiment","3","odd","3","104332","46903","101043","102128","1217","NA","102130","NA","1220","NA","106333","107373","103131","106333","NA","Sternberg task","9","8280","10","yes","1024"
"90.9090909090909","90.9090909090909","838.7272727272727","838.7272727272727","black","practice","legacy","legacy","legacy","0","uniform","1","undefined","1","left","10","0","10","10","0","0","10","10","0","0","10","10","10","10","0","Sun Oct 17 22:35:09 2021","The main experiment item","yes","Sternbergtask.osexp","C:/Users/Simon M. Rook/Documents/School/1Tarleton/Classes/Adv Quant/Lab 3","no","mono","no","18","no","white","no","no","768","legacy","10","10","C:/Users/Simon M. Rook/Documents/School/1Tarleton/Classes/Adv Quant/Lab 3/New folder/sr-subject-3.csv","legacy","2 9 4","Lentiform Loewenfeld","3.3.10","3","y","0","left","left","NA","left","NA","946","45682","NA","946","NA","2","legacy","3","1024","2","48000","-16","experiment","3","odd","4","110667","46903","101043","108464","1217","NA","108465","107378","1220","NA","112668","113615","109466","112668","NA","Sternberg task","10","9226","11","yes","1024"
"91.66666666666667","91.66666666666667","934.25","934.25","black","practice","legacy","legacy","legacy","0","uniform","1","undefined","1","right","11","0","11","11","0","0","11","11","0","0","11","11","11","11","0","Sun Oct 17 22:35:09 2021","The main experiment item","yes","Sternbergtask.osexp","C:/Users/Simon M. Rook/Documents/School/1Tarleton/Classes/Adv Quant/Lab 3","no","mono","no","18","no","white","no","no","768","legacy","11","11","C:/Users/Simon M. Rook/Documents/School/1Tarleton/Classes/Adv Quant/Lab 3/New folder/sr-subject-3.csv","legacy","2 1","Lentiform Loewenfeld","3.3.10","0","n","0","right","left","NA","right","NA","1985","45682","NA","1985","NA","2","legacy","2","1024","2","48000","-16","experiment","3","odd","5","116908","46903","113619","114705","1217","NA","114706","107378","1220","NA","118909","120895","115707","118909","NA","Sternberg task","11","11211","12","yes","1024"
"92.3076923076923","92.3076923076923","907.3076923076923","907.3076923076923","black","experiment","legacy","legacy","legacy","0","uniform","1","undefined","1","left","12","0","12","12","0","0","12","12","0","0","12","12","12","12","0","Sun Oct 17 22:35:09 2021","The main experiment item","yes","Sternbergtask.osexp","C:/Users/Simon M. Rook/Documents/School/1Tarleton/Classes/Adv Quant/Lab 3","no","mono","no","18","no","white","no","no","768","legacy","0","11","C:/Users/Simon M. Rook/Documents/School/1Tarleton/Classes/Adv Quant/Lab 3/New folder/sr-subject-3.csv","legacy","2 8 5 1","Lentiform Loewenfeld","3.3.10","4","y","0","left","left","left","left","NA","584","45682","86828","584","NA","2","legacy","4","1024","2","48000","-16","experiment","3","odd","1","211040","46903","120899","208836","1217","208777","208838","107378","1220","121949","213041","213626","209839","213041","NA","Sternberg task","12","11795","13","yes","1024"
"92.85714285714286","92.85714285714286","904.2857142857143","904.2857142857143","black","experiment","legacy","legacy","legacy","0","uniform","1","undefined","1","right","13","0","13","13","0","0","13","13","0","0","13","13","13","13","0","Sun Oct 17 22:35:09 2021","The main experiment item","yes","Sternbergtask.osexp","C:/Users/Simon M. Rook/Documents/School/1Tarleton/Classes/Adv Quant/Lab 3","no","mono","no","18","no","white","no","no","768","legacy","1","11","C:/Users/Simon M. Rook/Documents/School/1Tarleton/Classes/Adv Quant/Lab 3/New folder/sr-subject-3.csv","legacy","9 7 4 5 8","Lentiform Loewenfeld","3.3.10","0","n","0","right","left","left","right","NA","865","45682","86828","865","NA","2","legacy","5","1024","2","48000","-16","experiment","3","odd","6","217072","46903","213629","214869","1217","208777","214870","107378","1220","121949","219073","219939","215871","219073","NA","Sternberg task","13","12660","14","yes","1024"
"93.33333333333333","93.33333333333333","937.2666666666667","937.2666666666667","black","experiment","legacy","legacy","legacy","0","uniform","1","undefined","1","right","14","0","14","14","0","0","14","14","0","0","14","14","14","14","0","Sun Oct 17 22:35:09 2021","The main experiment item","yes","Sternbergtask.osexp","C:/Users/Simon M. Rook/Documents/School/1Tarleton/Classes/Adv Quant/Lab 3","no","mono","no","18","no","white","no","no","768","legacy","2","11","C:/Users/Simon M. Rook/Documents/School/1Tarleton/Classes/Adv Quant/Lab 3/New folder/sr-subject-3.csv","legacy","1 4 9 3","Lentiform Loewenfeld","3.3.10","0","n","0","right","left","left","right","NA","1399","45682","86828","1399","NA","2","legacy","4","1024","2","48000","-16","experiment","3","odd","5","223243","46903","219950","221039","1217","208777","221041","107378","1220","121949","225244","226644","222042","225244","NA","Sternberg task","14","14059","15","yes","1024"
"93.75","93.75","920.125","920.125","black","experiment","legacy","legacy","legacy","0","uniform","1","undefined","1","left","15","0","15","15","0","0","15","15","0","0","15","15","15","15","0","Sun Oct 17 22:35:09 2021","The main experiment item","yes","Sternbergtask.osexp","C:/Users/Simon M. Rook/Documents/School/1Tarleton/Classes/Adv Quant/Lab 3","no","mono","no","18","no","white","no","no","768","legacy","3","11","C:/Users/Simon M. Rook/Documents/School/1Tarleton/Classes/Adv Quant/Lab 3/New folder/sr-subject-3.csv","legacy","9 5 8 1","Lentiform Loewenfeld","3.3.10","2","y","0","left","left","left","left","NA","663","45682","86828","663","NA","2","legacy","4","1024","2","48000","-16","experiment","3","odd","5","229948","46903","226651","227744","1217","208777","227746","107378","1220","121949","231949","232612","228747","231949","NA","Sternberg task","15","14722","16","yes","1024"
"94.11764705882354","94.11764705882354","903.8235294117648","903.8235294117648","black","experiment","legacy","legacy","legacy","0","uniform","1","undefined","1","right","16","0","16","16","0","0","16","16","0","0","16","16","16","16","0","Sun Oct 17 22:35:09 2021","The main experiment item","yes","Sternbergtask.osexp","C:/Users/Simon M. Rook/Documents/School/1Tarleton/Classes/Adv Quant/Lab 3","no","mono","no","18","no","white","no","no","768","legacy","4","11","C:/Users/Simon M. Rook/Documents/School/1Tarleton/Classes/Adv Quant/Lab 3/New folder/sr-subject-3.csv","legacy","1 4 9 2 5","Lentiform Loewenfeld","3.3.10","0","n","0","right","left","left","right","NA","643","45682","86828","643","NA","2","legacy","5","1024","2","48000","-16","experiment","3","odd","7","235912","46903","232624","233708","1217","208777","233710","107378","1220","121949","237913","238556","234711","237913","NA","Sternberg task","16","15365","17","yes","1024"
"94.44444444444444","94.44444444444444","895.3888888888889","895.3888888888889","black","experiment","legacy","legacy","legacy","0","uniform","1","undefined","1","right","17","0","17","17","0","0","17","17","0","0","17","17","17","17","0","Sun Oct 17 22:35:09 2021","The main experiment item","yes","Sternbergtask.osexp","C:/Users/Simon M. Rook/Documents/School/1Tarleton/Classes/Adv Quant/Lab 3","no","mono","no","18","no","white","no","no","768","legacy","5","11","C:/Users/Simon M. Rook/Documents/School/1Tarleton/Classes/Adv Quant/Lab 3/New folder/sr-subject-3.csv","legacy","5 3 8 7 2 4","Lentiform Loewenfeld","3.3.10","0","n","0","right","left","left","right","NA","752","45682","86828","752","NA","2","legacy","6","1024","2","48000","-16","experiment","3","odd","9","241852","46903","238562","239649","1217","208777","239650","107378","1220","121949","243853","244605","240651","243853","NA","Sternberg task","17","16117","18","yes","1024"
"94.73684210526316","94.73684210526316","892.2105263157895","892.2105263157895","black","experiment","legacy","legacy","legacy","0","uniform","1","undefined","1","right","18","0","18","18","0","0","18","18","0","0","18","18","18","18","0","Sun Oct 17 22:35:09 2021","The main experiment item","yes","Sternbergtask.osexp","C:/Users/Simon M. Rook/Documents/School/1Tarleton/Classes/Adv Quant/Lab 3","no","mono","no","18","no","white","no","no","768","legacy","6","11","C:/Users/Simon M. Rook/Documents/School/1Tarleton/Classes/Adv Quant/Lab 3/New folder/sr-subject-3.csv","legacy","8 4 3 5","Lentiform Loewenfeld","3.3.10","0","n","0","right","left","left","right","NA","835","45682","86828","835","NA","2","legacy","4","1024","2","48000","-16","experiment","3","odd","6","247897","46903","244609","245694","1217","208777","245695","107378","1220","121949","249898","250734","246696","249898","NA","Sternberg task","18","16952","19","yes","1024"
"95","95","881.75","881.75","black","experiment","legacy","legacy","legacy","0","uniform","1","undefined","1","right","19","0","19","19","0","0","19","19","0","0","19","19","19","19","0","Sun Oct 17 22:35:09 2021","The main experiment item","yes","Sternbergtask.osexp","C:/Users/Simon M. Rook/Documents/School/1Tarleton/Classes/Adv Quant/Lab 3","no","mono","no","18","no","white","no","no","768","legacy","7","11","C:/Users/Simon M. Rook/Documents/School/1Tarleton/Classes/Adv Quant/Lab 3/New folder/sr-subject-3.csv","legacy","4 2 7 6 1 3","Lentiform Loewenfeld","3.3.10","0","n","0","right","left","left","right","NA","683","45682","86828","683","NA","2","legacy","6","1024","2","48000","-16","experiment","3","odd","8","254026","46903","250738","251823","1217","208777","251824","107378","1220","121949","256027","256711","252825","256027","NA","Sternberg task","19","17635","20","yes","1024"
"95.23809523809524","95.23809523809524","875.3333333333334","875.3333333333334","black","experiment","legacy","legacy","legacy","0","uniform","1","undefined","1","right","20","0","20","20","0","0","20","20","0","0","20","20","20","20","0","Sun Oct 17 22:35:09 2021","The main experiment item","yes","Sternbergtask.osexp","C:/Users/Simon M. Rook/Documents/School/1Tarleton/Classes/Adv Quant/Lab 3","no","mono","no","18","no","white","no","no","768","legacy","8","11","C:/Users/Simon M. Rook/Documents/School/1Tarleton/Classes/Adv Quant/Lab 3/New folder/sr-subject-3.csv","legacy","4 8 1 2","Lentiform Loewenfeld","3.3.10","0","n","0","right","left","left","right","NA","747","45682","86828","747","NA","2","legacy","4","1024","2","48000","-16","experiment","3","odd","7","260003","46903","256715","257800","1217","208777","257801","107378","1220","121949","262004","262751","258802","262004","NA","Sternberg task","20","18382","21","yes","1024"
"95.45454545454545","95.45454545454545","860.7727272727273","860.7727272727273","black","experiment","legacy","legacy","legacy","0","uniform","1","undefined","1","right","21","0","21","21","0","0","21","21","0","0","21","21","21","21","0","Sun Oct 17 22:35:09 2021","The main experiment item","yes","Sternbergtask.osexp","C:/Users/Simon M. Rook/Documents/School/1Tarleton/Classes/Adv Quant/Lab 3","no","mono","no","18","no","white","no","no","768","legacy","9","11","C:/Users/Simon M. Rook/Documents/School/1Tarleton/Classes/Adv Quant/Lab 3/New folder/sr-subject-3.csv","legacy","6 8 4","Lentiform Loewenfeld","3.3.10","0","n","0","right","left","left","right","NA","555","45682","86828","555","NA","2","legacy","3","1024","2","48000","-16","experiment","3","odd","1","266044","46903","262755","263840","1217","208777","263842","107378","1220","121949","268045","268600","264843","268045","NA","Sternberg task","21","18937","22","yes","1024"
"95.65217391304348","95.65217391304348","860.2173913043479","860.2173913043479","black","experiment","legacy","legacy","legacy","0","uniform","1","undefined","1","right","22","0","22","22","0","0","22","22","0","0","22","22","22","22","0","Sun Oct 17 22:35:09 2021","The main experiment item","yes","Sternbergtask.osexp","C:/Users/Simon M. Rook/Documents/School/1Tarleton/Classes/Adv Quant/Lab 3","no","mono","no","18","no","white","no","no","768","legacy","10","11","C:/Users/Simon M. Rook/Documents/School/1Tarleton/Classes/Adv Quant/Lab 3/New folder/sr-subject-3.csv","legacy","9 8 2 7 4","Lentiform Loewenfeld","3.3.10","0","n","0","right","left","left","right","NA","848","45682","86828","848","NA","2","legacy","5","1024","2","48000","-16","experiment","3","odd","5","271895","46903","268604","269691","1217","208777","269693","107378","1220","121949","273896","274745","270694","273896","NA","Sternberg task","22","19785","23","yes","1024"
"95.83333333333333","95.83333333333333","847.8333333333334","847.8333333333334","black","experiment","legacy","legacy","legacy","0","uniform","1","undefined","1","right","23","0","23","23","0","0","23","23","0","0","23","23","23","23","0","Sun Oct 17 22:35:09 2021","The main experiment item","yes","Sternbergtask.osexp","C:/Users/Simon M. Rook/Documents/School/1Tarleton/Classes/Adv Quant/Lab 3","no","mono","no","18","no","white","no","no","768","legacy","11","11","C:/Users/Simon M. Rook/Documents/School/1Tarleton/Classes/Adv Quant/Lab 3/New folder/sr-subject-3.csv","legacy","5 2","Lentiform Loewenfeld","3.3.10","0","n","0","right","left","left","right","NA","563","45682","86828","563","NA","2","legacy","2","1024","2","48000","-16","experiment","3","odd","7","278037","46903","274749","275833","1217","208777","275835","107378","1220","121949","280038","280601","276836","280038","NA","Sternberg task","23","20348","24","yes","1024"
"96","96","843.2","843.2","black","experiment","legacy","legacy","legacy","0","uniform","1","undefined","1","left","24","0","24","24","0","0","24","24","0","0","24","24","24","24","0","Sun Oct 17 22:35:09 2021","The main experiment item","yes","Sternbergtask.osexp","C:/Users/Simon M. Rook/Documents/School/1Tarleton/Classes/Adv Quant/Lab 3","no","mono","no","18","no","white","no","no","768","legacy","12","11","C:/Users/Simon M. Rook/Documents/School/1Tarleton/Classes/Adv Quant/Lab 3/New folder/sr-subject-3.csv","legacy","3 4","Lentiform Loewenfeld","3.3.10","1","y","0","left","left","left","left","NA","732","45682","86828","732","NA","2","legacy","2","1024","2","48000","-16","experiment","3","odd","3","283893","46903","280605","281690","1217","208777","281691","107378","1220","121949","285894","286626","282692","285894","NA","Sternberg task","24","21080","25","yes","1024"
"96.15384615384616","96.15384615384616","842.8076923076923","842.8076923076923","black","experiment","legacy","legacy","legacy","0","uniform","1","undefined","1","left","25","0","25","25","0","0","25","25","0","0","25","25","25","25","0","Sun Oct 17 22:35:09 2021","The main experiment item","yes","Sternbergtask.osexp","C:/Users/Simon M. Rook/Documents/School/1Tarleton/Classes/Adv Quant/Lab 3","no","mono","no","18","no","white","no","no","768","legacy","13","11","C:/Users/Simon M. Rook/Documents/School/1Tarleton/Classes/Adv Quant/Lab 3/New folder/sr-subject-3.csv","legacy","1 4 9 3 2 5","Lentiform Loewenfeld","3.3.10","3","y","0","left","left","left","left","NA","833","45682","86828","833","NA","2","legacy","6","1024","2","48000","-16","experiment","3","odd","9","289920","46903","286630","287716","1217","208777","287718","107378","1220","121949","291921","292755","288719","291921","NA","Sternberg task","25","21913","26","yes","1024"
"96.29629629629629","96.29629629629629","832.7037037037037","832.7037037037037","black","experiment","legacy","legacy","legacy","0","uniform","1","undefined","1","right","26","0","26","26","0","0","26","26","0","0","26","26","26","26","0","Sun Oct 17 22:35:09 2021","The main experiment item","yes","Sternbergtask.osexp","C:/Users/Simon M. Rook/Documents/School/1Tarleton/Classes/Adv Quant/Lab 3","no","mono","no","18","no","white","no","no","768","legacy","14","11","C:/Users/Simon M. Rook/Documents/School/1Tarleton/Classes/Adv Quant/Lab 3/New folder/sr-subject-3.csv","legacy","7 1","Lentiform Loewenfeld","3.3.10","0","n","0","right","left","left","right","NA","570","45682","86828","570","NA","2","legacy","2","1024","2","48000","-16","experiment","3","odd","8","296048","46903","292759","293845","1217","208777","293846","107378","1220","121949","298049","298620","294847","298049","NA","Sternberg task","26","22483","27","yes","1024"
"96.42857142857143","96.42857142857143","821.5357142857143","821.5357142857143","black","experiment","legacy","legacy","legacy","0","uniform","1","undefined","1","left","27","0","27","27","0","0","27","27","0","0","27","27","27","27","0","Sun Oct 17 22:35:09 2021","The main experiment item","yes","Sternbergtask.osexp","C:/Users/Simon M. Rook/Documents/School/1Tarleton/Classes/Adv Quant/Lab 3","no","mono","no","18","no","white","no","no","768","legacy","15","11","C:/Users/Simon M. Rook/Documents/School/1Tarleton/Classes/Adv Quant/Lab 3/New folder/sr-subject-3.csv","legacy","3 5 4 7","Lentiform Loewenfeld","3.3.10","1","y","0","left","left","left","left","NA","520","45682","86828","520","NA","2","legacy","4","1024","2","48000","-16","experiment","3","odd","3","301915","46903","298626","299711","1217","208777","299713","107378","1220","121949","303916","304436","300714","303916","NA","Sternberg task","27","23003","28","yes","1024"
"96.55172413793103","96.55172413793103","814.8275862068965","814.8275862068965","black","experiment","legacy","legacy","legacy","0","uniform","1","undefined","1","right","28","0","28","28","0","0","28","28","0","0","28","28","28","28","0","Sun Oct 17 22:35:09 2021","The main experiment item","yes","Sternbergtask.osexp","C:/Users/Simon M. Rook/Documents/School/1Tarleton/Classes/Adv Quant/Lab 3","no","mono","no","18","no","white","no","no","768","legacy","16","11","C:/Users/Simon M. Rook/Documents/School/1Tarleton/Classes/Adv Quant/Lab 3/New folder/sr-subject-3.csv","legacy","6 3 1 7 9 8","Lentiform Loewenfeld","3.3.10","0","n","0","right","left","left","right","NA","627","45682","86828","627","NA","2","legacy","6","1024","2","48000","-16","experiment","3","odd","4","307728","46903","304440","305525","1217","208777","305526","107378","1220","121949","309729","310357","306527","309729","NA","Sternberg task","28","23630","29","yes","1024"
"96.66666666666667","96.66666666666667","814.4","814.4","black","experiment","legacy","legacy","legacy","0","uniform","1","undefined","1","right","29","0","29","29","0","0","29","29","0","0","29","29","29","29","0","Sun Oct 17 22:35:09 2021","The main experiment item","yes","Sternbergtask.osexp","C:/Users/Simon M. Rook/Documents/School/1Tarleton/Classes/Adv Quant/Lab 3","no","mono","no","18","no","white","no","no","768","legacy","17","11","C:/Users/Simon M. Rook/Documents/School/1Tarleton/Classes/Adv Quant/Lab 3/New folder/sr-subject-3.csv","legacy","3 4 2","Lentiform Loewenfeld","3.3.10","0","n","0","right","left","left","right","NA","802","45682","86828","802","NA","2","legacy","3","1024","2","48000","-16","experiment","3","odd","5","313650","46903","310362","311447","1217","208777","311448","107378","1220","121949","315651","316454","312449","315651","NA","Sternberg task","29","24432","30","yes","1024"
"96.7741935483871","96.7741935483871","814.6451612903226","814.6451612903226","black","experiment","legacy","legacy","legacy","0","uniform","1","undefined","1","left","30","0","30","30","0","0","30","30","0","0","30","30","30","30","0","Sun Oct 17 22:35:09 2021","The main experiment item","yes","Sternbergtask.osexp","C:/Users/Simon M. Rook/Documents/School/1Tarleton/Classes/Adv Quant/Lab 3","no","mono","no","18","no","white","no","no","768","legacy","18","11","C:/Users/Simon M. Rook/Documents/School/1Tarleton/Classes/Adv Quant/Lab 3/New folder/sr-subject-3.csv","legacy","8 9 6 1","Lentiform Loewenfeld","3.3.10","2","y","0","left","left","left","left","NA","822","45682","86828","822","NA","2","legacy","4","1024","2","48000","-16","experiment","3","odd","9","319751","46903","316463","317548","1217","208777","317549","107378","1220","121949","321752","322575","318550","321752","NA","Sternberg task","30","25254","31","yes","1024"
"96.875","96.875","816.96875","816.96875","black","experiment","legacy","legacy","legacy","0","uniform","1","undefined","1","right","31","0","31","31","0","0","31","31","0","0","31","31","31","31","0","Sun Oct 17 22:35:09 2021","The main experiment item","yes","Sternbergtask.osexp","C:/Users/Simon M. Rook/Documents/School/1Tarleton/Classes/Adv Quant/Lab 3","no","mono","no","18","no","white","no","no","768","legacy","19","11","C:/Users/Simon M. Rook/Documents/School/1Tarleton/Classes/Adv Quant/Lab 3/New folder/sr-subject-3.csv","legacy","6 9 4 5 3 2","Lentiform Loewenfeld","3.3.10","0","n","0","right","left","left","right","NA","889","45682","86828","889","NA","2","legacy","6","1024","2","48000","-16","experiment","3","odd","8","325868","46903","322579","323664","1217","208777","323666","107378","1220","121949","327869","328759","324667","327869","NA","Sternberg task","31","26143","32","yes","1024"
"96.96969696969697","96.96969696969697","814.0909090909091","814.0909090909091","black","experiment","legacy","legacy","legacy","0","uniform","1","undefined","1","right","32","0","32","32","0","0","32","32","0","0","32","32","32","32","0","Sun Oct 17 22:35:09 2021","The main experiment item","yes","Sternbergtask.osexp","C:/Users/Simon M. Rook/Documents/School/1Tarleton/Classes/Adv Quant/Lab 3","no","mono","no","18","no","white","no","no","768","legacy","20","11","C:/Users/Simon M. Rook/Documents/School/1Tarleton/Classes/Adv Quant/Lab 3/New folder/sr-subject-3.csv","legacy","1 5 3 2 8","Lentiform Loewenfeld","3.3.10","0","n","0","right","left","left","right","NA","722","45682","86828","722","NA","2","legacy","5","1024","2","48000","-16","experiment","3","odd","4","332052","46903","328762","329849","1217","208777","329850","107378","1220","121949","334053","334776","330851","334053","NA","Sternberg task","32","26865","33","yes","1024"
"97.05882352941177","97.05882352941177","809.0882352941177","809.0882352941177","black","experiment","legacy","legacy","legacy","0","uniform","1","undefined","1","left","33","0","33","33","0","0","33","33","0","0","33","33","33","33","0","Sun Oct 17 22:35:09 2021","The main experiment item","yes","Sternbergtask.osexp","C:/Users/Simon M. Rook/Documents/School/1Tarleton/Classes/Adv Quant/Lab 3","no","mono","no","18","no","white","no","no","768","legacy","21","11","C:/Users/Simon M. Rook/Documents/School/1Tarleton/Classes/Adv Quant/Lab 3/New folder/sr-subject-3.csv","legacy","6 7 8 5","Lentiform Loewenfeld","3.3.10","3","y","0","left","left","left","left","NA","644","45682","86828","644","NA","2","legacy","4","1024","2","48000","-16","experiment","3","odd","8","338067","46903","334779","335864","1217","208777","335865","107378","1220","121949","340068","340712","336866","340068","NA","Sternberg task","33","27509","34","yes","1024"
"97.14285714285714","97.14285714285714","806.8857142857142","806.8857142857142","black","experiment","legacy","legacy","legacy","0","uniform","1","undefined","1","left","34","0","34","34","0","0","34","34","0","0","34","34","34","34","0","Sun Oct 17 22:35:09 2021","The main experiment item","yes","Sternbergtask.osexp","C:/Users/Simon M. Rook/Documents/School/1Tarleton/Classes/Adv Quant/Lab 3","no","mono","no","18","no","white","no","no","768","legacy","22","11","C:/Users/Simon M. Rook/Documents/School/1Tarleton/Classes/Adv Quant/Lab 3/New folder/sr-subject-3.csv","legacy","8 5 1 3 9","Lentiform Loewenfeld","3.3.10","4","y","0","left","left","left","left","NA","732","45682","86828","732","NA","2","legacy","5","1024","2","48000","-16","experiment","3","odd","3","344011","46903","340718","341807","1217","208777","341809","107378","1220","121949","346012","346745","342810","346012","NA","Sternberg task","34","28241","35","yes","1024"
"97.22222222222223","97.22222222222223","801.6388888888889","801.6388888888889","black","experiment","legacy","legacy","legacy","0","uniform","1","undefined","1","left","35","0","35","35","0","0","35","35","0","0","35","35","35","35","0","Sun Oct 17 22:35:09 2021","The main experiment item","yes","Sternbergtask.osexp","C:/Users/Simon M. Rook/Documents/School/1Tarleton/Classes/Adv Quant/Lab 3","no","mono","no","18","no","white","no","no","768","legacy","23","11","C:/Users/Simon M. Rook/Documents/School/1Tarleton/Classes/Adv Quant/Lab 3/New folder/sr-subject-3.csv","legacy","8 9 5 6 7","Lentiform Loewenfeld","3.3.10","1","y","0","left","left","left","left","NA","618","45682","86828","618","NA","2","legacy","5","1024","2","48000","-16","experiment","3","odd","8","350046","46903","346757","347843","1217","208777","347844","107378","1220","121949","352047","352666","348845","352047","NA","Sternberg task","35","28859","36","yes","1024"
"97.29729729729729","97.29729729729729","796.027027027027","796.027027027027","black","experiment","legacy","legacy","legacy","0","uniform","1","undefined","1","left","36","0","36","36","0","0","36","36","0","0","36","36","36","36","0","Sun Oct 17 22:35:09 2021","The main experiment item","yes","Sternbergtask.osexp","C:/Users/Simon M. Rook/Documents/School/1Tarleton/Classes/Adv Quant/Lab 3","no","mono","no","18","no","white","no","no","768","legacy","24","11","C:/Users/Simon M. Rook/Documents/School/1Tarleton/Classes/Adv Quant/Lab 3/New folder/sr-subject-3.csv","legacy","9 3 8 2 1 4","Lentiform Loewenfeld","3.3.10","3","y","0","left","left","left","left","NA","594","45682","86828","594","NA","2","legacy","6","1024","2","48000","-16","experiment","3","odd","8","355959","46903","352671","353756","1217","208777","353757","107378","1220","121949","357960","358554","354758","357960","NA","Sternberg task","36","29453","37","yes","1024"
"97.36842105263158","97.36842105263158","792.2894736842105","792.2894736842105","black","experiment","legacy","legacy","legacy","0","uniform","1","undefined","1","right","37","0","37","37","0","0","37","37","0","0","37","37","37","37","0","Sun Oct 17 22:35:09 2021","The main experiment item","yes","Sternbergtask.osexp","C:/Users/Simon M. Rook/Documents/School/1Tarleton/Classes/Adv Quant/Lab 3","no","mono","no","18","no","white","no","no","768","legacy","25","11","C:/Users/Simon M. Rook/Documents/School/1Tarleton/Classes/Adv Quant/Lab 3/New folder/sr-subject-3.csv","legacy","2 8 6 3 1","Lentiform Loewenfeld","3.3.10","0","n","0","right","left","left","right","NA","654","45682","86828","654","NA","2","legacy","5","1024","2","48000","-16","experiment","3","odd","7","361851","46903","358559","359647","1217","208777","359649","107378","1220","121949","363852","364507","360650","363852","NA","Sternberg task","37","30107","38","yes","1024"
"97.43589743589743","97.43589743589743","801.0769230769231","801.0769230769231","black","experiment","legacy","legacy","legacy","0","uniform","1","undefined","1","left","38","0","38","38","0","0","38","38","0","0","38","38","38","38","0","Sun Oct 17 22:35:09 2021","The main experiment item","yes","Sternbergtask.osexp","C:/Users/Simon M. Rook/Documents/School/1Tarleton/Classes/Adv Quant/Lab 3","no","mono","no","18","no","white","no","no","768","legacy","26","11","C:/Users/Simon M. Rook/Documents/School/1Tarleton/Classes/Adv Quant/Lab 3/New folder/sr-subject-3.csv","legacy","8 7 3","Lentiform Loewenfeld","3.3.10","1","y","0","left","left","left","left","NA","1135","45682","86828","1135","NA","2","legacy","3","1024","2","48000","-16","experiment","3","odd","8","367803","46903","364513","365599","1217","208777","365601","107378","1220","121949","369804","370940","366602","369804","NA","Sternberg task","38","31242","39","yes","1024"
"97.5","97.5","798.95","798.95","black","experiment","legacy","legacy","legacy","0","uniform","1","undefined","1","left","39","0","39","39","0","0","39","39","0","0","39","39","39","39","0","Sun Oct 17 22:35:09 2021","The main experiment item","yes","Sternbergtask.osexp","C:/Users/Simon M. Rook/Documents/School/1Tarleton/Classes/Adv Quant/Lab 3","no","mono","no","18","no","white","no","no","768","legacy","27","11","C:/Users/Simon M. Rook/Documents/School/1Tarleton/Classes/Adv Quant/Lab 3/New folder/sr-subject-3.csv","legacy","2 3","Lentiform Loewenfeld","3.3.10","1","y","0","left","left","left","left","NA","716","45682","86828","716","NA","2","legacy","2","1024","2","48000","-16","experiment","3","odd","2","374231","46903","370943","372029","1217","208777","372029","107378","1220","121949","376232","376948","373030","376232","NA","Sternberg task","39","31958","40","yes","1024"
"97.5609756097561","97.5609756097561","791.4146341463414","791.4146341463414","black","experiment","legacy","legacy","legacy","0","uniform","1","undefined","1","left","40","0","40","40","0","0","40","40","0","0","40","40","40","40","0","Sun Oct 17 22:35:09 2021","The main experiment item","yes","Sternbergtask.osexp","C:/Users/Simon M. Rook/Documents/School/1Tarleton/Classes/Adv Quant/Lab 3","no","mono","no","18","no","white","no","no","768","legacy","28","11","C:/Users/Simon M. Rook/Documents/School/1Tarleton/Classes/Adv Quant/Lab 3/New folder/sr-subject-3.csv","legacy","7 2 3","Lentiform Loewenfeld","3.3.10","3","y","0","left","left","left","left","NA","490","45682","86828","490","NA","2","legacy","3","1024","2","48000","-16","experiment","3","odd","3","380250","46903","376961","378046","1217","208777","378048","107378","1220","121949","382251","382741","379049","382251","NA","Sternberg task","40","32448","41","yes","1024"
"97.61904761904762","97.61904761904762","789.2142857142857","789.2142857142857","black","experiment","legacy","legacy","legacy","0","uniform","1","undefined","1","right","41","0","41","41","0","0","41","41","0","0","41","41","41","41","0","Sun Oct 17 22:35:09 2021","The main experiment item","yes","Sternbergtask.osexp","C:/Users/Simon M. Rook/Documents/School/1Tarleton/Classes/Adv Quant/Lab 3","no","mono","no","18","no","white","no","no","768","legacy","29","11","C:/Users/Simon M. Rook/Documents/School/1Tarleton/Classes/Adv Quant/Lab 3/New folder/sr-subject-3.csv","legacy","2 8 7 9 5 3","Lentiform Loewenfeld","3.3.10","0","n","0","right","left","left","right","NA","699","45682","86828","699","NA","2","legacy","6","1024","2","48000","-16","experiment","3","odd","6","386033","46903","382745","383830","1217","208777","383831","107378","1220","121949","388034","388737","384832","388034","NA","Sternberg task","41","33147","42","yes","1024"
"97.67441860465117","97.67441860465117","799.9069767441861","799.9069767441861","black","experiment","legacy","legacy","legacy","0","uniform","1","undefined","1","left","42","0","42","42","0","0","42","42","0","0","42","42","42","42","0","Sun Oct 17 22:35:09 2021","The main experiment item","yes","Sternbergtask.osexp","C:/Users/Simon M. Rook/Documents/School/1Tarleton/Classes/Adv Quant/Lab 3","no","mono","no","18","no","white","no","no","768","legacy","30","11","C:/Users/Simon M. Rook/Documents/School/1Tarleton/Classes/Adv Quant/Lab 3/New folder/sr-subject-3.csv","legacy","6 5","Lentiform Loewenfeld","3.3.10","2","y","0","left","left","left","left","NA","1249","45682","86828","1249","NA","2","legacy","2","1024","2","48000","-16","experiment","3","odd","5","392029","46903","388741","389826","1217","208777","389827","107378","1220","121949","394030","395279","390828","394030","NA","Sternberg task","42","34396","43","yes","1024"
"97.72727272727273","97.72727272727273","796.5227272727273","796.5227272727273","black","experiment","legacy","legacy","legacy","0","uniform","1","undefined","1","right","43","0","43","43","0","0","43","43","0","0","43","43","43","43","0","Sun Oct 17 22:35:09 2021","The main experiment item","yes","Sternbergtask.osexp","C:/Users/Simon M. Rook/Documents/School/1Tarleton/Classes/Adv Quant/Lab 3","no","mono","no","18","no","white","no","no","768","legacy","31","11","C:/Users/Simon M. Rook/Documents/School/1Tarleton/Classes/Adv Quant/Lab 3/New folder/sr-subject-3.csv","legacy","1 6 4","Lentiform Loewenfeld","3.3.10","0","n","0","right","left","left","right","NA","651","45682","86828","651","NA","2","legacy","3","1024","2","48000","-16","experiment","3","odd","7","398579","46903","395291","396376","1217","208777","396377","107378","1220","121949","400580","401232","397378","400580","NA","Sternberg task","43","35047","44","yes","1024"
"97.77777777777777","97.77777777777777","794.7333333333333","794.7333333333333","black","experiment","legacy","legacy","legacy","0","uniform","1","undefined","1","left","44","0","44","44","0","0","44","44","0","0","44","44","44","44","0","Sun Oct 17 22:35:09 2021","The main experiment item","yes","Sternbergtask.osexp","C:/Users/Simon M. Rook/Documents/School/1Tarleton/Classes/Adv Quant/Lab 3","no","mono","no","18","no","white","no","no","768","legacy","32","11","C:/Users/Simon M. Rook/Documents/School/1Tarleton/Classes/Adv Quant/Lab 3/New folder/sr-subject-3.csv","legacy","4 7 6 8 2 3","Lentiform Loewenfeld","3.3.10","6","y","0","left","left","left","left","NA","716","45682","86828","716","NA","2","legacy","6","1024","2","48000","-16","experiment","3","odd","3","404530","46903","401239","402326","1217","208777","402327","107378","1220","121949","406531","407248","403329","406531","NA","Sternberg task","44","35763","45","yes","1024"
"97.82608695652173","97.82608695652173","795.5434782608696","795.5434782608696","black","experiment","legacy","legacy","legacy","0","uniform","1","undefined","1","left","45","0","45","45","0","0","45","45","0","0","45","45","45","45","0","Sun Oct 17 22:35:09 2021","The main experiment item","yes","Sternbergtask.osexp","C:/Users/Simon M. Rook/Documents/School/1Tarleton/Classes/Adv Quant/Lab 3","no","mono","no","18","no","white","no","no","768","legacy","33","11","C:/Users/Simon M. Rook/Documents/School/1Tarleton/Classes/Adv Quant/Lab 3/New folder/sr-subject-3.csv","legacy","7 4 2 6 3 5","Lentiform Loewenfeld","3.3.10","6","y","0","left","left","left","left","NA","832","45682","86828","832","NA","2","legacy","6","1024","2","48000","-16","experiment","3","odd","5","410540","46903","407251","408336","1217","208777","408338","107378","1220","121949","412541","413373","409339","412541","NA","Sternberg task","45","36595","46","yes","1024"
"97.87234042553192","97.87234042553192","790.9574468085107","790.9574468085107","black","experiment","legacy","legacy","legacy","0","uniform","1","undefined","1","left","46","0","46","46","0","0","46","46","0","0","46","46","46","46","0","Sun Oct 17 22:35:09 2021","The main experiment item","yes","Sternbergtask.osexp","C:/Users/Simon M. Rook/Documents/School/1Tarleton/Classes/Adv Quant/Lab 3","no","mono","no","18","no","white","no","no","768","legacy","34","11","C:/Users/Simon M. Rook/Documents/School/1Tarleton/Classes/Adv Quant/Lab 3/New folder/sr-subject-3.csv","legacy","3 2 1 4 7","Lentiform Loewenfeld","3.3.10","2","y","0","left","left","left","left","NA","580","45682","86828","580","NA","2","legacy","5","1024","2","48000","-16","experiment","3","odd","2","416668","46903","413379","414464","1217","208777","414466","107378","1220","121949","418669","419249","415467","418669","NA","Sternberg task","46","37175","47","yes","1024"
"97.91666666666667","97.91666666666667","785.875","785.875","black","experiment","legacy","legacy","legacy","0","uniform","1","undefined","1","right","47","0","47","47","0","0","47","47","0","0","47","47","47","47","0","Sun Oct 17 22:35:09 2021","The main experiment item","yes","Sternbergtask.osexp","C:/Users/Simon M. Rook/Documents/School/1Tarleton/Classes/Adv Quant/Lab 3","no","mono","no","18","no","white","no","no","768","legacy","35","11","C:/Users/Simon M. Rook/Documents/School/1Tarleton/Classes/Adv Quant/Lab 3/New folder/sr-subject-3.csv","legacy","1 3 2 6 9","Lentiform Loewenfeld","3.3.10","0","n","0","right","left","left","right","NA","547","45682","86828","547","NA","2","legacy","5","1024","2","48000","-16","experiment","3","odd","5","422542","46903","419253","420338","1217","208777","420340","107378","1220","121949","424543","425091","421341","424543","NA","Sternberg task","47","37722","48","yes","1024"
"97.95918367346938","97.95918367346938","802.6734693877551","802.6734693877551","black","experiment","legacy","legacy","legacy","0","uniform","1","undefined","1","right","48","0","48","48","0","0","48","48","0","0","48","48","48","48","0","Sun Oct 17 22:35:09 2021","The main experiment item","yes","Sternbergtask.osexp","C:/Users/Simon M. Rook/Documents/School/1Tarleton/Classes/Adv Quant/Lab 3","no","mono","no","18","no","white","no","no","768","legacy","36","11","C:/Users/Simon M. Rook/Documents/School/1Tarleton/Classes/Adv Quant/Lab 3/New folder/sr-subject-3.csv","legacy","6 9 4 5 2","Lentiform Loewenfeld","3.3.10","0","n","0","right","left","left","right","NA","1609","45682","86828","1609","NA","2","legacy","5","1024","2","48000","-16","experiment","3","odd","1","428384","46903","425095","426180","1217","208777","426182","107378","1220","121949","430385","431995","427183","430385","NA","Sternberg task","48","39331","49","yes","1024"
"98","98","800.88","800.88","black","experiment","legacy","legacy","legacy","0","uniform","1","undefined","1","left","49","0","49","49","0","0","49","49","0","0","49","49","49","49","0","Sun Oct 17 22:35:09 2021","The main experiment item","yes","Sternbergtask.osexp","C:/Users/Simon M. Rook/Documents/School/1Tarleton/Classes/Adv Quant/Lab 3","no","mono","no","18","no","white","no","no","768","legacy","37","11","C:/Users/Simon M. Rook/Documents/School/1Tarleton/Classes/Adv Quant/Lab 3/New folder/sr-subject-3.csv","legacy","9 3 1 2 5","Lentiform Loewenfeld","3.3.10","4","y","0","left","left","left","left","NA","713","45682","86828","713","NA","2","legacy","5","1024","2","48000","-16","experiment","3","odd","2","435314","46903","432006","433106","1217","208777","433112","107378","1220","121949","437315","438028","434113","437315","NA","Sternberg task","49","40044","50","yes","1024"
"98.03921568627452","98.03921568627452","798.5686274509804","798.5686274509804","black","experiment","legacy","legacy","legacy","0","uniform","1","undefined","1","left","50","0","50","50","0","0","50","50","0","0","50","50","50","50","0","Sun Oct 17 22:35:09 2021","The main experiment item","yes","Sternbergtask.osexp","C:/Users/Simon M. Rook/Documents/School/1Tarleton/Classes/Adv Quant/Lab 3","no","mono","no","18","no","white","no","no","768","legacy","38","11","C:/Users/Simon M. Rook/Documents/School/1Tarleton/Classes/Adv Quant/Lab 3/New folder/sr-subject-3.csv","legacy","7 1 3","Lentiform Loewenfeld","3.3.10","2","y","0","left","left","left","left","NA","683","45682","86828","683","NA","2","legacy","3","1024","2","48000","-16","experiment","3","odd","1","441328","46903","438039","439125","1217","208777","439126","107378","1220","121949","443329","444013","440127","443329","NA","Sternberg task","50","40727","51","yes","1024"
"98.07692307692308","98.07692307692308","798.1538461538462","798.1538461538462","black","experiment","legacy","legacy","legacy","0","uniform","1","undefined","1","right","51","0","51","51","0","0","51","51","0","0","51","51","51","51","0","Sun Oct 17 22:35:09 2021","The main experiment item","yes","Sternbergtask.osexp","C:/Users/Simon M. Rook/Documents/School/1Tarleton/Classes/Adv Quant/Lab 3","no","mono","no","18","no","white","no","no","768","legacy","39","11","C:/Users/Simon M. Rook/Documents/School/1Tarleton/Classes/Adv Quant/Lab 3/New folder/sr-subject-3.csv","legacy","7 8 6 1","Lentiform Loewenfeld","3.3.10","0","n","0","right","left","left","right","NA","777","45682","86828","777","NA","2","legacy","4","1024","2","48000","-16","experiment","3","odd","3","447307","46903","444017","445103","1217","208777","445104","107378","1220","121949","449308","450086","446106","449308","NA","Sternberg task","51","41504","52","yes","1024"
"98.11320754716981","98.11320754716981","796.9056603773585","796.9056603773585","black","experiment","legacy","legacy","legacy","0","uniform","1","undefined","1","right","52","0","52","52","0","0","52","52","0","0","52","52","52","52","0","Sun Oct 17 22:35:09 2021","The main experiment item","yes","Sternbergtask.osexp","C:/Users/Simon M. Rook/Documents/School/1Tarleton/Classes/Adv Quant/Lab 3","no","mono","no","18","no","white","no","no","768","legacy","40","11","C:/Users/Simon M. Rook/Documents/School/1Tarleton/Classes/Adv Quant/Lab 3/New folder/sr-subject-3.csv","legacy","3 4 9 6 7 8","Lentiform Loewenfeld","3.3.10","0","n","0","right","left","left","right","NA","732","45682","86828","732","NA","2","legacy","6","1024","2","48000","-16","experiment","3","odd","2","453384","46903","450096","451181","1217","208777","451182","107378","1220","121949","455385","456118","452183","455385","NA","Sternberg task","52","42236","53","yes","1024"
"98.14814814814815","98.14814814814815","797.2777777777778","797.2777777777778","black","experiment","legacy","legacy","legacy","0","uniform","1","undefined","1","left","53","0","53","53","0","0","53","53","0","0","53","53","53","53","0","Sun Oct 17 22:35:09 2021","The main experiment item","yes","Sternbergtask.osexp","C:/Users/Simon M. Rook/Documents/School/1Tarleton/Classes/Adv Quant/Lab 3","no","mono","no","18","no","white","no","no","768","legacy","41","11","C:/Users/Simon M. Rook/Documents/School/1Tarleton/Classes/Adv Quant/Lab 3/New folder/sr-subject-3.csv","legacy","5 7 8 2 3 8","Lentiform Loewenfeld","3.3.10","5","y","0","left","left","left","left","NA","817","45682","86828","817","NA","2","legacy","6","1024","2","48000","-16","experiment","3","odd","3","459412","46903","456122","457208","1217","208777","457210","107378","1220","121949","461413","462231","458211","461413","NA","Sternberg task","53","43053","54","yes","1024"
"98.18181818181819","98.18181818181819","803.3818181818182","803.3818181818182","black","experiment","legacy","legacy","legacy","0","uniform","1","undefined","1","right","54","0","54","54","0","0","54","54","0","0","54","54","54","54","0","Sun Oct 17 22:35:09 2021","The main experiment item","yes","Sternbergtask.osexp","C:/Users/Simon M. Rook/Documents/School/1Tarleton/Classes/Adv Quant/Lab 3","no","mono","no","18","no","white","no","no","768","legacy","42","11","C:/Users/Simon M. Rook/Documents/School/1Tarleton/Classes/Adv Quant/Lab 3/New folder/sr-subject-3.csv","legacy","9","Lentiform Loewenfeld","3.3.10","0","n","0","right","left","left","right","NA","1133","45682","86828","1133","NA","2","legacy","1","1024","2","48000","-16","experiment","3","odd","6","465529","46903","462240","463325","1217","208777","463327","107378","1220","121949","467530","468663","464328","467530","NA","Sternberg task","54","44186","55","yes","1024"
"98.21428571428571","98.21428571428571","803.3571428571429","803.3571428571429","black","experiment","legacy","legacy","legacy","0","uniform","1","undefined","1","left","55","0","55","55","0","0","55","55","0","0","55","55","55","55","0","Sun Oct 17 22:35:09 2021","The main experiment item","yes","Sternbergtask.osexp","C:/Users/Simon M. Rook/Documents/School/1Tarleton/Classes/Adv Quant/Lab 3","no","mono","no","18","no","white","no","no","768","legacy","43","11","C:/Users/Simon M. Rook/Documents/School/1Tarleton/Classes/Adv Quant/Lab 3/New folder/sr-subject-3.csv","legacy","8 5 3 7 4 6","Lentiform Loewenfeld","3.3.10","6","y","0","left","left","left","left","NA","802","45682","86828","802","NA","2","legacy","6","1024","2","48000","-16","experiment","3","odd","6","471965","46903","468676","469761","1217","208777","469763","107378","1220","121949","473966","474768","470764","473966","NA","Sternberg task","55","44988","56","yes","1024"
"98.24561403508773","98.24561403508773","799.9473684210526","799.9473684210526","black","experiment","legacy","legacy","legacy","0","uniform","1","undefined","1","left","56","0","56","56","0","0","56","56","0","0","56","56","56","56","0","Sun Oct 17 22:35:09 2021","The main experiment item","yes","Sternbergtask.osexp","C:/Users/Simon M. Rook/Documents/School/1Tarleton/Classes/Adv Quant/Lab 3","no","mono","no","18","no","white","no","no","768","legacy","44","11","C:/Users/Simon M. Rook/Documents/School/1Tarleton/Classes/Adv Quant/Lab 3/New folder/sr-subject-3.csv","legacy","2 5 4 8 7","Lentiform Loewenfeld","3.3.10","3","y","0","left","left","left","left","NA","609","45682","86828","609","NA","2","legacy","5","1024","2","48000","-16","experiment","3","odd","4","478062","46903","474773","475858","1217","208777","475860","107378","1220","121949","480063","480672","476861","480063","NA","Sternberg task","56","45597","57","yes","1024"
"98.27586206896552","98.27586206896552","798.4310344827586","798.4310344827586","black","experiment","legacy","legacy","legacy","0","uniform","1","undefined","1","right","57","0","57","57","0","0","57","57","0","0","57","57","57","57","0","Sun Oct 17 22:35:09 2021","The main experiment item","yes","Sternbergtask.osexp","C:/Users/Simon M. Rook/Documents/School/1Tarleton/Classes/Adv Quant/Lab 3","no","mono","no","18","no","white","no","no","768","legacy","45","11","C:/Users/Simon M. Rook/Documents/School/1Tarleton/Classes/Adv Quant/Lab 3/New folder/sr-subject-3.csv","legacy","8 9","Lentiform Loewenfeld","3.3.10","0","n","0","right","left","left","right","NA","712","45682","86828","712","NA","2","legacy","2","1024","2","48000","-16","experiment","3","odd","5","483967","46903","480678","481764","1217","208777","481765","107378","1220","121949","485968","486681","482766","485968","NA","Sternberg task","57","46309","58","yes","1024"
"98.30508474576271","98.30508474576271","795.0338983050848","795.0338983050848","black","experiment","legacy","legacy","legacy","0","uniform","1","undefined","1","left","58","0","58","58","0","0","58","58","0","0","58","58","58","58","0","Sun Oct 17 22:35:09 2021","The main experiment item","yes","Sternbergtask.osexp","C:/Users/Simon M. Rook/Documents/School/1Tarleton/Classes/Adv Quant/Lab 3","no","mono","no","18","no","white","no","no","768","legacy","46","11","C:/Users/Simon M. Rook/Documents/School/1Tarleton/Classes/Adv Quant/Lab 3/New folder/sr-subject-3.csv","legacy","3 9 7 6 4","Lentiform Loewenfeld","3.3.10","3","y","0","left","left","left","left","NA","598","45682","86828","598","NA","2","legacy","5","1024","2","48000","-16","experiment","3","odd","7","489979","46903","486689","487775","1217","208777","487777","107378","1220","121949","491980","492579","488778","491980","NA","Sternberg task","58","46907","59","yes","1024"
"98.33333333333333","98.33333333333333","799.8833333333333","799.8833333333333","black","experiment","legacy","legacy","legacy","0","uniform","1","undefined","1","right","59","0","59","59","0","0","59","59","0","0","59","59","59","59","0","Sun Oct 17 22:35:09 2021","The main experiment item","yes","Sternbergtask.osexp","C:/Users/Simon M. Rook/Documents/School/1Tarleton/Classes/Adv Quant/Lab 3","no","mono","no","18","no","white","no","no","768","legacy","47","11","C:/Users/Simon M. Rook/Documents/School/1Tarleton/Classes/Adv Quant/Lab 3/New folder/sr-subject-3.csv","legacy","7 4 2 8 1 9","Lentiform Loewenfeld","3.3.10","0","n","0","right","left","left","right","NA","1086","45682","86828","1086","NA","2","legacy","6","1024","2","48000","-16","experiment","3","odd","5","495875","46903","492586","493671","1217","208777","493673","107378","1220","121949","497876","498963","494674","497876","NA","Sternberg task","59","47993","60","yes","1024"
"98.36065573770492","98.36065573770492","796.6229508196722","796.6229508196722","black","experiment","legacy","legacy","legacy","0","uniform","1","undefined","1","left","60","0","60","60","0","0","60","60","0","0","60","60","60","60","0","Sun Oct 17 22:35:09 2021","The main experiment item","yes","Sternbergtask.osexp","C:/Users/Simon M. Rook/Documents/School/1Tarleton/Classes/Adv Quant/Lab 3","no","mono","no","18","no","white","no","no","768","legacy","48","11","C:/Users/Simon M. Rook/Documents/School/1Tarleton/Classes/Adv Quant/Lab 3/New folder/sr-subject-3.csv","legacy","3 5 9 6 2 4","Lentiform Loewenfeld","3.3.10","1","y","0","left","left","left","left","NA","601","45682","86828","601","NA","2","legacy","6","1024","2","48000","-16","experiment","3","odd","3","502257","46903","498968","500053","1217","208777","500055","107378","1220","121949","504258","504860","501056","504258","NA","Sternberg task","60","48594","61","yes","1024"
"98.38709677419355","98.38709677419355","793.2903225806451","793.2903225806451","black","experiment","legacy","legacy","legacy","0","uniform","1","undefined","1","left","61","0","61","61","0","0","61","61","0","0","61","61","61","61","0","Sun Oct 17 22:35:09 2021","The main experiment item","yes","Sternbergtask.osexp","C:/Users/Simon M. Rook/Documents/School/1Tarleton/Classes/Adv Quant/Lab 3","no","mono","no","18","no","white","no","no","768","legacy","49","11","C:/Users/Simon M. Rook/Documents/School/1Tarleton/Classes/Adv Quant/Lab 3/New folder/sr-subject-3.csv","legacy","9 5 3 8 4","Lentiform Loewenfeld","3.3.10","1","y","0","left","left","left","left","NA","590","45682","86828","590","NA","2","legacy","5","1024","2","48000","-16","experiment","3","odd","9","508157","46903","504866","505953","1217","208777","505955","107378","1220","121949","510158","510748","506956","510158","NA","Sternberg task","61","49184","62","yes","1024"
"98.41269841269842","98.41269841269842","791.1111111111111","791.1111111111111","black","experiment","legacy","legacy","legacy","0","uniform","1","undefined","1","left","62","0","62","62","0","0","62","62","0","0","62","62","62","62","0","Sun Oct 17 22:35:09 2021","The main experiment item","yes","Sternbergtask.osexp","C:/Users/Simon M. Rook/Documents/School/1Tarleton/Classes/Adv Quant/Lab 3","no","mono","no","18","no","white","no","no","768","legacy","50","11","C:/Users/Simon M. Rook/Documents/School/1Tarleton/Classes/Adv Quant/Lab 3/New folder/sr-subject-3.csv","legacy","2 6 1 7 4","Lentiform Loewenfeld","3.3.10","2","y","0","left","left","left","left","NA","656","45682","86828","656","NA","2","legacy","5","1024","2","48000","-16","experiment","3","odd","6","514043","46903","510754","511840","1217","208777","511841","107378","1220","121949","516044","516701","512842","516044","NA","Sternberg task","62","49840","63","yes","1024"
"98.4375","98.4375","789.65625","789.65625","black","experiment","legacy","legacy","legacy","0","uniform","1","undefined","1","right","63","0","63","63","0","0","63","63","0","0","63","63","63","63","0","Sun Oct 17 22:35:09 2021","The main experiment item","yes","Sternbergtask.osexp","C:/Users/Simon M. Rook/Documents/School/1Tarleton/Classes/Adv Quant/Lab 3","no","mono","no","18","no","white","no","no","768","legacy","51","11","C:/Users/Simon M. Rook/Documents/School/1Tarleton/Classes/Adv Quant/Lab 3/New folder/sr-subject-3.csv","legacy","7 1 8 4 9 3","Lentiform Loewenfeld","3.3.10","0","n","0","right","left","left","right","NA","698","45682","86828","698","NA","2","legacy","6","1024","2","48000","-16","experiment","3","odd","6","519994","46903","516705","517791","1217","208777","517792","107378","1220","121949","521995","522694","518793","521995","NA","Sternberg task","63","50538","64","yes","1024"
"98.46153846153847","98.46153846153847","785.0461538461539","785.0461538461539","black","experiment","legacy","legacy","legacy","0","uniform","1","undefined","1","left","64","0","64","64","0","0","64","64","0","0","64","64","64","64","0","Sun Oct 17 22:35:09 2021","The main experiment item","yes","Sternbergtask.osexp","C:/Users/Simon M. Rook/Documents/School/1Tarleton/Classes/Adv Quant/Lab 3","no","mono","no","18","no","white","no","no","768","legacy","52","11","C:/Users/Simon M. Rook/Documents/School/1Tarleton/Classes/Adv Quant/Lab 3/New folder/sr-subject-3.csv","legacy","7 6","Lentiform Loewenfeld","3.3.10","2","y","0","left","left","left","left","NA","490","45682","86828","490","NA","2","legacy","2","1024","2","48000","-16","experiment","3","odd","6","525987","46903","522698","523784","1217","208777","523785","107378","1220","121949","527988","528479","524786","527988","NA","Sternberg task","64","51028","65","yes","1024"
"98.48484848484848","98.48484848484848","783.969696969697","783.969696969697","black","experiment","legacy","legacy","legacy","0","uniform","1","undefined","1","left","65","0","65","65","0","0","65","65","0","0","65","65","65","65","0","Sun Oct 17 22:35:09 2021","The main experiment item","yes","Sternbergtask.osexp","C:/Users/Simon M. Rook/Documents/School/1Tarleton/Classes/Adv Quant/Lab 3","no","mono","no","18","no","white","no","no","768","legacy","53","11","C:/Users/Simon M. Rook/Documents/School/1Tarleton/Classes/Adv Quant/Lab 3/New folder/sr-subject-3.csv","legacy","9 4 2","Lentiform Loewenfeld","3.3.10","1","y","0","left","left","left","left","NA","714","45682","86828","714","NA","2","legacy","3","1024","2","48000","-16","experiment","3","odd","9","531779","46903","528483","529576","1217","208777","529577","107378","1220","121949","533780","534495","530578","533780","NA","Sternberg task","65","51742","66","yes","1024"
"98.50746268656717","98.50746268656717","781.9701492537314","781.9701492537314","black","experiment","legacy","legacy","legacy","0","uniform","1","undefined","1","right","66","0","66","66","0","0","66","66","0","0","66","66","66","66","0","Sun Oct 17 22:35:09 2021","The main experiment item","yes","Sternbergtask.osexp","C:/Users/Simon M. Rook/Documents/School/1Tarleton/Classes/Adv Quant/Lab 3","no","mono","no","18","no","white","no","no","768","legacy","54","11","C:/Users/Simon M. Rook/Documents/School/1Tarleton/Classes/Adv Quant/Lab 3/New folder/sr-subject-3.csv","legacy","5","Lentiform Loewenfeld","3.3.10","0","n","0","right","left","left","right","NA","650","45682","86828","650","NA","2","legacy","1","1024","2","48000","-16","experiment","3","odd","8","537788","46903","534499","535584","1217","208777","535586","107378","1220","121949","539789","540439","536587","539789","NA","Sternberg task","66","52392","67","yes","1024"
"98.52941176470588","98.52941176470588","781.5294117647059","781.5294117647059","black","experiment","legacy","legacy","legacy","0","uniform","1","undefined","1","right","67","0","67","67","0","0","67","67","0","0","67","67","67","67","0","Sun Oct 17 22:35:09 2021","The main experiment item","yes","Sternbergtask.osexp","C:/Users/Simon M. Rook/Documents/School/1Tarleton/Classes/Adv Quant/Lab 3","no","mono","no","18","no","white","no","no","768","legacy","55","11","C:/Users/Simon M. Rook/Documents/School/1Tarleton/Classes/Adv Quant/Lab 3/New folder/sr-subject-3.csv","legacy","1 7 5 2 9","Lentiform Loewenfeld","3.3.10","0","n","0","right","left","left","right","NA","752","45682","86828","752","NA","2","legacy","5","1024","2","48000","-16","experiment","3","odd","3","543735","46903","540446","541532","1217","208777","541533","107378","1220","121949","545736","546489","542534","545736","NA","Sternberg task","67","53144","68","yes","1024"
"98.55072463768116","98.55072463768116","780.4347826086956","780.4347826086956","black","experiment","legacy","legacy","legacy","0","uniform","1","undefined","1","right","68","0","68","68","0","0","68","68","0","0","68","68","68","68","0","Sun Oct 17 22:35:09 2021","The main experiment item","yes","Sternbergtask.osexp","C:/Users/Simon M. Rook/Documents/School/1Tarleton/Classes/Adv Quant/Lab 3","no","mono","no","18","no","white","no","no","768","legacy","56","11","C:/Users/Simon M. Rook/Documents/School/1Tarleton/Classes/Adv Quant/Lab 3/New folder/sr-subject-3.csv","legacy","3 9 1","Lentiform Loewenfeld","3.3.10","0","n","0","right","left","left","right","NA","706","45682","86828","706","NA","2","legacy","3","1024","2","48000","-16","experiment","3","odd","7","549789","46903","546501","547586","1217","208777","547587","107378","1220","121949","551790","552497","548588","551790","NA","Sternberg task","68","53850","69","yes","1024"
"98.57142857142857","98.57142857142857","779.4285714285714","779.4285714285714","black","experiment","legacy","legacy","legacy","0","uniform","1","undefined","1","left","69","0","69","69","0","0","69","69","0","0","69","69","69","69","0","Sun Oct 17 22:35:09 2021","The main experiment item","yes","Sternbergtask.osexp","C:/Users/Simon M. Rook/Documents/School/1Tarleton/Classes/Adv Quant/Lab 3","no","mono","no","18","no","white","no","no","768","legacy","57","11","C:/Users/Simon M. Rook/Documents/School/1Tarleton/Classes/Adv Quant/Lab 3/New folder/sr-subject-3.csv","legacy","9 1 6 7 8","Lentiform Loewenfeld","3.3.10","1","y","0","left","left","left","left","NA","710","45682","86828","710","NA","2","legacy","5","1024","2","48000","-16","experiment","3","odd","9","555794","46903","552506","553591","1217","208777","553592","107378","1220","121949","557795","558505","554593","557795","NA","Sternberg task","69","54560","70","yes","1024"
"98.59154929577464","98.59154929577464","777.5211267605633","777.5211267605633","black","experiment","legacy","legacy","legacy","0","uniform","1","undefined","1","left","70","0","70","70","0","0","70","70","0","0","70","70","70","70","0","Sun Oct 17 22:35:09 2021","The main experiment item","yes","Sternbergtask.osexp","C:/Users/Simon M. Rook/Documents/School/1Tarleton/Classes/Adv Quant/Lab 3","no","mono","no","18","no","white","no","no","768","legacy","58","11","C:/Users/Simon M. Rook/Documents/School/1Tarleton/Classes/Adv Quant/Lab 3/New folder/sr-subject-3.csv","legacy","7","Lentiform Loewenfeld","3.3.10","1","y","0","left","left","left","left","NA","644","45682","86828","644","NA","2","legacy","1","1024","2","48000","-16","experiment","3","odd","7","561797","46903","558509","559594","1217","208777","559595","107378","1220","121949","563798","564443","560596","563798","NA","Sternberg task","70","55204","71","yes","1024"
"98.61111111111111","98.61111111111111","775.5972222222222","775.5972222222222","black","experiment","legacy","legacy","legacy","0","uniform","1","undefined","1","left","71","0","71","71","0","0","71","71","0","0","71","71","71","71","0","Sun Oct 17 22:35:09 2021","The main experiment item","yes","Sternbergtask.osexp","C:/Users/Simon M. Rook/Documents/School/1Tarleton/Classes/Adv Quant/Lab 3","no","mono","no","18","no","white","no","no","768","legacy","59","11","C:/Users/Simon M. Rook/Documents/School/1Tarleton/Classes/Adv Quant/Lab 3/New folder/sr-subject-3.csv","legacy","4 6 5 8","Lentiform Loewenfeld","3.3.10","1","y","0","left","left","left","left","NA","639","45682","86828","639","NA","2","legacy","4","1024","2","48000","-16","experiment","3","odd","4","567738","46903","564449","565535","1217","208777","565536","107378","1220","121949","569739","570379","566537","569739","NA","Sternberg task","71","55843","72","yes","1024"
"98.63013698630137","98.63013698630137","774.2876712328767","774.2876712328767","black","experiment","legacy","legacy","legacy","0","uniform","1","undefined","1","left","72","0","72","72","0","0","72","72","0","0","72","72","72","72","0","Sun Oct 17 22:35:09 2021","The main experiment item","yes","Sternbergtask.osexp","C:/Users/Simon M. Rook/Documents/School/1Tarleton/Classes/Adv Quant/Lab 3","no","mono","no","18","no","white","no","no","768","legacy","60","11","C:/Users/Simon M. Rook/Documents/School/1Tarleton/Classes/Adv Quant/Lab 3/New folder/sr-subject-3.csv","legacy","6 7 9 3 1 2","Lentiform Loewenfeld","3.3.10","1","y","0","left","left","left","left","NA","680","45682","86828","680","NA","2","legacy","6","1024","2","48000","-16","experiment","3","odd","6","573674","46903","570385","571471","1217","208777","571472","107378","1220","121949","575675","576359","572473","575675","NA","Sternberg task","72","56523","73","yes","1024"
"97.29729729729729","97.29729729729729","777.6486486486486","777.6486486486486","black","experiment","legacy","legacy","legacy","0","uniform","0","undefined","0","left","73","0","73","73","0","0","73","73","0","0","73","73","73","73","0","Sun Oct 17 22:35:09 2021","The main experiment item","yes","Sternbergtask.osexp","C:/Users/Simon M. Rook/Documents/School/1Tarleton/Classes/Adv Quant/Lab 3","no","mono","no","18","no","white","no","no","768","legacy","61","11","C:/Users/Simon M. Rook/Documents/School/1Tarleton/Classes/Adv Quant/Lab 3/New folder/sr-subject-3.csv","legacy","4 1 5","Lentiform Loewenfeld","3.3.10","2","y","0","right","left","left","right","NA","1023","45682","86828","1023","NA","2","legacy","3","1024","2","48000","-16","experiment","3","odd","1","579652","46903","576363","577448","1217","208777","577450","107378","1220","121949","581653","582677","578451","581653","NA","Sternberg task","72","57546","74","yes","1024"
"97.33333333333333","97.33333333333333","776.3866666666667","776.3866666666667","black","experiment","legacy","legacy","legacy","0","uniform","1","undefined","1","left","74","0","74","74","0","0","74","74","0","0","74","74","74","74","0","Sun Oct 17 22:35:09 2021","The main experiment item","yes","Sternbergtask.osexp","C:/Users/Simon M. Rook/Documents/School/1Tarleton/Classes/Adv Quant/Lab 3","no","mono","no","18","no","white","no","no","768","legacy","62","11","C:/Users/Simon M. Rook/Documents/School/1Tarleton/Classes/Adv Quant/Lab 3/New folder/sr-subject-3.csv","legacy","5 2 6","Lentiform Loewenfeld","3.3.10","2","y","0","left","left","left","left","NA","683","45682","86828","683","NA","2","legacy","3","1024","2","48000","-16","experiment","3","odd","2","585968","46903","576363","583765","1217","208777","583766","582680","1220","121949","587969","588656","584767","587969","NA","Sternberg task","73","58229","75","yes","1024"
"97.36842105263158","97.36842105263158","778.171052631579","778.171052631579","black","experiment","legacy","legacy","legacy","0","uniform","1","undefined","1","right","75","0","75","75","0","0","75","75","0","0","75","75","75","75","0","Sun Oct 17 22:35:09 2021","The main experiment item","yes","Sternbergtask.osexp","C:/Users/Simon M. Rook/Documents/School/1Tarleton/Classes/Adv Quant/Lab 3","no","mono","no","18","no","white","no","no","768","legacy","63","11","C:/Users/Simon M. Rook/Documents/School/1Tarleton/Classes/Adv Quant/Lab 3/New folder/sr-subject-3.csv","legacy","8 6 3 4 7","Lentiform Loewenfeld","3.3.10","0","n","0","right","left","left","right","NA","912","45682","86828","912","NA","2","legacy","5","1024","2","48000","-16","experiment","3","odd","1","591949","46903","588660","589745","1217","208777","589747","582680","1220","121949","593950","594862","590748","593950","NA","Sternberg task","74","59141","76","yes","1024"
"97.40259740259741","97.40259740259741","780.1298701298701","780.1298701298701","black","experiment","legacy","legacy","legacy","0","uniform","1","undefined","1","left","76","0","76","76","0","0","76","76","0","0","76","76","76","76","0","Sun Oct 17 22:35:09 2021","The main experiment item","yes","Sternbergtask.osexp","C:/Users/Simon M. Rook/Documents/School/1Tarleton/Classes/Adv Quant/Lab 3","no","mono","no","18","no","white","no","no","768","legacy","64","11","C:/Users/Simon M. Rook/Documents/School/1Tarleton/Classes/Adv Quant/Lab 3/New folder/sr-subject-3.csv","legacy","2 4 6 9","Lentiform Loewenfeld","3.3.10","3","y","0","left","left","left","left","NA","929","45682","86828","929","NA","2","legacy","4","1024","2","48000","-16","experiment","3","odd","6","598156","46903","594867","595953","1217","208777","595954","582680","1220","121949","600157","601086","596955","600157","NA","Sternberg task","75","60070","77","yes","1024"
"97.43589743589743","97.43589743589743","780.1153846153846","780.1153846153846","black","experiment","legacy","legacy","legacy","0","uniform","1","undefined","1","left","77","0","77","77","0","0","77","77","0","0","77","77","77","77","0","Sun Oct 17 22:35:09 2021","The main experiment item","yes","Sternbergtask.osexp","C:/Users/Simon M. Rook/Documents/School/1Tarleton/Classes/Adv Quant/Lab 3","no","mono","no","18","no","white","no","no","768","legacy","65","11","C:/Users/Simon M. Rook/Documents/School/1Tarleton/Classes/Adv Quant/Lab 3/New folder/sr-subject-3.csv","legacy","7 8 4 6 9 5","Lentiform Loewenfeld","3.3.10","4","y","0","left","left","left","left","NA","779","45682","86828","779","NA","2","legacy","6","1024","2","48000","-16","experiment","3","odd","6","604379","46903","601090","602176","1217","208777","602177","582680","1220","121949","606380","607160","603178","606380","NA","Sternberg task","76","60849","78","yes","1024"
"97.46835443037975","97.46835443037975","778.4177215189874","778.4177215189874","black","experiment","legacy","legacy","legacy","0","uniform","1","undefined","1","left","78","0","78","78","0","0","78","78","0","0","78","78","78","78","0","Sun Oct 17 22:35:09 2021","The main experiment item","yes","Sternbergtask.osexp","C:/Users/Simon M. Rook/Documents/School/1Tarleton/Classes/Adv Quant/Lab 3","no","mono","no","18","no","white","no","no","768","legacy","66","11","C:/Users/Simon M. Rook/Documents/School/1Tarleton/Classes/Adv Quant/Lab 3/New folder/sr-subject-3.csv","legacy","9 6 2 4 1","Lentiform Loewenfeld","3.3.10","4","y","0","left","left","left","left","NA","646","45682","86828","646","NA","2","legacy","5","1024","2","48000","-16","experiment","3","odd","4","610464","46903","607171","608261","1217","208777","608262","582680","1220","121949","612465","613112","609263","612465","NA","Sternberg task","77","61495","79","yes","1024"
"97.5","97.5","777.5","777.5","black","experiment","legacy","legacy","legacy","0","uniform","1","undefined","1","left","79","0","79","79","0","0","79","79","0","0","79","79","79","79","0","Sun Oct 17 22:35:09 2021","The main experiment item","yes","Sternbergtask.osexp","C:/Users/Simon M. Rook/Documents/School/1Tarleton/Classes/Adv Quant/Lab 3","no","mono","no","18","no","white","no","no","768","legacy","67","11","C:/Users/Simon M. Rook/Documents/School/1Tarleton/Classes/Adv Quant/Lab 3/New folder/sr-subject-3.csv","legacy","4","Lentiform Loewenfeld","3.3.10","1","y","0","left","left","left","left","NA","705","45682","86828","705","NA","2","legacy","1","1024","2","48000","-16","experiment","3","odd","4","616406","46903","613118","614203","1217","208777","614204","582680","1220","121949","618407","619113","615205","618407","NA","Sternberg task","78","62200","80","yes","1024"
"97.53086419753086","97.53086419753086","776.2098765432099","776.2098765432099","black","experiment","legacy","legacy","legacy","0","uniform","1","undefined","1","right","80","0","80","80","0","0","80","80","0","0","80","80","80","80","0","Sun Oct 17 22:35:09 2021","The main experiment item","yes","Sternbergtask.osexp","C:/Users/Simon M. Rook/Documents/School/1Tarleton/Classes/Adv Quant/Lab 3","no","mono","no","18","no","white","no","no","768","legacy","68","11","C:/Users/Simon M. Rook/Documents/School/1Tarleton/Classes/Adv Quant/Lab 3/New folder/sr-subject-3.csv","legacy","6 9 7 3 8 2","Lentiform Loewenfeld","3.3.10","0","n","0","right","left","left","right","NA","673","45682","86828","673","NA","2","legacy","6","1024","2","48000","-16","experiment","3","odd","5","622407","46903","619117","620203","1217","208777","620205","582680","1220","121949","624408","625082","621206","624408","NA","Sternberg task","79","62873","81","yes","1024"
"97.5609756097561","97.5609756097561","773.560975609756","773.560975609756","black","experiment","legacy","legacy","legacy","0","uniform","1","undefined","1","left","81","0","81","81","0","0","81","81","0","0","81","81","81","81","0","Sun Oct 17 22:35:09 2021","The main experiment item","yes","Sternbergtask.osexp","C:/Users/Simon M. Rook/Documents/School/1Tarleton/Classes/Adv Quant/Lab 3","no","mono","no","18","no","white","no","no","768","legacy","69","11","C:/Users/Simon M. Rook/Documents/School/1Tarleton/Classes/Adv Quant/Lab 3/New folder/sr-subject-3.csv","legacy","4 6 2 5 1","Lentiform Loewenfeld","3.3.10","5","y","0","left","left","left","left","NA","559","45682","86828","559","NA","2","legacy","5","1024","2","48000","-16","experiment","3","odd","1","628377","46903","625087","626173","1217","208777","626175","582680","1220","121949","630378","630938","627176","630378","NA","Sternberg task","80","63432","82","yes","1024"
"97.59036144578313","97.59036144578313","777.0843373493976","777.0843373493976","black","experiment","legacy","legacy","legacy","0","uniform","1","undefined","1","left","82","0","82","82","0","0","82","82","0","0","82","82","82","82","0","Sun Oct 17 22:35:09 2021","The main experiment item","yes","Sternbergtask.osexp","C:/Users/Simon M. Rook/Documents/School/1Tarleton/Classes/Adv Quant/Lab 3","no","mono","no","18","no","white","no","no","768","legacy","70","11","C:/Users/Simon M. Rook/Documents/School/1Tarleton/Classes/Adv Quant/Lab 3/New folder/sr-subject-3.csv","legacy","6 8 9 3 4 9","Lentiform Loewenfeld","3.3.10","5","y","0","left","left","left","left","NA","1066","45682","86828","1066","NA","2","legacy","6","1024","2","48000","-16","experiment","3","odd","4","634231","46903","630943","632028","1217","208777","632029","582680","1220","121949","636232","637299","633030","636232","NA","Sternberg task","81","64498","83","yes","1024"
"97.61904761904762","97.61904761904762","788.4166666666666","788.4166666666666","black","experiment","legacy","legacy","legacy","0","uniform","1","undefined","1","left","83","0","83","83","0","0","83","83","0","0","83","83","83","83","0","Sun Oct 17 22:35:09 2021","The main experiment item","yes","Sternbergtask.osexp","C:/Users/Simon M. Rook/Documents/School/1Tarleton/Classes/Adv Quant/Lab 3","no","mono","no","18","no","white","no","no","768","legacy","71","11","C:/Users/Simon M. Rook/Documents/School/1Tarleton/Classes/Adv Quant/Lab 3/New folder/sr-subject-3.csv","legacy","4 3 2 5 8","Lentiform Loewenfeld","3.3.10","2","y","0","left","left","left","left","NA","1729","45682","86828","1729","NA","2","legacy","5","1024","2","48000","-16","experiment","3","odd","3","640593","46903","637304","638389","1217","208777","638391","582680","1220","121949","642594","644324","639392","642594","NA","Sternberg task","82","66227","84","yes","1024"
"97.6470588235294","97.6470588235294","788.4588235294118","788.4588235294118","black","experiment","legacy","legacy","legacy","0","uniform","1","undefined","1","left","84","0","84","84","0","0","84","84","0","0","84","84","84","84","0","Sun Oct 17 22:35:09 2021","The main experiment item","yes","Sternbergtask.osexp","C:/Users/Simon M. Rook/Documents/School/1Tarleton/Classes/Adv Quant/Lab 3","no","mono","no","18","no","white","no","no","768","legacy","72","11","C:/Users/Simon M. Rook/Documents/School/1Tarleton/Classes/Adv Quant/Lab 3/New folder/sr-subject-3.csv","legacy","8 9 5 7 1 6","Lentiform Loewenfeld","3.3.10","4","y","0","left","left","left","left","NA","792","45682","86828","792","NA","2","legacy","6","1024","2","48000","-16","experiment","3","odd","7","647642","46903","644328","645438","1217","208777","645440","582680","1220","121949","649643","650436","646441","649643","NA","Sternberg task","83","67019","85","yes","1024"
"97.67441860465117","97.67441860465117","786.9069767441861","786.9069767441861","black","experiment","legacy","legacy","legacy","0","uniform","1","undefined","1","left","85","0","85","85","0","0","85","85","0","0","85","85","85","85","0","Sun Oct 17 22:35:09 2021","The main experiment item","yes","Sternbergtask.osexp","C:/Users/Simon M. Rook/Documents/School/1Tarleton/Classes/Adv Quant/Lab 3","no","mono","no","18","no","white","no","no","768","legacy","73","11","C:/Users/Simon M. Rook/Documents/School/1Tarleton/Classes/Adv Quant/Lab 3/New folder/sr-subject-3.csv","legacy","9 8 4","Lentiform Loewenfeld","3.3.10","1","y","0","left","left","left","left","NA","655","45682","86828","655","NA","2","legacy","3","1024","2","48000","-16","experiment","3","odd","9","653733","46903","650441","651529","1217","208777","651531","582680","1220","121949","655734","656390","652532","655734","NA","Sternberg task","84","67674","86","yes","1024"
"97.70114942528735","97.70114942528735","787.0344827586207","787.0344827586207","black","experiment","legacy","legacy","legacy","0","uniform","1","undefined","1","right","86","0","86","86","0","0","86","86","0","0","86","86","86","86","0","Sun Oct 17 22:35:09 2021","The main experiment item","yes","Sternbergtask.osexp","C:/Users/Simon M. Rook/Documents/School/1Tarleton/Classes/Adv Quant/Lab 3","no","mono","no","18","no","white","no","no","768","legacy","74","11","C:/Users/Simon M. Rook/Documents/School/1Tarleton/Classes/Adv Quant/Lab 3/New folder/sr-subject-3.csv","legacy","5 7 3","Lentiform Loewenfeld","3.3.10","0","n","0","right","left","left","right","NA","798","45682","86828","798","NA","2","legacy","3","1024","2","48000","-16","experiment","3","odd","9","659686","46903","656395","657483","1217","208777","657484","582680","1220","121949","661687","662486","658485","661687","NA","Sternberg task","85","68472","87","yes","1024"
"97.72727272727273","97.72727272727273","785.6590909090909","785.6590909090909","black","experiment","legacy","legacy","legacy","0","uniform","1","undefined","1","right","87","0","87","87","0","0","87","87","0","0","87","87","87","87","0","Sun Oct 17 22:35:09 2021","The main experiment item","yes","Sternbergtask.osexp","C:/Users/Simon M. Rook/Documents/School/1Tarleton/Classes/Adv Quant/Lab 3","no","mono","no","18","no","white","no","no","768","legacy","75","11","C:/Users/Simon M. Rook/Documents/School/1Tarleton/Classes/Adv Quant/Lab 3/New folder/sr-subject-3.csv","legacy","8 2 1 4 5 9","Lentiform Loewenfeld","3.3.10","0","n","0","right","left","left","right","NA","666","45682","86828","666","NA","2","legacy","6","1024","2","48000","-16","experiment","3","odd","7","665786","46903","662497","663582","1217","208777","663584","582680","1220","121949","667787","668454","664585","667787","NA","Sternberg task","86","69138","88","yes","1024"
"97.75280898876404","97.75280898876404","785.7415730337078","785.7415730337078","black","experiment","legacy","legacy","legacy","0","uniform","1","undefined","1","right","88","0","88","88","0","0","88","88","0","0","88","88","88","88","0","Sun Oct 17 22:35:09 2021","The main experiment item","yes","Sternbergtask.osexp","C:/Users/Simon M. Rook/Documents/School/1Tarleton/Classes/Adv Quant/Lab 3","no","mono","no","18","no","white","no","no","768","legacy","76","11","C:/Users/Simon M. Rook/Documents/School/1Tarleton/Classes/Adv Quant/Lab 3/New folder/sr-subject-3.csv","legacy","5 3 2 6 9 8","Lentiform Loewenfeld","3.3.10","0","n","0","right","left","left","right","NA","793","45682","86828","793","NA","2","legacy","6","1024","2","48000","-16","experiment","3","odd","4","671749","46903","668460","669546","1217","208777","669547","582680","1220","121949","673750","674544","670548","673750","NA","Sternberg task","87","69931","89","yes","1024"
"97.77777777777777","97.77777777777777","795","795","black","experiment","legacy","legacy","legacy","0","uniform","1","undefined","1","left","89","0","89","89","0","0","89","89","0","0","89","89","89","89","0","Sun Oct 17 22:35:09 2021","The main experiment item","yes","Sternbergtask.osexp","C:/Users/Simon M. Rook/Documents/School/1Tarleton/Classes/Adv Quant/Lab 3","no","mono","no","18","no","white","no","no","768","legacy","77","11","C:/Users/Simon M. Rook/Documents/School/1Tarleton/Classes/Adv Quant/Lab 3/New folder/sr-subject-3.csv","legacy","6 9 3 1","Lentiform Loewenfeld","3.3.10","4","y","0","left","left","left","left","NA","1619","45682","86828","1619","NA","2","legacy","4","1024","2","48000","-16","experiment","3","odd","1","677852","46903","674555","675648","1217","208777","675650","582680","1220","121949","679853","681473","676651","679853","NA","Sternberg task","88","71550","90","yes","1024"
"97.8021978021978","97.8021978021978","794.5824175824176","794.5824175824176","black","experiment","legacy","legacy","legacy","0","uniform","1","undefined","1","left","90","0","90","90","0","0","90","90","0","0","90","90","90","90","0","Sun Oct 17 22:35:09 2021","The main experiment item","yes","Sternbergtask.osexp","C:/Users/Simon M. Rook/Documents/School/1Tarleton/Classes/Adv Quant/Lab 3","no","mono","no","18","no","white","no","no","768","legacy","78","11","C:/Users/Simon M. Rook/Documents/School/1Tarleton/Classes/Adv Quant/Lab 3/New folder/sr-subject-3.csv","legacy","3 9 6 2","Lentiform Loewenfeld","3.3.10","4","y","0","left","left","left","left","NA","757","45682","86828","757","NA","2","legacy","4","1024","2","48000","-16","experiment","3","odd","2","684794","46903","681483","682589","1217","208777","682592","582680","1220","121949","686795","687558","683593","686795","NA","Sternberg task","89","72307","91","yes","1024"
"97.82608695652173","97.82608695652173","794.0652173913044","794.0652173913044","black","experiment","legacy","legacy","legacy","0","uniform","1","undefined","1","left","91","0","91","91","0","0","91","91","0","0","91","91","91","91","0","Sun Oct 17 22:35:09 2021","The main experiment item","yes","Sternbergtask.osexp","C:/Users/Simon M. Rook/Documents/School/1Tarleton/Classes/Adv Quant/Lab 3","no","mono","no","18","no","white","no","no","768","legacy","79","11","C:/Users/Simon M. Rook/Documents/School/1Tarleton/Classes/Adv Quant/Lab 3/New folder/sr-subject-3.csv","legacy","7 1 8 5 6 2","Lentiform Loewenfeld","3.3.10","2","y","0","left","left","left","left","NA","747","45682","86828","747","NA","2","legacy","6","1024","2","48000","-16","experiment","3","odd","1","690853","46903","687564","688650","1217","208777","688651","582680","1220","121949","692854","693602","689652","692854","NA","Sternberg task","90","73054","92","yes","1024"
"97.84946236559139","97.84946236559139","793.6344086021505","793.6344086021505","black","experiment","legacy","legacy","legacy","0","uniform","1","undefined","1","right","92","0","92","92","0","0","92","92","0","0","92","92","92","92","0","Sun Oct 17 22:35:09 2021","The main experiment item","yes","Sternbergtask.osexp","C:/Users/Simon M. Rook/Documents/School/1Tarleton/Classes/Adv Quant/Lab 3","no","mono","no","18","no","white","no","no","768","legacy","80","11","C:/Users/Simon M. Rook/Documents/School/1Tarleton/Classes/Adv Quant/Lab 3/New folder/sr-subject-3.csv","legacy","2 7 5","Lentiform Loewenfeld","3.3.10","0","n","0","right","left","left","right","NA","754","45682","86828","754","NA","2","legacy","3","1024","2","48000","-16","experiment","3","odd","8","696902","46903","693613","694698","1217","208777","694700","582680","1220","121949","698903","699659","695701","698903","NA","Sternberg task","91","73808","93","yes","1024"
"97.87234042553192","97.87234042553192","792.1170212765958","792.1170212765958","black","experiment","legacy","legacy","legacy","0","uniform","1","undefined","1","right","93","0","93","93","0","0","93","93","0","0","93","93","93","93","0","Sun Oct 17 22:35:09 2021","The main experiment item","yes","Sternbergtask.osexp","C:/Users/Simon M. Rook/Documents/School/1Tarleton/Classes/Adv Quant/Lab 3","no","mono","no","18","no","white","no","no","768","legacy","81","11","C:/Users/Simon M. Rook/Documents/School/1Tarleton/Classes/Adv Quant/Lab 3/New folder/sr-subject-3.csv","legacy","8 4 3 9","Lentiform Loewenfeld","3.3.10","0","n","0","right","left","left","right","NA","651","45682","86828","651","NA","2","legacy","4","1024","2","48000","-16","experiment","3","odd","5","702958","46903","699671","700755","1217","208777","700757","582680","1220","121949","704959","705611","701757","704959","NA","Sternberg task","92","74459","94","yes","1024"
"97.89473684210526","97.89473684210526","790.7684210526315","790.7684210526315","black","experiment","legacy","legacy","legacy","0","uniform","1","undefined","1","left","94","0","94","94","0","0","94","94","0","0","94","94","94","94","0","Sun Oct 17 22:35:09 2021","The main experiment item","yes","Sternbergtask.osexp","C:/Users/Simon M. Rook/Documents/School/1Tarleton/Classes/Adv Quant/Lab 3","no","mono","no","18","no","white","no","no","768","legacy","82","11","C:/Users/Simon M. Rook/Documents/School/1Tarleton/Classes/Adv Quant/Lab 3/New folder/sr-subject-3.csv","legacy","7 8 6 3 1","Lentiform Loewenfeld","3.3.10","5","y","0","left","left","left","left","NA","664","45682","86828","664","NA","2","legacy","5","1024","2","48000","-16","experiment","3","odd","1","708906","46903","705617","706703","1217","208777","706704","582680","1220","121949","710907","711572","707705","710907","NA","Sternberg task","93","75123","95","yes","1024"
"97.91666666666667","97.91666666666667","787.6770833333334","787.6770833333334","black","experiment","legacy","legacy","legacy","0","uniform","1","undefined","1","left","95","0","95","95","0","0","95","95","0","0","95","95","95","95","0","Sun Oct 17 22:35:09 2021","The main experiment item","yes","Sternbergtask.osexp","C:/Users/Simon M. Rook/Documents/School/1Tarleton/Classes/Adv Quant/Lab 3","no","mono","no","18","no","white","no","no","768","legacy","83","11","C:/Users/Simon M. Rook/Documents/School/1Tarleton/Classes/Adv Quant/Lab 3/New folder/sr-subject-3.csv","legacy","8 1 6","Lentiform Loewenfeld","3.3.10","3","y","0","left","left","left","left","NA","494","45682","86828","494","NA","2","legacy","3","1024","2","48000","-16","experiment","3","odd","6","714868","46903","711579","712665","1217","208777","712666","582680","1220","121949","716869","717364","713667","716869","NA","Sternberg task","94","75617","96","yes","1024"
"97.9381443298969","97.9381443298969","785.6907216494845","785.6907216494845","black","experiment","legacy","legacy","legacy","0","uniform","1","undefined","1","right","96","0","96","96","0","0","96","96","0","0","96","96","96","96","0","Sun Oct 17 22:35:09 2021","The main experiment item","yes","Sternbergtask.osexp","C:/Users/Simon M. Rook/Documents/School/1Tarleton/Classes/Adv Quant/Lab 3","no","mono","no","18","no","white","no","no","768","legacy","84","11","C:/Users/Simon M. Rook/Documents/School/1Tarleton/Classes/Adv Quant/Lab 3/New folder/sr-subject-3.csv","legacy","7 9 1 6","Lentiform Loewenfeld","3.3.10","0","n","0","right","left","left","right","NA","595","45682","86828","595","NA","2","legacy","4","1024","2","48000","-16","experiment","3","odd","4","720656","46903","717368","718453","1217","208777","718454","582680","1220","121949","722657","723253","719455","722657","NA","Sternberg task","95","76212","97","yes","1024"
"97.95918367346938","97.95918367346938","785.6734693877551","785.6734693877551","black","experiment","legacy","legacy","legacy","0","uniform","1","undefined","1","right","97","0","97","97","0","0","97","97","0","0","97","97","97","97","0","Sun Oct 17 22:35:09 2021","The main experiment item","yes","Sternbergtask.osexp","C:/Users/Simon M. Rook/Documents/School/1Tarleton/Classes/Adv Quant/Lab 3","no","mono","no","18","no","white","no","no","768","legacy","85","11","C:/Users/Simon M. Rook/Documents/School/1Tarleton/Classes/Adv Quant/Lab 3/New folder/sr-subject-3.csv","legacy","7 3 2 8","Lentiform Loewenfeld","3.3.10","0","n","0","right","left","left","right","NA","784","45682","86828","784","NA","2","legacy","4","1024","2","48000","-16","experiment","3","odd","4","726547","46903","723257","724343","1217","208777","724345","582680","1220","121949","728548","729333","725346","728548","NA","Sternberg task","96","76996","98","yes","1024"
"97.97979797979798","97.97979797979798","787.3737373737374","787.3737373737374","black","experiment","legacy","legacy","legacy","0","uniform","1","undefined","1","left","98","0","98","98","0","0","98","98","0","0","98","98","98","98","0","Sun Oct 17 22:35:09 2021","The main experiment item","yes","Sternbergtask.osexp","C:/Users/Simon M. Rook/Documents/School/1Tarleton/Classes/Adv Quant/Lab 3","no","mono","no","18","no","white","no","no","768","legacy","86","11","C:/Users/Simon M. Rook/Documents/School/1Tarleton/Classes/Adv Quant/Lab 3/New folder/sr-subject-3.csv","legacy","9 1 7 2","Lentiform Loewenfeld","3.3.10","2","y","0","left","left","left","left","NA","954","45682","86828","954","NA","2","legacy","4","1024","2","48000","-16","experiment","3","odd","1","732627","46903","729337","730424","1217","208777","730425","582680","1220","121949","734628","735583","731426","734628","NA","Sternberg task","97","77950","99","yes","1024"
"98","98","786.77","786.77","black","experiment","legacy","legacy","legacy","0","uniform","1","undefined","1","left","99","0","99","99","0","0","99","99","0","0","99","99","99","99","0","Sun Oct 17 22:35:09 2021","The main experiment item","yes","Sternbergtask.osexp","C:/Users/Simon M. Rook/Documents/School/1Tarleton/Classes/Adv Quant/Lab 3","no","mono","no","18","no","white","no","no","768","legacy","87","11","C:/Users/Simon M. Rook/Documents/School/1Tarleton/Classes/Adv Quant/Lab 3/New folder/sr-subject-3.csv","legacy","6 2","Lentiform Loewenfeld","3.3.10","1","y","0","left","left","left","left","NA","727","45682","86828","727","NA","2","legacy","2","1024","2","48000","-16","experiment","3","odd","6","738878","46903","735588","736675","1217","208777","736676","582680","1220","121949","740879","741607","737677","740879","NA","Sternberg task","98","78677","100","yes","1024"
"98.01980198019803","98.01980198019803","787.7029702970297","787.7029702970297","black","experiment","legacy","legacy","legacy","0","uniform","1","undefined","1","right","100","0","100","100","0","0","100","100","0","0","100","100","100","100","0","Sun Oct 17 22:35:09 2021","The main experiment item","yes","Sternbergtask.osexp","C:/Users/Simon M. Rook/Documents/School/1Tarleton/Classes/Adv Quant/Lab 3","no","mono","no","18","no","white","no","no","768","legacy","88","11","C:/Users/Simon M. Rook/Documents/School/1Tarleton/Classes/Adv Quant/Lab 3/New folder/sr-subject-3.csv","legacy","2 3 8 5 6 7","Lentiform Loewenfeld","3.3.10","0","n","0","right","left","left","right","NA","881","45682","86828","881","NA","2","legacy","6","1024","2","48000","-16","experiment","3","odd","1","744909","46903","741620","742705","1217","208777","742707","582680","1220","121949","746910","747792","743708","746910","NA","Sternberg task","99","79558","101","yes","1024"
"97.05882352941177","97.05882352941177","790.0294117647059","790.0294117647059","black","experiment","legacy","legacy","legacy","0","uniform","0","undefined","0","right","101","0","101","101","0","0","101","101","0","0","101","101","101","101","0","Sun Oct 17 22:35:09 2021","The main experiment item","yes","Sternbergtask.osexp","C:/Users/Simon M. Rook/Documents/School/1Tarleton/Classes/Adv Quant/Lab 3","no","mono","no","18","no","white","no","no","768","legacy","89","11","C:/Users/Simon M. Rook/Documents/School/1Tarleton/Classes/Adv Quant/Lab 3/New folder/sr-subject-3.csv","legacy","6 2 9 3 8 4","Lentiform Loewenfeld","3.3.10","0","n","0","left","left","left","left","NA","1025","45682","86828","1025","NA","2","legacy","6","1024","2","48000","-16","experiment","3","odd","1","751085","46903","747796","748881","1217","208777","748883","582680","1220","121949","753086","754112","749884","753086","NA","Sternberg task","99","80583","102","yes","1024"
"97.0873786407767","97.0873786407767","789.0485436893204","789.0485436893204","black","experiment","legacy","legacy","legacy","0","uniform","1","undefined","1","left","102","0","102","102","0","0","102","102","0","0","102","102","102","102","0","Sun Oct 17 22:35:09 2021","The main experiment item","yes","Sternbergtask.osexp","C:/Users/Simon M. Rook/Documents/School/1Tarleton/Classes/Adv Quant/Lab 3","no","mono","no","18","no","white","no","no","768","legacy","90","11","C:/Users/Simon M. Rook/Documents/School/1Tarleton/Classes/Adv Quant/Lab 3/New folder/sr-subject-3.csv","legacy","3 5 7 1","Lentiform Loewenfeld","3.3.10","3","y","0","left","left","left","left","NA","689","45682","86828","689","NA","2","legacy","4","1024","2","48000","-16","experiment","3","odd","7","757406","46903","747796","755203","1217","208777","755204","754118","1220","121949","759407","760097","756205","759407","NA","Sternberg task","100","81272","103","yes","1024"
"97.11538461538461","97.11538461538461","789.1346153846154","789.1346153846154","black","experiment","legacy","legacy","legacy","0","uniform","1","undefined","1","right","103","0","103","103","0","0","103","103","0","0","103","103","103","103","0","Sun Oct 17 22:35:09 2021","The main experiment item","yes","Sternbergtask.osexp","C:/Users/Simon M. Rook/Documents/School/1Tarleton/Classes/Adv Quant/Lab 3","no","mono","no","18","no","white","no","no","768","legacy","91","11","C:/Users/Simon M. Rook/Documents/School/1Tarleton/Classes/Adv Quant/Lab 3/New folder/sr-subject-3.csv","legacy","2 5 1 4","Lentiform Loewenfeld","3.3.10","0","n","0","right","left","left","right","NA","798","45682","86828","798","NA","2","legacy","4","1024","2","48000","-16","experiment","3","odd","6","763394","46903","760101","761191","1217","208777","761192","754118","1220","121949","765395","766194","762193","765395","NA","Sternberg task","101","82070","104","yes","1024"
"97.14285714285714","97.14285714285714","797.7904761904762","797.7904761904762","black","experiment","legacy","legacy","legacy","0","uniform","1","undefined","1","right","104","0","104","104","0","0","104","104","0","0","104","104","104","104","0","Sun Oct 17 22:35:09 2021","The main experiment item","yes","Sternbergtask.osexp","C:/Users/Simon M. Rook/Documents/School/1Tarleton/Classes/Adv Quant/Lab 3","no","mono","no","18","no","white","no","no","768","legacy","92","11","C:/Users/Simon M. Rook/Documents/School/1Tarleton/Classes/Adv Quant/Lab 3/New folder/sr-subject-3.csv","legacy","1 4 3 6 5","Lentiform Loewenfeld","3.3.10","0","n","0","right","left","left","right","NA","1698","45682","86828","1698","NA","2","legacy","5","1024","2","48000","-16","experiment","3","odd","8","769495","46903","766205","767291","1217","208777","767293","754118","1220","121949","771496","773195","768294","771496","NA","Sternberg task","102","83768","105","yes","1024"
