acc,accuracy,average_response_time,avg_rt,background,block,canvas_backend,clock_backend,color_backend,compensation,coordinates,correct,correct_Instruction1,correct_new_keyboard_response,correct_response,count_Instruction1,count_correctFeedback,count_expSequence,count_experiment,count_experimentLoop,count_fixation,count_incorrectFeedback,count_instructions2,count_isi,count_logger,count_memorySet,count_new_keyboard_response,count_practiceLoop,count_probe,count_thankYou,datetime,description,disable_garbage_collection,experiment_file,experiment_path,font_bold,font_family,font_italic,font_size,font_underline,foreground,form_clicks,fullscreen,height,keyboard_backend,live_row,live_row_practiceLoop,logfile,mouse_backend,numberSet,opensesame_codename,opensesame_version,posInSet,present,repeat_cycle,response,response_Instruction1,response_instructions2,response_new_keyboard_response,response_thankYou,response_time,response_time_Instruction1,response_time_instructions2,response_time_new_keyboard_response,response_time_thankYou,round_decimals,sampler_backend,setSize,sound_buf_size,sound_channels,sound_freq,sound_sample_size,start,subject_nr,subject_parity,target,time_Instruction1,time_correctFeedback,time_expSequence,time_experiment,time_experimentLoop,time_fixation,time_incorrectFeedback,time_instructions2,time_isi,time_logger,time_memorySet,time_new_keyboard_response,time_practiceLoop,time_probe,time_thankYou,title,total_correct,total_response_time,total_responses,uniform_coordinates,width
0,0,2000,2000,black,practice,legacy,legacy,legacy,0,uniform,0,undefined,0,right,0,0,0,0,0,0,0,0,0,0,0,0,0,0,0,Wed Oct 23 07:39:36 2019,The main experiment item,yes,Sternbergtask.osexp,/Users/KrisBow/Dropbox/GradSchoolTarleton/Fall2019/AdvQuant/Lab3,no,mono,no,18,no,white,no,yes,768,legacy,0,0,/Users/KrisBow/Dropbox/GradSchoolTarleton/Fall2019/AdvQuant/Lab3/KB-subject-3-F18.csv,legacy,4 1 5,Kafkaesque Koffka,3.2.6,0,n,0,None,left,NA,None,NA,2000,74425,NA,2000,NA,2,legacy,3,1024,2,48000,-16,experiment,3,odd,2,1805,NA,76776,1791,NA,76788,NA,NA,79011,83022,77799,81022,76232,81022,NA,Sternberg task,0,2000,1,yes,1024
50,50,1610,1610,black,practice,legacy,legacy,legacy,0,uniform,1,undefined,1,left,0,1,1,0,0,1,1,0,1,1,1,1,0,1,0,Wed Oct 23 07:39:36 2019,The main experiment item,yes,Sternbergtask.osexp,/Users/KrisBow/Dropbox/GradSchoolTarleton/Fall2019/AdvQuant/Lab3,no,mono,no,18,no,white,no,yes,768,legacy,1,1,/Users/KrisBow/Dropbox/GradSchoolTarleton/Fall2019/AdvQuant/Lab3/KB-subject-3-F18.csv,legacy,4 3 1 7 9 8,Kafkaesque Koffka,3.2.6,1,y,0,left,left,NA,left,NA,1220,74425,NA,1220,NA,2,legacy,6,1024,2,48000,-16,experiment,3,odd,4,1805,NA,84368,1791,NA,84379,83244,NA,86603,89836,85391,88615,76232,88615,NA,Sternberg task,1,3220,2,yes,1024
33.33333333,33.33333333,1251.666667,1251.666667,black,practice,legacy,legacy,legacy,0,uniform,0,undefined,0,left,0,2,2,0,0,2,2,0,2,2,2,2,0,2,0,Wed Oct 23 07:39:36 2019,The main experiment item,yes,Sternbergtask.osexp,/Users/KrisBow/Dropbox/GradSchoolTarleton/Fall2019/AdvQuant/Lab3,no,mono,no,18,no,white,no,yes,768,legacy,2,2,/Users/KrisBow/Dropbox/GradSchoolTarleton/Fall2019/AdvQuant/Lab3/KB-subject-3-F18.csv,legacy,1 7 9 8 5,Kafkaesque Koffka,3.2.6,4,y,0,right,left,NA,right,NA,535,74425,NA,535,NA,2,legacy,5,1024,2,48000,-16,experiment,3,odd,8,1805,89851,90962,1791,NA,90974,83244,NA,93196,95746,91985,95209,76232,95209,NA,Sternberg task,1,3755,3,yes,1024
50,50,1121,1121,black,practice,legacy,legacy,legacy,0,uniform,1,undefined,1,left,0,3,3,0,0,3,3,0,3,3,3,3,0,3,0,Wed Oct 23 07:39:36 2019,The main experiment item,yes,Sternbergtask.osexp,/Users/KrisBow/Dropbox/GradSchoolTarleton/Fall2019/AdvQuant/Lab3,no,mono,no,18,no,white,no,yes,768,legacy,3,3,/Users/KrisBow/Dropbox/GradSchoolTarleton/Fall2019/AdvQuant/Lab3/KB-subject-3-F18.csv,legacy,1 5 2 9,Kafkaesque Koffka,3.2.6,2,y,0,left,left,NA,left,NA,729,74425,NA,729,NA,2,legacy,4,1024,2,48000,-16,experiment,3,odd,5,1805,89851,96872,1791,NA,96883,95759,NA,99105,101847,97894,101116,76232,101116,NA,Sternberg task,2,4484,4,yes,1024
60,60,997.2,997.2,black,practice,legacy,legacy,legacy,0,uniform,1,undefined,1,right,0,4,4,0,0,4,4,0,4,4,4,4,0,4,0,Wed Oct 23 07:39:36 2019,The main experiment item,yes,Sternbergtask.osexp,/Users/KrisBow/Dropbox/GradSchoolTarleton/Fall2019/AdvQuant/Lab3,no,mono,no,18,no,white,no,yes,768,legacy,4,4,/Users/KrisBow/Dropbox/GradSchoolTarleton/Fall2019/AdvQuant/Lab3/KB-subject-3-F18.csv,legacy,5 7 8 4 1 2,Kafkaesque Koffka,3.2.6,0,n,0,right,left,NA,right,NA,502,74425,NA,502,NA,2,legacy,6,1024,2,48000,-16,experiment,3,odd,6,1805,101905,103044,1791,NA,103056,95759,NA,105279,107797,104067,107294,76232,107294,NA,Sternberg task,3,4986,5,yes,1024
66.66666667,66.66666667,940.8333333,940.8333333,black,practice,legacy,legacy,legacy,0,uniform,1,undefined,1,left,0,5,5,0,0,5,5,0,5,5,5,5,0,5,0,Wed Oct 23 07:39:36 2019,The main experiment item,yes,Sternbergtask.osexp,/Users/KrisBow/Dropbox/GradSchoolTarleton/Fall2019/AdvQuant/Lab3,no,mono,no,18,no,white,no,yes,768,legacy,5,5,/Users/KrisBow/Dropbox/GradSchoolTarleton/Fall2019/AdvQuant/Lab3/KB-subject-3-F18.csv,legacy,2 9 4,Kafkaesque Koffka,3.2.6,3,y,0,left,left,NA,left,NA,659,74425,NA,659,NA,2,legacy,3,1024,2,48000,-16,experiment,3,odd,4,1805,107810,108925,1791,NA,108936,95759,NA,111164,113839,109952,113178,76232,113178,NA,Sternberg task,4,5645,6,yes,1024
71.42857143,71.42857143,935.5714286,935.5714286,black,practice,legacy,legacy,legacy,0,uniform,1,undefined,1,left,0,6,6,0,0,6,6,0,6,6,6,6,0,6,0,Wed Oct 23 07:39:36 2019,The main experiment item,yes,Sternbergtask.osexp,/Users/KrisBow/Dropbox/GradSchoolTarleton/Fall2019/AdvQuant/Lab3,no,mono,no,18,no,white,no,yes,768,legacy,6,6,/Users/KrisBow/Dropbox/GradSchoolTarleton/Fall2019/AdvQuant/Lab3/KB-subject-3-F18.csv,legacy,6,Kafkaesque Koffka,3.2.6,1,y,0,left,left,NA,left,NA,904,74425,NA,904,NA,2,legacy,1,1024,2,48000,-16,experiment,3,odd,6,1805,113855,114966,1791,NA,114977,95759,NA,117200,120117,115989,119211,76232,119210,NA,Sternberg task,5,6549,7,yes,1024
75,75,879.125,879.125,black,practice,legacy,legacy,legacy,0,uniform,1,undefined,1,right,0,7,7,0,0,7,7,0,7,7,7,7,0,7,0,Wed Oct 23 07:39:36 2019,The main experiment item,yes,Sternbergtask.osexp,/Users/KrisBow/Dropbox/GradSchoolTarleton/Fall2019/AdvQuant/Lab3,no,mono,no,18,no,white,no,yes,768,legacy,7,7,/Users/KrisBow/Dropbox/GradSchoolTarleton/Fall2019/AdvQuant/Lab3/KB-subject-3-F18.csv,legacy,9 6 7 4 5,Kafkaesque Koffka,3.2.6,0,n,0,right,left,NA,right,NA,484,74425,NA,484,NA,2,legacy,5,1024,2,48000,-16,experiment,3,odd,3,1805,120131,121240,1791,NA,121251,95759,NA,123473,125970,122262,125484,76232,125484,NA,Sternberg task,6,7033,8,yes,1024
77.77777778,77.77777778,841.8888889,841.8888889,black,practice,legacy,legacy,legacy,0,uniform,1,undefined,1,right,0,8,8,0,0,8,8,0,8,8,8,8,0,8,0,Wed Oct 23 07:39:36 2019,The main experiment item,yes,Sternbergtask.osexp,/Users/KrisBow/Dropbox/GradSchoolTarleton/Fall2019/AdvQuant/Lab3,no,mono,no,18,no,white,no,yes,768,legacy,8,8,/Users/KrisBow/Dropbox/GradSchoolTarleton/Fall2019/AdvQuant/Lab3/KB-subject-3-F18.csv,legacy,5,Kafkaesque Koffka,3.2.6,0,n,0,right,left,NA,right,NA,544,74425,NA,544,NA,2,legacy,1,1024,2,48000,-16,experiment,3,odd,3,1805,125983,127089,1791,NA,127099,95759,NA,129324,131881,128111,131335,76232,131335,NA,Sternberg task,7,7577,9,yes,1024
80,80,804.6,804.6,black,practice,legacy,legacy,legacy,0,uniform,1,undefined,1,left,0,9,9,0,0,9,9,0,9,9,9,9,0,9,0,Wed Oct 23 07:39:36 2019,The main experiment item,yes,Sternbergtask.osexp,/Users/KrisBow/Dropbox/GradSchoolTarleton/Fall2019/AdvQuant/Lab3,no,mono,no,18,no,white,no,yes,768,legacy,9,9,/Users/KrisBow/Dropbox/GradSchoolTarleton/Fall2019/AdvQuant/Lab3/KB-subject-3-F18.csv,legacy,4 8,Kafkaesque Koffka,3.2.6,1,y,0,left,left,NA,left,NA,469,74425,NA,469,NA,2,legacy,2,1024,2,48000,-16,experiment,3,odd,4,1805,131894,133002,1791,NA,133013,95759,NA,135238,137721,134024,137250,76232,137249,NA,Sternberg task,8,8046,10,yes,1024
81.81818182,81.81818182,772.3636364,772.3636364,black,practice,legacy,legacy,legacy,0,uniform,1,undefined,1,right,0,10,10,0,0,10,10,0,10,10,10,10,0,10,0,Wed Oct 23 07:39:36 2019,The main experiment item,yes,Sternbergtask.osexp,/Users/KrisBow/Dropbox/GradSchoolTarleton/Fall2019/AdvQuant/Lab3,no,mono,no,18,no,white,no,yes,768,legacy,10,10,/Users/KrisBow/Dropbox/GradSchoolTarleton/Fall2019/AdvQuant/Lab3/KB-subject-3-F18.csv,legacy,3 1 9 4,Kafkaesque Koffka,3.2.6,0,n,0,right,left,NA,right,NA,450,74425,NA,450,NA,2,legacy,4,1024,2,48000,-16,experiment,3,odd,6,1805,137734,138842,1791,NA,138853,95759,NA,141076,143540,139864,143088,76232,143088,NA,Sternberg task,9,8496,11,yes,1024
83.33333333,83.33333333,745.0833333,745.0833333,black,practice,legacy,legacy,legacy,0,uniform,1,undefined,1,right,0,11,11,0,0,11,11,0,11,11,11,11,0,11,0,Wed Oct 23 07:39:36 2019,The main experiment item,yes,Sternbergtask.osexp,/Users/KrisBow/Dropbox/GradSchoolTarleton/Fall2019/AdvQuant/Lab3,no,mono,no,18,no,white,no,yes,768,legacy,11,11,/Users/KrisBow/Dropbox/GradSchoolTarleton/Fall2019/AdvQuant/Lab3/KB-subject-3-F18.csv,legacy,2 1,Kafkaesque Koffka,3.2.6,0,n,0,right,left,NA,right,NA,445,74425,NA,445,NA,2,legacy,2,1024,2,48000,-16,experiment,3,odd,5,1805,143554,144676,1791,NA,144687,95759,NA,146910,149367,145697,148921,76232,148921,NA,Sternberg task,10,8941,12,yes,1024
84.61538462,84.61538462,730.8461538,730.8461538,black,experiment,legacy,legacy,legacy,0,uniform,1,undefined,1,left,0,12,12,0,0,12,12,0,12,12,12,12,0,12,0,Wed Oct 23 07:39:36 2019,The main experiment item,yes,Sternbergtask.osexp,/Users/KrisBow/Dropbox/GradSchoolTarleton/Fall2019/AdvQuant/Lab3,no,mono,no,18,no,white,no,yes,768,legacy,0,11,/Users/KrisBow/Dropbox/GradSchoolTarleton/Fall2019/AdvQuant/Lab3/KB-subject-3-F18.csv,legacy,9 5 3 8 4,Kafkaesque Koffka,3.2.6,1,y,0,left,left,right,left,NA,560,74425,4011,560,NA,2,legacy,5,1024,2,48000,-16,experiment,3,odd,9,1805,149380,154557,1791,154437,154568,95759,150425,156791,159364,155579,158802,76232,158801,NA,Sternberg task,11,9501,13,yes,1024
85.71428571,85.71428571,727.1428571,727.1428571,black,experiment,legacy,legacy,legacy,0,uniform,1,undefined,1,left,0,13,13,0,0,13,13,0,13,13,13,13,0,13,0,Wed Oct 23 07:39:36 2019,The main experiment item,yes,Sternbergtask.osexp,/Users/KrisBow/Dropbox/GradSchoolTarleton/Fall2019/AdvQuant/Lab3,no,mono,no,18,no,white,no,yes,768,legacy,1,11,/Users/KrisBow/Dropbox/GradSchoolTarleton/Fall2019/AdvQuant/Lab3/KB-subject-3-F18.csv,legacy,6 2,Kafkaesque Koffka,3.2.6,1,y,0,left,left,right,left,NA,679,74425,4011,679,NA,2,legacy,2,1024,2,48000,-16,experiment,3,odd,6,1805,159376,160484,1791,154437,160495,95759,150425,162719,165412,161507,164731,76232,164731,NA,Sternberg task,12,10180,14,yes,1024
86.66666667,86.66666667,715.8666667,715.8666667,black,experiment,legacy,legacy,legacy,0,uniform,1,undefined,1,left,0,14,14,0,0,14,14,0,14,14,14,14,0,14,0,Wed Oct 23 07:39:36 2019,The main experiment item,yes,Sternbergtask.osexp,/Users/KrisBow/Dropbox/GradSchoolTarleton/Fall2019/AdvQuant/Lab3,no,mono,no,18,no,white,no,yes,768,legacy,2,11,/Users/KrisBow/Dropbox/GradSchoolTarleton/Fall2019/AdvQuant/Lab3/KB-subject-3-F18.csv,legacy,3 4 9 6 2 9,Kafkaesque Koffka,3.2.6,5,y,0,left,left,right,left,NA,558,74425,4011,558,NA,2,legacy,6,1024,2,48000,-16,experiment,3,odd,2,1805,165424,166532,1791,154437,166543,95759,150425,168766,171338,167554,170778,76232,170778,NA,Sternberg task,13,10738,15,yes,1024
87.5,87.5,705.4375,705.4375,black,experiment,legacy,legacy,legacy,0,uniform,1,undefined,1,right,0,15,15,0,0,15,15,0,15,15,15,15,0,15,0,Wed Oct 23 07:39:36 2019,The main experiment item,yes,Sternbergtask.osexp,/Users/KrisBow/Dropbox/GradSchoolTarleton/Fall2019/AdvQuant/Lab3,no,mono,no,18,no,white,no,yes,768,legacy,3,11,/Users/KrisBow/Dropbox/GradSchoolTarleton/Fall2019/AdvQuant/Lab3/KB-subject-3-F18.csv,legacy,6 2 9 3 8 4,Kafkaesque Koffka,3.2.6,0,n,0,right,left,right,right,NA,549,74425,4011,549,NA,2,legacy,6,1024,2,48000,-16,experiment,3,odd,1,1805,171351,172460,1791,154437,172470,95759,150425,174694,177256,173482,176705,76232,176705,NA,Sternberg task,14,11287,16,yes,1024
88.23529412,88.23529412,691.7058824,691.7058824,black,experiment,legacy,legacy,legacy,0,uniform,1,undefined,1,right,0,16,16,0,0,16,16,0,16,16,16,16,0,16,0,Wed Oct 23 07:39:36 2019,The main experiment item,yes,Sternbergtask.osexp,/Users/KrisBow/Dropbox/GradSchoolTarleton/Fall2019/AdvQuant/Lab3,no,mono,no,18,no,white,no,yes,768,legacy,4,11,/Users/KrisBow/Dropbox/GradSchoolTarleton/Fall2019/AdvQuant/Lab3/KB-subject-3-F18.csv,legacy,6 9 4 5 3 2,Kafkaesque Koffka,3.2.6,0,n,0,right,left,right,right,NA,472,74425,4011,472,NA,2,legacy,6,1024,2,48000,-16,experiment,3,odd,8,1805,177269,178378,1791,154437,178388,95759,150425,180611,183095,179399,182621,76232,182621,NA,Sternberg task,15,11759,17,yes,1024
88.88888889,88.88888889,682.8888889,682.8888889,black,experiment,legacy,legacy,legacy,0,uniform,1,undefined,1,left,0,17,17,0,0,17,17,0,17,17,17,17,0,17,0,Wed Oct 23 07:39:36 2019,The main experiment item,yes,Sternbergtask.osexp,/Users/KrisBow/Dropbox/GradSchoolTarleton/Fall2019/AdvQuant/Lab3,no,mono,no,18,no,white,no,yes,768,legacy,5,11,/Users/KrisBow/Dropbox/GradSchoolTarleton/Fall2019/AdvQuant/Lab3/KB-subject-3-F18.csv,legacy,4 9 7 8 5 3,Kafkaesque Koffka,3.2.6,4,y,0,left,left,right,left,NA,533,74425,4011,533,NA,2,legacy,6,1024,2,48000,-16,experiment,3,odd,8,1805,183108,184217,1791,154437,184228,95759,150425,186450,188997,185239,188462,76232,188461,NA,Sternberg task,16,12292,18,yes,1024
89.47368421,89.47368421,674.2631579,674.2631579,black,experiment,legacy,legacy,legacy,0,uniform,1,undefined,1,right,0,18,18,0,0,18,18,0,18,18,18,18,0,18,0,Wed Oct 23 07:39:36 2019,The main experiment item,yes,Sternbergtask.osexp,/Users/KrisBow/Dropbox/GradSchoolTarleton/Fall2019/AdvQuant/Lab3,no,mono,no,18,no,white,no,yes,768,legacy,6,11,/Users/KrisBow/Dropbox/GradSchoolTarleton/Fall2019/AdvQuant/Lab3/KB-subject-3-F18.csv,legacy,8 9,Kafkaesque Koffka,3.2.6,0,n,0,right,left,right,right,NA,519,74425,4011,519,NA,2,legacy,2,1024,2,48000,-16,experiment,3,odd,5,1805,189009,190116,1791,154437,190127,95759,150425,192351,194882,191138,194362,76232,194362,NA,Sternberg task,17,12811,19,yes,1024
90,90,681.6,681.6,black,experiment,legacy,legacy,legacy,0,uniform,1,undefined,1,left,0,19,19,0,0,19,19,0,19,19,19,19,0,19,0,Wed Oct 23 07:39:36 2019,The main experiment item,yes,Sternbergtask.osexp,/Users/KrisBow/Dropbox/GradSchoolTarleton/Fall2019/AdvQuant/Lab3,no,mono,no,18,no,white,no,yes,768,legacy,7,11,/Users/KrisBow/Dropbox/GradSchoolTarleton/Fall2019/AdvQuant/Lab3/KB-subject-3-F18.csv,legacy,7 8 4 6 9 5,Kafkaesque Koffka,3.2.6,4,y,0,left,left,right,left,NA,821,74425,4011,821,NA,2,legacy,6,1024,2,48000,-16,experiment,3,odd,6,1805,194895,196004,1791,154437,196017,95759,150425,198241,201075,197028,200252,76232,200252,NA,Sternberg task,18,13632,20,yes,1024
90.47619048,90.47619048,677,677,black,experiment,legacy,legacy,legacy,0,uniform,1,undefined,1,left,0,20,20,0,0,20,20,0,20,20,20,20,0,20,0,Wed Oct 23 07:39:36 2019,The main experiment item,yes,Sternbergtask.osexp,/Users/KrisBow/Dropbox/GradSchoolTarleton/Fall2019/AdvQuant/Lab3,no,mono,no,18,no,white,no,yes,768,legacy,8,11,/Users/KrisBow/Dropbox/GradSchoolTarleton/Fall2019/AdvQuant/Lab3/KB-subject-3-F18.csv,legacy,4 7 6 8 2 3,Kafkaesque Koffka,3.2.6,6,y,0,left,left,right,left,NA,585,74425,4011,585,NA,2,legacy,6,1024,2,48000,-16,experiment,3,odd,3,1805,201088,202198,1791,154437,202209,95759,150425,204432,207029,203220,206443,76232,206442,NA,Sternberg task,19,14217,21,yes,1024
90.90909091,90.90909091,681.3636364,681.3636364,black,experiment,legacy,legacy,legacy,0,uniform,1,undefined,1,left,0,21,21,0,0,21,21,0,21,21,21,21,0,21,0,Wed Oct 23 07:39:36 2019,The main experiment item,yes,Sternbergtask.osexp,/Users/KrisBow/Dropbox/GradSchoolTarleton/Fall2019/AdvQuant/Lab3,no,mono,no,18,no,white,no,yes,768,legacy,9,11,/Users/KrisBow/Dropbox/GradSchoolTarleton/Fall2019/AdvQuant/Lab3/KB-subject-3-F18.csv,legacy,2 8 5 1,Kafkaesque Koffka,3.2.6,4,y,0,left,left,right,left,NA,773,74425,4011,773,NA,2,legacy,4,1024,2,48000,-16,experiment,3,odd,1,1805,207043,208153,1791,154437,208164,95759,150425,210388,213174,209176,212399,76232,212399,NA,Sternberg task,20,14990,22,yes,1024
91.30434783,91.30434783,673.6956522,673.6956522,black,experiment,legacy,legacy,legacy,0,uniform,1,undefined,1,right,0,22,22,0,0,22,22,0,22,22,22,22,0,22,0,Wed Oct 23 07:39:36 2019,The main experiment item,yes,Sternbergtask.osexp,/Users/KrisBow/Dropbox/GradSchoolTarleton/Fall2019/AdvQuant/Lab3,no,mono,no,18,no,white,no,yes,768,legacy,10,11,/Users/KrisBow/Dropbox/GradSchoolTarleton/Fall2019/AdvQuant/Lab3/KB-subject-3-F18.csv,legacy,9 8 2 7 4,Kafkaesque Koffka,3.2.6,0,n,0,right,left,right,right,NA,505,74425,4011,505,NA,2,legacy,5,1024,2,48000,-16,experiment,3,odd,5,1805,213189,214300,1791,154437,214311,95759,150425,216535,219052,215322,218545,76232,218545,NA,Sternberg task,21,15495,23,yes,1024
91.66666667,91.66666667,664,664,black,experiment,legacy,legacy,legacy,0,uniform,1,undefined,1,left,0,23,23,0,0,23,23,0,23,23,23,23,0,23,0,Wed Oct 23 07:39:36 2019,The main experiment item,yes,Sternbergtask.osexp,/Users/KrisBow/Dropbox/GradSchoolTarleton/Fall2019/AdvQuant/Lab3,no,mono,no,18,no,white,no,yes,768,legacy,11,11,/Users/KrisBow/Dropbox/GradSchoolTarleton/Fall2019/AdvQuant/Lab3/KB-subject-3-F18.csv,legacy,7 1 8 5 6 2,Kafkaesque Koffka,3.2.6,2,y,0,left,left,right,left,NA,441,74425,4011,441,NA,2,legacy,6,1024,2,48000,-16,experiment,3,odd,1,1805,219065,220174,1791,154437,220185,95759,150425,222408,224861,221196,224419,76232,224419,NA,Sternberg task,22,15936,24,yes,1024
88,88,655.24,655.24,black,experiment,legacy,legacy,legacy,0,uniform,0,undefined,0,left,0,24,24,0,0,24,24,0,24,24,24,24,0,24,0,Wed Oct 23 07:39:36 2019,The main experiment item,yes,Sternbergtask.osexp,/Users/KrisBow/Dropbox/GradSchoolTarleton/Fall2019/AdvQuant/Lab3,no,mono,no,18,no,white,no,yes,768,legacy,12,11,/Users/KrisBow/Dropbox/GradSchoolTarleton/Fall2019/AdvQuant/Lab3/KB-subject-3-F18.csv,legacy,6 7 9 3 1 2,Kafkaesque Koffka,3.2.6,1,y,0,right,left,right,right,NA,445,74425,4011,445,NA,2,legacy,6,1024,2,48000,-16,experiment,3,odd,6,1805,224874,225982,1791,154437,225993,95759,150425,228215,230674,227003,230227,76232,230226,NA,Sternberg task,22,16381,25,yes,1024
88.46153846,88.46153846,657.7307692,657.7307692,black,experiment,legacy,legacy,legacy,0,uniform,1,undefined,1,right,0,25,25,0,0,25,25,0,25,25,25,25,0,25,0,Wed Oct 23 07:39:36 2019,The main experiment item,yes,Sternbergtask.osexp,/Users/KrisBow/Dropbox/GradSchoolTarleton/Fall2019/AdvQuant/Lab3,no,mono,no,18,no,white,no,yes,768,legacy,13,11,/Users/KrisBow/Dropbox/GradSchoolTarleton/Fall2019/AdvQuant/Lab3/KB-subject-3-F18.csv,legacy,1 4 9 3,Kafkaesque Koffka,3.2.6,0,n,0,right,left,right,right,NA,720,74425,4011,720,NA,2,legacy,4,1024,2,48000,-16,experiment,3,odd,5,1805,224874,231796,1791,154437,231806,230687,150425,234027,236759,232817,236038,76232,236038,NA,Sternberg task,23,17101,26,yes,1024
88.88888889,88.88888889,653.0740741,653.0740741,black,experiment,legacy,legacy,legacy,0,uniform,1,undefined,1,right,0,26,26,0,0,26,26,0,26,26,26,26,0,26,0,Wed Oct 23 07:39:36 2019,The main experiment item,yes,Sternbergtask.osexp,/Users/KrisBow/Dropbox/GradSchoolTarleton/Fall2019/AdvQuant/Lab3,no,mono,no,18,no,white,no,yes,768,legacy,14,11,/Users/KrisBow/Dropbox/GradSchoolTarleton/Fall2019/AdvQuant/Lab3/KB-subject-3-F18.csv,legacy,2 3 8 5 6 7,Kafkaesque Koffka,3.2.6,0,n,0,right,left,right,right,NA,532,74425,4011,532,NA,2,legacy,6,1024,2,48000,-16,experiment,3,odd,1,1805,236772,237881,1791,154437,237892,230687,150425,240115,242659,238903,242126,76232,242125,NA,Sternberg task,24,17633,27,yes,1024
89.28571429,89.28571429,653.1071429,653.1071429,black,experiment,legacy,legacy,legacy,0,uniform,1,undefined,1,right,0,27,27,0,0,27,27,0,27,27,27,27,0,27,0,Wed Oct 23 07:39:36 2019,The main experiment item,yes,Sternbergtask.osexp,/Users/KrisBow/Dropbox/GradSchoolTarleton/Fall2019/AdvQuant/Lab3,no,mono,no,18,no,white,no,yes,768,legacy,15,11,/Users/KrisBow/Dropbox/GradSchoolTarleton/Fall2019/AdvQuant/Lab3/KB-subject-3-F18.csv,legacy,8 4 3 9,Kafkaesque Koffka,3.2.6,0,n,0,right,left,right,right,NA,654,74425,4011,654,NA,2,legacy,4,1024,2,48000,-16,experiment,3,odd,5,1805,242672,243780,1791,154437,243791,230687,150425,246015,248682,244802,248027,76232,248027,NA,Sternberg task,25,18287,28,yes,1024
89.65517241,89.65517241,655.8275862,655.8275862,black,experiment,legacy,legacy,legacy,0,uniform,1,undefined,1,right,0,28,28,0,0,28,28,0,28,28,28,28,0,28,0,Wed Oct 23 07:39:36 2019,The main experiment item,yes,Sternbergtask.osexp,/Users/KrisBow/Dropbox/GradSchoolTarleton/Fall2019/AdvQuant/Lab3,no,mono,no,18,no,white,no,yes,768,legacy,16,11,/Users/KrisBow/Dropbox/GradSchoolTarleton/Fall2019/AdvQuant/Lab3/KB-subject-3-F18.csv,legacy,1 3 2 6 9,Kafkaesque Koffka,3.2.6,0,n,0,right,left,right,right,NA,732,74425,4011,732,NA,2,legacy,5,1024,2,48000,-16,experiment,3,odd,5,1805,248696,249805,1791,154437,249816,230687,150425,252039,254784,250827,254050,76232,254049,NA,Sternberg task,26,19019,29,yes,1024
90,90,656.1333333,656.1333333,black,experiment,legacy,legacy,legacy,0,uniform,1,undefined,1,left,0,29,29,0,0,29,29,0,29,29,29,29,0,29,0,Wed Oct 23 07:39:36 2019,The main experiment item,yes,Sternbergtask.osexp,/Users/KrisBow/Dropbox/GradSchoolTarleton/Fall2019/AdvQuant/Lab3,no,mono,no,18,no,white,no,yes,768,legacy,17,11,/Users/KrisBow/Dropbox/GradSchoolTarleton/Fall2019/AdvQuant/Lab3/KB-subject-3-F18.csv,legacy,9 5 8 1,Kafkaesque Koffka,3.2.6,2,y,0,left,left,right,left,NA,665,74425,4011,665,NA,2,legacy,4,1024,2,48000,-16,experiment,3,odd,5,1805,254797,255905,1791,154437,255916,230687,150425,258140,260818,256928,260151,76232,260150,NA,Sternberg task,27,19684,30,yes,1024
90.32258065,90.32258065,666.1290323,666.1290323,black,experiment,legacy,legacy,legacy,0,uniform,1,undefined,1,left,0,30,30,0,0,30,30,0,30,30,30,30,0,30,0,Wed Oct 23 07:39:36 2019,The main experiment item,yes,Sternbergtask.osexp,/Users/KrisBow/Dropbox/GradSchoolTarleton/Fall2019/AdvQuant/Lab3,no,mono,no,18,no,white,no,yes,768,legacy,18,11,/Users/KrisBow/Dropbox/GradSchoolTarleton/Fall2019/AdvQuant/Lab3/KB-subject-3-F18.csv,legacy,3 5 7 1,Kafkaesque Koffka,3.2.6,3,y,0,left,left,right,left,NA,966,74425,4011,966,NA,2,legacy,4,1024,2,48000,-16,experiment,3,odd,7,1805,260834,261942,1791,154437,261953,230687,150425,264177,267156,262964,266188,76232,266187,NA,Sternberg task,28,20650,31,yes,1024
90.625,90.625,662.78125,662.78125,black,experiment,legacy,legacy,legacy,0,uniform,1,undefined,1,right,0,31,31,0,0,31,31,0,31,31,31,31,0,31,0,Wed Oct 23 07:39:36 2019,The main experiment item,yes,Sternbergtask.osexp,/Users/KrisBow/Dropbox/GradSchoolTarleton/Fall2019/AdvQuant/Lab3,no,mono,no,18,no,white,no,yes,768,legacy,19,11,/Users/KrisBow/Dropbox/GradSchoolTarleton/Fall2019/AdvQuant/Lab3/KB-subject-3-F18.csv,legacy,6 9 7 3 8 2,Kafkaesque Koffka,3.2.6,0,n,0,right,left,right,right,NA,559,74425,4011,559,NA,2,legacy,6,1024,2,48000,-16,experiment,3,odd,5,1805,267170,268279,1791,154437,268290,230687,150425,270513,273086,269301,272525,76232,272525,NA,Sternberg task,29,21209,32,yes,1024
90.90909091,90.90909091,658.1515152,658.1515152,black,experiment,legacy,legacy,legacy,0,uniform,1,undefined,1,left,0,32,32,0,0,32,32,0,32,32,32,32,0,32,0,Wed Oct 23 07:39:36 2019,The main experiment item,yes,Sternbergtask.osexp,/Users/KrisBow/Dropbox/GradSchoolTarleton/Fall2019/AdvQuant/Lab3,no,mono,no,18,no,white,no,yes,768,legacy,20,11,/Users/KrisBow/Dropbox/GradSchoolTarleton/Fall2019/AdvQuant/Lab3/KB-subject-3-F18.csv,legacy,6 8 9 3 4 9,Kafkaesque Koffka,3.2.6,5,y,0,left,left,right,left,NA,510,74425,4011,510,NA,2,legacy,6,1024,2,48000,-16,experiment,3,odd,4,1805,273099,274211,1791,154437,274221,230687,150425,276444,278967,275232,278455,76232,278455,NA,Sternberg task,30,21719,33,yes,1024
91.17647059,91.17647059,655.9411765,655.9411765,black,experiment,legacy,legacy,legacy,0,uniform,1,undefined,1,left,0,33,33,0,0,33,33,0,33,33,33,33,0,33,0,Wed Oct 23 07:39:36 2019,The main experiment item,yes,Sternbergtask.osexp,/Users/KrisBow/Dropbox/GradSchoolTarleton/Fall2019/AdvQuant/Lab3,no,mono,no,18,no,white,no,yes,768,legacy,21,11,/Users/KrisBow/Dropbox/GradSchoolTarleton/Fall2019/AdvQuant/Lab3/KB-subject-3-F18.csv,legacy,4 3 2 5 8,Kafkaesque Koffka,3.2.6,2,y,0,left,left,right,left,NA,583,74425,4011,583,NA,2,legacy,5,1024,2,48000,-16,experiment,3,odd,3,1805,278980,280087,1791,154437,280098,230687,150425,282321,284917,281109,284333,76232,284333,NA,Sternberg task,31,22302,34,yes,1024
91.42857143,91.42857143,651.2,651.2,black,experiment,legacy,legacy,legacy,0,uniform,1,undefined,1,right,0,34,34,0,0,34,34,0,34,34,34,34,0,34,0,Wed Oct 23 07:39:36 2019,The main experiment item,yes,Sternbergtask.osexp,/Users/KrisBow/Dropbox/GradSchoolTarleton/Fall2019/AdvQuant/Lab3,no,mono,no,18,no,white,no,yes,768,legacy,22,11,/Users/KrisBow/Dropbox/GradSchoolTarleton/Fall2019/AdvQuant/Lab3/KB-subject-3-F18.csv,legacy,9 5 3 2 8 6,Kafkaesque Koffka,3.2.6,0,n,0,right,left,right,right,NA,490,74425,4011,490,NA,2,legacy,6,1024,2,48000,-16,experiment,3,odd,7,1805,284931,286040,1791,154437,286051,230687,150425,288274,290776,287061,290285,76232,290285,NA,Sternberg task,32,22792,35,yes,1024
91.66666667,91.66666667,654.1388889,654.1388889,black,experiment,legacy,legacy,legacy,0,uniform,1,undefined,1,right,0,35,35,0,0,35,35,0,35,35,35,35,0,35,0,Wed Oct 23 07:39:36 2019,The main experiment item,yes,Sternbergtask.osexp,/Users/KrisBow/Dropbox/GradSchoolTarleton/Fall2019/AdvQuant/Lab3,no,mono,no,18,no,white,no,yes,768,legacy,23,11,/Users/KrisBow/Dropbox/GradSchoolTarleton/Fall2019/AdvQuant/Lab3/KB-subject-3-F18.csv,legacy,7 8 6 1,Kafkaesque Koffka,3.2.6,0,n,0,right,left,right,right,NA,757,74425,4011,757,NA,2,legacy,4,1024,2,48000,-16,experiment,3,odd,3,1805,290789,291897,1791,154437,291907,230687,150425,294130,296900,292918,296141,76232,296141,NA,Sternberg task,33,23549,36,yes,1024
91.89189189,91.89189189,647.027027,647.027027,black,experiment,legacy,legacy,legacy,0,uniform,1,undefined,1,left,0,36,36,0,0,36,36,0,36,36,36,36,0,36,0,Wed Oct 23 07:39:36 2019,The main experiment item,yes,Sternbergtask.osexp,/Users/KrisBow/Dropbox/GradSchoolTarleton/Fall2019/AdvQuant/Lab3,no,mono,no,18,no,white,no,yes,768,legacy,24,11,/Users/KrisBow/Dropbox/GradSchoolTarleton/Fall2019/AdvQuant/Lab3/KB-subject-3-F18.csv,legacy,5 7 8 2 3 8,Kafkaesque Koffka,3.2.6,5,y,0,left,left,right,left,NA,391,74425,4011,391,NA,2,legacy,6,1024,2,48000,-16,experiment,3,odd,3,1805,296913,298021,1791,154437,298031,230687,150425,300253,302660,299041,302268,76232,302268,NA,Sternberg task,34,23940,37,yes,1024
92.10526316,92.10526316,643.1842105,643.1842105,black,experiment,legacy,legacy,legacy,0,uniform,1,undefined,1,right,0,37,37,0,0,37,37,0,37,37,37,37,0,37,0,Wed Oct 23 07:39:36 2019,The main experiment item,yes,Sternbergtask.osexp,/Users/KrisBow/Dropbox/GradSchoolTarleton/Fall2019/AdvQuant/Lab3,no,mono,no,18,no,white,no,yes,768,legacy,25,11,/Users/KrisBow/Dropbox/GradSchoolTarleton/Fall2019/AdvQuant/Lab3/KB-subject-3-F18.csv,legacy,3 4 9 6 7 8,Kafkaesque Koffka,3.2.6,0,n,0,right,left,right,right,NA,501,74425,4011,501,NA,2,legacy,6,1024,2,48000,-16,experiment,3,odd,2,1805,302673,303782,1791,154437,303793,230687,150425,306016,308530,304804,308027,76232,308027,NA,Sternberg task,35,24441,38,yes,1024
92.30769231,92.30769231,650.0512821,650.0512821,black,experiment,legacy,legacy,legacy,0,uniform,1,undefined,1,right,0,38,38,0,0,38,38,0,38,38,38,38,0,38,0,Wed Oct 23 07:39:36 2019,The main experiment item,yes,Sternbergtask.osexp,/Users/KrisBow/Dropbox/GradSchoolTarleton/Fall2019/AdvQuant/Lab3,no,mono,no,18,no,white,no,yes,768,legacy,26,11,/Users/KrisBow/Dropbox/GradSchoolTarleton/Fall2019/AdvQuant/Lab3/KB-subject-3-F18.csv,legacy,1 5 3 2 8,Kafkaesque Koffka,3.2.6,0,n,0,right,left,right,right,NA,911,74425,4011,911,NA,2,legacy,5,1024,2,48000,-16,experiment,3,odd,4,1805,308543,309653,1791,154437,309664,230687,150425,311889,314813,310676,313900,76232,313900,NA,Sternberg task,36,25352,39,yes,1024
92.5,92.5,645.975,645.975,black,experiment,legacy,legacy,legacy,0,uniform,1,undefined,1,left,0,39,39,0,0,39,39,0,39,39,39,39,0,39,0,Wed Oct 23 07:39:36 2019,The main experiment item,yes,Sternbergtask.osexp,/Users/KrisBow/Dropbox/GradSchoolTarleton/Fall2019/AdvQuant/Lab3,no,mono,no,18,no,white,no,yes,768,legacy,27,11,/Users/KrisBow/Dropbox/GradSchoolTarleton/Fall2019/AdvQuant/Lab3/KB-subject-3-F18.csv,legacy,8 9 5 6 7,Kafkaesque Koffka,3.2.6,1,y,0,left,left,right,left,NA,487,74425,4011,487,NA,2,legacy,5,1024,2,48000,-16,experiment,3,odd,8,1805,314826,315934,1791,154437,315944,230687,150425,318169,320669,316956,320180,76232,320180,NA,Sternberg task,37,25839,40,yes,1024
92.68292683,92.68292683,641.6585366,641.6585366,black,experiment,legacy,legacy,legacy,0,uniform,1,undefined,1,right,0,40,40,0,0,40,40,0,40,40,40,40,0,40,0,Wed Oct 23 07:39:36 2019,The main experiment item,yes,Sternbergtask.osexp,/Users/KrisBow/Dropbox/GradSchoolTarleton/Fall2019/AdvQuant/Lab3,no,mono,no,18,no,white,no,yes,768,legacy,28,11,/Users/KrisBow/Dropbox/GradSchoolTarleton/Fall2019/AdvQuant/Lab3/KB-subject-3-F18.csv,legacy,3 9 1,Kafkaesque Koffka,3.2.6,0,n,0,right,left,right,right,NA,469,74425,4011,469,NA,2,legacy,3,1024,2,48000,-16,experiment,3,odd,7,1805,320682,321792,1791,154437,321802,230687,150425,324027,326508,322814,326038,76232,326038,NA,Sternberg task,38,26308,41,yes,1024
92.85714286,92.85714286,641.7380952,641.7380952,black,experiment,legacy,legacy,legacy,0,uniform,1,undefined,1,right,0,41,41,0,0,41,41,0,41,41,41,41,0,41,0,Wed Oct 23 07:39:36 2019,The main experiment item,yes,Sternbergtask.osexp,/Users/KrisBow/Dropbox/GradSchoolTarleton/Fall2019/AdvQuant/Lab3,no,mono,no,18,no,white,no,yes,768,legacy,29,11,/Users/KrisBow/Dropbox/GradSchoolTarleton/Fall2019/AdvQuant/Lab3/KB-subject-3-F18.csv,legacy,7 1,Kafkaesque Koffka,3.2.6,0,n,0,right,left,right,right,NA,645,74425,4011,645,NA,2,legacy,2,1024,2,48000,-16,experiment,3,odd,8,1805,326524,327632,1791,154437,327642,230687,150425,329867,332525,328655,331878,76232,331878,NA,Sternberg task,39,26953,42,yes,1024
93.02325581,93.02325581,640.8372093,640.8372093,black,experiment,legacy,legacy,legacy,0,uniform,1,undefined,1,left,0,42,42,0,0,42,42,0,42,42,42,42,0,42,0,Wed Oct 23 07:39:36 2019,The main experiment item,yes,Sternbergtask.osexp,/Users/KrisBow/Dropbox/GradSchoolTarleton/Fall2019/AdvQuant/Lab3,no,mono,no,18,no,white,no,yes,768,legacy,30,11,/Users/KrisBow/Dropbox/GradSchoolTarleton/Fall2019/AdvQuant/Lab3/KB-subject-3-F18.csv,legacy,5 7 3 6 2,Kafkaesque Koffka,3.2.6,5,y,0,left,left,right,left,NA,603,74425,4011,603,NA,2,legacy,5,1024,2,48000,-16,experiment,3,odd,2,1805,332538,333646,1791,154437,333657,230687,150425,335880,338496,334668,337891,76232,337891,NA,Sternberg task,40,27556,43,yes,1024
93.18181818,93.18181818,643.3863636,643.3863636,black,experiment,legacy,legacy,legacy,0,uniform,1,undefined,1,right,0,43,43,0,0,43,43,0,43,43,43,43,0,43,0,Wed Oct 23 07:39:36 2019,The main experiment item,yes,Sternbergtask.osexp,/Users/KrisBow/Dropbox/GradSchoolTarleton/Fall2019/AdvQuant/Lab3,no,mono,no,18,no,white,no,yes,768,legacy,31,11,/Users/KrisBow/Dropbox/GradSchoolTarleton/Fall2019/AdvQuant/Lab3/KB-subject-3-F18.csv,legacy,8 5 4 2 9 6,Kafkaesque Koffka,3.2.6,0,n,0,right,left,right,right,NA,753,74425,4011,753,NA,2,legacy,6,1024,2,48000,-16,experiment,3,odd,3,1805,338510,339619,1791,154437,339629,230687,150425,341853,344619,340640,343864,76232,343864,NA,Sternberg task,41,28309,44,yes,1024
93.33333333,93.33333333,642.2222222,642.2222222,black,experiment,legacy,legacy,legacy,0,uniform,1,undefined,1,right,0,44,44,0,0,44,44,0,44,44,44,44,0,44,0,Wed Oct 23 07:39:36 2019,The main experiment item,yes,Sternbergtask.osexp,/Users/KrisBow/Dropbox/GradSchoolTarleton/Fall2019/AdvQuant/Lab3,no,mono,no,18,no,white,no,yes,768,legacy,32,11,/Users/KrisBow/Dropbox/GradSchoolTarleton/Fall2019/AdvQuant/Lab3/KB-subject-3-F18.csv,legacy,4 8 1 2,Kafkaesque Koffka,3.2.6,0,n,0,right,left,right,right,NA,591,74425,4011,591,NA,2,legacy,4,1024,2,48000,-16,experiment,3,odd,7,1805,344632,345740,1791,154437,345750,230687,150425,347973,350577,346761,349984,76232,349984,NA,Sternberg task,42,28900,45,yes,1024
93.47826087,93.47826087,640.6521739,640.6521739,black,experiment,legacy,legacy,legacy,0,uniform,1,undefined,1,right,0,45,45,0,0,45,45,0,45,45,45,45,0,45,0,Wed Oct 23 07:39:36 2019,The main experiment item,yes,Sternbergtask.osexp,/Users/KrisBow/Dropbox/GradSchoolTarleton/Fall2019/AdvQuant/Lab3,no,mono,no,18,no,white,no,yes,768,legacy,33,11,/Users/KrisBow/Dropbox/GradSchoolTarleton/Fall2019/AdvQuant/Lab3/KB-subject-3-F18.csv,legacy,4 2 6 9,Kafkaesque Koffka,3.2.6,0,n,0,right,left,right,right,NA,570,74425,4011,570,NA,2,legacy,4,1024,2,48000,-16,experiment,3,odd,7,1805,350590,351700,1791,154437,351711,230687,150425,353934,356519,352721,355945,76232,355945,NA,Sternberg task,43,29470,46,yes,1024
93.61702128,93.61702128,640.7021277,640.7021277,black,experiment,legacy,legacy,legacy,0,uniform,1,undefined,1,left,0,46,46,0,0,46,46,0,46,46,46,46,0,46,0,Wed Oct 23 07:39:36 2019,The main experiment item,yes,Sternbergtask.osexp,/Users/KrisBow/Dropbox/GradSchoolTarleton/Fall2019/AdvQuant/Lab3,no,mono,no,18,no,white,no,yes,768,legacy,34,11,/Users/KrisBow/Dropbox/GradSchoolTarleton/Fall2019/AdvQuant/Lab3/KB-subject-3-F18.csv,legacy,9 8 4,Kafkaesque Koffka,3.2.6,1,y,0,left,left,right,left,NA,643,74425,4011,643,NA,2,legacy,3,1024,2,48000,-16,experiment,3,odd,9,1805,356534,357641,1791,154437,357652,230687,150425,359875,362531,358663,361886,76232,361886,NA,Sternberg task,44,30113,47,yes,1024
93.75,93.75,638.9791667,638.9791667,black,experiment,legacy,legacy,legacy,0,uniform,1,undefined,1,right,0,47,47,0,0,47,47,0,47,47,47,47,0,47,0,Wed Oct 23 07:39:36 2019,The main experiment item,yes,Sternbergtask.osexp,/Users/KrisBow/Dropbox/GradSchoolTarleton/Fall2019/AdvQuant/Lab3,no,mono,no,18,no,white,no,yes,768,legacy,35,11,/Users/KrisBow/Dropbox/GradSchoolTarleton/Fall2019/AdvQuant/Lab3/KB-subject-3-F18.csv,legacy,1 4 9 2 5,Kafkaesque Koffka,3.2.6,0,n,0,right,left,right,right,NA,558,74425,4011,558,NA,2,legacy,5,1024,2,48000,-16,experiment,3,odd,7,1805,362545,363725,1791,154437,363742,230687,150425,365965,368537,364753,367977,76232,367976,NA,Sternberg task,45,30671,48,yes,1024
93.87755102,93.87755102,637,637,black,experiment,legacy,legacy,legacy,0,uniform,1,undefined,1,right,0,48,48,0,0,48,48,0,48,48,48,48,0,48,0,Wed Oct 23 07:39:36 2019,The main experiment item,yes,Sternbergtask.osexp,/Users/KrisBow/Dropbox/GradSchoolTarleton/Fall2019/AdvQuant/Lab3,no,mono,no,18,no,white,no,yes,768,legacy,36,11,/Users/KrisBow/Dropbox/GradSchoolTarleton/Fall2019/AdvQuant/Lab3/KB-subject-3-F18.csv,legacy,3 4 2,Kafkaesque Koffka,3.2.6,0,n,0,right,left,right,right,NA,542,74425,4011,542,NA,2,legacy,3,1024,2,48000,-16,experiment,3,odd,5,1805,368549,369657,1791,154437,369667,230687,150425,371890,374450,370678,373905,76232,373905,NA,Sternberg task,46,31213,49,yes,1024
94,94,634.06,634.06,black,experiment,legacy,legacy,legacy,0,uniform,1,undefined,1,left,0,49,49,0,0,49,49,0,49,49,49,49,0,49,0,Wed Oct 23 07:39:36 2019,The main experiment item,yes,Sternbergtask.osexp,/Users/KrisBow/Dropbox/GradSchoolTarleton/Fall2019/AdvQuant/Lab3,no,mono,no,18,no,white,no,yes,768,legacy,37,11,/Users/KrisBow/Dropbox/GradSchoolTarleton/Fall2019/AdvQuant/Lab3/KB-subject-3-F18.csv,legacy,8 3,Kafkaesque Koffka,3.2.6,2,y,0,left,left,right,left,NA,490,74425,4011,490,NA,2,legacy,2,1024,2,48000,-16,experiment,3,odd,3,1805,374463,375570,1791,154437,375581,230687,150425,377803,380307,376592,379815,76232,379815,NA,Sternberg task,47,31703,50,yes,1024
94.11764706,94.11764706,634.8039216,634.8039216,black,experiment,legacy,legacy,legacy,0,uniform,1,undefined,1,right,0,50,50,0,0,50,50,0,50,50,50,50,0,50,0,Wed Oct 23 07:39:36 2019,The main experiment item,yes,Sternbergtask.osexp,/Users/KrisBow/Dropbox/GradSchoolTarleton/Fall2019/AdvQuant/Lab3,no,mono,no,18,no,white,no,yes,768,legacy,38,11,/Users/KrisBow/Dropbox/GradSchoolTarleton/Fall2019/AdvQuant/Lab3/KB-subject-3-F18.csv,legacy,5 9 2 3,Kafkaesque Koffka,3.2.6,0,n,0,right,left,right,right,NA,672,74425,4011,672,NA,2,legacy,4,1024,2,48000,-16,experiment,3,odd,8,1805,380321,381428,1791,154437,381439,230687,150425,383664,386349,382451,385675,76232,385674,NA,Sternberg task,48,32375,51,yes,1024
94.23076923,94.23076923,634.2692308,634.2692308,black,experiment,legacy,legacy,legacy,0,uniform,1,undefined,1,right,0,51,51,0,0,51,51,0,51,51,51,51,0,51,0,Wed Oct 23 07:39:36 2019,The main experiment item,yes,Sternbergtask.osexp,/Users/KrisBow/Dropbox/GradSchoolTarleton/Fall2019/AdvQuant/Lab3,no,mono,no,18,no,white,no,yes,768,legacy,39,11,/Users/KrisBow/Dropbox/GradSchoolTarleton/Fall2019/AdvQuant/Lab3/KB-subject-3-F18.csv,legacy,3 9 8 1 6 4,Kafkaesque Koffka,3.2.6,0,n,0,right,left,right,right,NA,607,74425,4011,607,NA,2,legacy,6,1024,2,48000,-16,experiment,3,odd,7,1805,386362,387472,1791,154437,387482,230687,150425,389706,392326,388494,391717,76232,391717,NA,Sternberg task,49,32982,52,yes,1024
94.33962264,94.33962264,634,634,black,experiment,legacy,legacy,legacy,0,uniform,1,undefined,1,left,0,52,52,0,0,52,52,0,52,52,52,52,0,52,0,Wed Oct 23 07:39:36 2019,The main experiment item,yes,Sternbergtask.osexp,/Users/KrisBow/Dropbox/GradSchoolTarleton/Fall2019/AdvQuant/Lab3,no,mono,no,18,no,white,no,yes,768,legacy,40,11,/Users/KrisBow/Dropbox/GradSchoolTarleton/Fall2019/AdvQuant/Lab3/KB-subject-3-F18.csv,legacy,6 9 3 1,Kafkaesque Koffka,3.2.6,4,y,0,left,left,right,left,NA,620,74425,4011,620,NA,2,legacy,4,1024,2,48000,-16,experiment,3,odd,1,1805,392338,393448,1791,154437,393459,230687,150425,395682,398315,394470,397692,76232,397692,NA,Sternberg task,50,33602,53,yes,1024
94.44444444,94.44444444,635.537037,635.537037,black,experiment,legacy,legacy,legacy,0,uniform,1,undefined,1,right,0,53,53,0,0,53,53,0,53,53,53,53,0,53,0,Wed Oct 23 07:39:36 2019,The main experiment item,yes,Sternbergtask.osexp,/Users/KrisBow/Dropbox/GradSchoolTarleton/Fall2019/AdvQuant/Lab3,no,mono,no,18,no,white,no,yes,768,legacy,41,11,/Users/KrisBow/Dropbox/GradSchoolTarleton/Fall2019/AdvQuant/Lab3/KB-subject-3-F18.csv,legacy,5 3 8 7 2 4,Kafkaesque Koffka,3.2.6,0,n,0,right,left,right,right,NA,717,74425,4011,717,NA,2,legacy,6,1024,2,48000,-16,experiment,3,odd,9,1805,398327,399436,1791,154437,399447,230687,150425,401670,404400,400458,403681,76232,403681,NA,Sternberg task,51,34319,54,yes,1024
94.54545455,94.54545455,647.5272727,647.5272727,black,experiment,legacy,legacy,legacy,0,uniform,1,undefined,1,left,0,54,54,0,0,54,54,0,54,54,54,54,0,54,0,Wed Oct 23 07:39:36 2019,The main experiment item,yes,Sternbergtask.osexp,/Users/KrisBow/Dropbox/GradSchoolTarleton/Fall2019/AdvQuant/Lab3,no,mono,no,18,no,white,no,yes,768,legacy,42,11,/Users/KrisBow/Dropbox/GradSchoolTarleton/Fall2019/AdvQuant/Lab3/KB-subject-3-F18.csv,legacy,4 1 5,Kafkaesque Koffka,3.2.6,2,y,0,left,left,right,left,NA,1295,74425,4011,1295,NA,2,legacy,3,1024,2,48000,-16,experiment,3,odd,1,1805,404413,405523,1791,154437,405534,230687,150425,407758,411067,406545,409769,76232,409768,NA,Sternberg task,52,35614,55,yes,1024
94.64285714,94.64285714,646.3214286,646.3214286,black,experiment,legacy,legacy,legacy,0,uniform,1,undefined,1,right,0,55,55,0,0,55,55,0,55,55,55,55,0,55,0,Wed Oct 23 07:39:36 2019,The main experiment item,yes,Sternbergtask.osexp,/Users/KrisBow/Dropbox/GradSchoolTarleton/Fall2019/AdvQuant/Lab3,no,mono,no,18,no,white,no,yes,768,legacy,43,11,/Users/KrisBow/Dropbox/GradSchoolTarleton/Fall2019/AdvQuant/Lab3/KB-subject-3-F18.csv,legacy,8 6 3 4 7,Kafkaesque Koffka,3.2.6,0,n,0,right,left,right,right,NA,580,74425,4011,580,NA,2,legacy,5,1024,2,48000,-16,experiment,3,odd,1,1805,411080,412190,1791,154437,412200,230687,150425,414423,417018,413210,416435,76232,416435,NA,Sternberg task,53,36194,56,yes,1024
94.73684211,94.73684211,646.6491228,646.6491228,black,experiment,legacy,legacy,legacy,0,uniform,1,undefined,1,left,0,56,56,0,0,56,56,0,56,56,56,56,0,56,0,Wed Oct 23 07:39:36 2019,The main experiment item,yes,Sternbergtask.osexp,/Users/KrisBow/Dropbox/GradSchoolTarleton/Fall2019/AdvQuant/Lab3,no,mono,no,18,no,white,no,yes,768,legacy,44,11,/Users/KrisBow/Dropbox/GradSchoolTarleton/Fall2019/AdvQuant/Lab3/KB-subject-3-F18.csv,legacy,3 5 4 7,Kafkaesque Koffka,3.2.6,1,y,0,left,left,right,left,NA,665,74425,4011,665,NA,2,legacy,4,1024,2,48000,-16,experiment,3,odd,3,1805,417031,418142,1791,154437,418152,230687,150425,420376,423054,419164,422387,76232,422387,NA,Sternberg task,54,36859,57,yes,1024
94.82758621,94.82758621,646.1551724,646.1551724,black,experiment,legacy,legacy,legacy,0,uniform,1,undefined,1,right,0,57,57,0,0,57,57,0,57,57,57,57,0,57,0,Wed Oct 23 07:39:36 2019,The main experiment item,yes,Sternbergtask.osexp,/Users/KrisBow/Dropbox/GradSchoolTarleton/Fall2019/AdvQuant/Lab3,no,mono,no,18,no,white,no,yes,768,legacy,45,11,/Users/KrisBow/Dropbox/GradSchoolTarleton/Fall2019/AdvQuant/Lab3/KB-subject-3-F18.csv,legacy,8 4 3 5,Kafkaesque Koffka,3.2.6,0,n,0,right,left,right,right,NA,618,74425,4011,618,NA,2,legacy,4,1024,2,48000,-16,experiment,3,odd,6,1805,423067,424176,1791,154437,424187,230687,150425,426410,429041,425198,428421,76232,428421,NA,Sternberg task,55,37477,58,yes,1024
94.91525424,94.91525424,646.6440678,646.6440678,black,experiment,legacy,legacy,legacy,0,uniform,1,undefined,1,left,0,58,58,0,0,58,58,0,58,58,58,58,0,58,0,Wed Oct 23 07:39:36 2019,The main experiment item,yes,Sternbergtask.osexp,/Users/KrisBow/Dropbox/GradSchoolTarleton/Fall2019/AdvQuant/Lab3,no,mono,no,18,no,white,no,yes,768,legacy,46,11,/Users/KrisBow/Dropbox/GradSchoolTarleton/Fall2019/AdvQuant/Lab3/KB-subject-3-F18.csv,legacy,9 6 2 4 1,Kafkaesque Koffka,3.2.6,4,y,0,left,left,right,left,NA,675,74425,4011,675,NA,2,legacy,5,1024,2,48000,-16,experiment,3,odd,4,1805,429055,430165,1791,154437,430176,230687,150425,432399,435087,431187,434410,76232,434410,NA,Sternberg task,56,38152,59,yes,1024
95,95,653.8333333,653.8333333,black,experiment,legacy,legacy,legacy,0,uniform,1,undefined,1,right,0,59,59,0,0,59,59,0,59,59,59,59,0,59,0,Wed Oct 23 07:39:36 2019,The main experiment item,yes,Sternbergtask.osexp,/Users/KrisBow/Dropbox/GradSchoolTarleton/Fall2019/AdvQuant/Lab3,no,mono,no,18,no,white,no,yes,768,legacy,47,11,/Users/KrisBow/Dropbox/GradSchoolTarleton/Fall2019/AdvQuant/Lab3/KB-subject-3-F18.csv,legacy,6 9 4 5 2,Kafkaesque Koffka,3.2.6,0,n,0,right,left,right,right,NA,1078,74425,4011,1078,NA,2,legacy,5,1024,2,48000,-16,experiment,3,odd,1,1805,435100,436216,1791,154437,436228,230687,150425,438451,441542,437239,440462,76232,440462,NA,Sternberg task,57,39230,60,yes,1024
95.08196721,95.08196721,655.3442623,655.3442623,black,experiment,legacy,legacy,legacy,0,uniform,1,undefined,1,left,0,60,60,0,0,60,60,0,60,60,60,60,0,60,0,Wed Oct 23 07:39:36 2019,The main experiment item,yes,Sternbergtask.osexp,/Users/KrisBow/Dropbox/GradSchoolTarleton/Fall2019/AdvQuant/Lab3,no,mono,no,18,no,white,no,yes,768,legacy,48,11,/Users/KrisBow/Dropbox/GradSchoolTarleton/Fall2019/AdvQuant/Lab3/KB-subject-3-F18.csv,legacy,7 4 2 6 3 5,Kafkaesque Koffka,3.2.6,6,y,0,left,left,right,left,NA,746,74425,4011,746,NA,2,legacy,6,1024,2,48000,-16,experiment,3,odd,5,1805,441555,442666,1791,154437,442676,230687,150425,444898,447658,443687,446909,76232,446909,NA,Sternberg task,58,39976,61,yes,1024
95.16129032,95.16129032,660.0645161,660.0645161,black,experiment,legacy,legacy,legacy,0,uniform,1,undefined,1,right,0,61,61,0,0,61,61,0,61,61,61,61,0,61,0,Wed Oct 23 07:39:36 2019,The main experiment item,yes,Sternbergtask.osexp,/Users/KrisBow/Dropbox/GradSchoolTarleton/Fall2019/AdvQuant/Lab3,no,mono,no,18,no,white,no,yes,768,legacy,49,11,/Users/KrisBow/Dropbox/GradSchoolTarleton/Fall2019/AdvQuant/Lab3/KB-subject-3-F18.csv,legacy,7 3 2 8,Kafkaesque Koffka,3.2.6,0,n,0,right,left,right,right,NA,948,74425,4011,948,NA,2,legacy,4,1024,2,48000,-16,experiment,3,odd,4,1805,447671,448779,1791,154437,448790,230687,150425,451013,453975,449801,453024,76232,453024,NA,Sternberg task,59,40924,62,yes,1024
95.23809524,95.23809524,658.7460317,658.7460317,black,experiment,legacy,legacy,legacy,0,uniform,1,undefined,1,left,0,62,62,0,0,62,62,0,62,62,62,62,0,62,0,Wed Oct 23 07:39:36 2019,The main experiment item,yes,Sternbergtask.osexp,/Users/KrisBow/Dropbox/GradSchoolTarleton/Fall2019/AdvQuant/Lab3,no,mono,no,18,no,white,no,yes,768,legacy,50,11,/Users/KrisBow/Dropbox/GradSchoolTarleton/Fall2019/AdvQuant/Lab3/KB-subject-3-F18.csv,legacy,7 1 3,Kafkaesque Koffka,3.2.6,2,y,0,left,left,right,left,NA,577,74425,4011,577,NA,2,legacy,3,1024,2,48000,-16,experiment,3,odd,1,1805,453988,455098,1791,154437,455109,230687,150425,457331,459921,456120,459342,76232,459342,NA,Sternberg task,60,41501,63,yes,1024
95.3125,95.3125,657.140625,657.140625,black,experiment,legacy,legacy,legacy,0,uniform,1,undefined,1,left,0,63,63,0,0,63,63,0,63,63,63,63,0,63,0,Wed Oct 23 07:39:36 2019,The main experiment item,yes,Sternbergtask.osexp,/Users/KrisBow/Dropbox/GradSchoolTarleton/Fall2019/AdvQuant/Lab3,no,mono,no,18,no,white,no,yes,768,legacy,51,11,/Users/KrisBow/Dropbox/GradSchoolTarleton/Fall2019/AdvQuant/Lab3/KB-subject-3-F18.csv,legacy,6 1 2,Kafkaesque Koffka,3.2.6,3,y,0,left,left,right,left,NA,556,74425,4011,556,NA,2,legacy,3,1024,2,48000,-16,experiment,3,odd,2,1805,459934,461041,1791,154437,461051,230687,150425,463275,465844,462063,465286,76232,465286,NA,Sternberg task,61,42057,64,yes,1024
95.38461538,95.38461538,654.6153846,654.6153846,black,experiment,legacy,legacy,legacy,0,uniform,1,undefined,1,left,0,64,64,0,0,64,64,0,64,64,64,64,0,64,0,Wed Oct 23 07:39:36 2019,The main experiment item,yes,Sternbergtask.osexp,/Users/KrisBow/Dropbox/GradSchoolTarleton/Fall2019/AdvQuant/Lab3,no,mono,no,18,no,white,no,yes,768,legacy,52,11,/Users/KrisBow/Dropbox/GradSchoolTarleton/Fall2019/AdvQuant/Lab3/KB-subject-3-F18.csv,legacy,7 8 6 3 1,Kafkaesque Koffka,3.2.6,5,y,0,left,left,right,left,NA,493,74425,4011,493,NA,2,legacy,5,1024,2,48000,-16,experiment,3,odd,1,1805,465856,466966,1791,154437,466976,230687,150425,469199,471705,467988,471210,76232,471209,NA,Sternberg task,62,42550,65,yes,1024
95.45454545,95.45454545,653.0151515,653.0151515,black,experiment,legacy,legacy,legacy,0,uniform,1,undefined,1,left,0,65,65,0,0,65,65,0,65,65,65,65,0,65,0,Wed Oct 23 07:39:36 2019,The main experiment item,yes,Sternbergtask.osexp,/Users/KrisBow/Dropbox/GradSchoolTarleton/Fall2019/AdvQuant/Lab3,no,mono,no,18,no,white,no,yes,768,legacy,53,11,/Users/KrisBow/Dropbox/GradSchoolTarleton/Fall2019/AdvQuant/Lab3/KB-subject-3-F18.csv,legacy,9 3 1 2 5,Kafkaesque Koffka,3.2.6,4,y,0,left,left,right,left,NA,549,74425,4011,549,NA,2,legacy,5,1024,2,48000,-16,experiment,3,odd,2,1805,471718,472827,1791,154437,472838,230687,150425,475061,477625,473849,477074,76232,477074,NA,Sternberg task,63,43099,66,yes,1024
95.52238806,95.52238806,652.0597015,652.0597015,black,experiment,legacy,legacy,legacy,0,uniform,1,undefined,1,left,0,66,66,0,0,66,66,0,66,66,66,66,0,66,0,Wed Oct 23 07:39:36 2019,The main experiment item,yes,Sternbergtask.osexp,/Users/KrisBow/Dropbox/GradSchoolTarleton/Fall2019/AdvQuant/Lab3,no,mono,no,18,no,white,no,yes,768,legacy,54,11,/Users/KrisBow/Dropbox/GradSchoolTarleton/Fall2019/AdvQuant/Lab3/KB-subject-3-F18.csv,legacy,8 5 3 7 4 6,Kafkaesque Koffka,3.2.6,6,y,0,left,left,right,left,NA,589,74425,4011,589,NA,2,legacy,6,1024,2,48000,-16,experiment,3,odd,6,1805,477638,478746,1791,154437,478757,230687,150425,480980,483586,479768,482995,76232,482994,NA,Sternberg task,64,43688,67,yes,1024
95.58823529,95.58823529,649.4852941,649.4852941,black,experiment,legacy,legacy,legacy,0,uniform,1,undefined,1,right,0,67,67,0,0,67,67,0,67,67,67,67,0,67,0,Wed Oct 23 07:39:36 2019,The main experiment item,yes,Sternbergtask.osexp,/Users/KrisBow/Dropbox/GradSchoolTarleton/Fall2019/AdvQuant/Lab3,no,mono,no,18,no,white,no,yes,768,legacy,55,11,/Users/KrisBow/Dropbox/GradSchoolTarleton/Fall2019/AdvQuant/Lab3/KB-subject-3-F18.csv,legacy,5 2,Kafkaesque Koffka,3.2.6,0,n,0,right,left,right,right,NA,477,74425,4011,477,NA,2,legacy,2,1024,2,48000,-16,experiment,3,odd,7,1805,483599,484708,1791,154437,484719,230687,150425,486944,489434,485730,488955,76232,488955,NA,Sternberg task,65,44165,68,yes,1024
95.65217391,95.65217391,648.8695652,648.8695652,black,experiment,legacy,legacy,legacy,0,uniform,1,undefined,1,left,0,68,68,0,0,68,68,0,68,68,68,68,0,68,0,Wed Oct 23 07:39:36 2019,The main experiment item,yes,Sternbergtask.osexp,/Users/KrisBow/Dropbox/GradSchoolTarleton/Fall2019/AdvQuant/Lab3,no,mono,no,18,no,white,no,yes,768,legacy,56,11,/Users/KrisBow/Dropbox/GradSchoolTarleton/Fall2019/AdvQuant/Lab3/KB-subject-3-F18.csv,legacy,8 9 5 7 1 6,Kafkaesque Koffka,3.2.6,4,y,0,left,left,right,left,NA,607,74425,4011,607,NA,2,legacy,6,1024,2,48000,-16,experiment,3,odd,7,1805,489447,490555,1791,154437,490566,230687,150425,492790,495411,491577,494802,76232,494802,NA,Sternberg task,66,44772,69,yes,1024
95.71428571,95.71428571,649.6714286,649.6714286,black,experiment,legacy,legacy,legacy,0,uniform,1,undefined,1,right,0,69,69,0,0,69,69,0,69,69,69,69,0,69,0,Wed Oct 23 07:39:36 2019,The main experiment item,yes,Sternbergtask.osexp,/Users/KrisBow/Dropbox/GradSchoolTarleton/Fall2019/AdvQuant/Lab3,no,mono,no,18,no,white,no,yes,768,legacy,57,11,/Users/KrisBow/Dropbox/GradSchoolTarleton/Fall2019/AdvQuant/Lab3/KB-subject-3-F18.csv,legacy,7 9 1 6,Kafkaesque Koffka,3.2.6,0,n,0,right,left,right,right,NA,705,74425,4011,705,NA,2,legacy,4,1024,2,48000,-16,experiment,3,odd,4,1805,495424,496534,1791,154437,496545,230687,150425,498768,501487,497556,500779,76232,500779,NA,Sternberg task,67,45477,70,yes,1024
95.77464789,95.77464789,647.7887324,647.7887324,black,experiment,legacy,legacy,legacy,0,uniform,1,undefined,1,left,0,70,70,0,0,70,70,0,70,70,70,70,0,70,0,Wed Oct 23 07:39:36 2019,The main experiment item,yes,Sternbergtask.osexp,/Users/KrisBow/Dropbox/GradSchoolTarleton/Fall2019/AdvQuant/Lab3,no,mono,no,18,no,white,no,yes,768,legacy,58,11,/Users/KrisBow/Dropbox/GradSchoolTarleton/Fall2019/AdvQuant/Lab3/KB-subject-3-F18.csv,legacy,7 6,Kafkaesque Koffka,3.2.6,2,y,0,left,left,right,left,NA,516,74425,4011,516,NA,2,legacy,2,1024,2,48000,-16,experiment,3,odd,6,1805,501500,502607,1791,154437,502618,230687,150425,504841,507371,503629,506853,76232,506853,NA,Sternberg task,68,45993,71,yes,1024
95.83333333,95.83333333,646.2638889,646.2638889,black,experiment,legacy,legacy,legacy,0,uniform,1,undefined,1,left,0,71,71,0,0,71,71,0,71,71,71,71,0,71,0,Wed Oct 23 07:39:36 2019,The main experiment item,yes,Sternbergtask.osexp,/Users/KrisBow/Dropbox/GradSchoolTarleton/Fall2019/AdvQuant/Lab3,no,mono,no,18,no,white,no,yes,768,legacy,59,11,/Users/KrisBow/Dropbox/GradSchoolTarleton/Fall2019/AdvQuant/Lab3/KB-subject-3-F18.csv,legacy,5 2 6,Kafkaesque Koffka,3.2.6,2,y,0,left,left,right,left,NA,538,74425,4011,538,NA,2,legacy,3,1024,2,48000,-16,experiment,3,odd,2,1805,507384,508492,1791,154437,508502,230687,150425,510725,513277,509513,512736,76232,512736,NA,Sternberg task,69,46531,72,yes,1024
95.89041096,95.89041096,643.5616438,643.5616438,black,experiment,legacy,legacy,legacy,0,uniform,1,undefined,1,left,0,72,72,0,0,72,72,0,72,72,72,72,0,72,0,Wed Oct 23 07:39:36 2019,The main experiment item,yes,Sternbergtask.osexp,/Users/KrisBow/Dropbox/GradSchoolTarleton/Fall2019/AdvQuant/Lab3,no,mono,no,18,no,white,no,yes,768,legacy,60,11,/Users/KrisBow/Dropbox/GradSchoolTarleton/Fall2019/AdvQuant/Lab3/KB-subject-3-F18.csv,legacy,3 9 7 6 4,Kafkaesque Koffka,3.2.6,3,y,0,left,left,right,left,NA,449,74425,4011,449,NA,2,legacy,5,1024,2,48000,-16,experiment,3,odd,7,1805,513296,514406,1791,154437,514416,230687,150425,516639,519104,515427,518651,76232,518651,NA,Sternberg task,70,46980,73,yes,1024
95.94594595,95.94594595,643.5,643.5,black,experiment,legacy,legacy,legacy,0,uniform,1,undefined,1,left,0,73,73,0,0,73,73,0,73,73,73,73,0,73,0,Wed Oct 23 07:39:36 2019,The main experiment item,yes,Sternbergtask.osexp,/Users/KrisBow/Dropbox/GradSchoolTarleton/Fall2019/AdvQuant/Lab3,no,mono,no,18,no,white,no,yes,768,legacy,61,11,/Users/KrisBow/Dropbox/GradSchoolTarleton/Fall2019/AdvQuant/Lab3/KB-subject-3-F18.csv,legacy,2 3 7 4,Kafkaesque Koffka,3.2.6,1,y,0,left,left,right,left,NA,639,74425,4011,639,NA,2,legacy,4,1024,2,48000,-16,experiment,3,odd,2,1805,519120,520257,1791,154437,520269,230687,150425,522491,525144,521280,524502,76232,524502,NA,Sternberg task,71,47619,74,yes,1024
96,96,643.8,643.8,black,experiment,legacy,legacy,legacy,0,uniform,1,undefined,1,left,0,74,74,0,0,74,74,0,74,74,74,74,0,74,0,Wed Oct 23 07:39:36 2019,The main experiment item,yes,Sternbergtask.osexp,/Users/KrisBow/Dropbox/GradSchoolTarleton/Fall2019/AdvQuant/Lab3,no,mono,no,18,no,white,no,yes,768,legacy,62,11,/Users/KrisBow/Dropbox/GradSchoolTarleton/Fall2019/AdvQuant/Lab3/KB-subject-3-F18.csv,legacy,7,Kafkaesque Koffka,3.2.6,1,y,0,left,left,right,left,NA,666,74425,4011,666,NA,2,legacy,1,1024,2,48000,-16,experiment,3,odd,7,1805,525157,526266,1791,154437,526277,230687,150425,528500,531180,527288,530511,76232,530511,NA,Sternberg task,72,48285,75,yes,1024
96.05263158,96.05263158,645.8157895,645.8157895,black,experiment,legacy,legacy,legacy,0,uniform,1,undefined,1,left,0,75,75,0,0,75,75,0,75,75,75,75,0,75,0,Wed Oct 23 07:39:36 2019,The main experiment item,yes,Sternbergtask.osexp,/Users/KrisBow/Dropbox/GradSchoolTarleton/Fall2019/AdvQuant/Lab3,no,mono,no,18,no,white,no,yes,768,legacy,63,11,/Users/KrisBow/Dropbox/GradSchoolTarleton/Fall2019/AdvQuant/Lab3/KB-subject-3-F18.csv,legacy,9 4 2,Kafkaesque Koffka,3.2.6,1,y,0,left,left,right,left,NA,797,74425,4011,797,NA,2,legacy,3,1024,2,48000,-16,experiment,3,odd,9,1805,531193,532301,1791,154437,532311,230687,150425,534536,537346,533322,536547,76232,536547,NA,Sternberg task,73,49082,76,yes,1024
96.1038961,96.1038961,647.4675325,647.4675325,black,experiment,legacy,legacy,legacy,0,uniform,1,undefined,1,right,0,76,76,0,0,76,76,0,76,76,76,76,0,76,0,Wed Oct 23 07:39:36 2019,The main experiment item,yes,Sternbergtask.osexp,/Users/KrisBow/Dropbox/GradSchoolTarleton/Fall2019/AdvQuant/Lab3,no,mono,no,18,no,white,no,yes,768,legacy,64,11,/Users/KrisBow/Dropbox/GradSchoolTarleton/Fall2019/AdvQuant/Lab3/KB-subject-3-F18.csv,legacy,6 3 1 7 9 8,Kafkaesque Koffka,3.2.6,0,n,0,right,left,right,right,NA,773,74425,4011,773,NA,2,legacy,6,1024,2,48000,-16,experiment,3,odd,4,1805,537360,538469,1791,154437,538480,230687,150425,540704,543491,539491,542715,76232,542715,NA,Sternberg task,74,49855,77,yes,1024
96.15384615,96.15384615,647.1153846,647.1153846,black,experiment,legacy,legacy,legacy,0,uniform,1,undefined,1,left,0,77,77,0,0,77,77,0,77,77,77,77,0,77,0,Wed Oct 23 07:39:36 2019,The main experiment item,yes,Sternbergtask.osexp,/Users/KrisBow/Dropbox/GradSchoolTarleton/Fall2019/AdvQuant/Lab3,no,mono,no,18,no,white,no,yes,768,legacy,65,11,/Users/KrisBow/Dropbox/GradSchoolTarleton/Fall2019/AdvQuant/Lab3/KB-subject-3-F18.csv,legacy,4 1 8 7 5,Kafkaesque Koffka,3.2.6,3,y,0,left,left,right,left,NA,620,74425,4011,620,NA,2,legacy,5,1024,2,48000,-16,experiment,3,odd,8,1805,543504,544614,1791,154437,544624,230687,150425,546847,549481,545636,548858,76232,548858,NA,Sternberg task,75,50475,78,yes,1024
96.20253165,96.20253165,647.5949367,647.5949367,black,experiment,legacy,legacy,legacy,0,uniform,1,undefined,1,right,0,78,78,0,0,78,78,0,78,78,78,78,0,78,0,Wed Oct 23 07:39:36 2019,The main experiment item,yes,Sternbergtask.osexp,/Users/KrisBow/Dropbox/GradSchoolTarleton/Fall2019/AdvQuant/Lab3,no,mono,no,18,no,white,no,yes,768,legacy,66,11,/Users/KrisBow/Dropbox/GradSchoolTarleton/Fall2019/AdvQuant/Lab3/KB-subject-3-F18.csv,legacy,5,Kafkaesque Koffka,3.2.6,0,n,0,right,left,right,right,NA,685,74425,4011,685,NA,2,legacy,1,1024,2,48000,-16,experiment,3,odd,8,1805,549493,550601,1791,154437,550611,230687,150425,552835,555533,551622,554846,76232,554845,NA,Sternberg task,76,51160,79,yes,1024
96.25,96.25,647.4,647.4,black,experiment,legacy,legacy,legacy,0,uniform,1,undefined,1,left,0,79,79,0,0,79,79,0,79,79,79,79,0,79,0,Wed Oct 23 07:39:36 2019,The main experiment item,yes,Sternbergtask.osexp,/Users/KrisBow/Dropbox/GradSchoolTarleton/Fall2019/AdvQuant/Lab3,no,mono,no,18,no,white,no,yes,768,legacy,67,11,/Users/KrisBow/Dropbox/GradSchoolTarleton/Fall2019/AdvQuant/Lab3/KB-subject-3-F18.csv,legacy,2 4 6 9,Kafkaesque Koffka,3.2.6,3,y,0,left,left,right,left,NA,632,74425,4011,632,NA,2,legacy,4,1024,2,48000,-16,experiment,3,odd,6,1805,555546,556654,1791,154437,556665,230687,150425,558889,561536,557676,560901,76232,560900,NA,Sternberg task,77,51792,80,yes,1024
96.2962963,96.2962963,652.5802469,652.5802469,black,experiment,legacy,legacy,legacy,0,uniform,1,undefined,1,left,0,80,80,0,0,80,80,0,80,80,80,80,0,80,0,Wed Oct 23 07:39:36 2019,The main experiment item,yes,Sternbergtask.osexp,/Users/KrisBow/Dropbox/GradSchoolTarleton/Fall2019/AdvQuant/Lab3,no,mono,no,18,no,white,no,yes,768,legacy,68,11,/Users/KrisBow/Dropbox/GradSchoolTarleton/Fall2019/AdvQuant/Lab3/KB-subject-3-F18.csv,legacy,8 5 4 7 3 1,Kafkaesque Koffka,3.2.6,2,y,0,left,left,right,left,NA,1067,74425,4011,1067,NA,2,legacy,6,1024,2,48000,-16,experiment,3,odd,5,1805,561549,562658,1791,154437,562668,230687,150425,564893,567973,563681,566904,76232,566904,NA,Sternberg task,78,52859,81,yes,1024
96.34146341,96.34146341,654.6219512,654.6219512,black,experiment,legacy,legacy,legacy,0,uniform,1,undefined,1,right,0,81,81,0,0,81,81,0,81,81,81,81,0,81,0,Wed Oct 23 07:39:36 2019,The main experiment item,yes,Sternbergtask.osexp,/Users/KrisBow/Dropbox/GradSchoolTarleton/Fall2019/AdvQuant/Lab3,no,mono,no,18,no,white,no,yes,768,legacy,69,11,/Users/KrisBow/Dropbox/GradSchoolTarleton/Fall2019/AdvQuant/Lab3/KB-subject-3-F18.csv,legacy,1 6 4,Kafkaesque Koffka,3.2.6,0,n,0,right,left,right,right,NA,820,74425,4011,820,NA,2,legacy,3,1024,2,48000,-16,experiment,3,odd,7,1805,567986,569095,1791,154437,569105,230687,150425,571329,574163,570116,573341,76232,573341,NA,Sternberg task,79,53679,82,yes,1024
96.38554217,96.38554217,653.1445783,653.1445783,black,experiment,legacy,legacy,legacy,0,uniform,1,undefined,1,left,0,82,82,0,0,82,82,0,82,82,82,82,0,82,0,Wed Oct 23 07:39:36 2019,The main experiment item,yes,Sternbergtask.osexp,/Users/KrisBow/Dropbox/GradSchoolTarleton/Fall2019/AdvQuant/Lab3,no,mono,no,18,no,white,no,yes,768,legacy,70,11,/Users/KrisBow/Dropbox/GradSchoolTarleton/Fall2019/AdvQuant/Lab3/KB-subject-3-F18.csv,legacy,9 1 7 2,Kafkaesque Koffka,3.2.6,2,y,0,left,left,right,left,NA,532,74425,4011,532,NA,2,legacy,4,1024,2,48000,-16,experiment,3,odd,1,1805,574177,575301,1791,154437,575312,230687,150425,577538,580083,576323,579548,76232,579548,NA,Sternberg task,80,54211,83,yes,1024
96.42857143,96.42857143,656.9642857,656.9642857,black,experiment,legacy,legacy,legacy,0,uniform,1,undefined,1,right,0,83,83,0,0,83,83,0,83,83,83,83,0,83,0,Wed Oct 23 07:39:36 2019,The main experiment item,yes,Sternbergtask.osexp,/Users/KrisBow/Dropbox/GradSchoolTarleton/Fall2019/AdvQuant/Lab3,no,mono,no,18,no,white,no,yes,768,legacy,71,11,/Users/KrisBow/Dropbox/GradSchoolTarleton/Fall2019/AdvQuant/Lab3/KB-subject-3-F18.csv,legacy,9 7 4 5 8,Kafkaesque Koffka,3.2.6,0,n,0,right,left,right,right,NA,974,74425,4011,974,NA,2,legacy,5,1024,2,48000,-16,experiment,3,odd,6,1805,580096,581207,1791,154437,581218,230687,150425,583441,586428,582229,585452,76232,585451,NA,Sternberg task,81,55185,84,yes,1024
96.47058824,96.47058824,655.3294118,655.3294118,black,experiment,legacy,legacy,legacy,0,uniform,1,undefined,1,right,0,84,84,0,0,84,84,0,84,84,84,84,0,84,0,Wed Oct 23 07:39:36 2019,The main experiment item,yes,Sternbergtask.osexp,/Users/KrisBow/Dropbox/GradSchoolTarleton/Fall2019/AdvQuant/Lab3,no,mono,no,18,no,white,no,yes,768,legacy,72,11,/Users/KrisBow/Dropbox/GradSchoolTarleton/Fall2019/AdvQuant/Lab3/KB-subject-3-F18.csv,legacy,2 7 5,Kafkaesque Koffka,3.2.6,0,n,0,right,left,right,right,NA,518,74425,4011,518,NA,2,legacy,3,1024,2,48000,-16,experiment,3,odd,8,1805,586441,587550,1791,154437,587560,230687,150425,589784,592316,588572,591795,76232,591795,NA,Sternberg task,82,55703,85,yes,1024
96.51162791,96.51162791,656.0930233,656.0930233,black,experiment,legacy,legacy,legacy,0,uniform,1,undefined,1,right,0,85,85,0,0,85,85,0,85,85,85,85,0,85,0,Wed Oct 23 07:39:36 2019,The main experiment item,yes,Sternbergtask.osexp,/Users/KrisBow/Dropbox/GradSchoolTarleton/Fall2019/AdvQuant/Lab3,no,mono,no,18,no,white,no,yes,768,legacy,73,11,/Users/KrisBow/Dropbox/GradSchoolTarleton/Fall2019/AdvQuant/Lab3/KB-subject-3-F18.csv,legacy,2 6 4 3 9,Kafkaesque Koffka,3.2.6,0,n,0,right,left,right,right,NA,721,74425,4011,721,NA,2,legacy,5,1024,2,48000,-16,experiment,3,odd,1,1805,592329,593437,1791,154437,593448,230687,150425,595671,598406,594459,597682,76232,597682,NA,Sternberg task,83,56424,86,yes,1024
96.55172414,96.55172414,655.8735632,655.8735632,black,experiment,legacy,legacy,legacy,0,uniform,1,undefined,1,left,0,86,86,0,0,86,86,0,86,86,86,86,0,86,0,Wed Oct 23 07:39:36 2019,The main experiment item,yes,Sternbergtask.osexp,/Users/KrisBow/Dropbox/GradSchoolTarleton/Fall2019/AdvQuant/Lab3,no,mono,no,18,no,white,no,yes,768,legacy,74,11,/Users/KrisBow/Dropbox/GradSchoolTarleton/Fall2019/AdvQuant/Lab3/KB-subject-3-F18.csv,legacy,8 9 6 1,Kafkaesque Koffka,3.2.6,2,y,0,left,left,right,left,NA,637,74425,4011,637,NA,2,legacy,4,1024,2,48000,-16,experiment,3,odd,9,1805,598419,599527,1791,154437,599538,230687,150425,601760,604411,600549,603771,76232,603771,NA,Sternberg task,84,57061,87,yes,1024
96.59090909,96.59090909,654.1818182,654.1818182,black,experiment,legacy,legacy,legacy,0,uniform,1,undefined,1,left,0,87,87,0,0,87,87,0,87,87,87,87,0,87,0,Wed Oct 23 07:39:36 2019,The main experiment item,yes,Sternbergtask.osexp,/Users/KrisBow/Dropbox/GradSchoolTarleton/Fall2019/AdvQuant/Lab3,no,mono,no,18,no,white,no,yes,768,legacy,75,11,/Users/KrisBow/Dropbox/GradSchoolTarleton/Fall2019/AdvQuant/Lab3/KB-subject-3-F18.csv,legacy,8 7 3,Kafkaesque Koffka,3.2.6,1,y,0,left,left,right,left,NA,507,74425,4011,507,NA,2,legacy,3,1024,2,48000,-16,experiment,3,odd,8,1805,604424,605532,1791,154437,605542,230687,150425,607765,610286,606553,609776,76232,609776,NA,Sternberg task,85,57568,88,yes,1024
96.62921348,96.62921348,655.2022472,655.2022472,black,experiment,legacy,legacy,legacy,0,uniform,1,undefined,1,left,0,88,88,0,0,88,88,0,88,88,88,88,0,88,0,Wed Oct 23 07:39:36 2019,The main experiment item,yes,Sternbergtask.osexp,/Users/KrisBow/Dropbox/GradSchoolTarleton/Fall2019/AdvQuant/Lab3,no,mono,no,18,no,white,no,yes,768,legacy,76,11,/Users/KrisBow/Dropbox/GradSchoolTarleton/Fall2019/AdvQuant/Lab3/KB-subject-3-F18.csv,legacy,2 4 8 5 1 3,Kafkaesque Koffka,3.2.6,1,y,0,left,left,right,left,NA,745,74425,4011,745,NA,2,legacy,6,1024,2,48000,-16,experiment,3,odd,2,1805,610299,611410,1791,154437,611421,230687,150425,613645,616405,612432,615657,76232,615657,NA,Sternberg task,86,58313,89,yes,1024
96.66666667,96.66666667,655.0888889,655.0888889,black,experiment,legacy,legacy,legacy,0,uniform,1,undefined,1,right,0,89,89,0,0,89,89,0,89,89,89,89,0,89,0,Wed Oct 23 07:39:36 2019,The main experiment item,yes,Sternbergtask.osexp,/Users/KrisBow/Dropbox/GradSchoolTarleton/Fall2019/AdvQuant/Lab3,no,mono,no,18,no,white,no,yes,768,legacy,77,11,/Users/KrisBow/Dropbox/GradSchoolTarleton/Fall2019/AdvQuant/Lab3/KB-subject-3-F18.csv,legacy,1 6 4 3 9 7,Kafkaesque Koffka,3.2.6,0,n,0,right,left,right,right,NA,645,74425,4011,645,NA,2,legacy,6,1024,2,48000,-16,experiment,3,odd,8,1805,616419,617528,1791,154437,617538,230687,150425,619761,622420,618549,621772,76232,621772,NA,Sternberg task,87,58958,90,yes,1024
96.7032967,96.7032967,655.5604396,655.5604396,black,experiment,legacy,legacy,legacy,0,uniform,1,undefined,1,right,0,90,90,0,0,90,90,0,90,90,90,90,0,90,0,Wed Oct 23 07:39:36 2019,The main experiment item,yes,Sternbergtask.osexp,/Users/KrisBow/Dropbox/GradSchoolTarleton/Fall2019/AdvQuant/Lab3,no,mono,no,18,no,white,no,yes,768,legacy,78,11,/Users/KrisBow/Dropbox/GradSchoolTarleton/Fall2019/AdvQuant/Lab3/KB-subject-3-F18.csv,legacy,2 5 1 4,Kafkaesque Koffka,3.2.6,0,n,0,right,left,right,right,NA,698,74425,4011,698,NA,2,legacy,4,1024,2,48000,-16,experiment,3,odd,6,1805,622433,623546,1791,154437,623556,230687,150425,625778,628490,624567,627790,76232,627790,NA,Sternberg task,88,59656,91,yes,1024
96.73913043,96.73913043,655.576087,655.576087,black,experiment,legacy,legacy,legacy,0,uniform,1,undefined,1,left,0,91,91,0,0,91,91,0,91,91,91,91,0,91,0,Wed Oct 23 07:39:36 2019,The main experiment item,yes,Sternbergtask.osexp,/Users/KrisBow/Dropbox/GradSchoolTarleton/Fall2019/AdvQuant/Lab3,no,mono,no,18,no,white,no,yes,768,legacy,79,11,/Users/KrisBow/Dropbox/GradSchoolTarleton/Fall2019/AdvQuant/Lab3/KB-subject-3-F18.csv,legacy,8 1 6,Kafkaesque Koffka,3.2.6,3,y,0,left,left,right,left,NA,657,74425,4011,657,NA,2,legacy,3,1024,2,48000,-16,experiment,3,odd,6,1805,628504,629612,1791,154437,629623,230687,150425,631847,634517,630634,633858,76232,633858,NA,Sternberg task,89,60313,92,yes,1024
96.77419355,96.77419355,659.9247312,659.9247312,black,experiment,legacy,legacy,legacy,0,uniform,1,undefined,1,left,0,92,92,0,0,92,92,0,92,92,92,92,0,92,0,Wed Oct 23 07:39:36 2019,The main experiment item,yes,Sternbergtask.osexp,/Users/KrisBow/Dropbox/GradSchoolTarleton/Fall2019/AdvQuant/Lab3,no,mono,no,18,no,white,no,yes,768,legacy,80,11,/Users/KrisBow/Dropbox/GradSchoolTarleton/Fall2019/AdvQuant/Lab3/KB-subject-3-F18.csv,legacy,4 6 5 8,Kafkaesque Koffka,3.2.6,1,y,0,left,left,right,left,NA,1060,74425,4011,1060,NA,2,legacy,4,1024,2,48000,-16,experiment,3,odd,4,1805,634534,635645,1791,154437,635656,230687,150425,637878,640950,636667,639888,76232,639888,NA,Sternberg task,90,61373,93,yes,1024
96.80851064,96.80851064,659.8297872,659.8297872,black,experiment,legacy,legacy,legacy,0,uniform,1,undefined,1,left,0,93,93,0,0,93,93,0,93,93,93,93,0,93,0,Wed Oct 23 07:39:36 2019,The main experiment item,yes,Sternbergtask.osexp,/Users/KrisBow/Dropbox/GradSchoolTarleton/Fall2019/AdvQuant/Lab3,no,mono,no,18,no,white,no,yes,768,legacy,81,11,/Users/KrisBow/Dropbox/GradSchoolTarleton/Fall2019/AdvQuant/Lab3/KB-subject-3-F18.csv,legacy,1 4 9 3 2 5,Kafkaesque Koffka,3.2.6,3,y,0,left,left,right,left,NA,651,74425,4011,651,NA,2,legacy,6,1024,2,48000,-16,experiment,3,odd,9,1805,640964,642071,1791,154437,642082,230687,150425,644306,646971,643093,646317,76232,646317,NA,Sternberg task,91,62024,94,yes,1024
96.84210526,96.84210526,660.2842105,660.2842105,black,experiment,legacy,legacy,legacy,0,uniform,1,undefined,1,left,0,94,94,0,0,94,94,0,94,94,94,94,0,94,0,Wed Oct 23 07:39:36 2019,The main experiment item,yes,Sternbergtask.osexp,/Users/KrisBow/Dropbox/GradSchoolTarleton/Fall2019/AdvQuant/Lab3,no,mono,no,18,no,white,no,yes,768,legacy,82,11,/Users/KrisBow/Dropbox/GradSchoolTarleton/Fall2019/AdvQuant/Lab3/KB-subject-3-F18.csv,legacy,8,Kafkaesque Koffka,3.2.6,1,y,0,left,left,right,left,NA,703,74425,4011,703,NA,2,legacy,1,1024,2,48000,-16,experiment,3,odd,8,1805,646984,648090,1791,154437,648100,230687,150425,650324,653041,649112,652335,76232,652335,NA,Sternberg task,92,62727,95,yes,1024
96.875,96.875,661.6666667,661.6666667,black,experiment,legacy,legacy,legacy,0,uniform,1,undefined,1,right,0,95,95,0,0,95,95,0,95,95,95,95,0,95,0,Wed Oct 23 07:39:36 2019,The main experiment item,yes,Sternbergtask.osexp,/Users/KrisBow/Dropbox/GradSchoolTarleton/Fall2019/AdvQuant/Lab3,no,mono,no,18,no,white,no,yes,768,legacy,83,11,/Users/KrisBow/Dropbox/GradSchoolTarleton/Fall2019/AdvQuant/Lab3/KB-subject-3-F18.csv,legacy,7 4 2 8 1 9,Kafkaesque Koffka,3.2.6,0,n,0,right,left,right,right,NA,793,74425,4011,793,NA,2,legacy,6,1024,2,48000,-16,experiment,3,odd,5,1805,653054,654163,1791,154437,654174,230687,150425,656397,659204,655185,658409,76232,658409,NA,Sternberg task,93,63520,96,yes,1024
95.87628866,95.87628866,673.7938144,673.7938144,black,experiment,legacy,legacy,legacy,0,uniform,0,undefined,0,right,0,96,96,0,0,96,96,0,96,96,96,96,0,96,0,Wed Oct 23 07:39:36 2019,The main experiment item,yes,Sternbergtask.osexp,/Users/KrisBow/Dropbox/GradSchoolTarleton/Fall2019/AdvQuant/Lab3,no,mono,no,18,no,white,no,yes,768,legacy,84,11,/Users/KrisBow/Dropbox/GradSchoolTarleton/Fall2019/AdvQuant/Lab3/KB-subject-3-F18.csv,legacy,1 7 5 2,Kafkaesque Koffka,3.2.6,0,n,0,left,left,right,left,NA,1838,74425,4011,1838,NA,2,legacy,4,1024,2,48000,-16,experiment,3,odd,3,1805,659218,660326,1791,154437,660337,230687,150425,662560,666412,661348,664571,76232,664570,NA,Sternberg task,93,65358,97,yes,1024
95.91836735,95.91836735,673.244898,673.244898,black,experiment,legacy,legacy,legacy,0,uniform,1,undefined,1,right,0,97,97,0,0,97,97,0,97,97,97,97,0,97,0,Wed Oct 23 07:39:36 2019,The main experiment item,yes,Sternbergtask.osexp,/Users/KrisBow/Dropbox/GradSchoolTarleton/Fall2019/AdvQuant/Lab3,no,mono,no,18,no,white,no,yes,768,legacy,85,11,/Users/KrisBow/Dropbox/GradSchoolTarleton/Fall2019/AdvQuant/Lab3/KB-subject-3-F18.csv,legacy,1 4 3 6 5,Kafkaesque Koffka,3.2.6,0,n,0,right,left,right,right,NA,620,74425,4011,620,NA,2,legacy,5,1024,2,48000,-16,experiment,3,odd,8,1805,659218,667533,1791,154437,667543,666425,150425,669766,672399,668555,671777,76232,671776,NA,Sternberg task,94,65978,98,yes,1024
95.95959596,95.95959596,674.5252525,674.5252525,black,experiment,legacy,legacy,legacy,0,uniform,1,undefined,1,left,0,98,98,0,0,98,98,0,98,98,98,98,0,98,0,Wed Oct 23 07:39:36 2019,The main experiment item,yes,Sternbergtask.osexp,/Users/KrisBow/Dropbox/GradSchoolTarleton/Fall2019/AdvQuant/Lab3,no,mono,no,18,no,white,no,yes,768,legacy,86,11,/Users/KrisBow/Dropbox/GradSchoolTarleton/Fall2019/AdvQuant/Lab3/KB-subject-3-F18.csv,legacy,4 6 2 5 1,Kafkaesque Koffka,3.2.6,5,y,0,left,left,right,left,NA,800,74425,4011,800,NA,2,legacy,5,1024,2,48000,-16,experiment,3,odd,1,1805,672412,673521,1791,154437,673532,666425,150425,675755,678569,674543,677766,76232,677765,NA,Sternberg task,95,66778,99,yes,1024
96,96,672.77,672.77,black,experiment,legacy,legacy,legacy,0,uniform,1,undefined,1,left,0,99,99,0,0,99,99,0,99,99,99,99,0,99,0,Wed Oct 23 07:39:36 2019,The main experiment item,yes,Sternbergtask.osexp,/Users/KrisBow/Dropbox/GradSchoolTarleton/Fall2019/AdvQuant/Lab3,no,mono,no,18,no,white,no,yes,768,legacy,87,11,/Users/KrisBow/Dropbox/GradSchoolTarleton/Fall2019/AdvQuant/Lab3/KB-subject-3-F18.csv,legacy,4,Kafkaesque Koffka,3.2.6,1,y,0,left,left,right,left,NA,499,74425,4011,499,NA,2,legacy,1,1024,2,48000,-16,experiment,3,odd,4,1805,678582,679690,1791,154437,679701,666425,150425,681924,684436,680712,683935,76232,683935,NA,Sternberg task,96,67277,100,yes,1024
96.03960396,96.03960396,670.6930693,670.6930693,black,experiment,legacy,legacy,legacy,0,uniform,1,undefined,1,right,0,100,100,0,0,100,100,0,100,100,100,100,0,100,0,Wed Oct 23 07:39:36 2019,The main experiment item,yes,Sternbergtask.osexp,/Users/KrisBow/Dropbox/GradSchoolTarleton/Fall2019/AdvQuant/Lab3,no,mono,no,18,no,white,no,yes,768,legacy,88,11,/Users/KrisBow/Dropbox/GradSchoolTarleton/Fall2019/AdvQuant/Lab3/KB-subject-3-F18.csv,legacy,4 1,Kafkaesque Koffka,3.2.6,0,n,0,right,left,right,right,NA,463,74425,4011,463,NA,2,legacy,2,1024,2,48000,-16,experiment,3,odd,6,1805,684449,685558,1791,154437,685569,666425,150425,687793,690270,686580,689804,76232,689804,NA,Sternberg task,97,67740,101,yes,1024
96.07843137,96.07843137,669.5490196,669.5490196,black,experiment,legacy,legacy,legacy,0,uniform,1,undefined,1,right,0,101,101,0,0,101,101,0,101,101,101,101,0,101,0,Wed Oct 23 07:39:36 2019,The main experiment item,yes,Sternbergtask.osexp,/Users/KrisBow/Dropbox/GradSchoolTarleton/Fall2019/AdvQuant/Lab3,no,mono,no,18,no,white,no,yes,768,legacy,89,11,/Users/KrisBow/Dropbox/GradSchoolTarleton/Fall2019/AdvQuant/Lab3/KB-subject-3-F18.csv,legacy,6 9 5,Kafkaesque Koffka,3.2.6,0,n,0,right,left,right,right,NA,554,74425,4011,554,NA,2,legacy,3,1024,2,48000,-16,experiment,3,odd,8,1805,690282,691396,1791,154437,691406,666425,150425,693629,696197,692417,695640,76232,695640,NA,Sternberg task,98,68294,102,yes,1024
96.11650485,96.11650485,670.0970874,670.0970874,black,experiment,legacy,legacy,legacy,0,uniform,1,undefined,1,left,0,102,102,0,0,102,102,0,102,102,102,102,0,102,0,Wed Oct 23 07:39:36 2019,The main experiment item,yes,Sternbergtask.osexp,/Users/KrisBow/Dropbox/GradSchoolTarleton/Fall2019/AdvQuant/Lab3,no,mono,no,18,no,white,no,yes,768,legacy,90,11,/Users/KrisBow/Dropbox/GradSchoolTarleton/Fall2019/AdvQuant/Lab3/KB-subject-3-F18.csv,legacy,7 2 3,Kafkaesque Koffka,3.2.6,3,y,0,left,left,right,left,NA,726,74425,4011,726,NA,2,legacy,3,1024,2,48000,-16,experiment,3,odd,3,1805,696210,697318,1791,154437,697328,666425,150425,699551,702292,698339,701562,76232,701561,NA,Sternberg task,99,69020,103,yes,1024
95.19230769,95.19230769,673.2403846,673.2403846,black,experiment,legacy,legacy,legacy,0,uniform,0,undefined,0,left,0,103,103,0,0,103,103,0,103,103,103,103,0,103,0,Wed Oct 23 07:39:36 2019,The main experiment item,yes,Sternbergtask.osexp,/Users/KrisBow/Dropbox/GradSchoolTarleton/Fall2019/AdvQuant/Lab3,no,mono,no,18,no,white,no,yes,768,legacy,91,11,/Users/KrisBow/Dropbox/GradSchoolTarleton/Fall2019/AdvQuant/Lab3/KB-subject-3-F18.csv,legacy,3 5 9 6 2 4,Kafkaesque Koffka,3.2.6,1,y,0,right,left,right,right,NA,997,74425,4011,997,NA,2,legacy,6,1024,2,48000,-16,experiment,3,odd,3,1805,702307,703418,1791,154437,703428,666425,150425,705651,708662,704439,707662,76232,707661,NA,Sternberg task,99,70017,104,yes,1024
95.23809524,95.23809524,675.2666667,675.2666667,black,experiment,legacy,legacy,legacy,0,uniform,1,undefined,1,right,0,104,104,0,0,104,104,0,104,104,104,104,0,104,0,Wed Oct 23 07:39:36 2019,The main experiment item,yes,Sternbergtask.osexp,/Users/KrisBow/Dropbox/GradSchoolTarleton/Fall2019/AdvQuant/Lab3,no,mono,no,18,no,white,no,yes,768,legacy,92,11,/Users/KrisBow/Dropbox/GradSchoolTarleton/Fall2019/AdvQuant/Lab3/KB-subject-3-F18.csv,legacy,5 7 3,Kafkaesque Koffka,3.2.6,0,n,0,right,left,right,right,NA,886,74425,4011,886,NA,2,legacy,3,1024,2,48000,-16,experiment,3,odd,9,1805,702307,709784,1791,154437,709794,708675,150425,712018,714917,710806,714029,76232,714028,NA,Sternberg task,100,70903,105,yes,1024
95.28301887,95.28301887,678.1886792,678.1886792,black,experiment,legacy,legacy,legacy,0,uniform,1,undefined,1,right,0,105,105,0,0,105,105,0,105,105,105,105,0,105,0,Wed Oct 23 07:39:36 2019,The main experiment item,yes,Sternbergtask.osexp,/Users/KrisBow/Dropbox/GradSchoolTarleton/Fall2019/AdvQuant/Lab3,no,mono,no,18,no,white,no,yes,768,legacy,93,11,/Users/KrisBow/Dropbox/GradSchoolTarleton/Fall2019/AdvQuant/Lab3/KB-subject-3-F18.csv,legacy,1,Kafkaesque Koffka,3.2.6,0,n,0,right,left,right,right,NA,985,74425,4011,985,NA,2,legacy,1,1024,2,48000,-16,experiment,3,odd,7,1805,714930,716044,1791,154437,716055,708675,150425,718279,721278,717066,720290,76232,720290,NA,Sternberg task,101,71888,106,yes,1024
95.3271028,95.3271028,678.7383178,678.7383178,black,experiment,legacy,legacy,legacy,0,uniform,1,undefined,1,right,0,106,106,0,0,106,106,0,106,106,106,106,0,106,0,Wed Oct 23 07:39:36 2019,The main experiment item,yes,Sternbergtask.osexp,/Users/KrisBow/Dropbox/GradSchoolTarleton/Fall2019/AdvQuant/Lab3,no,mono,no,18,no,white,no,yes,768,legacy,94,11,/Users/KrisBow/Dropbox/GradSchoolTarleton/Fall2019/AdvQuant/Lab3/KB-subject-3-F18.csv,legacy,7 1 5 6 3,Kafkaesque Koffka,3.2.6,0,n,0,right,left,right,right,NA,737,74425,4011,737,NA,2,legacy,5,1024,2,48000,-16,experiment,3,odd,8,1805,721291,722400,1791,154437,722411,708675,150425,724634,727385,723422,726645,76232,726645,NA,Sternberg task,102,72625,107,yes,1024
95.37037037,95.37037037,678.2314815,678.2314815,black,experiment,legacy,legacy,legacy,0,uniform,1,undefined,1,right,0,107,107,0,0,107,107,0,107,107,107,107,0,107,0,Wed Oct 23 07:39:36 2019,The main experiment item,yes,Sternbergtask.osexp,/Users/KrisBow/Dropbox/GradSchoolTarleton/Fall2019/AdvQuant/Lab3,no,mono,no,18,no,white,no,yes,768,legacy,95,11,/Users/KrisBow/Dropbox/GradSchoolTarleton/Fall2019/AdvQuant/Lab3/KB-subject-3-F18.csv,legacy,2 8 9 4 1,Kafkaesque Koffka,3.2.6,0,n,0,right,left,right,right,NA,624,74425,4011,624,NA,2,legacy,5,1024,2,48000,-16,experiment,3,odd,5,1805,727397,728508,1791,154437,728519,708675,150425,730742,733381,729530,732753,76232,732753,NA,Sternberg task,103,73249,108,yes,1024
95.41284404,95.41284404,678.4862385,678.4862385,black,experiment,legacy,legacy,legacy,0,uniform,1,undefined,1,right,0,108,108,0,0,108,108,0,108,108,108,108,0,108,0,Wed Oct 23 07:39:36 2019,The main experiment item,yes,Sternbergtask.osexp,/Users/KrisBow/Dropbox/GradSchoolTarleton/Fall2019/AdvQuant/Lab3,no,mono,no,18,no,white,no,yes,768,legacy,96,11,/Users/KrisBow/Dropbox/GradSchoolTarleton/Fall2019/AdvQuant/Lab3/KB-subject-3-F18.csv,legacy,6 8,Kafkaesque Koffka,3.2.6,0,n,0,right,left,right,right,NA,706,74425,4011,706,NA,2,legacy,2,1024,2,48000,-16,experiment,3,odd,9,1805,733393,734500,1791,154437,734511,708675,150425,736734,739453,735522,738745,76232,738745,NA,Sternberg task,104,73955,109,yes,1024
95.45454545,95.45454545,678.6545455,678.6545455,black,experiment,legacy,legacy,legacy,0,uniform,1,undefined,1,left,0,109,109,0,0,109,109,0,109,109,109,109,0,109,0,Wed Oct 23 07:39:36 2019,The main experiment item,yes,Sternbergtask.osexp,/Users/KrisBow/Dropbox/GradSchoolTarleton/Fall2019/AdvQuant/Lab3,no,mono,no,18,no,white,no,yes,768,legacy,97,11,/Users/KrisBow/Dropbox/GradSchoolTarleton/Fall2019/AdvQuant/Lab3/KB-subject-3-F18.csv,legacy,5 2 9 6 1 7,Kafkaesque Koffka,3.2.6,3,y,0,left,left,right,left,NA,697,74425,4011,697,NA,2,legacy,6,1024,2,48000,-16,experiment,3,odd,9,1805,739466,740574,1791,154437,740585,708675,150425,742807,745518,741595,744818,76232,744818,NA,Sternberg task,105,74652,110,yes,1024
95.4954955,95.4954955,679.963964,679.963964,black,experiment,legacy,legacy,legacy,0,uniform,1,undefined,1,left,0,110,110,0,0,110,110,0,110,110,110,110,0,110,0,Wed Oct 23 07:39:36 2019,The main experiment item,yes,Sternbergtask.osexp,/Users/KrisBow/Dropbox/GradSchoolTarleton/Fall2019/AdvQuant/Lab3,no,mono,no,18,no,white,no,yes,768,legacy,98,11,/Users/KrisBow/Dropbox/GradSchoolTarleton/Fall2019/AdvQuant/Lab3/KB-subject-3-F18.csv,legacy,6 7 8 5,Kafkaesque Koffka,3.2.6,3,y,0,left,left,right,left,NA,824,74425,4011,824,NA,2,legacy,4,1024,2,48000,-16,experiment,3,odd,8,1805,745533,746640,1791,154437,746651,708675,150425,748873,751710,747662,750884,76232,750884,NA,Sternberg task,106,75476,111,yes,1024
95.53571429,95.53571429,682.8482143,682.8482143,black,experiment,legacy,legacy,legacy,0,uniform,1,undefined,1,left,0,111,111,0,0,111,111,0,111,111,111,111,0,111,0,Wed Oct 23 07:39:36 2019,The main experiment item,yes,Sternbergtask.osexp,/Users/KrisBow/Dropbox/GradSchoolTarleton/Fall2019/AdvQuant/Lab3,no,mono,no,18,no,white,no,yes,768,legacy,99,11,/Users/KrisBow/Dropbox/GradSchoolTarleton/Fall2019/AdvQuant/Lab3/KB-subject-3-F18.csv,legacy,2 6 1 7 4,Kafkaesque Koffka,3.2.6,2,y,0,left,left,right,left,NA,1003,74425,4011,1003,NA,2,legacy,5,1024,2,48000,-16,experiment,3,odd,6,1805,751723,752831,1791,154437,752842,708675,150425,755066,758083,753854,757077,76232,757077,NA,Sternberg task,107,76479,112,yes,1024
95.57522124,95.57522124,682.4513274,682.4513274,black,experiment,legacy,legacy,legacy,0,uniform,1,undefined,1,right,0,112,112,0,0,112,112,0,112,112,112,112,0,112,0,Wed Oct 23 07:39:36 2019,The main experiment item,yes,Sternbergtask.osexp,/Users/KrisBow/Dropbox/GradSchoolTarleton/Fall2019/AdvQuant/Lab3,no,mono,no,18,no,white,no,yes,768,legacy,100,11,/Users/KrisBow/Dropbox/GradSchoolTarleton/Fall2019/AdvQuant/Lab3/KB-subject-3-F18.csv,legacy,9,Kafkaesque Koffka,3.2.6,0,n,0,right,left,right,right,NA,638,74425,4011,638,NA,2,legacy,1,1024,2,48000,-16,experiment,3,odd,6,1805,758096,759204,1791,154437,759214,708675,150425,761437,764090,760225,763449,76232,763449,NA,Sternberg task,108,77117,113,yes,1024
95.61403509,95.61403509,681.7105263,681.7105263,black,experiment,legacy,legacy,legacy,0,uniform,1,undefined,1,right,0,113,113,0,0,113,113,0,113,113,113,113,0,113,0,Wed Oct 23 07:39:36 2019,The main experiment item,yes,Sternbergtask.osexp,/Users/KrisBow/Dropbox/GradSchoolTarleton/Fall2019/AdvQuant/Lab3,no,mono,no,18,no,white,no,yes,768,legacy,101,11,/Users/KrisBow/Dropbox/GradSchoolTarleton/Fall2019/AdvQuant/Lab3/KB-subject-3-F18.csv,legacy,1 7 8 3 9,Kafkaesque Koffka,3.2.6,0,n,0,right,left,right,right,NA,598,74425,4011,598,NA,2,legacy,5,1024,2,48000,-16,experiment,3,odd,2,1805,764103,765212,1791,154437,765223,708675,150425,767444,770057,766234,769456,76232,769455,NA,Sternberg task,109,77715,114,yes,1024
95.65217391,95.65217391,685.5652174,685.5652174,black,experiment,legacy,legacy,legacy,0,uniform,1,undefined,1,right,0,114,114,0,0,114,114,0,114,114,114,114,0,114,0,Wed Oct 23 07:39:36 2019,The main experiment item,yes,Sternbergtask.osexp,/Users/KrisBow/Dropbox/GradSchoolTarleton/Fall2019/AdvQuant/Lab3,no,mono,no,18,no,white,no,yes,768,legacy,102,11,/Users/KrisBow/Dropbox/GradSchoolTarleton/Fall2019/AdvQuant/Lab3/KB-subject-3-F18.csv,legacy,1 8 7,Kafkaesque Koffka,3.2.6,0,n,0,right,left,right,right,NA,1125,74425,4011,1125,NA,2,legacy,3,1024,2,48000,-16,experiment,3,odd,4,1805,770070,771181,1791,154437,771194,708675,150425,773418,776557,772205,775429,76232,775429,NA,Sternberg task,110,78840,115,yes,1024
95.68965517,95.68965517,685.2931034,685.2931034,black,experiment,legacy,legacy,legacy,0,uniform,1,undefined,1,right,0,115,115,0,0,115,115,0,115,115,115,115,0,115,0,Wed Oct 23 07:39:36 2019,The main experiment item,yes,Sternbergtask.osexp,/Users/KrisBow/Dropbox/GradSchoolTarleton/Fall2019/AdvQuant/Lab3,no,mono,no,18,no,white,no,yes,768,legacy,103,11,/Users/KrisBow/Dropbox/GradSchoolTarleton/Fall2019/AdvQuant/Lab3/KB-subject-3-F18.csv,legacy,7 1 8 4 9 3,Kafkaesque Koffka,3.2.6,0,n,0,right,left,right,right,NA,654,74425,4011,654,NA,2,legacy,6,1024,2,48000,-16,experiment,3,odd,6,1805,776570,777679,1791,154437,777690,708675,150425,779913,782580,778700,781924,76232,781924,NA,Sternberg task,111,79494,116,yes,1024
95.72649573,95.72649573,686.982906,686.982906,black,experiment,legacy,legacy,legacy,0,uniform,1,undefined,1,right,0,116,116,0,0,116,116,0,116,116,116,116,0,116,0,Wed Oct 23 07:39:36 2019,The main experiment item,yes,Sternbergtask.osexp,/Users/KrisBow/Dropbox/GradSchoolTarleton/Fall2019/AdvQuant/Lab3,no,mono,no,18,no,white,no,yes,768,legacy,104,11,/Users/KrisBow/Dropbox/GradSchoolTarleton/Fall2019/AdvQuant/Lab3/KB-subject-3-F18.csv,legacy,7 9,Kafkaesque Koffka,3.2.6,0,n,0,right,left,right,right,NA,883,74425,4011,883,NA,2,legacy,2,1024,2,48000,-16,experiment,3,odd,1,1805,782593,783701,1791,154437,783711,708675,150425,785936,788833,784723,787947,76232,787947,NA,Sternberg task,112,80377,117,yes,1024
95.76271186,95.76271186,687.779661,687.779661,black,experiment,legacy,legacy,legacy,0,uniform,1,undefined,1,left,0,117,117,0,0,117,117,0,117,117,117,117,0,117,0,Wed Oct 23 07:39:36 2019,The main experiment item,yes,Sternbergtask.osexp,/Users/KrisBow/Dropbox/GradSchoolTarleton/Fall2019/AdvQuant/Lab3,no,mono,no,18,no,white,no,yes,768,legacy,105,11,/Users/KrisBow/Dropbox/GradSchoolTarleton/Fall2019/AdvQuant/Lab3/KB-subject-3-F18.csv,legacy,6 9 7 4 5 1,Kafkaesque Koffka,3.2.6,2,y,0,left,left,right,left,NA,781,74425,4011,781,NA,2,legacy,6,1024,2,48000,-16,experiment,3,odd,9,1805,788847,789964,1791,154437,789976,708675,150425,792200,794998,790987,794211,76232,794211,NA,Sternberg task,113,81158,118,yes,1024
95.79831933,95.79831933,687.8067227,687.8067227,black,experiment,legacy,legacy,legacy,0,uniform,1,undefined,1,left,0,118,118,0,0,118,118,0,118,118,118,118,0,118,0,Wed Oct 23 07:39:36 2019,The main experiment item,yes,Sternbergtask.osexp,/Users/KrisBow/Dropbox/GradSchoolTarleton/Fall2019/AdvQuant/Lab3,no,mono,no,18,no,white,no,yes,768,legacy,106,11,/Users/KrisBow/Dropbox/GradSchoolTarleton/Fall2019/AdvQuant/Lab3/KB-subject-3-F18.csv,legacy,9 3 8 2 1 4,Kafkaesque Koffka,3.2.6,3,y,0,left,left,right,left,NA,691,74425,4011,691,NA,2,legacy,6,1024,2,48000,-16,experiment,3,odd,8,1805,795010,796121,1791,154437,796131,708675,150425,798356,801061,797143,800367,76232,800367,NA,Sternberg task,114,81849,119,yes,1024
95.83333333,95.83333333,687.375,687.375,black,experiment,legacy,legacy,legacy,0,uniform,1,undefined,1,left,0,119,119,0,0,119,119,0,119,119,119,119,0,119,0,Wed Oct 23 07:39:36 2019,The main experiment item,yes,Sternbergtask.osexp,/Users/KrisBow/Dropbox/GradSchoolTarleton/Fall2019/AdvQuant/Lab3,no,mono,no,18,no,white,no,yes,768,legacy,107,11,/Users/KrisBow/Dropbox/GradSchoolTarleton/Fall2019/AdvQuant/Lab3/KB-subject-3-F18.csv,legacy,9 1 6 7 8,Kafkaesque Koffka,3.2.6,1,y,0,left,left,right,left,NA,636,74425,4011,636,NA,2,legacy,5,1024,2,48000,-16,experiment,3,odd,9,1805,801074,802183,1791,154437,802194,708675,150425,804417,807068,803205,806428,76232,806427,NA,Sternberg task,115,82485,120,yes,1024
95.8677686,95.8677686,687.1570248,687.1570248,black,experiment,legacy,legacy,legacy,0,uniform,1,undefined,1,right,0,120,120,0,0,120,120,0,120,120,120,120,0,120,0,Wed Oct 23 07:39:36 2019,The main experiment item,yes,Sternbergtask.osexp,/Users/KrisBow/Dropbox/GradSchoolTarleton/Fall2019/AdvQuant/Lab3,no,mono,no,18,no,white,no,yes,768,legacy,108,11,/Users/KrisBow/Dropbox/GradSchoolTarleton/Fall2019/AdvQuant/Lab3/KB-subject-3-F18.csv,legacy,6 8 4,Kafkaesque Koffka,3.2.6,0,n,0,right,left,right,right,NA,661,74425,4011,661,NA,2,legacy,3,1024,2,48000,-16,experiment,3,odd,1,1805,807081,808194,1791,154437,808204,708675,150425,810428,813104,809216,812439,76232,812439,NA,Sternberg task,116,83146,121,yes,1024
95.90163934,95.90163934,686.3770492,686.3770492,black,experiment,legacy,legacy,legacy,0,uniform,1,undefined,1,left,0,121,121,0,0,121,121,0,121,121,121,121,0,121,0,Wed Oct 23 07:39:36 2019,The main experiment item,yes,Sternbergtask.osexp,/Users/KrisBow/Dropbox/GradSchoolTarleton/Fall2019/AdvQuant/Lab3,no,mono,no,18,no,white,no,yes,768,legacy,109,11,/Users/KrisBow/Dropbox/GradSchoolTarleton/Fall2019/AdvQuant/Lab3/KB-subject-3-F18.csv,legacy,2 5 4 8 7,Kafkaesque Koffka,3.2.6,3,y,0,left,left,right,left,NA,592,74425,4011,592,NA,2,legacy,5,1024,2,48000,-16,experiment,3,odd,4,1805,813123,814233,1791,154437,814244,708675,150425,816467,819073,815255,818478,76232,818477,NA,Sternberg task,117,83738,122,yes,1024
95.93495935,95.93495935,686.1626016,686.1626016,black,experiment,legacy,legacy,legacy,0,uniform,1,undefined,1,right,0,122,122,0,0,122,122,0,122,122,122,122,0,122,0,Wed Oct 23 07:39:36 2019,The main experiment item,yes,Sternbergtask.osexp,/Users/KrisBow/Dropbox/GradSchoolTarleton/Fall2019/AdvQuant/Lab3,no,mono,no,18,no,white,no,yes,768,legacy,110,11,/Users/KrisBow/Dropbox/GradSchoolTarleton/Fall2019/AdvQuant/Lab3/KB-subject-3-F18.csv,legacy,7 6 4 8 1 2,Kafkaesque Koffka,3.2.6,0,n,0,right,left,right,right,NA,660,74425,4011,660,NA,2,legacy,6,1024,2,48000,-16,experiment,3,odd,9,1805,819086,820197,1791,154437,820207,708675,150425,822429,825103,821218,824440,76232,824440,NA,Sternberg task,118,84398,123,yes,1024
95.96774194,95.96774194,684.7258065,684.7258065,black,experiment,legacy,legacy,legacy,0,uniform,1,undefined,1,left,0,123,123,0,0,123,123,0,123,123,123,123,0,123,0,Wed Oct 23 07:39:36 2019,The main experiment item,yes,Sternbergtask.osexp,/Users/KrisBow/Dropbox/GradSchoolTarleton/Fall2019/AdvQuant/Lab3,no,mono,no,18,no,white,no,yes,768,legacy,111,11,/Users/KrisBow/Dropbox/GradSchoolTarleton/Fall2019/AdvQuant/Lab3/KB-subject-3-F18.csv,legacy,3 9 6 2,Kafkaesque Koffka,3.2.6,4,y,0,left,left,right,left,NA,508,74425,4011,508,NA,2,legacy,4,1024,2,48000,-16,experiment,3,odd,2,1805,825116,826225,1791,154437,826236,708675,150425,828459,830982,827247,830470,76232,830470,NA,Sternberg task,119,84906,124,yes,1024
96,96,683.664,683.664,black,experiment,legacy,legacy,legacy,0,uniform,1,undefined,1,left,0,124,124,0,0,124,124,0,124,124,124,124,0,124,0,Wed Oct 23 07:39:36 2019,The main experiment item,yes,Sternbergtask.osexp,/Users/KrisBow/Dropbox/GradSchoolTarleton/Fall2019/AdvQuant/Lab3,no,mono,no,18,no,white,no,yes,768,legacy,112,11,/Users/KrisBow/Dropbox/GradSchoolTarleton/Fall2019/AdvQuant/Lab3/KB-subject-3-F18.csv,legacy,2 3,Kafkaesque Koffka,3.2.6,1,y,0,left,left,right,left,NA,552,74425,4011,552,NA,2,legacy,2,1024,2,48000,-16,experiment,3,odd,2,1805,830996,832123,1791,154437,832135,708675,150425,834360,836927,833148,836372,76232,836372,NA,Sternberg task,120,85458,125,yes,1024
96.03174603,96.03174603,685.2301587,685.2301587,black,experiment,legacy,legacy,legacy,0,uniform,1,undefined,1,right,0,125,125,0,0,125,125,0,125,125,125,125,0,125,0,Wed Oct 23 07:39:36 2019,The main experiment item,yes,Sternbergtask.osexp,/Users/KrisBow/Dropbox/GradSchoolTarleton/Fall2019/AdvQuant/Lab3,no,mono,no,18,no,white,no,yes,768,legacy,113,11,/Users/KrisBow/Dropbox/GradSchoolTarleton/Fall2019/AdvQuant/Lab3/KB-subject-3-F18.csv,legacy,8 2 1 4 5 9,Kafkaesque Koffka,3.2.6,0,n,0,right,left,right,right,NA,881,74425,4011,881,NA,2,legacy,6,1024,2,48000,-16,experiment,3,odd,7,1805,836939,838048,1791,154437,838059,708675,150425,840283,843178,839070,842294,76232,842294,NA,Sternberg task,121,86339,126,yes,1024
96.06299213,96.06299213,688.9055118,688.9055118,black,experiment,legacy,legacy,legacy,0,uniform,1,undefined,1,right,0,126,126,0,0,126,126,0,126,126,126,126,0,126,0,Wed Oct 23 07:39:36 2019,The main experiment item,yes,Sternbergtask.osexp,/Users/KrisBow/Dropbox/GradSchoolTarleton/Fall2019/AdvQuant/Lab3,no,mono,no,18,no,white,no,yes,768,legacy,114,11,/Users/KrisBow/Dropbox/GradSchoolTarleton/Fall2019/AdvQuant/Lab3/KB-subject-3-F18.csv,legacy,5 3 2 6 9 8,Kafkaesque Koffka,3.2.6,0,n,0,right,left,right,right,NA,1152,74425,4011,1152,NA,2,legacy,6,1024,2,48000,-16,experiment,3,odd,4,1805,843191,844299,1791,154437,844310,708675,150425,846536,849701,845321,848547,76232,848547,NA,Sternberg task,122,87491,127,yes,1024
96.09375,96.09375,688.28125,688.28125,black,experiment,legacy,legacy,legacy,0,uniform,1,undefined,1,right,0,127,127,0,0,127,127,0,127,127,127,127,0,127,0,Wed Oct 23 07:39:36 2019,The main experiment item,yes,Sternbergtask.osexp,/Users/KrisBow/Dropbox/GradSchoolTarleton/Fall2019/AdvQuant/Lab3,no,mono,no,18,no,white,no,yes,768,legacy,115,11,/Users/KrisBow/Dropbox/GradSchoolTarleton/Fall2019/AdvQuant/Lab3/KB-subject-3-F18.csv,legacy,4 2 7 6 1 3,Kafkaesque Koffka,3.2.6,0,n,0,right,left,right,right,NA,609,74425,4011,609,NA,2,legacy,6,1024,2,48000,-16,experiment,3,odd,8,1805,849714,850822,1791,154437,850832,708675,150425,853053,855677,851843,855065,76232,855065,NA,Sternberg task,123,88100,128,yes,1024
96.12403101,96.12403101,687.1317829,687.1317829,black,experiment,legacy,legacy,legacy,0,uniform,1,undefined,1,left,0,128,128,0,0,128,128,0,128,128,128,128,0,128,0,Wed Oct 23 07:39:36 2019,The main experiment item,yes,Sternbergtask.osexp,/Users/KrisBow/Dropbox/GradSchoolTarleton/Fall2019/AdvQuant/Lab3,no,mono,no,18,no,white,no,yes,768,legacy,116,11,/Users/KrisBow/Dropbox/GradSchoolTarleton/Fall2019/AdvQuant/Lab3/KB-subject-3-F18.csv,legacy,3 2 1 4 7,Kafkaesque Koffka,3.2.6,2,y,0,left,left,right,left,NA,540,74425,4011,540,NA,2,legacy,5,1024,2,48000,-16,experiment,3,odd,2,1805,855692,856805,1791,154437,856817,708675,150425,859039,861593,857828,861050,76232,861050,NA,Sternberg task,124,88640,129,yes,1024
96.15384615,96.15384615,685.7076923,685.7076923,black,experiment,legacy,legacy,legacy,0,uniform,1,undefined,1,left,0,129,129,0,0,129,129,0,129,129,129,129,0,129,0,Wed Oct 23 07:39:36 2019,The main experiment item,yes,Sternbergtask.osexp,/Users/KrisBow/Dropbox/GradSchoolTarleton/Fall2019/AdvQuant/Lab3,no,mono,no,18,no,white,no,yes,768,legacy,117,11,/Users/KrisBow/Dropbox/GradSchoolTarleton/Fall2019/AdvQuant/Lab3/KB-subject-3-F18.csv,legacy,3 4,Kafkaesque Koffka,3.2.6,1,y,0,left,left,right,left,NA,502,74425,4011,502,NA,2,legacy,2,1024,2,48000,-16,experiment,3,odd,3,1805,861606,862714,1791,154437,862725,708675,150425,864948,867464,863736,866959,76232,866959,NA,Sternberg task,125,89142,130,yes,1024
96.18320611,96.18320611,686.351145,686.351145,black,experiment,legacy,legacy,legacy,0,uniform,1,undefined,1,left,0,130,130,0,0,130,130,0,130,130,130,130,0,130,0,Wed Oct 23 07:39:36 2019,The main experiment item,yes,Sternbergtask.osexp,/Users/KrisBow/Dropbox/GradSchoolTarleton/Fall2019/AdvQuant/Lab3,no,mono,no,18,no,white,no,yes,768,legacy,118,11,/Users/KrisBow/Dropbox/GradSchoolTarleton/Fall2019/AdvQuant/Lab3/KB-subject-3-F18.csv,legacy,6 5,Kafkaesque Koffka,3.2.6,2,y,0,left,left,right,left,NA,770,74425,4011,770,NA,2,legacy,2,1024,2,48000,-16,experiment,3,odd,5,1805,867477,868585,1791,154437,868596,708675,150425,870819,873604,869607,872831,76232,872831,NA,Sternberg task,126,89912,131,yes,1024
96.21212121,96.21212121,686.6136364,686.6136364,black,experiment,legacy,legacy,legacy,0,uniform,1,undefined,1,right,0,131,131,0,0,131,131,0,131,131,131,131,0,131,0,Wed Oct 23 07:39:36 2019,The main experiment item,yes,Sternbergtask.osexp,/Users/KrisBow/Dropbox/GradSchoolTarleton/Fall2019/AdvQuant/Lab3,no,mono,no,18,no,white,no,yes,768,legacy,119,11,/Users/KrisBow/Dropbox/GradSchoolTarleton/Fall2019/AdvQuant/Lab3/KB-subject-3-F18.csv,legacy,2 8 6 3 1,Kafkaesque Koffka,3.2.6,0,n,0,right,left,right,right,NA,721,74425,4011,721,NA,2,legacy,5,1024,2,48000,-16,experiment,3,odd,7,1805,873617,874726,1791,154437,874737,708675,150425,876960,879695,875748,878971,76232,878970,NA,Sternberg task,127,90633,132,yes,1024
96.2406015,96.2406015,688.2330827,688.2330827,black,experiment,legacy,legacy,legacy,0,uniform,1,undefined,1,right,0,132,132,0,0,132,132,0,132,132,132,132,0,132,0,Wed Oct 23 07:39:36 2019,The main experiment item,yes,Sternbergtask.osexp,/Users/KrisBow/Dropbox/GradSchoolTarleton/Fall2019/AdvQuant/Lab3,no,mono,no,18,no,white,no,yes,768,legacy,120,11,/Users/KrisBow/Dropbox/GradSchoolTarleton/Fall2019/AdvQuant/Lab3/KB-subject-3-F18.csv,legacy,2 8 7 9 5 3,Kafkaesque Koffka,3.2.6,0,n,0,right,left,right,right,NA,902,74425,4011,902,NA,2,legacy,6,1024,2,48000,-16,experiment,3,odd,6,1805,879708,880817,1791,154437,880827,708675,150425,883050,885965,881838,885061,76232,885061,NA,Sternberg task,128,91535,133,yes,1024
96.26865672,96.26865672,688.8731343,688.8731343,black,experiment,legacy,legacy,legacy,0,uniform,1,undefined,1,left,0,133,133,0,0,133,133,0,133,133,133,133,0,133,0,Wed Oct 23 07:39:36 2019,The main experiment item,yes,Sternbergtask.osexp,/Users/KrisBow/Dropbox/GradSchoolTarleton/Fall2019/AdvQuant/Lab3,no,mono,no,18,no,white,no,yes,768,legacy,121,11,/Users/KrisBow/Dropbox/GradSchoolTarleton/Fall2019/AdvQuant/Lab3/KB-subject-3-F18.csv,legacy,8 5 1 3 9,Kafkaesque Koffka,3.2.6,4,y,0,left,left,right,left,NA,774,74425,4011,774,NA,2,legacy,5,1024,2,48000,-16,experiment,3,odd,3,1805,885978,887088,1791,154437,887099,708675,150425,889323,892111,888110,891334,76232,891334,NA,Sternberg task,129,92309,134,yes,1024
96.2962963,96.2962963,688.8962963,688.8962963,black,experiment,legacy,legacy,legacy,0,uniform,1,undefined,1,right,0,134,134,0,0,134,134,0,134,134,134,134,0,134,0,Wed Oct 23 07:39:36 2019,The main experiment item,yes,Sternbergtask.osexp,/Users/KrisBow/Dropbox/GradSchoolTarleton/Fall2019/AdvQuant/Lab3,no,mono,no,18,no,white,no,yes,768,legacy,122,11,/Users/KrisBow/Dropbox/GradSchoolTarleton/Fall2019/AdvQuant/Lab3/KB-subject-3-F18.csv,legacy,1 7 5 2 9,Kafkaesque Koffka,3.2.6,0,n,0,right,left,right,right,NA,692,74425,4011,692,NA,2,legacy,5,1024,2,48000,-16,experiment,3,odd,3,1805,892124,893256,1791,154437,893267,708675,150425,895489,898195,894277,897500,76232,897500,NA,Sternberg task,130,93001,135,yes,1024
96.32352941,96.32352941,688.5882353,688.5882353,black,experiment,legacy,legacy,legacy,0,uniform,1,undefined,1,right,0,135,135,0,0,135,135,0,135,135,135,135,0,135,0,Wed Oct 23 07:39:36 2019,The main experiment item,yes,Sternbergtask.osexp,/Users/KrisBow/Dropbox/GradSchoolTarleton/Fall2019/AdvQuant/Lab3,no,mono,no,18,no,white,no,yes,768,legacy,123,11,/Users/KrisBow/Dropbox/GradSchoolTarleton/Fall2019/AdvQuant/Lab3/KB-subject-3-F18.csv,legacy,2 8 9,Kafkaesque Koffka,3.2.6,0,n,0,right,left,right,right,NA,647,74425,4011,647,NA,2,legacy,3,1024,2,48000,-16,experiment,3,odd,6,1805,898208,899316,1791,154437,899327,708675,150425,901549,904212,900338,903560,76232,903559,NA,Sternberg task,131,93648,136,yes,1024
96.35036496,96.35036496,688.3065693,688.3065693,black,experiment,legacy,legacy,legacy,0,uniform,1,undefined,1,right,0,136,136,0,0,136,136,0,136,136,136,136,0,136,0,Wed Oct 23 07:39:36 2019,The main experiment item,yes,Sternbergtask.osexp,/Users/KrisBow/Dropbox/GradSchoolTarleton/Fall2019/AdvQuant/Lab3,no,mono,no,18,no,white,no,yes,768,legacy,124,11,/Users/KrisBow/Dropbox/GradSchoolTarleton/Fall2019/AdvQuant/Lab3/KB-subject-3-F18.csv,legacy,6 7 5 9,Kafkaesque Koffka,3.2.6,0,n,0,right,left,right,right,NA,650,74425,4011,650,NA,2,legacy,4,1024,2,48000,-16,experiment,3,odd,2,1805,904225,905334,1791,154437,905345,708675,150425,907570,910234,906357,909581,76232,909581,NA,Sternberg task,132,94298,137,yes,1024
96.37681159,96.37681159,689.2826087,689.2826087,black,experiment,legacy,legacy,legacy,0,uniform,1,undefined,1,right,0,137,137,0,0,137,137,0,137,137,137,137,0,137,0,Wed Oct 23 07:39:36 2019,The main experiment item,yes,Sternbergtask.osexp,/Users/KrisBow/Dropbox/GradSchoolTarleton/Fall2019/AdvQuant/Lab3,no,mono,no,18,no,white,no,yes,768,legacy,125,11,/Users/KrisBow/Dropbox/GradSchoolTarleton/Fall2019/AdvQuant/Lab3/KB-subject-3-F18.csv,legacy,8 5 7 3 6,Kafkaesque Koffka,3.2.6,0,n,0,right,left,right,right,NA,823,74425,4011,823,NA,2,legacy,5,1024,2,48000,-16,experiment,3,odd,9,1805,910248,911357,1791,154437,911368,708675,150425,913590,916429,912379,915601,76232,915600,NA,Sternberg task,133,95121,138,yes,1024