"acc","accuracy","average_response_time","avg_rt","background","block","canvas_backend","clock_backend","color_backend","correct","correct_Instruction1","correct_new_keyboard_response","correct_response","count_ISI","count_Instruction1","count_ThankYou","count_correctFeedback","count_expSequence","count_experiment","count_experimentLoop","count_fixation","count_incorrectFeedback","count_instructions2","count_memorySet","count_new_keyboard_response","count_new_logger","count_practiceloop","count_probe","datetime","description","disable_garbage_collection","experiment_file","experiment_path","font_bold","font_family","font_italic","font_size","font_underline","foreground","form_clicks","fullscreen","height","keyboard_backend","live_row","live_row_practiceloop","logfile","mouse_backend","numberSet","opensesame_codename","opensesame_version","posInSet","present","repeat_cycle","response","response_Instruction1","response_ThankYou","response_instructions2","response_new_keyboard_response","response_time","response_time_Instruction1","response_time_ThankYou","response_time_instructions2","response_time_new_keyboard_response","round_decimals","sampler_backend","setSize","sound_buf_size","sound_channels","sound_freq","sound_sample_size","start","subject_nr","subject_parity","target","time_ISI","time_Instruction1","time_ThankYou","time_correctFeedback","time_expSequence","time_experiment","time_experimentLoop","time_fixation","time_incorrectFeedback","time_instructions2","time_memorySet","time_new_keyboard_response","time_new_logger","time_practiceloop","time_probe","title","total_correct","total_response_time","total_responses","width"
"100","100","529","529","#3d3846","practice","legacy","legacy","legacy","1","undefined","1","right","0","0","0","0","0","0","0","0","0","0","0","0","0","0","0","Sun Oct 15 18:00:54 2023","The main experiment item","True","Sternberg Task Elizabeth McGibbon .osexp","/Users/izzymcgibbon/Desktop/College/Tarleton State /2023 /Fall /Stats /3.0 ","False","mono","False","18","no","white","no","yes","768","legacy","0","0","/Users/izzymcgibbon/Desktop/College/Tarleton State /2023 /Fall /Stats /3.0 /EWMsubject-4.csv","legacy","2 1","Melodramatic Milgram","4.0.5","0","n","0","right","left","NA","NA","right","529.0","12421","NA","NA","529","2","legacy","2","1024","2","48000","-16","experiment","4","even","5","17526","2568","NA","NA","15317","2431","NA","15321","NA","NA","16324","19529","20058","15016","19529","New experiment","1","529.0","1","1024"
"100","100","676","676","#3d3846","practice","legacy","legacy","legacy","1","undefined","1","left","1","0","0","1","1","0","0","1","1","0","1","1","1","0","1","Sun Oct 15 18:00:54 2023","The main experiment item","True","Sternberg Task Elizabeth McGibbon .osexp","/Users/izzymcgibbon/Desktop/College/Tarleton State /2023 /Fall /Stats /3.0 ","False","mono","False","18","no","white","no","yes","768","legacy","1","1","/Users/izzymcgibbon/Desktop/College/Tarleton State /2023 /Fall /Stats /3.0 /EWMsubject-4.csv","legacy","1 7 9 8 5","Melodramatic Milgram","4.0.5","4","y","0","left","left","NA","NA","left","824.0","12421","NA","NA","824","2","legacy","5","1024","2","48000","-16","experiment","4","even","8","23353","2568","NA","20092","21146","2431","NA","21149","NA","NA","22151","25356","26180","15016","25356","New experiment","2","1353.0","2","1024"
"100","100","1024","1024","#3d3846","practice","legacy","legacy","legacy","1","undefined","1","left","2","0","0","2","2","0","0","2","2","0","2","2","2","0","2","Sun Oct 15 18:00:54 2023","The main experiment item","True","Sternberg Task Elizabeth McGibbon .osexp","/Users/izzymcgibbon/Desktop/College/Tarleton State /2023 /Fall /Stats /3.0 ","False","mono","False","18","no","white","no","yes","768","legacy","2","2","/Users/izzymcgibbon/Desktop/College/Tarleton State /2023 /Fall /Stats /3.0 /EWMsubject-4.csv","legacy","6","Melodramatic Milgram","4.0.5","1","y","0","left","left","NA","NA","left","1719.0","12421","NA","NA","1719","2","legacy","1","1024","2","48000","-16","experiment","4","even","6","29442","2568","NA","26184","27235","2431","NA","27237","NA","NA","28239","31445","33168","15016","31444","New experiment","3","3072.0","3","1024"
"100","100","894","894","#3d3846","practice","legacy","legacy","legacy","1","undefined","1","right","3","0","0","3","3","0","0","3","3","0","3","3","3","0","3","Sun Oct 15 18:00:54 2023","The main experiment item","True","Sternberg Task Elizabeth McGibbon .osexp","/Users/izzymcgibbon/Desktop/College/Tarleton State /2023 /Fall /Stats /3.0 ","False","mono","False","18","no","white","no","yes","768","legacy","3","3","/Users/izzymcgibbon/Desktop/College/Tarleton State /2023 /Fall /Stats /3.0 /EWMsubject-4.csv","legacy","5","Melodramatic Milgram","4.0.5","0","n","0","right","left","NA","NA","right","507.0","12421","NA","NA","507","2","legacy","1","1024","2","48000","-16","experiment","4","even","3","36436","2568","NA","33171","34227","2431","NA","34229","NA","NA","35233","38439","38947","15016","38438","New experiment","4","3579.0","4","1024"
"100","100","922","922","#3d3846","practice","legacy","legacy","legacy","1","undefined","1","right","4","0","0","4","4","0","0","4","4","0","4","4","4","0","4","Sun Oct 15 18:00:54 2023","The main experiment item","True","Sternberg Task Elizabeth McGibbon .osexp","/Users/izzymcgibbon/Desktop/College/Tarleton State /2023 /Fall /Stats /3.0 ","False","mono","False","18","no","white","no","yes","768","legacy","4","4","/Users/izzymcgibbon/Desktop/College/Tarleton State /2023 /Fall /Stats /3.0 /EWMsubject-4.csv","legacy","3 1 9 4","Melodramatic Milgram","4.0.5","0","n","0","right","left","NA","NA","right","1035.0","12421","NA","NA","1035","2","legacy","4","1024","2","48000","-16","experiment","4","even","6","42206","2568","NA","38950","40000","2431","NA","40002","NA","NA","41004","44209","45245","15016","44209","New experiment","5","4614.0","5","1024"
"100","100","923","923","#3d3846","practice","legacy","legacy","legacy","1","undefined","1","left","5","0","0","5","5","0","0","5","5","0","5","5","5","0","5","Sun Oct 15 18:00:54 2023","The main experiment item","True","Sternberg Task Elizabeth McGibbon .osexp","/Users/izzymcgibbon/Desktop/College/Tarleton State /2023 /Fall /Stats /3.0 ","False","mono","False","18","no","white","no","yes","768","legacy","5","5","/Users/izzymcgibbon/Desktop/College/Tarleton State /2023 /Fall /Stats /3.0 /EWMsubject-4.csv","legacy","4 8","Melodramatic Milgram","4.0.5","1","y","0","left","left","NA","NA","left","925.0","12421","NA","NA","925","2","legacy","2","1024","2","48000","-16","experiment","4","even","4","48506","2568","NA","45248","46298","2431","NA","46301","NA","NA","47304","50509","51435","15016","50508","New experiment","6","5539.0","6","1024"
"85","85","873","873","#3d3846","practice","legacy","legacy","legacy","0","undefined","0","left","6","0","0","6","6","0","0","6","6","0","6","6","6","0","6","Sun Oct 15 18:00:54 2023","The main experiment item","True","Sternberg Task Elizabeth McGibbon .osexp","/Users/izzymcgibbon/Desktop/College/Tarleton State /2023 /Fall /Stats /3.0 ","False","mono","False","18","no","white","no","yes","768","legacy","6","6","/Users/izzymcgibbon/Desktop/College/Tarleton State /2023 /Fall /Stats /3.0 /EWMsubject-4.csv","legacy","4 3 1 7 9 8","Melodramatic Milgram","4.0.5","1","y","0","right","left","NA","NA","right","576.0","12421","NA","NA","576","2","legacy","6","1024","2","48000","-16","experiment","4","even","4","54708","2568","NA","51439","52501","2431","NA","52503","NA","NA","53505","56711","57288","15016","56710","New experiment","6","6115.0","7","1024"
"87","87","962","962","#3d3846","practice","legacy","legacy","legacy","1","undefined","1","left","7","0","0","7","7","0","0","7","7","0","7","7","7","0","7","Sun Oct 15 18:00:54 2023","The main experiment item","True","Sternberg Task Elizabeth McGibbon .osexp","/Users/izzymcgibbon/Desktop/College/Tarleton State /2023 /Fall /Stats /3.0 ","False","mono","False","18","no","white","no","yes","768","legacy","7","7","/Users/izzymcgibbon/Desktop/College/Tarleton State /2023 /Fall /Stats /3.0 /EWMsubject-4.csv","legacy","2 9 4","Melodramatic Milgram","4.0.5","3","y","0","left","left","NA","NA","left","1584.0","12421","NA","NA","1584","2","legacy","3","1024","2","48000","-16","experiment","4","even","4","60539","2568","NA","51439","58331","2431","NA","58333","57290","NA","59336","62541","64125","15016","62541","New experiment","7","7699.0","8","1024"
"88","88","929","929","#3d3846","practice","legacy","legacy","legacy","1","undefined","1","right","8","0","0","8","8","0","0","8","8","0","8","8","8","0","8","Sun Oct 15 18:00:54 2023","The main experiment item","True","Sternberg Task Elizabeth McGibbon .osexp","/Users/izzymcgibbon/Desktop/College/Tarleton State /2023 /Fall /Stats /3.0 ","False","mono","False","18","no","white","no","yes","768","legacy","8","8","/Users/izzymcgibbon/Desktop/College/Tarleton State /2023 /Fall /Stats /3.0 /EWMsubject-4.csv","legacy","9 6 7 4 5","Melodramatic Milgram","4.0.5","0","n","0","right","left","NA","NA","right","667.0","12421","NA","NA","667","2","legacy","5","1024","2","48000","-16","experiment","4","even","3","67380","2568","NA","64128","65174","2431","NA","65175","57290","NA","66178","69382","70050","15016","69382","New experiment","8","8366.0","9","1024"
"90","90","895","895","#3d3846","practice","legacy","legacy","legacy","1","undefined","1","right","9","0","0","9","9","0","0","9","9","0","9","9","9","0","9","Sun Oct 15 18:00:54 2023","The main experiment item","True","Sternberg Task Elizabeth McGibbon .osexp","/Users/izzymcgibbon/Desktop/College/Tarleton State /2023 /Fall /Stats /3.0 ","False","mono","False","18","no","white","no","yes","768","legacy","9","9","/Users/izzymcgibbon/Desktop/College/Tarleton State /2023 /Fall /Stats /3.0 /EWMsubject-4.csv","legacy","5 7 8 4 1 2","Melodramatic Milgram","4.0.5","0","n","0","right","left","NA","NA","right","589.0","12421","NA","NA","589","2","legacy","6","1024","2","48000","-16","experiment","4","even","6","73312","2568","NA","70053","71104","2431","NA","71106","57290","NA","72109","75315","75905","15016","75314","New experiment","9","8955.0","10","1024"
"90","90","850","850","#3d3846","practice","legacy","legacy","legacy","1","undefined","1","left","10","0","0","10","10","0","0","10","10","0","10","10","10","0","10","Sun Oct 15 18:00:54 2023","The main experiment item","True","Sternberg Task Elizabeth McGibbon .osexp","/Users/izzymcgibbon/Desktop/College/Tarleton State /2023 /Fall /Stats /3.0 ","False","mono","False","18","no","white","no","yes","768","legacy","10","10","/Users/izzymcgibbon/Desktop/College/Tarleton State /2023 /Fall /Stats /3.0 /EWMsubject-4.csv","legacy","1 5 2 9","Melodramatic Milgram","4.0.5","2","y","0","left","left","NA","NA","left","403.0","12421","NA","NA","403","2","legacy","4","1024","2","48000","-16","experiment","4","even","5","79175","2568","NA","75909","76967","2431","NA","76969","57290","NA","77971","81178","81582","15016","81178","New experiment","10","9358.0","11","1024"
"91","91","917","917","#3d3846","practice","legacy","legacy","legacy","1","undefined","1","right","11","0","0","11","11","0","0","11","11","0","11","11","11","0","11","Sun Oct 15 18:00:54 2023","The main experiment item","True","Sternberg Task Elizabeth McGibbon .osexp","/Users/izzymcgibbon/Desktop/College/Tarleton State /2023 /Fall /Stats /3.0 ","False","mono","False","18","no","white","no","yes","768","legacy","11","11","/Users/izzymcgibbon/Desktop/College/Tarleton State /2023 /Fall /Stats /3.0 /EWMsubject-4.csv","legacy","4 1 5","Melodramatic Milgram","4.0.5","0","n","0","right","left","NA","NA","right","1651.0","12421","NA","NA","1651","2","legacy","3","1024","2","48000","-16","experiment","4","even","2","84848","2568","NA","81585","82640","2431","NA","82642","57290","NA","83644","86850","88502","15016","86850","New experiment","11","11009.0","12","1024"
"92","92","952","952","#3d3846","experiment","legacy","legacy","legacy","1","undefined","1","right","12","0","0","12","12","0","0","12","12","0","12","12","12","0","12","Sun Oct 15 18:00:54 2023","The main experiment item","True","Sternberg Task Elizabeth McGibbon .osexp","/Users/izzymcgibbon/Desktop/College/Tarleton State /2023 /Fall /Stats /3.0 ","False","mono","False","18","no","white","no","yes","768","legacy","0","11","/Users/izzymcgibbon/Desktop/College/Tarleton State /2023 /Fall /Stats /3.0 /EWMsubject-4.csv","legacy","1 5 3 2 8","Melodramatic Milgram","4.0.5","0","n","0","right","left","NA","left","right","1369.0","12421","NA","25451","1369","2","legacy","5","1024","2","48000","-16","experiment","4","even","4","117264","2568","NA","88506","115052","2431","114964","115059","57290","89512","116062","119266","120636","15016","119266","New experiment","12","12378.0","13","1024"
"92","92","933","933","#3d3846","experiment","legacy","legacy","legacy","1","undefined","1","right","13","0","0","13","13","0","0","13","13","0","13","13","13","0","13","Sun Oct 15 18:00:54 2023","The main experiment item","True","Sternberg Task Elizabeth McGibbon .osexp","/Users/izzymcgibbon/Desktop/College/Tarleton State /2023 /Fall /Stats /3.0 ","False","mono","False","18","no","white","no","yes","768","legacy","1","11","/Users/izzymcgibbon/Desktop/College/Tarleton State /2023 /Fall /Stats /3.0 /EWMsubject-4.csv","legacy","4 2 7 6 1 3","Melodramatic Milgram","4.0.5","0","n","0","right","left","NA","left","right","696.0","12421","NA","25451","696","2","legacy","6","1024","2","48000","-16","experiment","4","even","8","123890","2568","NA","120640","121682","2431","114964","121684","57290","89512","122687","125892","126589","15016","125892","New experiment","13","13074.0","14","1024"
"86","86","933","933","#3d3846","experiment","legacy","legacy","legacy","0","undefined","0","left","14","0","0","14","14","0","0","14","14","0","14","14","14","0","14","Sun Oct 15 18:00:54 2023","The main experiment item","True","Sternberg Task Elizabeth McGibbon .osexp","/Users/izzymcgibbon/Desktop/College/Tarleton State /2023 /Fall /Stats /3.0 ","False","mono","False","18","no","white","no","yes","768","legacy","2","11","/Users/izzymcgibbon/Desktop/College/Tarleton State /2023 /Fall /Stats /3.0 /EWMsubject-4.csv","legacy","2 4 8 5 1 3","Melodramatic Milgram","4.0.5","1","y","0","right","left","NA","left","right","926.0","12421","NA","25451","926","2","legacy","6","1024","2","48000","-16","experiment","4","even","2","129850","2568","NA","126593","127643","2431","114964","127645","57290","89512","128647","131852","132779","15016","131852","New experiment","13","14000.0","15","1024"
"87","87","925","925","#3d3846","experiment","legacy","legacy","legacy","1","undefined","1","right","15","0","0","15","15","0","0","15","15","0","15","15","15","0","15","Sun Oct 15 18:00:54 2023","The main experiment item","True","Sternberg Task Elizabeth McGibbon .osexp","/Users/izzymcgibbon/Desktop/College/Tarleton State /2023 /Fall /Stats /3.0 ","False","mono","False","18","no","white","no","yes","768","legacy","3","11","/Users/izzymcgibbon/Desktop/College/Tarleton State /2023 /Fall /Stats /3.0 /EWMsubject-4.csv","legacy","8 9","Melodramatic Milgram","4.0.5","0","n","0","right","left","NA","left","right","810.0","12421","NA","25451","810","2","legacy","2","1024","2","48000","-16","experiment","4","even","5","136043","2568","NA","126593","133835","2431","114964","133837","132782","89512","134839","138045","138856","15016","138045","New experiment","14","14810.0","16","1024"
"88","88","924","924","#3d3846","experiment","legacy","legacy","legacy","1","undefined","1","left","16","0","0","16","16","0","0","16","16","0","16","16","16","0","16","Sun Oct 15 18:00:54 2023","The main experiment item","True","Sternberg Task Elizabeth McGibbon .osexp","/Users/izzymcgibbon/Desktop/College/Tarleton State /2023 /Fall /Stats /3.0 ","False","mono","False","18","no","white","no","yes","768","legacy","4","11","/Users/izzymcgibbon/Desktop/College/Tarleton State /2023 /Fall /Stats /3.0 /EWMsubject-4.csv","legacy","9 1 6 7 8","Melodramatic Milgram","4.0.5","1","y","0","left","left","NA","left","left","901.0","12421","NA","25451","901","2","legacy","5","1024","2","48000","-16","experiment","4","even","9","142107","2568","NA","138859","139900","2431","114964","139902","132782","89512","140904","144109","145011","15016","144109","New experiment","15","15711.0","17","1024"
"88","88","932","932","#3d3846","experiment","legacy","legacy","legacy","1","undefined","1","right","17","0","0","17","17","0","0","17","17","0","17","17","17","0","17","Sun Oct 15 18:00:54 2023","The main experiment item","True","Sternberg Task Elizabeth McGibbon .osexp","/Users/izzymcgibbon/Desktop/College/Tarleton State /2023 /Fall /Stats /3.0 ","False","mono","False","18","no","white","no","yes","768","legacy","5","11","/Users/izzymcgibbon/Desktop/College/Tarleton State /2023 /Fall /Stats /3.0 /EWMsubject-4.csv","legacy","2 6 4 3 9","Melodramatic Milgram","4.0.5","0","n","0","right","left","NA","left","right","1066.0","12421","NA","25451","1066","2","legacy","5","1024","2","48000","-16","experiment","4","even","1","148268","2568","NA","145014","146060","2431","114964","146062","132782","89512","147064","150270","151337","15016","150270","New experiment","16","16777.0","18","1024"
"89","89","924","924","#3d3846","experiment","legacy","legacy","legacy","1","undefined","1","left","18","0","0","18","18","0","0","18","18","0","18","18","18","0","18","Sun Oct 15 18:00:54 2023","The main experiment item","True","Sternberg Task Elizabeth McGibbon .osexp","/Users/izzymcgibbon/Desktop/College/Tarleton State /2023 /Fall /Stats /3.0 ","False","mono","False","18","no","white","no","yes","768","legacy","6","11","/Users/izzymcgibbon/Desktop/College/Tarleton State /2023 /Fall /Stats /3.0 /EWMsubject-4.csv","legacy","4 1 8 7 5","Melodramatic Milgram","4.0.5","3","y","0","left","left","NA","left","left","784.0","12421","NA","25451","784","2","legacy","5","1024","2","48000","-16","experiment","4","even","8","154596","2568","NA","151340","152390","2431","114964","152392","132782","89512","153394","156599","157384","15016","156599","New experiment","17","17561.0","19","1024"
"90","90","938","938","#3d3846","experiment","legacy","legacy","legacy","1","undefined","1","right","19","0","0","19","19","0","0","19","19","0","19","19","19","0","19","Sun Oct 15 18:00:54 2023","The main experiment item","True","Sternberg Task Elizabeth McGibbon .osexp","/Users/izzymcgibbon/Desktop/College/Tarleton State /2023 /Fall /Stats /3.0 ","False","mono","False","18","no","white","no","yes","768","legacy","7","11","/Users/izzymcgibbon/Desktop/College/Tarleton State /2023 /Fall /Stats /3.0 /EWMsubject-4.csv","legacy","3 4 2","Melodramatic Milgram","4.0.5","0","n","0","right","left","NA","left","right","1203.0","12421","NA","25451","1203","2","legacy","3","1024","2","48000","-16","experiment","4","even","5","160644","2568","NA","157387","158437","2431","114964","158439","132782","89512","159441","162646","163850","15016","162646","New experiment","18","18764.0","20","1024"
"90","90","933","933","#3d3846","experiment","legacy","legacy","legacy","1","undefined","1","right","20","0","0","20","20","0","0","20","20","0","20","20","20","0","20","Sun Oct 15 18:00:54 2023","The main experiment item","True","Sternberg Task Elizabeth McGibbon .osexp","/Users/izzymcgibbon/Desktop/College/Tarleton State /2023 /Fall /Stats /3.0 ","False","mono","False","18","no","white","no","yes","768","legacy","8","11","/Users/izzymcgibbon/Desktop/College/Tarleton State /2023 /Fall /Stats /3.0 /EWMsubject-4.csv","legacy","7 1 8 4 9 3","Melodramatic Milgram","4.0.5","0","n","0","right","left","NA","left","right","841.0","12421","NA","25451","841","2","legacy","6","1024","2","48000","-16","experiment","4","even","6","167111","2568","NA","163853","164904","2431","114964","164906","132782","89512","165909","169114","169956","15016","169113","New experiment","19","19605.0","21","1024"
"86","86","927","927","#3d3846","experiment","legacy","legacy","legacy","0","undefined","0","right","21","0","0","21","21","0","0","21","21","0","21","21","21","0","21","Sun Oct 15 18:00:54 2023","The main experiment item","True","Sternberg Task Elizabeth McGibbon .osexp","/Users/izzymcgibbon/Desktop/College/Tarleton State /2023 /Fall /Stats /3.0 ","False","mono","False","18","no","white","no","yes","768","legacy","9","11","/Users/izzymcgibbon/Desktop/College/Tarleton State /2023 /Fall /Stats /3.0 /EWMsubject-4.csv","legacy","1 3 2 6 9","Melodramatic Milgram","4.0.5","0","n","0","left","left","NA","left","left","803.0","12421","NA","25451","803","2","legacy","5","1024","2","48000","-16","experiment","4","even","5","173229","2568","NA","169960","171020","2431","114964","171022","132782","89512","172026","175231","176034","15016","175231","New experiment","19","20408.0","22","1024"
"86","86","927","927","#3d3846","experiment","legacy","legacy","legacy","1","undefined","1","left","22","0","0","22","22","0","0","22","22","0","22","22","22","0","22","Sun Oct 15 18:00:54 2023","The main experiment item","True","Sternberg Task Elizabeth McGibbon .osexp","/Users/izzymcgibbon/Desktop/College/Tarleton State /2023 /Fall /Stats /3.0 ","False","mono","False","18","no","white","no","yes","768","legacy","10","11","/Users/izzymcgibbon/Desktop/College/Tarleton State /2023 /Fall /Stats /3.0 /EWMsubject-4.csv","legacy","9 6 2 4 1","Melodramatic Milgram","4.0.5","4","y","0","left","left","NA","left","left","926.0","12421","NA","25451","926","2","legacy","5","1024","2","48000","-16","experiment","4","even","4","179287","2568","NA","169960","177079","2431","114964","177081","176038","89512","178084","181289","182216","15016","181289","New experiment","20","21334.0","23","1024"
"87","87","924","924","#3d3846","experiment","legacy","legacy","legacy","1","undefined","1","right","23","0","0","23","23","0","0","23","23","0","23","23","23","0","23","Sun Oct 15 18:00:54 2023","The main experiment item","True","Sternberg Task Elizabeth McGibbon .osexp","/Users/izzymcgibbon/Desktop/College/Tarleton State /2023 /Fall /Stats /3.0 ","False","mono","False","18","no","white","no","yes","768","legacy","11","11","/Users/izzymcgibbon/Desktop/College/Tarleton State /2023 /Fall /Stats /3.0 /EWMsubject-4.csv","legacy","4 2 6 9","Melodramatic Milgram","4.0.5","0","n","0","right","left","NA","left","right","860.0","12421","NA","25451","860","2","legacy","4","1024","2","48000","-16","experiment","4","even","7","185468","2568","NA","182219","183261","2431","114964","183263","176038","89512","184265","187470","188330","15016","187470","New experiment","21","22194.0","24","1024"
"88","88","929","929","#3d3846","experiment","legacy","legacy","legacy","1","undefined","1","left","24","0","0","24","24","0","0","24","24","0","24","24","24","0","24","Sun Oct 15 18:00:54 2023","The main experiment item","True","Sternberg Task Elizabeth McGibbon .osexp","/Users/izzymcgibbon/Desktop/College/Tarleton State /2023 /Fall /Stats /3.0 ","False","mono","False","18","no","white","no","yes","768","legacy","12","11","/Users/izzymcgibbon/Desktop/College/Tarleton State /2023 /Fall /Stats /3.0 /EWMsubject-4.csv","legacy","3 2 1 4 7","Melodramatic Milgram","4.0.5","2","y","0","left","left","NA","left","left","1039.0","12421","NA","25451","1039","2","legacy","5","1024","2","48000","-16","experiment","4","even","2","191592","2568","NA","188334","189384","2431","114964","189386","176038","89512","190388","193594","194633","15016","193594","New experiment","22","23233.0","25","1024"
"88","88","932","932","#3d3846","experiment","legacy","legacy","legacy","1","undefined","1","right","25","0","0","25","25","0","0","25","25","0","25","25","25","0","25","Sun Oct 15 18:00:54 2023","The main experiment item","True","Sternberg Task Elizabeth McGibbon .osexp","/Users/izzymcgibbon/Desktop/College/Tarleton State /2023 /Fall /Stats /3.0 ","False","mono","False","18","no","white","no","yes","768","legacy","13","11","/Users/izzymcgibbon/Desktop/College/Tarleton State /2023 /Fall /Stats /3.0 /EWMsubject-4.csv","legacy","6 9 4 5 2","Melodramatic Milgram","4.0.5","0","n","0","right","left","NA","left","right","1005.0","12421","NA","25451","1005","2","legacy","5","1024","2","48000","-16","experiment","4","even","1","197895","2568","NA","194637","195687","2431","114964","195689","176038","89512","196692","199898","200904","15016","199897","New experiment","23","24238.0","26","1024"
"88","88","942","942","#3d3846","experiment","legacy","legacy","legacy","1","undefined","1","right","26","0","0","26","26","0","0","26","26","0","26","26","26","0","26","Sun Oct 15 18:00:54 2023","The main experiment item","True","Sternberg Task Elizabeth McGibbon .osexp","/Users/izzymcgibbon/Desktop/College/Tarleton State /2023 /Fall /Stats /3.0 ","False","mono","False","18","no","white","no","yes","768","legacy","14","11","/Users/izzymcgibbon/Desktop/College/Tarleton State /2023 /Fall /Stats /3.0 /EWMsubject-4.csv","legacy","3 9 1","Melodramatic Milgram","4.0.5","0","n","0","right","left","NA","left","right","1196.0","12421","NA","25451","1196","2","legacy","3","1024","2","48000","-16","experiment","4","even","7","204166","2568","NA","200908","201958","2431","114964","201960","176038","89512","202963","206168","207365","15016","206168","New experiment","24","25434.0","27","1024"
"85","85","979","979","#3d3846","experiment","legacy","legacy","legacy","0","undefined","0","right","27","0","0","27","27","0","0","27","27","0","27","27","27","0","27","Sun Oct 15 18:00:54 2023","The main experiment item","True","Sternberg Task Elizabeth McGibbon .osexp","/Users/izzymcgibbon/Desktop/College/Tarleton State /2023 /Fall /Stats /3.0 ","False","mono","False","18","no","white","no","yes","768","legacy","15","11","/Users/izzymcgibbon/Desktop/College/Tarleton State /2023 /Fall /Stats /3.0 /EWMsubject-4.csv","legacy","2 8 9 4 1","Melodramatic Milgram","4.0.5","0","n","0","None","left","NA","left","None","2000.0","12421","NA","25451","2000","2","legacy","5","1024","2","48000","-16","experiment","4","even","5","210655","2568","NA","207370","208448","2431","114964","208450","176038","89512","209452","212657","214657","15016","212657","New experiment","24","27434.0","28","1024"
"82","82","1014","1014","#3d3846","experiment","legacy","legacy","legacy","0","undefined","0","right","28","0","0","28","28","0","0","28","28","0","28","28","28","0","28","Sun Oct 15 18:00:54 2023","The main experiment item","True","Sternberg Task Elizabeth McGibbon .osexp","/Users/izzymcgibbon/Desktop/College/Tarleton State /2023 /Fall /Stats /3.0 ","False","mono","False","18","no","white","no","yes","768","legacy","16","11","/Users/izzymcgibbon/Desktop/College/Tarleton State /2023 /Fall /Stats /3.0 /EWMsubject-4.csv","legacy","6 9 7 3 8 2","Melodramatic Milgram","4.0.5","0","n","0","None","left","NA","left","None","2000.0","12421","NA","25451","2000","2","legacy","6","1024","2","48000","-16","experiment","4","even","5","217910","2568","NA","207370","215702","2431","114964","215704","214660","89512","216707","219912","221912","15016","219912","New experiment","24","29434.0","29","1024"
"80","80","1047","1047","#3d3846","experiment","legacy","legacy","legacy","0","undefined","0","left","29","0","0","29","29","0","0","29","29","0","29","29","29","0","29","Sun Oct 15 18:00:54 2023","The main experiment item","True","Sternberg Task Elizabeth McGibbon .osexp","/Users/izzymcgibbon/Desktop/College/Tarleton State /2023 /Fall /Stats /3.0 ","False","mono","False","18","no","white","no","yes","768","legacy","17","11","/Users/izzymcgibbon/Desktop/College/Tarleton State /2023 /Fall /Stats /3.0 /EWMsubject-4.csv","legacy","4","Melodramatic Milgram","4.0.5","1","y","0","None","left","NA","left","None","2000.0","12421","NA","25451","2000","2","legacy","1","1024","2","48000","-16","experiment","4","even","4","225168","2568","NA","207370","222961","2431","114964","222963","221915","89512","223965","227171","229171","15016","227170","New experiment","24","31434.0","30","1024"
"77","77","1078","1078","#3d3846","experiment","legacy","legacy","legacy","0","undefined","0","right","30","0","0","30","30","0","0","30","30","0","30","30","30","0","30","Sun Oct 15 18:00:54 2023","The main experiment item","True","Sternberg Task Elizabeth McGibbon .osexp","/Users/izzymcgibbon/Desktop/College/Tarleton State /2023 /Fall /Stats /3.0 ","False","mono","False","18","no","white","no","yes","768","legacy","18","11","/Users/izzymcgibbon/Desktop/College/Tarleton State /2023 /Fall /Stats /3.0 /EWMsubject-4.csv","legacy","5 9 2 3","Melodramatic Milgram","4.0.5","0","n","0","None","left","NA","left","None","2000.0","12421","NA","25451","2000","2","legacy","4","1024","2","48000","-16","experiment","4","even","8","232431","2568","NA","207370","230224","2431","114964","230226","229174","89512","231228","234433","236433","15016","234433","New experiment","24","33434.0","31","1024"
"75","75","1107","1107","#3d3846","experiment","legacy","legacy","legacy","0","undefined","0","right","31","0","0","31","31","0","0","31","31","0","31","31","31","0","31","Sun Oct 15 18:00:54 2023","The main experiment item","True","Sternberg Task Elizabeth McGibbon .osexp","/Users/izzymcgibbon/Desktop/College/Tarleton State /2023 /Fall /Stats /3.0 ","False","mono","False","18","no","white","no","yes","768","legacy","19","11","/Users/izzymcgibbon/Desktop/College/Tarleton State /2023 /Fall /Stats /3.0 /EWMsubject-4.csv","legacy","1 7 8 3 9","Melodramatic Milgram","4.0.5","0","n","0","None","left","NA","left","None","2000.0","12421","NA","25451","2000","2","legacy","5","1024","2","48000","-16","experiment","4","even","2","239695","2568","NA","207370","237488","2431","114964","237489","236438","89512","238492","241697","243697","15016","241697","New experiment","24","35434.0","32","1024"
"75","75","1106","1106","#3d3846","experiment","legacy","legacy","legacy","1","undefined","1","left","32","0","0","32","32","0","0","32","32","0","32","32","32","0","32","Sun Oct 15 18:00:54 2023","The main experiment item","True","Sternberg Task Elizabeth McGibbon .osexp","/Users/izzymcgibbon/Desktop/College/Tarleton State /2023 /Fall /Stats /3.0 ","False","mono","False","18","no","white","no","yes","768","legacy","20","11","/Users/izzymcgibbon/Desktop/College/Tarleton State /2023 /Fall /Stats /3.0 /EWMsubject-4.csv","legacy","4 9 7 8 5 3","Melodramatic Milgram","4.0.5","4","y","0","left","left","NA","left","left","1078.0","12421","NA","25451","1078","2","legacy","6","1024","2","48000","-16","experiment","4","even","8","246957","2568","NA","207370","244751","2431","114964","244753","243701","89512","245755","248960","250039","15016","248960","New experiment","25","36512.0","33","1024"
"73","73","1132","1132","#3d3846","experiment","legacy","legacy","legacy","0","undefined","0","left","33","0","0","33","33","0","0","33","33","0","33","33","33","0","33","Sun Oct 15 18:00:54 2023","The main experiment item","True","Sternberg Task Elizabeth McGibbon .osexp","/Users/izzymcgibbon/Desktop/College/Tarleton State /2023 /Fall /Stats /3.0 ","False","mono","False","18","no","white","no","yes","768","legacy","21","11","/Users/izzymcgibbon/Desktop/College/Tarleton State /2023 /Fall /Stats /3.0 /EWMsubject-4.csv","legacy","5 2 6","Melodramatic Milgram","4.0.5","2","y","0","None","left","NA","left","None","2000.0","12421","NA","25451","2000","2","legacy","3","1024","2","48000","-16","experiment","4","even","2","253336","2568","NA","250044","251110","2431","114964","251111","243701","89512","252132","255338","257338","15016","255338","New experiment","25","38512.0","34","1024"
"71","71","1125","1125","#3d3846","experiment","legacy","legacy","legacy","0","undefined","0","left","34","0","0","34","34","0","0","34","34","0","34","34","34","0","34","Sun Oct 15 18:00:54 2023","The main experiment item","True","Sternberg Task Elizabeth McGibbon .osexp","/Users/izzymcgibbon/Desktop/College/Tarleton State /2023 /Fall /Stats /3.0 ","False","mono","False","18","no","white","no","yes","768","legacy","22","11","/Users/izzymcgibbon/Desktop/College/Tarleton State /2023 /Fall /Stats /3.0 /EWMsubject-4.csv","legacy","7 8 4 6 9 5","Melodramatic Milgram","4.0.5","4","y","0","right","left","NA","left","right","875.0","12421","NA","25451","875","2","legacy","6","1024","2","48000","-16","experiment","4","even","6","260590","2568","NA","250044","258382","2431","114964","258384","257341","89512","259387","262593","263469","15016","262592","New experiment","25","39387.0","35","1024"
"69","69","1124","1124","#3d3846","experiment","legacy","legacy","legacy","0","undefined","0","right","35","0","0","35","35","0","0","35","35","0","35","35","35","0","35","Sun Oct 15 18:00:54 2023","The main experiment item","True","Sternberg Task Elizabeth McGibbon .osexp","/Users/izzymcgibbon/Desktop/College/Tarleton State /2023 /Fall /Stats /3.0 ","False","mono","False","18","no","white","no","yes","768","legacy","23","11","/Users/izzymcgibbon/Desktop/College/Tarleton State /2023 /Fall /Stats /3.0 /EWMsubject-4.csv","legacy","3 9 8 1 6 4","Melodramatic Milgram","4.0.5","0","n","0","left","left","NA","left","left","1102.0","12421","NA","25451","1102","2","legacy","6","1024","2","48000","-16","experiment","4","even","7","266724","2568","NA","250044","264517","2431","114964","264519","263473","89512","265521","268726","269829","15016","268726","New experiment","25","40489.0","36","1024"
"70","70","1122","1122","#3d3846","experiment","legacy","legacy","legacy","1","undefined","1","right","36","0","0","36","36","0","0","36","36","0","36","36","36","0","36","Sun Oct 15 18:00:54 2023","The main experiment item","True","Sternberg Task Elizabeth McGibbon .osexp","/Users/izzymcgibbon/Desktop/College/Tarleton State /2023 /Fall /Stats /3.0 ","False","mono","False","18","no","white","no","yes","768","legacy","24","11","/Users/izzymcgibbon/Desktop/College/Tarleton State /2023 /Fall /Stats /3.0 /EWMsubject-4.csv","legacy","7 3 2 8","Melodramatic Milgram","4.0.5","0","n","0","right","left","NA","left","right","1044.0","12421","NA","25451","1044","2","legacy","4","1024","2","48000","-16","experiment","4","even","4","273089","2568","NA","250044","270881","2431","114964","270883","269832","89512","271885","275092","276137","15016","275091","New experiment","26","41533.0","37","1024"
"68","68","1113","1113","#3d3846","experiment","legacy","legacy","legacy","0","undefined","0","left","37","0","0","37","37","0","0","37","37","0","37","37","37","0","37","Sun Oct 15 18:00:54 2023","The main experiment item","True","Sternberg Task Elizabeth McGibbon .osexp","/Users/izzymcgibbon/Desktop/College/Tarleton State /2023 /Fall /Stats /3.0 ","False","mono","False","18","no","white","no","yes","768","legacy","25","11","/Users/izzymcgibbon/Desktop/College/Tarleton State /2023 /Fall /Stats /3.0 /EWMsubject-4.csv","legacy","3 5 9 6 2 4","Melodramatic Milgram","4.0.5","1","y","0","right","left","NA","left","right","766.0","12421","NA","25451","766","2","legacy","6","1024","2","48000","-16","experiment","4","even","3","279399","2568","NA","276140","277190","2431","114964","277192","269832","89512","278195","281402","282169","15016","281401","New experiment","26","42299.0","38","1024"
"69","69","1119","1119","#3d3846","experiment","legacy","legacy","legacy","1","undefined","1","right","38","0","0","38","38","0","0","38","38","0","38","38","38","0","38","Sun Oct 15 18:00:54 2023","The main experiment item","True","Sternberg Task Elizabeth McGibbon .osexp","/Users/izzymcgibbon/Desktop/College/Tarleton State /2023 /Fall /Stats /3.0 ","False","mono","False","18","no","white","no","yes","768","legacy","26","11","/Users/izzymcgibbon/Desktop/College/Tarleton State /2023 /Fall /Stats /3.0 /EWMsubject-4.csv","legacy","7 8 6 1","Melodramatic Milgram","4.0.5","0","n","0","right","left","NA","left","right","1345.0","12421","NA","25451","1345","2","legacy","4","1024","2","48000","-16","experiment","4","even","3","285432","2568","NA","276140","283223","2431","114964","283226","282173","89512","284229","287435","288780","15016","287434","New experiment","27","43644.0","39","1024"
"70","70","1109","1109","#3d3846","experiment","legacy","legacy","legacy","1","undefined","1","right","39","0","0","39","39","0","0","39","39","0","39","39","39","0","39","Sun Oct 15 18:00:54 2023","The main experiment item","True","Sternberg Task Elizabeth McGibbon .osexp","/Users/izzymcgibbon/Desktop/College/Tarleton State /2023 /Fall /Stats /3.0 ","False","mono","False","18","no","white","no","yes","768","legacy","27","11","/Users/izzymcgibbon/Desktop/College/Tarleton State /2023 /Fall /Stats /3.0 /EWMsubject-4.csv","legacy","5 7 3","Melodramatic Milgram","4.0.5","0","n","0","right","left","NA","left","right","750.0","12421","NA","25451","750","2","legacy","3","1024","2","48000","-16","experiment","4","even","9","292052","2568","NA","288783","289844","2431","114964","289846","282173","89512","290848","294054","294805","15016","294054","New experiment","28","44394.0","40","1024"
"70","70","1109","1109","#3d3846","experiment","legacy","legacy","legacy","1","undefined","1","left","40","0","0","40","40","0","0","40","40","0","40","40","40","0","40","Sun Oct 15 18:00:54 2023","The main experiment item","True","Sternberg Task Elizabeth McGibbon .osexp","/Users/izzymcgibbon/Desktop/College/Tarleton State /2023 /Fall /Stats /3.0 ","False","mono","False","18","no","white","no","yes","768","legacy","28","11","/Users/izzymcgibbon/Desktop/College/Tarleton State /2023 /Fall /Stats /3.0 /EWMsubject-4.csv","legacy","9 1 7 2","Melodramatic Milgram","4.0.5","2","y","0","left","left","NA","left","left","1101.0","12421","NA","25451","1101","2","legacy","4","1024","2","48000","-16","experiment","4","even","1","298057","2568","NA","294809","295850","2431","114964","295851","282173","89512","296854","300059","301161","15016","300059","New experiment","29","45495.0","41","1024"
"71","71","1112","1112","#3d3846","experiment","legacy","legacy","legacy","1","undefined","1","left","41","0","0","41","41","0","0","41","41","0","41","41","41","0","41","Sun Oct 15 18:00:54 2023","The main experiment item","True","Sternberg Task Elizabeth McGibbon .osexp","/Users/izzymcgibbon/Desktop/College/Tarleton State /2023 /Fall /Stats /3.0 ","False","mono","False","18","no","white","no","yes","768","legacy","29","11","/Users/izzymcgibbon/Desktop/College/Tarleton State /2023 /Fall /Stats /3.0 /EWMsubject-4.csv","legacy","8","Melodramatic Milgram","4.0.5","1","y","0","left","left","NA","left","left","1233.0","12421","NA","25451","1233","2","legacy","1","1024","2","48000","-16","experiment","4","even","8","304414","2568","NA","301165","302207","2431","114964","302209","282173","89512","303212","306417","307651","15016","306417","New experiment","30","46728.0","42","1024"
"69","69","1116","1116","#3d3846","experiment","legacy","legacy","legacy","0","undefined","0","left","42","0","0","42","42","0","0","42","42","0","42","42","42","0","42","Sun Oct 15 18:00:54 2023","The main experiment item","True","Sternberg Task Elizabeth McGibbon .osexp","/Users/izzymcgibbon/Desktop/College/Tarleton State /2023 /Fall /Stats /3.0 ","False","mono","False","18","no","white","no","yes","768","legacy","30","11","/Users/izzymcgibbon/Desktop/College/Tarleton State /2023 /Fall /Stats /3.0 /EWMsubject-4.csv","legacy","2 8 5 1","Melodramatic Milgram","4.0.5","4","y","0","right","left","NA","left","right","1293.0","12421","NA","25451","1293","2","legacy","4","1024","2","48000","-16","experiment","4","even","1","310909","2568","NA","307654","308703","2431","114964","308705","282173","89512","309707","312912","314205","15016","312912","New experiment","30","48021.0","43","1024"
"70","70","1122","1122","#3d3846","experiment","legacy","legacy","legacy","1","undefined","1","left","43","0","0","43","43","0","0","43","43","0","43","43","43","0","43","Sun Oct 15 18:00:54 2023","The main experiment item","True","Sternberg Task Elizabeth McGibbon .osexp","/Users/izzymcgibbon/Desktop/College/Tarleton State /2023 /Fall /Stats /3.0 ","False","mono","False","18","no","white","no","yes","768","legacy","31","11","/Users/izzymcgibbon/Desktop/College/Tarleton State /2023 /Fall /Stats /3.0 /EWMsubject-4.csv","legacy","2 5 4 8 7","Melodramatic Milgram","4.0.5","3","y","0","left","left","NA","left","left","1349.0","12421","NA","25451","1349","2","legacy","5","1024","2","48000","-16","experiment","4","even","4","317465","2568","NA","307654","315259","2431","114964","315261","314209","89512","316263","319468","320818","15016","319468","New experiment","31","49370.0","44","1024"
"71","71","1118","1118","#3d3846","experiment","legacy","legacy","legacy","1","undefined","1","left","44","0","0","44","44","0","0","44","44","0","44","44","44","0","44","Sun Oct 15 18:00:54 2023","The main experiment item","True","Sternberg Task Elizabeth McGibbon .osexp","/Users/izzymcgibbon/Desktop/College/Tarleton State /2023 /Fall /Stats /3.0 ","False","mono","False","18","no","white","no","yes","768","legacy","32","11","/Users/izzymcgibbon/Desktop/College/Tarleton State /2023 /Fall /Stats /3.0 /EWMsubject-4.csv","legacy","2 3","Melodramatic Milgram","4.0.5","1","y","0","left","left","NA","left","left","965.0","12421","NA","25451","965","2","legacy","2","1024","2","48000","-16","experiment","4","even","2","324078","2568","NA","320821","321870","2431","114964","321872","314209","89512","322874","326081","327047","15016","326080","New experiment","32","50335.0","45","1024"
"69","69","1105","1105","#3d3846","experiment","legacy","legacy","legacy","0","undefined","0","left","45","0","0","45","45","0","0","45","45","0","45","45","45","0","45","Sun Oct 15 18:00:54 2023","The main experiment item","True","Sternberg Task Elizabeth McGibbon .osexp","/Users/izzymcgibbon/Desktop/College/Tarleton State /2023 /Fall /Stats /3.0 ","False","mono","False","18","no","white","no","yes","768","legacy","33","11","/Users/izzymcgibbon/Desktop/College/Tarleton State /2023 /Fall /Stats /3.0 /EWMsubject-4.csv","legacy","4 7 6 8 2 3","Melodramatic Milgram","4.0.5","6","y","0","right","left","NA","left","right","532.0","12421","NA","25451","532","2","legacy","6","1024","2","48000","-16","experiment","4","even","3","330317","2568","NA","327051","328109","2431","114964","328111","314209","89512","329114","332320","332852","15016","332319","New experiment","32","50867.0","46","1024"
"68","68","1100","1100","#3d3846","experiment","legacy","legacy","legacy","0","undefined","0","right","46","0","0","46","46","0","0","46","46","0","46","46","46","0","46","Sun Oct 15 18:00:54 2023","The main experiment item","True","Sternberg Task Elizabeth McGibbon .osexp","/Users/izzymcgibbon/Desktop/College/Tarleton State /2023 /Fall /Stats /3.0 ","False","mono","False","18","no","white","no","yes","768","legacy","34","11","/Users/izzymcgibbon/Desktop/College/Tarleton State /2023 /Fall /Stats /3.0 /EWMsubject-4.csv","legacy","8 5 4 2 9 6","Melodramatic Milgram","4.0.5","0","n","0","left","left","NA","left","left","873.0","12421","NA","25451","873","2","legacy","6","1024","2","48000","-16","experiment","4","even","3","336103","2568","NA","327051","333896","2431","114964","333898","332855","89512","334901","338105","338979","15016","338105","New experiment","32","51740.0","47","1024"
"68","68","1101","1101","#3d3846","experiment","legacy","legacy","legacy","1","undefined","1","right","47","0","0","47","47","0","0","47","47","0","47","47","47","0","47","Sun Oct 15 18:00:54 2023","The main experiment item","True","Sternberg Task Elizabeth McGibbon .osexp","/Users/izzymcgibbon/Desktop/College/Tarleton State /2023 /Fall /Stats /3.0 ","False","mono","False","18","no","white","no","yes","768","legacy","35","11","/Users/izzymcgibbon/Desktop/College/Tarleton State /2023 /Fall /Stats /3.0 /EWMsubject-4.csv","legacy","1 8 7","Melodramatic Milgram","4.0.5","0","n","0","right","left","NA","left","right","1133.0","12421","NA","25451","1133","2","legacy","3","1024","2","48000","-16","experiment","4","even","4","342233","2568","NA","327051","340027","2431","114964","340029","338982","89512","341031","344235","345369","15016","344235","New experiment","33","52873.0","48","1024"
"69","69","1101","1101","#3d3846","experiment","legacy","legacy","legacy","1","undefined","1","right","48","0","0","48","48","0","0","48","48","0","48","48","48","0","48","Sun Oct 15 18:00:54 2023","The main experiment item","True","Sternberg Task Elizabeth McGibbon .osexp","/Users/izzymcgibbon/Desktop/College/Tarleton State /2023 /Fall /Stats /3.0 ","False","mono","False","18","no","white","no","yes","768","legacy","36","11","/Users/izzymcgibbon/Desktop/College/Tarleton State /2023 /Fall /Stats /3.0 /EWMsubject-4.csv","legacy","2 8 9","Melodramatic Milgram","4.0.5","0","n","0","right","left","NA","left","right","1098.0","12421","NA","25451","1098","2","legacy","3","1024","2","48000","-16","experiment","4","even","6","348627","2568","NA","345372","346421","2431","114964","346423","338982","89512","347425","350630","351729","15016","350630","New experiment","34","53971.0","49","1024"
"70","70","1092","1092","#3d3846","experiment","legacy","legacy","legacy","1","undefined","1","left","49","0","0","49","49","0","0","49","49","0","49","49","49","0","49","Sun Oct 15 18:00:54 2023","The main experiment item","True","Sternberg Task Elizabeth McGibbon .osexp","/Users/izzymcgibbon/Desktop/College/Tarleton State /2023 /Fall /Stats /3.0 ","False","mono","False","18","no","white","no","yes","768","legacy","37","11","/Users/izzymcgibbon/Desktop/College/Tarleton State /2023 /Fall /Stats /3.0 /EWMsubject-4.csv","legacy","6 2","Melodramatic Milgram","4.0.5","1","y","0","left","left","NA","left","left","650.0","12421","NA","25451","650","2","legacy","2","1024","2","48000","-16","experiment","4","even","6","354992","2568","NA","351734","352783","2431","114964","352786","338982","89512","353789","356994","357645","15016","356994","New experiment","35","54621.0","50","1024"
"70","70","1098","1098","#3d3846","experiment","legacy","legacy","legacy","1","undefined","1","right","50","0","0","50","50","0","0","50","50","0","50","50","50","0","50","Sun Oct 15 18:00:54 2023","The main experiment item","True","Sternberg Task Elizabeth McGibbon .osexp","/Users/izzymcgibbon/Desktop/College/Tarleton State /2023 /Fall /Stats /3.0 ","False","mono","False","18","no","white","no","yes","768","legacy","38","11","/Users/izzymcgibbon/Desktop/College/Tarleton State /2023 /Fall /Stats /3.0 /EWMsubject-4.csv","legacy","1 6 4 3 9 7","Melodramatic Milgram","4.0.5","0","n","0","right","left","NA","left","right","1403.0","12421","NA","25451","1403","2","legacy","6","1024","2","48000","-16","experiment","4","even","8","360908","2568","NA","357648","358700","2431","114964","358702","338982","89512","359704","362910","364314","15016","362910","New experiment","36","56024.0","51","1024"
"69","69","1115","1115","#3d3846","experiment","legacy","legacy","legacy","0","undefined","0","right","51","0","0","51","51","0","0","51","51","0","51","51","51","0","51","Sun Oct 15 18:00:54 2023","The main experiment item","True","Sternberg Task Elizabeth McGibbon .osexp","/Users/izzymcgibbon/Desktop/College/Tarleton State /2023 /Fall /Stats /3.0 ","False","mono","False","18","no","white","no","yes","768","legacy","39","11","/Users/izzymcgibbon/Desktop/College/Tarleton State /2023 /Fall /Stats /3.0 /EWMsubject-4.csv","legacy","8 5 7 3 6","Melodramatic Milgram","4.0.5","0","n","0","None","left","NA","left","None","2000.0","12421","NA","25451","2000","2","legacy","5","1024","2","48000","-16","experiment","4","even","9","367586","2568","NA","364317","365378","2431","114964","365380","338982","89512","366382","369589","371589","15016","369588","New experiment","36","58024.0","52","1024"
"69","69","1114","1114","#3d3846","experiment","legacy","legacy","legacy","1","undefined","1","right","52","0","0","52","52","0","0","52","52","0","52","52","52","0","52","Sun Oct 15 18:00:54 2023","The main experiment item","True","Sternberg Task Elizabeth McGibbon .osexp","/Users/izzymcgibbon/Desktop/College/Tarleton State /2023 /Fall /Stats /3.0 ","False","mono","False","18","no","white","no","yes","768","legacy","40","11","/Users/izzymcgibbon/Desktop/College/Tarleton State /2023 /Fall /Stats /3.0 /EWMsubject-4.csv","legacy","4 1","Melodramatic Milgram","4.0.5","0","n","0","right","left","NA","left","right","1044.0","12421","NA","25451","1044","2","legacy","2","1024","2","48000","-16","experiment","4","even","6","374841","2568","NA","364317","372633","2431","114964","372635","371592","89512","373638","376844","377889","15016","376843","New experiment","37","59068.0","53","1024"
"70","70","1108","1108","#3d3846","experiment","legacy","legacy","legacy","1","undefined","1","right","53","0","0","53","53","0","0","53","53","0","53","53","53","0","53","Sun Oct 15 18:00:54 2023","The main experiment item","True","Sternberg Task Elizabeth McGibbon .osexp","/Users/izzymcgibbon/Desktop/College/Tarleton State /2023 /Fall /Stats /3.0 ","False","mono","False","18","no","white","no","yes","768","legacy","41","11","/Users/izzymcgibbon/Desktop/College/Tarleton State /2023 /Fall /Stats /3.0 /EWMsubject-4.csv","legacy","6 8 4","Melodramatic Milgram","4.0.5","0","n","0","right","left","NA","left","right","790.0","12421","NA","25451","790","2","legacy","3","1024","2","48000","-16","experiment","4","even","1","381141","2568","NA","377892","378935","2431","114964","378937","371592","89512","379939","383144","383935","15016","383143","New experiment","38","59858.0","54","1024"
"69","69","1124","1124","#3d3846","experiment","legacy","legacy","legacy","0","undefined","0","right","54","0","0","54","54","0","0","54","54","0","54","54","54","0","54","Sun Oct 15 18:00:54 2023","The main experiment item","True","Sternberg Task Elizabeth McGibbon .osexp","/Users/izzymcgibbon/Desktop/College/Tarleton State /2023 /Fall /Stats /3.0 ","False","mono","False","18","no","white","no","yes","768","legacy","42","11","/Users/izzymcgibbon/Desktop/College/Tarleton State /2023 /Fall /Stats /3.0 /EWMsubject-4.csv","legacy","6 9 5","Melodramatic Milgram","4.0.5","0","n","0","None","left","NA","left","None","2000.0","12421","NA","25451","2000","2","legacy","3","1024","2","48000","-16","experiment","4","even","8","387194","2568","NA","383939","384989","2431","114964","384990","371592","89512","385992","389197","391197","15016","389197","New experiment","38","61858.0","55","1024"
"67","67","1129","1129","#3d3846","experiment","legacy","legacy","legacy","0","undefined","0","left","55","0","0","55","55","0","0","55","55","0","55","55","55","0","55","Sun Oct 15 18:00:54 2023","The main experiment item","True","Sternberg Task Elizabeth McGibbon .osexp","/Users/izzymcgibbon/Desktop/College/Tarleton State /2023 /Fall /Stats /3.0 ","False","mono","False","18","no","white","no","yes","768","legacy","43","11","/Users/izzymcgibbon/Desktop/College/Tarleton State /2023 /Fall /Stats /3.0 /EWMsubject-4.csv","legacy","3 9 6 2","Melodramatic Milgram","4.0.5","4","y","0","right","left","NA","left","right","1415.0","12421","NA","25451","1415","2","legacy","4","1024","2","48000","-16","experiment","4","even","2","394458","2568","NA","383939","392251","2431","114964","392252","391200","89512","393255","396461","397877","15016","396460","New experiment","38","63273.0","56","1024"
"66","66","1145","1145","#3d3846","experiment","legacy","legacy","legacy","0","undefined","0","right","56","0","0","56","56","0","0","56","56","0","56","56","56","0","56","Sun Oct 15 18:00:54 2023","The main experiment item","True","Sternberg Task Elizabeth McGibbon .osexp","/Users/izzymcgibbon/Desktop/College/Tarleton State /2023 /Fall /Stats /3.0 ","False","mono","False","18","no","white","no","yes","768","legacy","44","11","/Users/izzymcgibbon/Desktop/College/Tarleton State /2023 /Fall /Stats /3.0 /EWMsubject-4.csv","legacy","1 7 5 2","Melodramatic Milgram","4.0.5","0","n","0","None","left","NA","left","None","2000.0","12421","NA","25451","2000","2","legacy","4","1024","2","48000","-16","experiment","4","even","3","401142","2568","NA","383939","398935","2431","114964","398937","397880","89512","399939","403145","405145","15016","403145","New experiment","38","65273.0","57","1024"
"67","67","1141","1141","#3d3846","experiment","legacy","legacy","legacy","1","undefined","1","right","57","0","0","57","57","0","0","57","57","0","57","57","57","0","57","Sun Oct 15 18:00:54 2023","The main experiment item","True","Sternberg Task Elizabeth McGibbon .osexp","/Users/izzymcgibbon/Desktop/College/Tarleton State /2023 /Fall /Stats /3.0 ","False","mono","False","18","no","white","no","yes","768","legacy","45","11","/Users/izzymcgibbon/Desktop/College/Tarleton State /2023 /Fall /Stats /3.0 /EWMsubject-4.csv","legacy","4 8 1 2","Melodramatic Milgram","4.0.5","0","n","0","right","left","NA","left","right","933.0","12421","NA","25451","933","2","legacy","4","1024","2","48000","-16","experiment","4","even","7","408419","2568","NA","383939","406210","2431","114964","406213","405149","89512","407216","410425","411359","15016","410425","New experiment","39","66206.0","58","1024"
"67","67","1137","1137","#3d3846","experiment","legacy","legacy","legacy","1","undefined","1","right","58","0","0","58","58","0","0","58","58","0","58","58","58","0","58","Sun Oct 15 18:00:54 2023","The main experiment item","True","Sternberg Task Elizabeth McGibbon .osexp","/Users/izzymcgibbon/Desktop/College/Tarleton State /2023 /Fall /Stats /3.0 ","False","mono","False","18","no","white","no","yes","768","legacy","46","11","/Users/izzymcgibbon/Desktop/College/Tarleton State /2023 /Fall /Stats /3.0 /EWMsubject-4.csv","legacy","5 3 8 7 2 4","Melodramatic Milgram","4.0.5","0","n","0","right","left","NA","left","right","901.0","12421","NA","25451","901","2","legacy","6","1024","2","48000","-16","experiment","4","even","9","414611","2568","NA","411363","412404","2431","114964","412406","405149","89512","413408","416613","417515","15016","416613","New experiment","40","67107.0","59","1024"
"68","68","1145","1145","#3d3846","experiment","legacy","legacy","legacy","1","undefined","1","right","59","0","0","59","59","0","0","59","59","0","59","59","59","0","59","Sun Oct 15 18:00:54 2023","The main experiment item","True","Sternberg Task Elizabeth McGibbon .osexp","/Users/izzymcgibbon/Desktop/College/Tarleton State /2023 /Fall /Stats /3.0 ","False","mono","False","18","no","white","no","yes","768","legacy","47","11","/Users/izzymcgibbon/Desktop/College/Tarleton State /2023 /Fall /Stats /3.0 /EWMsubject-4.csv","legacy","1 7 5 2 9","Melodramatic Milgram","4.0.5","0","n","0","right","left","NA","left","right","1594.0","12421","NA","25451","1594","2","legacy","5","1024","2","48000","-16","experiment","4","even","3","420771","2568","NA","417519","418565","2431","114964","418567","405149","89512","419569","422773","424368","15016","422773","New experiment","41","68701.0","60","1024"
"67","67","1138","1138","#3d3846","experiment","legacy","legacy","legacy","0","undefined","0","right","60","0","0","60","60","0","0","60","60","0","60","60","60","0","60","Sun Oct 15 18:00:54 2023","The main experiment item","True","Sternberg Task Elizabeth McGibbon .osexp","/Users/izzymcgibbon/Desktop/College/Tarleton State /2023 /Fall /Stats /3.0 ","False","mono","False","18","no","white","no","yes","768","legacy","48","11","/Users/izzymcgibbon/Desktop/College/Tarleton State /2023 /Fall /Stats /3.0 /EWMsubject-4.csv","legacy","8 2 1 4 5 9","Melodramatic Milgram","4.0.5","0","n","0","left","left","NA","left","left","773.0","12421","NA","25451","773","2","legacy","6","1024","2","48000","-16","experiment","4","even","7","427628","2568","NA","424371","425421","2431","114964","425423","405149","89512","426426","429631","430405","15016","429631","New experiment","41","69474.0","61","1024"
"67","67","1145","1145","#3d3846","experiment","legacy","legacy","legacy","1","undefined","1","left","61","0","0","61","61","0","0","61","61","0","61","61","61","0","61","Sun Oct 15 18:00:54 2023","The main experiment item","True","Sternberg Task Elizabeth McGibbon .osexp","/Users/izzymcgibbon/Desktop/College/Tarleton State /2023 /Fall /Stats /3.0 ","False","mono","False","18","no","white","no","yes","768","legacy","49","11","/Users/izzymcgibbon/Desktop/College/Tarleton State /2023 /Fall /Stats /3.0 /EWMsubject-4.csv","legacy","1 4 9 3 2 5","Melodramatic Milgram","4.0.5","3","y","0","left","left","NA","left","left","1549.0","12421","NA","25451","1549","2","legacy","6","1024","2","48000","-16","experiment","4","even","9","433665","2568","NA","424371","431459","2431","114964","431461","430409","89512","432463","435668","437218","15016","435668","New experiment","42","71023.0","62","1024"
"68","68","1144","1144","#3d3846","experiment","legacy","legacy","legacy","1","undefined","1","right","62","0","0","62","62","0","0","62","62","0","62","62","62","0","62","Sun Oct 15 18:00:54 2023","The main experiment item","True","Sternberg Task Elizabeth McGibbon .osexp","/Users/izzymcgibbon/Desktop/College/Tarleton State /2023 /Fall /Stats /3.0 ","False","mono","False","18","no","white","no","yes","768","legacy","50","11","/Users/izzymcgibbon/Desktop/College/Tarleton State /2023 /Fall /Stats /3.0 /EWMsubject-4.csv","legacy","2 7 5","Melodramatic Milgram","4.0.5","0","n","0","right","left","NA","left","right","1090.0","12421","NA","25451","1090","2","legacy","3","1024","2","48000","-16","experiment","4","even","8","440480","2568","NA","437222","438273","2431","114964","438275","430409","89512","439277","442483","443574","15016","442482","New experiment","43","72113.0","63","1024"
"68","68","1137","1137","#3d3846","experiment","legacy","legacy","legacy","1","undefined","1","left","63","0","0","63","63","0","0","63","63","0","63","63","63","0","63","Sun Oct 15 18:00:54 2023","The main experiment item","True","Sternberg Task Elizabeth McGibbon .osexp","/Users/izzymcgibbon/Desktop/College/Tarleton State /2023 /Fall /Stats /3.0 ","False","mono","False","18","no","white","no","yes","768","legacy","51","11","/Users/izzymcgibbon/Desktop/College/Tarleton State /2023 /Fall /Stats /3.0 /EWMsubject-4.csv","legacy","6 1 2","Melodramatic Milgram","4.0.5","3","y","0","left","left","NA","left","left","717.0","12421","NA","25451","717","2","legacy","3","1024","2","48000","-16","experiment","4","even","2","446845","2568","NA","443577","444637","2431","114964","444639","430409","89512","445641","448847","449565","15016","448847","New experiment","44","72830.0","64","1024"
"69","69","1130","1130","#3d3846","experiment","legacy","legacy","legacy","1","undefined","1","left","64","0","0","64","64","0","0","64","64","0","64","64","64","0","64","Sun Oct 15 18:00:54 2023","The main experiment item","True","Sternberg Task Elizabeth McGibbon .osexp","/Users/izzymcgibbon/Desktop/College/Tarleton State /2023 /Fall /Stats /3.0 ","False","mono","False","18","no","white","no","yes","768","legacy","52","11","/Users/izzymcgibbon/Desktop/College/Tarleton State /2023 /Fall /Stats /3.0 /EWMsubject-4.csv","legacy","8 5 1 3 9","Melodramatic Milgram","4.0.5","4","y","0","left","left","NA","left","left","658.0","12421","NA","25451","658","2","legacy","5","1024","2","48000","-16","experiment","4","even","3","452815","2568","NA","449568","450609","2431","114964","450611","430409","89512","451613","454818","455477","15016","454817","New experiment","45","73488.0","65","1024"
"69","69","1126","1126","#3d3846","experiment","legacy","legacy","legacy","1","undefined","1","right","65","0","0","65","65","0","0","65","65","0","65","65","65","0","65","Sun Oct 15 18:00:54 2023","The main experiment item","True","Sternberg Task Elizabeth McGibbon .osexp","/Users/izzymcgibbon/Desktop/College/Tarleton State /2023 /Fall /Stats /3.0 ","False","mono","False","18","no","white","no","yes","768","legacy","53","11","/Users/izzymcgibbon/Desktop/College/Tarleton State /2023 /Fall /Stats /3.0 /EWMsubject-4.csv","legacy","1 4 9 2 5","Melodramatic Milgram","4.0.5","0","n","0","right","left","NA","left","right","865.0","12421","NA","25451","865","2","legacy","5","1024","2","48000","-16","experiment","4","even","7","458730","2568","NA","455480","456523","2431","114964","456525","430409","89512","457527","460732","461598","15016","460732","New experiment","46","74353.0","66","1024"
"70","70","1117","1117","#3d3846","experiment","legacy","legacy","legacy","1","undefined","1","left","66","0","0","66","66","0","0","66","66","0","66","66","66","0","66","Sun Oct 15 18:00:54 2023","The main experiment item","True","Sternberg Task Elizabeth McGibbon .osexp","/Users/izzymcgibbon/Desktop/College/Tarleton State /2023 /Fall /Stats /3.0 ","False","mono","False","18","no","white","no","yes","768","legacy","54","11","/Users/izzymcgibbon/Desktop/College/Tarleton State /2023 /Fall /Stats /3.0 /EWMsubject-4.csv","legacy","9 5 3 8 4","Melodramatic Milgram","4.0.5","1","y","0","left","left","NA","left","left","548.0","12421","NA","25451","548","2","legacy","5","1024","2","48000","-16","experiment","4","even","9","464859","2568","NA","461602","462652","2431","114964","462654","430409","89512","463656","466861","467410","15016","466861","New experiment","47","74901.0","67","1024"
"69","69","1125","1125","#3d3846","experiment","legacy","legacy","legacy","0","undefined","0","left","67","0","0","67","67","0","0","67","67","0","67","67","67","0","67","Sun Oct 15 18:00:54 2023","The main experiment item","True","Sternberg Task Elizabeth McGibbon .osexp","/Users/izzymcgibbon/Desktop/College/Tarleton State /2023 /Fall /Stats /3.0 ","False","mono","False","18","no","white","no","yes","768","legacy","55","11","/Users/izzymcgibbon/Desktop/College/Tarleton State /2023 /Fall /Stats /3.0 /EWMsubject-4.csv","legacy","6 7 8 5","Melodramatic Milgram","4.0.5","3","y","0","right","left","NA","left","right","1599.0","12421","NA","25451","1599","2","legacy","4","1024","2","48000","-16","experiment","4","even","8","470670","2568","NA","467414","468461","2431","114964","468463","430409","89512","469467","472673","474273","15016","472672","New experiment","47","76500.0","68","1024"
"69","69","1109","1109","#3d3846","experiment","legacy","legacy","legacy","1","undefined","1","left","68","0","0","68","68","0","0","68","68","0","68","68","68","0","68","Sun Oct 15 18:00:54 2023","The main experiment item","True","Sternberg Task Elizabeth McGibbon .osexp","/Users/izzymcgibbon/Desktop/College/Tarleton State /2023 /Fall /Stats /3.0 ","False","mono","False","18","no","white","no","yes","768","legacy","56","11","/Users/izzymcgibbon/Desktop/College/Tarleton State /2023 /Fall /Stats /3.0 /EWMsubject-4.csv","legacy","2 3 7 4","Melodramatic Milgram","4.0.5","1","y","0","left","left","NA","left","left","21.0","12421","NA","25451","21","2","legacy","4","1024","2","48000","-16","experiment","4","even","2","477534","2568","NA","467414","475327","2431","114964","475329","474277","89512","476331","479536","479558","15016","479536","New experiment","48","76521.0","69","1024"
"68","68","1121","1121","#3d3846","experiment","legacy","legacy","legacy","0","undefined","0","right","69","0","0","69","69","0","0","69","69","0","69","69","69","0","69","Sun Oct 15 18:00:54 2023","The main experiment item","True","Sternberg Task Elizabeth McGibbon .osexp","/Users/izzymcgibbon/Desktop/College/Tarleton State /2023 /Fall /Stats /3.0 ","False","mono","False","18","no","white","no","yes","768","legacy","57","11","/Users/izzymcgibbon/Desktop/College/Tarleton State /2023 /Fall /Stats /3.0 /EWMsubject-4.csv","legacy","8 4 3 5","Melodramatic Milgram","4.0.5","0","n","0","None","left","NA","left","None","2000.0","12421","NA","25451","2000","2","legacy","4","1024","2","48000","-16","experiment","4","even","6","482832","2568","NA","479561","480622","2431","114964","480624","474277","89512","481627","484834","486834","15016","484834","New experiment","48","78521.0","70","1024"
"69","69","1125","1125","#3d3846","experiment","legacy","legacy","legacy","1","undefined","1","left","70","0","0","70","70","0","0","70","70","0","70","70","70","0","70","Sun Oct 15 18:00:54 2023","The main experiment item","True","Sternberg Task Elizabeth McGibbon .osexp","/Users/izzymcgibbon/Desktop/College/Tarleton State /2023 /Fall /Stats /3.0 ","False","mono","False","18","no","white","no","yes","768","legacy","58","11","/Users/izzymcgibbon/Desktop/College/Tarleton State /2023 /Fall /Stats /3.0 /EWMsubject-4.csv","legacy","3 4","Melodramatic Milgram","4.0.5","1","y","0","left","left","NA","left","left","1379.0","12421","NA","25451","1379","2","legacy","2","1024","2","48000","-16","experiment","4","even","3","490084","2568","NA","479561","487878","2431","114964","487880","486838","89512","488882","492087","493467","15016","492087","New experiment","49","79900.0","71","1024"
"68","68","1137","1137","#3d3846","experiment","legacy","legacy","legacy","0","undefined","0","left","71","0","0","71","71","0","0","71","71","0","71","71","71","0","71","Sun Oct 15 18:00:54 2023","The main experiment item","True","Sternberg Task Elizabeth McGibbon .osexp","/Users/izzymcgibbon/Desktop/College/Tarleton State /2023 /Fall /Stats /3.0 ","False","mono","False","18","no","white","no","yes","768","legacy","59","11","/Users/izzymcgibbon/Desktop/College/Tarleton State /2023 /Fall /Stats /3.0 /EWMsubject-4.csv","legacy","9 3 8 2 1 4","Melodramatic Milgram","4.0.5","3","y","0","None","left","NA","left","None","2000.0","12421","NA","25451","2000","2","legacy","6","1024","2","48000","-16","experiment","4","even","8","496725","2568","NA","493470","494515","2431","114964","494517","486838","89512","495520","498727","500727","15016","498727","New experiment","49","81900.0","72","1024"
"67","67","1149","1149","#3d3846","experiment","legacy","legacy","legacy","0","undefined","0","left","72","0","0","72","72","0","0","72","72","0","72","72","72","0","72","Sun Oct 15 18:00:54 2023","The main experiment item","True","Sternberg Task Elizabeth McGibbon .osexp","/Users/izzymcgibbon/Desktop/College/Tarleton State /2023 /Fall /Stats /3.0 ","False","mono","False","18","no","white","no","yes","768","legacy","60","11","/Users/izzymcgibbon/Desktop/College/Tarleton State /2023 /Fall /Stats /3.0 /EWMsubject-4.csv","legacy","8 5 3 7 4 6","Melodramatic Milgram","4.0.5","6","y","0","None","left","NA","left","None","2000.0","12421","NA","25451","2000","2","legacy","6","1024","2","48000","-16","experiment","4","even","6","503990","2568","NA","493470","501782","2431","114964","501784","500731","89512","502786","505993","507993","15016","505992","New experiment","49","83900.0","73","1024"
"66","66","1160","1160","#3d3846","experiment","legacy","legacy","legacy","0","undefined","0","left","73","0","0","73","73","0","0","73","73","0","73","73","73","0","73","Sun Oct 15 18:00:54 2023","The main experiment item","True","Sternberg Task Elizabeth McGibbon .osexp","/Users/izzymcgibbon/Desktop/College/Tarleton State /2023 /Fall /Stats /3.0 ","False","mono","False","18","no","white","no","yes","768","legacy","61","11","/Users/izzymcgibbon/Desktop/College/Tarleton State /2023 /Fall /Stats /3.0 /EWMsubject-4.csv","legacy","4 3 2 5 8","Melodramatic Milgram","4.0.5","2","y","0","None","left","NA","left","None","2001.0","12421","NA","25451","2001","2","legacy","5","1024","2","48000","-16","experiment","4","even","3","511256","2568","NA","493470","509047","2431","114964","509049","507997","89512","510053","513258","515259","15016","513258","New experiment","49","85901.0","74","1024"
"66","66","1148","1148","#3d3846","experiment","legacy","legacy","legacy","1","undefined","1","right","74","0","0","74","74","0","0","74","74","0","74","74","74","0","74","Sun Oct 15 18:00:54 2023","The main experiment item","True","Sternberg Task Elizabeth McGibbon .osexp","/Users/izzymcgibbon/Desktop/College/Tarleton State /2023 /Fall /Stats /3.0 ","False","mono","False","18","no","white","no","yes","768","legacy","62","11","/Users/izzymcgibbon/Desktop/College/Tarleton State /2023 /Fall /Stats /3.0 /EWMsubject-4.csv","legacy","2 8 7 9 5 3","Melodramatic Milgram","4.0.5","0","n","0","right","left","NA","left","right","236.0","12421","NA","25451","236","2","legacy","6","1024","2","48000","-16","experiment","4","even","6","518521","2568","NA","493470","516314","2431","114964","516316","515262","89512","517318","520523","520760","15016","520523","New experiment","50","86137.0","75","1024"
"67","67","1145","1145","#3d3846","experiment","legacy","legacy","legacy","1","undefined","1","left","75","0","0","75","75","0","0","75","75","0","75","75","75","0","75","Sun Oct 15 18:00:54 2023","The main experiment item","True","Sternberg Task Elizabeth McGibbon .osexp","/Users/izzymcgibbon/Desktop/College/Tarleton State /2023 /Fall /Stats /3.0 ","False","mono","False","18","no","white","no","yes","768","legacy","63","11","/Users/izzymcgibbon/Desktop/College/Tarleton State /2023 /Fall /Stats /3.0 /EWMsubject-4.csv","legacy","4 6 5 8","Melodramatic Milgram","4.0.5","1","y","0","left","left","NA","left","left","926.0","12421","NA","25451","926","2","legacy","4","1024","2","48000","-16","experiment","4","even","4","524033","2568","NA","520763","521824","2431","114964","521826","515262","89512","522829","526036","526963","15016","526036","New experiment","51","87063.0","76","1024"
"66","66","1156","1156","#3d3846","experiment","legacy","legacy","legacy","0","undefined","0","right","76","0","0","76","76","0","0","76","76","0","76","76","76","0","76","Sun Oct 15 18:00:54 2023","The main experiment item","True","Sternberg Task Elizabeth McGibbon .osexp","/Users/izzymcgibbon/Desktop/College/Tarleton State /2023 /Fall /Stats /3.0 ","False","mono","False","18","no","white","no","yes","768","legacy","64","11","/Users/izzymcgibbon/Desktop/College/Tarleton State /2023 /Fall /Stats /3.0 /EWMsubject-4.csv","legacy","1 6 4","Melodramatic Milgram","4.0.5","0","n","0","None","left","NA","left","None","2000.0","12421","NA","25451","2000","2","legacy","3","1024","2","48000","-16","experiment","4","even","7","530213","2568","NA","526967","528007","2431","114964","528009","515262","89512","529011","532215","534215","15016","532215","New experiment","51","89063.0","77","1024"
"66","66","1156","1156","#3d3846","experiment","legacy","legacy","legacy","1","undefined","1","left","77","0","0","77","77","0","0","77","77","0","77","77","77","0","77","Sun Oct 15 18:00:54 2023","The main experiment item","True","Sternberg Task Elizabeth McGibbon .osexp","/Users/izzymcgibbon/Desktop/College/Tarleton State /2023 /Fall /Stats /3.0 ","False","mono","False","18","no","white","no","yes","768","legacy","65","11","/Users/izzymcgibbon/Desktop/College/Tarleton State /2023 /Fall /Stats /3.0 /EWMsubject-4.csv","legacy","5 7 3 6 2","Melodramatic Milgram","4.0.5","5","y","0","left","left","NA","left","left","1147.0","12421","NA","25451","1147","2","legacy","5","1024","2","48000","-16","experiment","4","even","2","537470","2568","NA","526967","535263","2431","114964","535265","534219","89512","536268","539472","540620","15016","539472","New experiment","52","90210.0","78","1024"
"67","67","1153","1153","#3d3846","experiment","legacy","legacy","legacy","1","undefined","1","left","78","0","0","78","78","0","0","78","78","0","78","78","78","0","78","Sun Oct 15 18:00:54 2023","The main experiment item","True","Sternberg Task Elizabeth McGibbon .osexp","/Users/izzymcgibbon/Desktop/College/Tarleton State /2023 /Fall /Stats /3.0 ","False","mono","False","18","no","white","no","yes","768","legacy","66","11","/Users/izzymcgibbon/Desktop/College/Tarleton State /2023 /Fall /Stats /3.0 /EWMsubject-4.csv","legacy","4 6 2 5 1","Melodramatic Milgram","4.0.5","5","y","0","left","left","NA","left","left","929.0","12421","NA","25451","929","2","legacy","5","1024","2","48000","-16","experiment","4","even","1","543881","2568","NA","540623","541674","2431","114964","541675","534219","89512","542678","545883","546813","15016","545883","New experiment","53","91139.0","79","1024"
"67","67","1158","1158","#3d3846","experiment","legacy","legacy","legacy","1","undefined","1","left","79","0","0","79","79","0","0","79","79","0","79","79","79","0","79","Sun Oct 15 18:00:54 2023","The main experiment item","True","Sternberg Task Elizabeth McGibbon .osexp","/Users/izzymcgibbon/Desktop/College/Tarleton State /2023 /Fall /Stats /3.0 ","False","mono","False","18","no","white","no","yes","768","legacy","67","11","/Users/izzymcgibbon/Desktop/College/Tarleton State /2023 /Fall /Stats /3.0 /EWMsubject-4.csv","legacy","8 1 6","Melodramatic Milgram","4.0.5","3","y","0","left","left","NA","left","left","1540.0","12421","NA","25451","1540","2","legacy","3","1024","2","48000","-16","experiment","4","even","6","550074","2568","NA","546816","547866","2431","114964","547868","534219","89512","548870","552076","553617","15016","552076","New experiment","54","92679.0","80","1024"
"67","67","1151","1151","#3d3846","experiment","legacy","legacy","legacy","1","undefined","1","right","80","0","0","80","80","0","0","80","80","0","80","80","80","0","80","Sun Oct 15 18:00:54 2023","The main experiment item","True","Sternberg Task Elizabeth McGibbon .osexp","/Users/izzymcgibbon/Desktop/College/Tarleton State /2023 /Fall /Stats /3.0 ","False","mono","False","18","no","white","no","yes","768","legacy","68","11","/Users/izzymcgibbon/Desktop/College/Tarleton State /2023 /Fall /Stats /3.0 /EWMsubject-4.csv","legacy","5 2","Melodramatic Milgram","4.0.5","0","n","0","right","left","NA","left","right","595.0","12421","NA","25451","595","2","legacy","2","1024","2","48000","-16","experiment","4","even","7","556888","2568","NA","553621","554680","2431","114964","554683","534219","89512","555685","558890","559486","15016","558890","New experiment","55","93274.0","81","1024"
"68","68","1146","1146","#3d3846","experiment","legacy","legacy","legacy","1","undefined","1","left","81","0","0","81","81","0","0","81","81","0","81","81","81","0","81","Sun Oct 15 18:00:54 2023","The main experiment item","True","Sternberg Task Elizabeth McGibbon .osexp","/Users/izzymcgibbon/Desktop/College/Tarleton State /2023 /Fall /Stats /3.0 ","False","mono","False","18","no","white","no","yes","768","legacy","69","11","/Users/izzymcgibbon/Desktop/College/Tarleton State /2023 /Fall /Stats /3.0 /EWMsubject-4.csv","legacy","8 3","Melodramatic Milgram","4.0.5","2","y","0","left","left","NA","left","left","753.0","12421","NA","25451","753","2","legacy","2","1024","2","48000","-16","experiment","4","even","3","562759","2568","NA","559490","560551","2431","114964","560553","534219","89512","561556","564762","565516","15016","564761","New experiment","56","94027.0","82","1024"
"68","68","1141","1141","#3d3846","experiment","legacy","legacy","legacy","1","undefined","1","left","82","0","0","82","82","0","0","82","82","0","82","82","82","0","82","Sun Oct 15 18:00:54 2023","The main experiment item","True","Sternberg Task Elizabeth McGibbon .osexp","/Users/izzymcgibbon/Desktop/College/Tarleton State /2023 /Fall /Stats /3.0 ","False","mono","False","18","no","white","no","yes","768","legacy","70","11","/Users/izzymcgibbon/Desktop/College/Tarleton State /2023 /Fall /Stats /3.0 /EWMsubject-4.csv","legacy","3 9 7 6 4","Melodramatic Milgram","4.0.5","3","y","0","left","left","NA","left","left","719.0","12421","NA","25451","719","2","legacy","5","1024","2","48000","-16","experiment","4","even","7","568766","2568","NA","565519","566560","2431","114964","566562","534219","89512","567564","570768","571488","15016","570768","New experiment","57","94746.0","83","1024"
"67","67","1151","1151","#3d3846","experiment","legacy","legacy","legacy","0","undefined","0","left","83","0","0","83","83","0","0","83","83","0","83","83","83","0","83","Sun Oct 15 18:00:54 2023","The main experiment item","True","Sternberg Task Elizabeth McGibbon .osexp","/Users/izzymcgibbon/Desktop/College/Tarleton State /2023 /Fall /Stats /3.0 ","False","mono","False","18","no","white","no","yes","768","legacy","71","11","/Users/izzymcgibbon/Desktop/College/Tarleton State /2023 /Fall /Stats /3.0 /EWMsubject-4.csv","legacy","7 2 3","Melodramatic Milgram","4.0.5","3","y","0","None","left","NA","left","None","2000.0","12421","NA","25451","2000","2","legacy","3","1024","2","48000","-16","experiment","4","even","3","574743","2568","NA","571492","572537","2431","114964","572539","534219","89512","573541","576746","578746","15016","576746","New experiment","57","96746.0","84","1024"
"68","68","1153","1153","#3d3846","experiment","legacy","legacy","legacy","1","undefined","1","right","84","0","0","84","84","0","0","84","84","0","84","84","84","0","84","Sun Oct 15 18:00:54 2023","The main experiment item","True","Sternberg Task Elizabeth McGibbon .osexp","/Users/izzymcgibbon/Desktop/College/Tarleton State /2023 /Fall /Stats /3.0 ","False","mono","False","18","no","white","no","yes","768","legacy","72","11","/Users/izzymcgibbon/Desktop/College/Tarleton State /2023 /Fall /Stats /3.0 /EWMsubject-4.csv","legacy","9 5 3 2 8 6","Melodramatic Milgram","4.0.5","0","n","0","right","left","NA","left","right","1264.0","12421","NA","25451","1264","2","legacy","6","1024","2","48000","-16","experiment","4","even","7","582008","2568","NA","571492","579800","2431","114964","579802","578750","89512","580804","584010","585275","15016","584010","New experiment","58","98010.0","85","1024"
"68","68","1149","1149","#3d3846","experiment","legacy","legacy","legacy","1","undefined","1","left","85","0","0","85","85","0","0","85","85","0","85","85","85","0","85","Sun Oct 15 18:00:54 2023","The main experiment item","True","Sternberg Task Elizabeth McGibbon .osexp","/Users/izzymcgibbon/Desktop/College/Tarleton State /2023 /Fall /Stats /3.0 ","False","mono","False","18","no","white","no","yes","768","legacy","73","11","/Users/izzymcgibbon/Desktop/College/Tarleton State /2023 /Fall /Stats /3.0 /EWMsubject-4.csv","legacy","8 7 3","Melodramatic Milgram","4.0.5","1","y","0","left","left","NA","left","left","866.0","12421","NA","25451","866","2","legacy","3","1024","2","48000","-16","experiment","4","even","8","588537","2568","NA","585278","586329","2431","114964","586331","578750","89512","587334","590539","591407","15016","590539","New experiment","59","98876.0","86","1024"
"67","67","1158","1158","#3d3846","experiment","legacy","legacy","legacy","0","undefined","0","right","86","0","0","86","86","0","0","86","86","0","86","86","86","0","86","Sun Oct 15 18:00:54 2023","The main experiment item","True","Sternberg Task Elizabeth McGibbon .osexp","/Users/izzymcgibbon/Desktop/College/Tarleton State /2023 /Fall /Stats /3.0 ","False","mono","False","18","no","white","no","yes","768","legacy","74","11","/Users/izzymcgibbon/Desktop/College/Tarleton State /2023 /Fall /Stats /3.0 /EWMsubject-4.csv","legacy","9 8 2 7 4","Melodramatic Milgram","4.0.5","0","n","0","left","left","NA","left","left","1922.0","12421","NA","25451","1922","2","legacy","5","1024","2","48000","-16","experiment","4","even","5","594670","2568","NA","591411","592462","2431","114964","592464","578750","89512","593467","596673","598596","15016","596672","New experiment","59","100798.0","87","1024"
"68","68","1156","1156","#3d3846","experiment","legacy","legacy","legacy","1","undefined","1","left","87","0","0","87","87","0","0","87","87","0","87","87","87","0","87","Sun Oct 15 18:00:54 2023","The main experiment item","True","Sternberg Task Elizabeth McGibbon .osexp","/Users/izzymcgibbon/Desktop/College/Tarleton State /2023 /Fall /Stats /3.0 ","False","mono","False","18","no","white","no","yes","768","legacy","75","11","/Users/izzymcgibbon/Desktop/College/Tarleton State /2023 /Fall /Stats /3.0 /EWMsubject-4.csv","legacy","7 1 3","Melodramatic Milgram","4.0.5","2","y","0","left","left","NA","left","left","1012.0","12421","NA","25451","1012","2","legacy","3","1024","2","48000","-16","experiment","4","even","1","601870","2568","NA","591411","599662","2431","114964","599664","598600","89512","600666","603872","604885","15016","603872","New experiment","60","101810.0","88","1024"
"68","68","1151","1151","#3d3846","experiment","legacy","legacy","legacy","1","undefined","1","left","88","0","0","88","88","0","0","88","88","0","88","88","88","0","88","Sun Oct 15 18:00:54 2023","The main experiment item","True","Sternberg Task Elizabeth McGibbon .osexp","/Users/izzymcgibbon/Desktop/College/Tarleton State /2023 /Fall /Stats /3.0 ","False","mono","False","18","no","white","no","yes","768","legacy","76","11","/Users/izzymcgibbon/Desktop/College/Tarleton State /2023 /Fall /Stats /3.0 /EWMsubject-4.csv","legacy","7","Melodramatic Milgram","4.0.5","1","y","0","left","left","NA","left","left","629.0","12421","NA","25451","629","2","legacy","1","1024","2","48000","-16","experiment","4","even","7","608135","2568","NA","604888","605927","2431","114964","605929","598600","89512","606932","610137","610767","15016","610137","New experiment","61","102439.0","89","1024"
"68","68","1149","1149","#3d3846","experiment","legacy","legacy","legacy","1","undefined","1","right","89","0","0","89","89","0","0","89","89","0","89","89","89","0","89","Sun Oct 15 18:00:54 2023","The main experiment item","True","Sternberg Task Elizabeth McGibbon .osexp","/Users/izzymcgibbon/Desktop/College/Tarleton State /2023 /Fall /Stats /3.0 ","False","mono","False","18","no","white","no","yes","768","legacy","77","11","/Users/izzymcgibbon/Desktop/College/Tarleton State /2023 /Fall /Stats /3.0 /EWMsubject-4.csv","legacy","7 9 1 6","Melodramatic Milgram","4.0.5","0","n","0","right","left","NA","left","right","989.0","12421","NA","25451","989","2","legacy","4","1024","2","48000","-16","experiment","4","even","4","614023","2568","NA","610771","611816","2431","114964","611818","598600","89512","612820","616025","617015","15016","616025","New experiment","62","103428.0","90","1024"
"68","68","1153","1153","#3d3846","experiment","legacy","legacy","legacy","0","undefined","0","right","90","0","0","90","90","0","0","90","90","0","90","90","90","0","90","Sun Oct 15 18:00:54 2023","The main experiment item","True","Sternberg Task Elizabeth McGibbon .osexp","/Users/izzymcgibbon/Desktop/College/Tarleton State /2023 /Fall /Stats /3.0 ","False","mono","False","18","no","white","no","yes","768","legacy","78","11","/Users/izzymcgibbon/Desktop/College/Tarleton State /2023 /Fall /Stats /3.0 /EWMsubject-4.csv","legacy","7 1 5 6 3","Melodramatic Milgram","4.0.5","0","n","0","left","left","NA","left","left","1511.0","12421","NA","25451","1511","2","legacy","5","1024","2","48000","-16","experiment","4","even","8","620276","2568","NA","617019","618069","2431","114964","618071","598600","89512","619073","622278","623790","15016","622278","New experiment","62","104939.0","91","1024"
"67","67","1162","1162","#3d3846","experiment","legacy","legacy","legacy","0","undefined","0","right","91","0","0","91","91","0","0","91","91","0","91","91","91","0","91","Sun Oct 15 18:00:54 2023","The main experiment item","True","Sternberg Task Elizabeth McGibbon .osexp","/Users/izzymcgibbon/Desktop/College/Tarleton State /2023 /Fall /Stats /3.0 ","False","mono","False","18","no","white","no","yes","768","legacy","79","11","/Users/izzymcgibbon/Desktop/College/Tarleton State /2023 /Fall /Stats /3.0 /EWMsubject-4.csv","legacy","7 1","Melodramatic Milgram","4.0.5","0","n","0","None","left","NA","left","None","2000.0","12421","NA","25451","2000","2","legacy","2","1024","2","48000","-16","experiment","4","even","8","627051","2568","NA","617019","624843","2431","114964","624845","623793","89512","625847","629055","631055","15016","629054","New experiment","62","106939.0","92","1024"
"66","66","1161","1161","#3d3846","experiment","legacy","legacy","legacy","0","undefined","0","left","92","0","0","92","92","0","0","92","92","0","92","92","92","0","92","Sun Oct 15 18:00:54 2023","The main experiment item","True","Sternberg Task Elizabeth McGibbon .osexp","/Users/izzymcgibbon/Desktop/College/Tarleton State /2023 /Fall /Stats /3.0 ","False","mono","False","18","no","white","no","yes","768","legacy","80","11","/Users/izzymcgibbon/Desktop/College/Tarleton State /2023 /Fall /Stats /3.0 /EWMsubject-4.csv","legacy","8 9 5 7 1 6","Melodramatic Milgram","4.0.5","4","y","0","right","left","NA","left","right","1062.0","12421","NA","25451","1062","2","legacy","6","1024","2","48000","-16","experiment","4","even","7","634317","2568","NA","617019","632110","2431","114964","632112","631059","89512","633114","636319","637382","15016","636319","New experiment","62","108001.0","93","1024"
"67","67","1170","1170","#3d3846","experiment","legacy","legacy","legacy","1","undefined","1","right","93","0","0","93","93","0","0","93","93","0","93","93","93","0","93","Sun Oct 15 18:00:54 2023","The main experiment item","True","Sternberg Task Elizabeth McGibbon .osexp","/Users/izzymcgibbon/Desktop/College/Tarleton State /2023 /Fall /Stats /3.0 ","False","mono","False","18","no","white","no","yes","768","legacy","81","11","/Users/izzymcgibbon/Desktop/College/Tarleton State /2023 /Fall /Stats /3.0 /EWMsubject-4.csv","legacy","9 7 4 5 8","Melodramatic Milgram","4.0.5","0","n","0","right","left","NA","left","right","1984.0","12421","NA","25451","1984","2","legacy","5","1024","2","48000","-16","experiment","4","even","6","640655","2568","NA","617019","638446","2431","114964","638448","637386","89512","639452","642657","644642","15016","642657","New experiment","63","109985.0","94","1024"
"67","67","1168","1168","#3d3846","experiment","legacy","legacy","legacy","1","undefined","1","left","94","0","0","94","94","0","0","94","94","0","94","94","94","0","94","Sun Oct 15 18:00:54 2023","The main experiment item","True","Sternberg Task Elizabeth McGibbon .osexp","/Users/izzymcgibbon/Desktop/College/Tarleton State /2023 /Fall /Stats /3.0 ","False","mono","False","18","no","white","no","yes","768","legacy","82","11","/Users/izzymcgibbon/Desktop/College/Tarleton State /2023 /Fall /Stats /3.0 /EWMsubject-4.csv","legacy","8 9 5 6 7","Melodramatic Milgram","4.0.5","1","y","0","left","left","NA","left","left","994.0","12421","NA","25451","994","2","legacy","5","1024","2","48000","-16","experiment","4","even","8","647892","2568","NA","644645","645686","2431","114964","645688","637386","89512","646690","649895","650890","15016","649895","New experiment","64","110979.0","95","1024"
"67","67","1167","1167","#3d3846","experiment","legacy","legacy","legacy","1","undefined","1","right","95","0","0","95","95","0","0","95","95","0","95","95","95","0","95","Sun Oct 15 18:00:54 2023","The main experiment item","True","Sternberg Task Elizabeth McGibbon .osexp","/Users/izzymcgibbon/Desktop/College/Tarleton State /2023 /Fall /Stats /3.0 ","False","mono","False","18","no","white","no","yes","768","legacy","83","11","/Users/izzymcgibbon/Desktop/College/Tarleton State /2023 /Fall /Stats /3.0 /EWMsubject-4.csv","legacy","6 8","Melodramatic Milgram","4.0.5","0","n","0","right","left","NA","left","right","1082.0","12421","NA","25451","1082","2","legacy","2","1024","2","48000","-16","experiment","4","even","9","654142","2568","NA","650893","651936","2431","114964","651938","637386","89512","652940","656144","657227","15016","656144","New experiment","65","112061.0","96","1024"
"68","68","1166","1166","#3d3846","experiment","legacy","legacy","legacy","1","undefined","1","right","96","0","0","96","96","0","0","96","96","0","96","96","96","0","96","Sun Oct 15 18:00:54 2023","The main experiment item","True","Sternberg Task Elizabeth McGibbon .osexp","/Users/izzymcgibbon/Desktop/College/Tarleton State /2023 /Fall /Stats /3.0 ","False","mono","False","18","no","white","no","yes","768","legacy","84","11","/Users/izzymcgibbon/Desktop/College/Tarleton State /2023 /Fall /Stats /3.0 /EWMsubject-4.csv","legacy","1 4 9 3","Melodramatic Milgram","4.0.5","0","n","0","right","left","NA","left","right","1063.0","12421","NA","25451","1063","2","legacy","4","1024","2","48000","-16","experiment","4","even","5","660488","2568","NA","657231","658281","2431","114964","658283","637386","89512","659285","662491","663556","15016","662491","New experiment","66","113124.0","97","1024"
"67","67","1163","1163","#3d3846","experiment","legacy","legacy","legacy","0","undefined","0","left","97","0","0","97","97","0","0","97","97","0","97","97","97","0","97","Sun Oct 15 18:00:54 2023","The main experiment item","True","Sternberg Task Elizabeth McGibbon .osexp","/Users/izzymcgibbon/Desktop/College/Tarleton State /2023 /Fall /Stats /3.0 ","False","mono","False","18","no","white","no","yes","768","legacy","85","11","/Users/izzymcgibbon/Desktop/College/Tarleton State /2023 /Fall /Stats /3.0 /EWMsubject-4.csv","legacy","3 5 4 7","Melodramatic Milgram","4.0.5","1","y","0","right","left","NA","left","right","925.0","12421","NA","25451","925","2","legacy","4","1024","2","48000","-16","experiment","4","even","3","666817","2568","NA","663558","664609","2431","114964","664611","637386","89512","665613","668820","669746","15016","668819","New experiment","66","114049.0","98","1024"
"67","67","1161","1161","#3d3846","experiment","legacy","legacy","legacy","1","undefined","1","left","98","0","0","98","98","0","0","98","98","0","98","98","98","0","98","Sun Oct 15 18:00:54 2023","The main experiment item","True","Sternberg Task Elizabeth McGibbon .osexp","/Users/izzymcgibbon/Desktop/College/Tarleton State /2023 /Fall /Stats /3.0 ","False","mono","False","18","no","white","no","yes","768","legacy","86","11","/Users/izzymcgibbon/Desktop/College/Tarleton State /2023 /Fall /Stats /3.0 /EWMsubject-4.csv","legacy","5 2 9 6 1 7","Melodramatic Milgram","4.0.5","3","y","0","left","left","NA","left","left","906.0","12421","NA","25451","906","2","legacy","6","1024","2","48000","-16","experiment","4","even","9","673010","2568","NA","663558","670802","2431","114964","670804","669750","89512","671806","675012","675919","15016","675012","New experiment","67","114955.0","99","1024"
"67","67","1156","1156","#3d3846","experiment","legacy","legacy","legacy","0","undefined","0","right","99","0","0","99","99","0","0","99","99","0","99","99","99","0","99","Sun Oct 15 18:00:54 2023","The main experiment item","True","Sternberg Task Elizabeth McGibbon .osexp","/Users/izzymcgibbon/Desktop/College/Tarleton State /2023 /Fall /Stats /3.0 ","False","mono","False","18","no","white","no","yes","768","legacy","87","11","/Users/izzymcgibbon/Desktop/College/Tarleton State /2023 /Fall /Stats /3.0 /EWMsubject-4.csv","legacy","7 6 4 8 1 2","Melodramatic Milgram","4.0.5","0","n","0","left","left","NA","left","left","663.0","12421","NA","25451","663","2","legacy","6","1024","2","48000","-16","experiment","4","even","9","679241","2568","NA","675923","677033","2431","114964","677035","669750","89512","678038","681244","681908","15016","681243","New experiment","67","115618.0","100","1024"
"66","66","1164","1164","#3d3846","experiment","legacy","legacy","legacy","0","undefined","0","left","100","0","0","100","100","0","0","100","100","0","100","100","100","0","100","Sun Oct 15 18:00:54 2023","The main experiment item","True","Sternberg Task Elizabeth McGibbon .osexp","/Users/izzymcgibbon/Desktop/College/Tarleton State /2023 /Fall /Stats /3.0 ","False","mono","False","18","no","white","no","yes","768","legacy","88","11","/Users/izzymcgibbon/Desktop/College/Tarleton State /2023 /Fall /Stats /3.0 /EWMsubject-4.csv","legacy","8 5 4 7 3 1","Melodramatic Milgram","4.0.5","2","y","0","None","left","NA","left","None","2000.0","12421","NA","25451","2000","2","legacy","6","1024","2","48000","-16","experiment","4","even","5","685159","2568","NA","675923","682952","2431","114964","682954","681912","89512","683956","687161","689161","15016","687161","New experiment","67","117618.0","101","1024"
"66","66","1165","1165","#3d3846","experiment","legacy","legacy","legacy","1","undefined","1","left","101","0","0","101","101","0","0","101","101","0","101","101","101","0","101","Sun Oct 15 18:00:54 2023","The main experiment item","True","Sternberg Task Elizabeth McGibbon .osexp","/Users/izzymcgibbon/Desktop/College/Tarleton State /2023 /Fall /Stats /3.0 ","False","mono","False","18","no","white","no","yes","768","legacy","89","11","/Users/izzymcgibbon/Desktop/College/Tarleton State /2023 /Fall /Stats /3.0 /EWMsubject-4.csv","legacy","6 7 9 3 1 2","Melodramatic Milgram","4.0.5","1","y","0","left","left","NA","left","left","1282.0","12421","NA","25451","1282","2","legacy","6","1024","2","48000","-16","experiment","4","even","6","692417","2568","NA","675923","690210","2431","114964","690212","689165","89512","691214","694419","695702","15016","694419","New experiment","68","118900.0","102","1024"
"66","66","1164","1164","#3d3846","experiment","legacy","legacy","legacy","1","undefined","1","left","102","0","0","102","102","0","0","102","102","0","102","102","102","0","102","Sun Oct 15 18:00:54 2023","The main experiment item","True","Sternberg Task Elizabeth McGibbon .osexp","/Users/izzymcgibbon/Desktop/College/Tarleton State /2023 /Fall /Stats /3.0 ","False","mono","False","18","no","white","no","yes","768","legacy","90","11","/Users/izzymcgibbon/Desktop/College/Tarleton State /2023 /Fall /Stats /3.0 /EWMsubject-4.csv","legacy","3 5 7 1","Melodramatic Milgram","4.0.5","3","y","0","left","left","NA","left","left","1013.0","12421","NA","25451","1013","2","legacy","4","1024","2","48000","-16","experiment","4","even","7","698962","2568","NA","695705","696754","2431","114964","696756","689165","89512","697758","700964","701978","15016","700964","New experiment","69","119913.0","103","1024"
"67","67","1158","1158","#3d3846","experiment","legacy","legacy","legacy","1","undefined","1","left","103","0","0","103","103","0","0","103","103","0","103","103","103","0","103","Sun Oct 15 18:00:54 2023","The main experiment item","True","Sternberg Task Elizabeth McGibbon .osexp","/Users/izzymcgibbon/Desktop/College/Tarleton State /2023 /Fall /Stats /3.0 ","False","mono","False","18","no","white","no","yes","768","legacy","91","11","/Users/izzymcgibbon/Desktop/College/Tarleton State /2023 /Fall /Stats /3.0 /EWMsubject-4.csv","legacy","2 6 1 7 4","Melodramatic Milgram","4.0.5","2","y","0","left","left","NA","left","left","615.0","12421","NA","25451","615","2","legacy","5","1024","2","48000","-16","experiment","4","even","6","705238","2568","NA","701982","703032","2431","114964","703033","689165","89512","704036","707240","707856","15016","707240","New experiment","70","120528.0","104","1024"
"67","67","1153","1153","#3d3846","experiment","legacy","legacy","legacy","1","undefined","1","right","104","0","0","104","104","0","0","104","104","0","104","104","104","0","104","Sun Oct 15 18:00:54 2023","The main experiment item","True","Sternberg Task Elizabeth McGibbon .osexp","/Users/izzymcgibbon/Desktop/College/Tarleton State /2023 /Fall /Stats /3.0 ","False","mono","False","18","no","white","no","yes","768","legacy","92","11","/Users/izzymcgibbon/Desktop/College/Tarleton State /2023 /Fall /Stats /3.0 /EWMsubject-4.csv","legacy","5","Melodramatic Milgram","4.0.5","0","n","0","right","left","NA","left","right","631.0","12421","NA","25451","631","2","legacy","1","1024","2","48000","-16","experiment","4","even","8","711116","2568","NA","707859","708907","2431","114964","708910","689165","89512","709912","713118","713750","15016","713118","New experiment","71","121159.0","105","1024"
"67","67","1160","1160","#3d3846","experiment","legacy","legacy","legacy","1","undefined","1","right","105","0","0","105","105","0","0","105","105","0","105","105","105","0","105","Sun Oct 15 18:00:54 2023","The main experiment item","True","Sternberg Task Elizabeth McGibbon .osexp","/Users/izzymcgibbon/Desktop/College/Tarleton State /2023 /Fall /Stats /3.0 ","False","mono","False","18","no","white","no","yes","768","legacy","93","11","/Users/izzymcgibbon/Desktop/College/Tarleton State /2023 /Fall /Stats /3.0 /EWMsubject-4.csv","legacy","2 3 8 5 6 7","Melodramatic Milgram","4.0.5","0","n","0","right","left","NA","left","right","1840.0","12421","NA","25451","1840","2","legacy","6","1024","2","48000","-16","experiment","4","even","1","717021","2568","NA","713753","714813","2431","114964","714815","689165","89512","715818","719024","720866","15016","719023","New experiment","72","122999.0","106","1024"
"68","68","1155","1155","#3d3846","experiment","legacy","legacy","legacy","1","undefined","1","left","106","0","0","106","106","0","0","106","106","0","106","106","106","0","106","Sun Oct 15 18:00:54 2023","The main experiment item","True","Sternberg Task Elizabeth McGibbon .osexp","/Users/izzymcgibbon/Desktop/College/Tarleton State /2023 /Fall /Stats /3.0 ","False","mono","False","18","no","white","no","yes","768","legacy","94","11","/Users/izzymcgibbon/Desktop/College/Tarleton State /2023 /Fall /Stats /3.0 /EWMsubject-4.csv","legacy","3 4 9 6 2 9","Melodramatic Milgram","4.0.5","5","y","0","left","left","NA","left","left","613.0","12421","NA","25451","613","2","legacy","6","1024","2","48000","-16","experiment","4","even","2","724115","2568","NA","720869","721909","2431","114964","721911","689165","89512","722913","726117","726732","15016","726117","New experiment","73","123612.0","107","1024"
"67","67","1163","1163","#3d3846","experiment","legacy","legacy","legacy","0","undefined","0","left","107","0","0","107","107","0","0","107","107","0","107","107","107","0","107","Sun Oct 15 18:00:54 2023","The main experiment item","True","Sternberg Task Elizabeth McGibbon .osexp","/Users/izzymcgibbon/Desktop/College/Tarleton State /2023 /Fall /Stats /3.0 ","False","mono","False","18","no","white","no","yes","768","legacy","95","11","/Users/izzymcgibbon/Desktop/College/Tarleton State /2023 /Fall /Stats /3.0 /EWMsubject-4.csv","legacy","6 9 7 4 5 1","Melodramatic Milgram","4.0.5","2","y","0","None","left","NA","left","None","2000.0","12421","NA","25451","2000","2","legacy","6","1024","2","48000","-16","experiment","4","even","9","729989","2568","NA","726735","727781","2431","114964","727783","689165","89512","728786","731991","733991","15016","731991","New experiment","73","125612.0","108","1024"
"66","66","1160","1160","#3d3846","experiment","legacy","legacy","legacy","0","undefined","0","left","108","0","0","108","108","0","0","108","108","0","108","108","108","0","108","Sun Oct 15 18:00:54 2023","The main experiment item","True","Sternberg Task Elizabeth McGibbon .osexp","/Users/izzymcgibbon/Desktop/College/Tarleton State /2023 /Fall /Stats /3.0 ","False","mono","False","18","no","white","no","yes","768","legacy","96","11","/Users/izzymcgibbon/Desktop/College/Tarleton State /2023 /Fall /Stats /3.0 /EWMsubject-4.csv","legacy","4 1 5","Melodramatic Milgram","4.0.5","2","y","0","right","left","NA","left","right","860.0","12421","NA","25451","860","2","legacy","3","1024","2","48000","-16","experiment","4","even","1","737250","2568","NA","726735","735044","2431","114964","735046","733995","89512","736048","739253","740114","15016","739253","New experiment","73","126472.0","109","1024"
"67","67","1156","1156","#3d3846","experiment","legacy","legacy","legacy","1","undefined","1","left","109","0","0","109","109","0","0","109","109","0","109","109","109","0","109","Sun Oct 15 18:00:54 2023","The main experiment item","True","Sternberg Task Elizabeth McGibbon .osexp","/Users/izzymcgibbon/Desktop/College/Tarleton State /2023 /Fall /Stats /3.0 ","False","mono","False","18","no","white","no","yes","768","legacy","97","11","/Users/izzymcgibbon/Desktop/College/Tarleton State /2023 /Fall /Stats /3.0 /EWMsubject-4.csv","legacy","7 4 2 6 3 5","Melodramatic Milgram","4.0.5","6","y","0","left","left","NA","left","left","757.0","12421","NA","25451","757","2","legacy","6","1024","2","48000","-16","experiment","4","even","5","743375","2568","NA","726735","741167","2431","114964","741169","740117","89512","742171","745377","746135","15016","745377","New experiment","74","127229.0","110","1024"
