"acc","accuracy","average_response_time","avg_rt","background","block","canvas_backend","clock_backend","color_backend","correct","correct_instruction1_sketchpad","correct_keyboard_keyboard_response","correct_response","count__logger","count_correctfeeback_sketchpad","count_exp_sequence","count_experiment","count_experimentloop","count_fixation_sketchpad","count_incorrectfeedback_sketchpad","count_instruction1_sketchpad","count_instruction2_sketchpad","count_isi_sketchpad","count_keyboard_keyboard_response","count_memoryset_sketchpad","count_practice_loop","count_probe_sketchpad","count_thankyou_sketchpad","datetime","description","disable_garbage_collection","experiment_file","experiment_path","font_bold","font_family","font_italic","font_size","font_underline","foreground","form_clicks","fullscreen","height","keyboard_backend","live_row","live_row_practice_loop","logfile","mouse_backend","numberSet","opensesame_codename","opensesame_version","posInSet","present","repeat_cycle","response","response_instruction1_sketchpad","response_instruction2_sketchpad","response_keyboard_keyboard_response","response_thankyou_sketchpad","response_time","response_time_instruction1_sketchpad","response_time_instruction2_sketchpad","response_time_keyboard_keyboard_response","response_time_thankyou_sketchpad","round_decimals","sampler_backend","setSize","sound_buf_size","sound_channels","sound_freq","sound_sample_size","start","subject_nr","subject_parity","target","time__logger","time_correctfeeback_sketchpad","time_exp_sequence","time_experiment","time_experimentloop","time_fixation_sketchpad","time_incorrectfeedback_sketchpad","time_instruction1_sketchpad","time_instruction2_sketchpad","time_isi_sketchpad","time_keyboard_keyboard_response","time_memoryset_sketchpad","time_practice_loop","time_probe_sketchpad","time_thankyou_sketchpad","title","total_correct","total_response_time","total_responses","width"
"100","100","1314","1314","#3d3846","practice","legacy","legacy","legacy","1","undefined","1","left","0","0","0","0","0","0","0","0","0","0","0","0","0","0","0","Sun Oct 22 14:00:21 2023","The main experiment item","False","Sternbergtask.osexp","C:\Users\User\Desktop","False","mono","False","18","no","white","no","yes","768","legacy","0","0","C:/Users/User/Desktop/subject-3.csv","legacy","6","Melodramatic Milgram","4.0.5","1","y","0","left","left","NA","left","NA","1314.0","4125","NA","1314","NA","2","legacy","1","1024","2","48000","-16","experiment","3","odd","6","12447","NA","6930","2394","NA","6931","NA","2401","NA","9132","11132","7931","6527","11132","NA","Sternberg task","1","1314.0","1","1024"
"100","100","999","999","#3d3846","practice","legacy","legacy","legacy","1","undefined","1","right","1","1","1","0","0","1","1","0","0","1","1","1","0","1","0","Sun Oct 22 14:00:21 2023","The main experiment item","False","Sternbergtask.osexp","C:\Users\User\Desktop","False","mono","False","18","no","white","no","yes","768","legacy","1","1","C:/Users/User/Desktop/subject-3.csv","legacy","5 7 8 4 1 2","Melodramatic Milgram","4.0.5","0","n","0","right","left","NA","right","NA","684.0","4125","NA","684","NA","2","legacy","6","1024","2","48000","-16","experiment","3","odd","6","18429","12486","13541","2394","NA","13542","NA","2401","NA","15744","17745","14543","6527","17745","NA","Sternberg task","2","1998.0","2","1024"
"100","100","875","875","#3d3846","practice","legacy","legacy","legacy","1","undefined","1","right","2","2","2","0","0","2","2","0","0","2","2","2","0","2","0","Sun Oct 22 14:00:21 2023","The main experiment item","False","Sternbergtask.osexp","C:\Users\User\Desktop","False","mono","False","18","no","white","no","yes","768","legacy","2","2","C:/Users/User/Desktop/subject-3.csv","legacy","2 1","Melodramatic Milgram","4.0.5","0","n","0","right","left","NA","right","NA","629.0","4125","NA","629","NA","2","legacy","2","1024","2","48000","-16","experiment","3","odd","5","24322","18435","19489","2394","NA","19490","NA","2401","NA","21692","23693","20491","6527","23693","NA","Sternberg task","3","2627.0","3","1024"
"100","100","883","883","#3d3846","practice","legacy","legacy","legacy","1","undefined","1","right","3","3","3","0","0","3","3","0","0","3","3","3","0","3","0","Sun Oct 22 14:00:21 2023","The main experiment item","False","Sternbergtask.osexp","C:\Users\User\Desktop","False","mono","False","18","no","white","no","yes","768","legacy","3","3","C:/Users/User/Desktop/subject-3.csv","legacy","3 1 9 4","Melodramatic Milgram","4.0.5","0","n","0","right","left","NA","right","NA","907.0","4125","NA","907","NA","2","legacy","4","1024","2","48000","-16","experiment","3","odd","6","30489","24328","25378","2394","NA","25379","NA","2401","NA","27579","29581","26379","6527","29580","NA","Sternberg task","4","3534.0","4","1024"
"100","100","1011","1011","#3d3846","practice","legacy","legacy","legacy","1","undefined","1","right","4","4","4","0","0","4","4","0","0","4","4","4","0","4","0","Sun Oct 22 14:00:21 2023","The main experiment item","False","Sternbergtask.osexp","C:\Users\User\Desktop","False","mono","False","18","no","white","no","yes","768","legacy","4","4","C:/Users/User/Desktop/subject-3.csv","legacy","5","Melodramatic Milgram","4.0.5","0","n","0","right","left","NA","right","NA","1525.0","4125","NA","1525","NA","2","legacy","1","1024","2","48000","-16","experiment","3","odd","3","37271","30495","31541","2394","NA","31543","NA","2401","NA","33745","35746","32544","6527","35745","NA","Sternberg task","5","5059.0","5","1024"
"100","100","1112","1112","#3d3846","practice","legacy","legacy","legacy","1","undefined","1","left","5","5","5","0","0","5","5","0","0","5","5","5","0","5","0","Sun Oct 22 14:00:21 2023","The main experiment item","False","Sternbergtask.osexp","C:\Users\User\Desktop","False","mono","False","18","no","white","no","yes","768","legacy","5","5","C:/Users/User/Desktop/subject-3.csv","legacy","1 5 2 9","Melodramatic Milgram","4.0.5","2","y","0","left","left","NA","left","NA","1613.0","4125","NA","1613","NA","2","legacy","4","1024","2","48000","-16","experiment","3","odd","5","44142","37278","38325","2394","NA","38326","NA","2401","NA","40529","42529","39328","6527","42529","NA","Sternberg task","6","6672.0","6","1024"
"100","100","1119","1119","#3d3846","practice","legacy","legacy","legacy","1","undefined","1","left","6","6","6","0","0","6","6","0","0","6","6","6","0","6","0","Sun Oct 22 14:00:21 2023","The main experiment item","False","Sternbergtask.osexp","C:\Users\User\Desktop","False","mono","False","18","no","white","no","yes","768","legacy","6","6","C:/Users/User/Desktop/subject-3.csv","legacy","1 7 9 8 5","Melodramatic Milgram","4.0.5","4","y","0","left","left","NA","left","NA","1161.0","4125","NA","1161","NA","2","legacy","5","1024","2","48000","-16","experiment","3","odd","8","50561","44148","45196","2394","NA","45198","NA","2401","NA","47399","49400","46198","6527","49400","NA","Sternberg task","7","7833.0","7","1024"
"100","100","1089","1089","#3d3846","practice","legacy","legacy","legacy","1","undefined","1","right","7","7","7","0","0","7","7","0","0","7","7","7","0","7","0","Sun Oct 22 14:00:21 2023","The main experiment item","False","Sternbergtask.osexp","C:\Users\User\Desktop","False","mono","False","18","no","white","no","yes","768","legacy","7","7","C:/Users/User/Desktop/subject-3.csv","legacy","9 6 7 4 5","Melodramatic Milgram","4.0.5","0","n","0","right","left","NA","right","NA","881.0","4125","NA","881","NA","2","legacy","5","1024","2","48000","-16","experiment","3","odd","3","56713","50568","51629","2394","NA","51630","NA","2401","NA","53831","55831","52631","6527","55831","NA","Sternberg task","8","8714.0","8","1024"
"100","100","1043","1043","#3d3846","practice","legacy","legacy","legacy","1","undefined","1","left","8","8","8","0","0","8","8","0","0","8","8","8","0","8","0","Sun Oct 22 14:00:21 2023","The main experiment item","False","Sternbergtask.osexp","C:\Users\User\Desktop","False","mono","False","18","no","white","no","yes","768","legacy","8","8","C:/Users/User/Desktop/subject-3.csv","legacy","4 8","Melodramatic Milgram","4.0.5","1","y","0","left","left","NA","left","NA","673.0","4125","NA","673","NA","2","legacy","2","1024","2","48000","-16","experiment","3","odd","4","62637","56715","57761","2394","NA","57762","NA","2401","NA","59962","61963","58762","6527","61962","NA","Sternberg task","9","9387.0","9","1024"
"100","100","1006","1006","#3d3846","practice","legacy","legacy","legacy","1","undefined","1","left","9","9","9","0","0","9","9","0","0","9","9","9","0","9","0","Sun Oct 22 14:00:21 2023","The main experiment item","False","Sternbergtask.osexp","C:\Users\User\Desktop","False","mono","False","18","no","white","no","yes","768","legacy","9","9","C:/Users/User/Desktop/subject-3.csv","legacy","4 3 1 7 9 8","Melodramatic Milgram","4.0.5","1","y","0","left","left","NA","left","NA","681.0","4125","NA","681","NA","2","legacy","6","1024","2","48000","-16","experiment","3","odd","4","68575","62643","63688","2394","NA","63689","NA","2401","NA","65892","67893","64691","6527","67892","NA","Sternberg task","10","10068.0","10","1024"
"90","90","981","981","#3d3846","practice","legacy","legacy","legacy","0","undefined","0","left","10","10","10","0","0","10","10","0","0","10","10","10","0","10","0","Sun Oct 22 14:00:21 2023","The main experiment item","False","Sternbergtask.osexp","C:\Users\User\Desktop","False","mono","False","18","no","white","no","yes","768","legacy","10","10","C:/Users/User/Desktop/subject-3.csv","legacy","2 9 4","Melodramatic Milgram","4.0.5","3","y","0","right","left","NA","right","NA","731.0","4125","NA","731","NA","2","legacy","3","1024","2","48000","-16","experiment","3","odd","4","74571","68581","69637","2394","NA","69638","NA","2401","NA","71839","73840","70638","6527","73839","NA","Sternberg task","10","10799.0","11","1024"
"91","91","977","977","#3d3846","practice","legacy","legacy","legacy","1","undefined","1","right","11","11","11","0","0","11","11","0","0","11","11","11","0","11","0","Sun Oct 22 14:00:21 2023","The main experiment item","False","Sternbergtask.osexp","C:\Users\User\Desktop","False","mono","False","18","no","white","no","yes","768","legacy","11","11","C:/Users/User/Desktop/subject-3.csv","legacy","4 1 5","Melodramatic Milgram","4.0.5","0","n","0","right","left","NA","right","NA","927.0","4125","NA","927","NA","2","legacy","3","1024","2","48000","-16","experiment","3","odd","2","80763","68581","75632","2394","NA","75633","74578","2401","NA","77835","79835","76634","6527","79835","NA","Sternberg task","11","11726.0","12","1024"
"92","92","958","958","#3d3846","experiment","legacy","legacy","legacy","1","undefined","1","left","12","12","12","0","0","12","12","0","0","12","12","12","0","12","0","Sun Oct 22 14:00:21 2023","The main experiment item","False","Sternbergtask.osexp","C:\Users\User\Desktop","False","mono","False","18","no","white","no","yes","768","legacy","0","11","C:/Users/User/Desktop/subject-3.csv","legacy","2 4 6 9","Melodramatic Milgram","4.0.5","3","y","0","left","left","left","left","NA","736.0","4125","4799","736","NA","2","legacy","4","1024","2","48000","-16","experiment","3","odd","6","91621","80768","86683","2394","86569","86683","74578","2401","81769","88884","90885","87684","6527","90885","NA","Sternberg task","12","12462.0","13","1024"
"92","92","934","934","#3d3846","experiment","legacy","legacy","legacy","1","undefined","1","left","13","13","13","0","0","13","13","0","0","13","13","13","0","13","0","Sun Oct 22 14:00:21 2023","The main experiment item","False","Sternbergtask.osexp","C:\Users\User\Desktop","False","mono","False","18","no","white","no","yes","768","legacy","1","11","C:/Users/User/Desktop/subject-3.csv","legacy","7 8 6 3 1","Melodramatic Milgram","4.0.5","5","y","0","left","left","left","left","NA","625.0","4125","4799","625","NA","2","legacy","5","1024","2","48000","-16","experiment","3","odd","1","97513","91627","92683","2394","86569","92684","74578","2401","81769","94886","96887","93685","6527","96887","NA","Sternberg task","13","13087.0","14","1024"
"93","93","934","934","#3d3846","experiment","legacy","legacy","legacy","1","undefined","1","right","14","14","14","0","0","14","14","0","0","14","14","14","0","14","0","Sun Oct 22 14:00:21 2023","The main experiment item","False","Sternbergtask.osexp","C:\Users\User\Desktop","False","mono","False","18","no","white","no","yes","768","legacy","2","11","C:/Users/User/Desktop/subject-3.csv","legacy","7 1 8 4 9 3","Melodramatic Milgram","4.0.5","0","n","0","right","left","left","right","NA","925.0","4125","4799","925","NA","2","legacy","6","1024","2","48000","-16","experiment","3","odd","6","103714","97518","98583","2394","86569","98584","74578","2401","81769","100787","102788","99586","6527","102788","NA","Sternberg task","14","14012.0","15","1024"
"93","93","923","923","#3d3846","experiment","legacy","legacy","legacy","1","undefined","1","left","15","15","15","0","0","15","15","0","0","15","15","15","0","15","0","Sun Oct 22 14:00:21 2023","The main experiment item","False","Sternbergtask.osexp","C:\Users\User\Desktop","False","mono","False","18","no","white","no","yes","768","legacy","3","11","C:/Users/User/Desktop/subject-3.csv","legacy","6 1 2","Melodramatic Milgram","4.0.5","3","y","0","left","left","left","left","NA","760.0","4125","4799","760","NA","2","legacy","3","1024","2","48000","-16","experiment","3","odd","2","109731","103720","104769","2394","86569","104770","74578","2401","81769","106970","108971","105770","6527","108971","NA","Sternberg task","15","14772.0","16","1024"
"94","94","932","932","#3d3846","experiment","legacy","legacy","legacy","1","undefined","1","left","16","16","16","0","0","16","16","0","0","16","16","16","0","16","0","Sun Oct 22 14:00:21 2023","The main experiment item","False","Sternbergtask.osexp","C:\Users\User\Desktop","False","mono","False","18","no","white","no","yes","768","legacy","4","11","C:/Users/User/Desktop/subject-3.csv","legacy","7 4 2 6 3 5","Melodramatic Milgram","4.0.5","6","y","0","left","left","left","left","NA","1075.0","4125","4799","1075","NA","2","legacy","6","1024","2","48000","-16","experiment","3","odd","5","116068","109737","110790","2394","86569","110791","74578","2401","81769","112993","114993","111792","6527","114993","NA","Sternberg task","16","15847.0","17","1024"
"94","94","919","919","#3d3846","experiment","legacy","legacy","legacy","1","undefined","1","right","17","17","17","0","0","17","17","0","0","17","17","17","0","17","0","Sun Oct 22 14:00:21 2023","The main experiment item","False","Sternbergtask.osexp","C:\Users\User\Desktop","False","mono","False","18","no","white","no","yes","768","legacy","5","11","C:/Users/User/Desktop/subject-3.csv","legacy","4 8 1 2","Melodramatic Milgram","4.0.5","0","n","0","right","left","left","right","NA","712.0","4125","4799","712","NA","2","legacy","4","1024","2","48000","-16","experiment","3","odd","7","122038","116074","117122","2394","86569","117123","74578","2401","81769","119325","121326","118123","6527","121325","NA","Sternberg task","17","16559.0","18","1024"
"94","94","932","932","#3d3846","experiment","legacy","legacy","legacy","1","undefined","1","left","18","18","18","0","0","18","18","0","0","18","18","18","0","18","0","Sun Oct 22 14:00:21 2023","The main experiment item","False","Sternbergtask.osexp","C:\Users\User\Desktop","False","mono","False","18","no","white","no","yes","768","legacy","6","11","C:/Users/User/Desktop/subject-3.csv","legacy","1 4 9 3 2 5","Melodramatic Milgram","4.0.5","3","y","0","left","left","left","left","NA","1155.0","4125","4799","1155","NA","2","legacy","6","1024","2","48000","-16","experiment","3","odd","9","128464","122044","123105","2394","86569","123106","74578","2401","81769","125306","127308","124106","6527","127308","NA","Sternberg task","18","17714.0","19","1024"
"95","95","922","922","#3d3846","experiment","legacy","legacy","legacy","1","undefined","1","right","19","19","19","0","0","19","19","0","0","19","19","19","0","19","0","Sun Oct 22 14:00:21 2023","The main experiment item","False","Sternbergtask.osexp","C:\Users\User\Desktop","False","mono","False","18","no","white","no","yes","768","legacy","7","11","C:/Users/User/Desktop/subject-3.csv","legacy","1 7 5 2 9","Melodramatic Milgram","4.0.5","0","n","0","right","left","left","right","NA","739.0","4125","4799","739","NA","2","legacy","5","1024","2","48000","-16","experiment","3","odd","3","134464","128470","129522","2394","86569","129523","74578","2401","81769","131724","133724","130524","6527","133724","NA","Sternberg task","19","18453.0","20","1024"
"95","95","918","918","#3d3846","experiment","legacy","legacy","legacy","1","undefined","1","left","20","20","20","0","0","20","20","0","0","20","20","20","0","20","0","Sun Oct 22 14:00:21 2023","The main experiment item","False","Sternbergtask.osexp","C:\Users\User\Desktop","False","mono","False","18","no","white","no","yes","768","legacy","8","11","C:/Users/User/Desktop/subject-3.csv","legacy","4 6 2 5 1","Melodramatic Milgram","4.0.5","5","y","0","left","left","left","left","NA","825.0","4125","4799","825","NA","2","legacy","5","1024","2","48000","-16","experiment","3","odd","1","140541","134470","135513","2394","86569","135514","74578","2401","81769","137714","139716","136514","6527","139716","NA","Sternberg task","20","19278.0","21","1024"
"95","95","908","908","#3d3846","experiment","legacy","legacy","legacy","1","undefined","1","left","21","21","21","0","0","21","21","0","0","21","21","21","0","21","0","Sun Oct 22 14:00:21 2023","The main experiment item","False","Sternbergtask.osexp","C:\Users\User\Desktop","False","mono","False","18","no","white","no","yes","768","legacy","9","11","C:/Users/User/Desktop/subject-3.csv","legacy","3 9 7 6 4","Melodramatic Milgram","4.0.5","3","y","0","left","left","left","left","NA","707.0","4125","4799","707","NA","2","legacy","5","1024","2","48000","-16","experiment","3","odd","7","146501","140547","141590","2394","86569","141591","74578","2401","81769","143793","145794","142592","6527","145793","NA","Sternberg task","21","19985.0","22","1024"
"95","95","905","905","#3d3846","experiment","legacy","legacy","legacy","1","undefined","1","left","22","22","22","0","0","22","22","0","0","22","22","22","0","22","0","Sun Oct 22 14:00:21 2023","The main experiment item","False","Sternbergtask.osexp","C:\Users\User\Desktop","False","mono","False","18","no","white","no","yes","768","legacy","10","11","C:/Users/User/Desktop/subject-3.csv","legacy","8 5 4 7 3 1","Melodramatic Milgram","4.0.5","2","y","0","left","left","left","left","NA","842.0","4125","4799","842","NA","2","legacy","6","1024","2","48000","-16","experiment","3","odd","5","152606","146507","147560","2394","86569","147561","74578","2401","81769","149762","151763","148561","6527","151763","NA","Sternberg task","22","20827.0","23","1024"
"91","91","892","892","#3d3846","experiment","legacy","legacy","legacy","0","undefined","0","left","23","23","23","0","0","23","23","0","0","23","23","23","0","23","0","Sun Oct 22 14:00:21 2023","The main experiment item","False","Sternbergtask.osexp","C:\Users\User\Desktop","False","mono","False","18","no","white","no","yes","768","legacy","11","11","C:/Users/User/Desktop/subject-3.csv","legacy","3 9 6 2","Melodramatic Milgram","4.0.5","4","y","0","right","left","left","right","NA","590.0","4125","4799","590","NA","2","legacy","4","1024","2","48000","-16","experiment","3","odd","2","158452","152612","153658","2394","86569","153659","74578","2401","81769","155860","157861","154660","6527","157860","NA","Sternberg task","22","21417.0","24","1024"
"92","92","868","868","#3d3846","experiment","legacy","legacy","legacy","1","undefined","1","left","24","24","24","0","0","24","24","0","0","24","24","24","0","24","0","Sun Oct 22 14:00:21 2023","The main experiment item","False","Sternbergtask.osexp","C:\Users\User\Desktop","False","mono","False","18","no","white","no","yes","768","legacy","12","11","C:/Users/User/Desktop/subject-3.csv","legacy","7 1 8 5 6 2","Melodramatic Milgram","4.0.5","2","y","0","left","left","left","left","NA","299.0","4125","4799","299","NA","2","legacy","6","1024","2","48000","-16","experiment","3","odd","1","164017","152612","159511","2394","86569","159512","158458","2401","81769","161712","163717","160512","6527","163714","NA","Sternberg task","23","21716.0","25","1024"
"88","88","852","852","#3d3846","experiment","legacy","legacy","legacy","0","undefined","0","right","25","25","25","0","0","25","25","0","0","25","25","25","0","25","0","Sun Oct 22 14:00:21 2023","The main experiment item","False","Sternbergtask.osexp","C:\Users\User\Desktop","False","mono","False","18","no","white","no","yes","768","legacy","13","11","C:/Users/User/Desktop/subject-3.csv","legacy","6 9 4 5 2","Melodramatic Milgram","4.0.5","0","n","0","left","left","left","left","NA","445.0","4125","4799","445","NA","2","legacy","5","1024","2","48000","-16","experiment","3","odd","1","169722","164023","165072","2394","86569","165073","158458","2401","81769","167275","169276","166074","6527","169276","NA","Sternberg task","23","22161.0","26","1024"
"88","88","848","848","#3d3846","experiment","legacy","legacy","legacy","1","undefined","1","right","26","26","26","0","0","26","26","0","0","26","26","26","0","26","0","Sun Oct 22 14:00:21 2023","The main experiment item","False","Sternbergtask.osexp","C:\Users\User\Desktop","False","mono","False","18","no","white","no","yes","768","legacy","14","11","C:/Users/User/Desktop/subject-3.csv","legacy","5 2","Melodramatic Milgram","4.0.5","0","n","0","right","left","left","right","NA","735.0","4125","4799","735","NA","2","legacy","2","1024","2","48000","-16","experiment","3","odd","7","175716","164023","170776","2394","86569","170777","169728","2401","81769","172979","174980","171778","6527","174979","NA","Sternberg task","24","22896.0","27","1024"
"89","89","856","856","#3d3846","experiment","legacy","legacy","legacy","1","undefined","1","left","27","27","27","0","0","27","27","0","0","27","27","27","0","27","0","Sun Oct 22 14:00:21 2023","The main experiment item","False","Sternbergtask.osexp","C:\Users\User\Desktop","False","mono","False","18","no","white","no","yes","768","legacy","15","11","C:/Users/User/Desktop/subject-3.csv","legacy","8 9 5 7 1 6","Melodramatic Milgram","4.0.5","4","y","0","left","left","left","left","NA","1095.0","4125","4799","1095","NA","2","legacy","6","1024","2","48000","-16","experiment","3","odd","7","182073","175722","176773","2394","86569","176774","169728","2401","81769","178976","180977","177775","6527","180977","NA","Sternberg task","25","23991.0","28","1024"
"89","89","840","840","#3d3846","experiment","legacy","legacy","legacy","1","undefined","1","left","28","28","28","0","0","28","28","0","0","28","28","28","0","28","0","Sun Oct 22 14:00:21 2023","The main experiment item","False","Sternbergtask.osexp","C:\Users\User\Desktop","False","mono","False","18","no","white","no","yes","768","legacy","16","11","C:/Users/User/Desktop/subject-3.csv","legacy","6 8 9 3 4 9","Melodramatic Milgram","4.0.5","5","y","0","left","left","left","left","NA","371.0","4125","4799","371","NA","2","legacy","6","1024","2","48000","-16","experiment","3","odd","4","187697","182078","183121","2394","86569","183122","169728","2401","81769","185324","187325","184123","6527","187325","NA","Sternberg task","26","24362.0","29","1024"
"86","86","823","823","#3d3846","experiment","legacy","legacy","legacy","0","undefined","0","right","29","29","29","0","0","29","29","0","0","29","29","29","0","29","0","Sun Oct 22 14:00:21 2023","The main experiment item","False","Sternbergtask.osexp","C:\Users\User\Desktop","False","mono","False","18","no","white","no","yes","768","legacy","17","11","C:/Users/User/Desktop/subject-3.csv","legacy","6 7 5 9","Melodramatic Milgram","4.0.5","0","n","0","left","left","left","left","NA","332.0","4125","4799","332","NA","2","legacy","4","1024","2","48000","-16","experiment","3","odd","2","193273","187700","188737","2394","86569","188738","169728","2401","81769","190940","192941","189739","6527","192941","NA","Sternberg task","26","24694.0","30","1024"
"87","87","808","808","#3d3846","experiment","legacy","legacy","legacy","1","undefined","1","left","30","30","30","0","0","30","30","0","0","30","30","30","0","30","0","Sun Oct 22 14:00:21 2023","The main experiment item","False","Sternbergtask.osexp","C:\Users\User\Desktop","False","mono","False","18","no","white","no","yes","768","legacy","18","11","C:/Users/User/Desktop/subject-3.csv","legacy","6 2","Melodramatic Milgram","4.0.5","1","y","0","left","left","left","left","NA","360.0","4125","4799","360","NA","2","legacy","2","1024","2","48000","-16","experiment","3","odd","6","198890","187700","194326","2394","86569","194327","193280","2401","81769","196528","198529","195328","6527","198529","NA","Sternberg task","27","25054.0","31","1024"
"87","87","802","802","#3d3846","experiment","legacy","legacy","legacy","1","undefined","1","left","31","31","31","0","0","31","31","0","0","31","31","31","0","31","0","Sun Oct 22 14:00:21 2023","The main experiment item","False","Sternbergtask.osexp","C:\Users\User\Desktop","False","mono","False","18","no","white","no","yes","768","legacy","19","11","C:/Users/User/Desktop/subject-3.csv","legacy","2 6 1 7 4","Melodramatic Milgram","4.0.5","2","y","0","left","left","left","left","NA","613.0","4125","4799","613","NA","2","legacy","5","1024","2","48000","-16","experiment","3","odd","6","204771","198897","199955","2394","86569","199956","193280","2401","81769","202157","204158","200956","6527","204157","NA","Sternberg task","28","25667.0","32","1024"
"87","87","802","802","#3d3846","experiment","legacy","legacy","legacy","1","undefined","1","left","32","32","32","0","0","32","32","0","0","32","32","32","0","32","0","Sun Oct 22 14:00:21 2023","The main experiment item","False","Sternbergtask.osexp","C:\Users\User\Desktop","False","mono","False","18","no","white","no","yes","768","legacy","20","11","C:/Users/User/Desktop/subject-3.csv","legacy","8 1 6","Melodramatic Milgram","4.0.5","3","y","0","left","left","left","left","NA","827.0","4125","4799","827","NA","2","legacy","3","1024","2","48000","-16","experiment","3","odd","6","210848","204777","205819","2394","86569","205820","193280","2401","81769","208020","210021","206820","6527","210021","NA","Sternberg task","29","26494.0","33","1024"
"88","88","798","798","#3d3846","experiment","legacy","legacy","legacy","1","undefined","1","right","33","33","33","0","0","33","33","0","0","33","33","33","0","33","0","Sun Oct 22 14:00:21 2023","The main experiment item","False","Sternbergtask.osexp","C:\Users\User\Desktop","False","mono","False","18","no","white","no","yes","768","legacy","21","11","C:/Users/User/Desktop/subject-3.csv","legacy","1","Melodramatic Milgram","4.0.5","0","n","0","right","left","left","right","NA","667.0","4125","4799","667","NA","2","legacy","1","1024","2","48000","-16","experiment","3","odd","7","216771","210855","211900","2394","86569","211901","193280","2401","81769","214102","216103","212902","6527","216102","NA","Sternberg task","30","27161.0","34","1024"
"85","85","799","799","#3d3846","experiment","legacy","legacy","legacy","0","undefined","0","right","34","34","34","0","0","34","34","0","0","34","34","34","0","34","0","Sun Oct 22 14:00:21 2023","The main experiment item","False","Sternbergtask.osexp","C:\Users\User\Desktop","False","mono","False","18","no","white","no","yes","768","legacy","22","11","C:/Users/User/Desktop/subject-3.csv","legacy","2 8 9 4 1","Melodramatic Milgram","4.0.5","0","n","0","left","left","left","left","NA","832.0","4125","4799","832","NA","2","legacy","5","1024","2","48000","-16","experiment","3","odd","5","222891","216811","217855","2394","86569","217856","193280","2401","81769","220057","222058","218856","6527","222058","NA","Sternberg task","30","27993.0","35","1024"
"86","86","799","799","#3d3846","experiment","legacy","legacy","legacy","1","undefined","1","left","35","35","35","0","0","35","35","0","0","35","35","35","0","35","0","Sun Oct 22 14:00:21 2023","The main experiment item","False","Sternbergtask.osexp","C:\Users\User\Desktop","False","mono","False","18","no","white","no","yes","768","legacy","23","11","C:/Users/User/Desktop/subject-3.csv","legacy","2 4 8 5 1 3","Melodramatic Milgram","4.0.5","1","y","0","left","left","left","left","NA","777.0","4125","4799","777","NA","2","legacy","6","1024","2","48000","-16","experiment","3","odd","2","228939","216811","223958","2394","86569","223959","222897","2401","81769","226160","228161","224959","6527","228160","NA","Sternberg task","31","28770.0","36","1024"
"86","86","796","796","#3d3846","experiment","legacy","legacy","legacy","1","undefined","1","right","36","36","36","0","0","36","36","0","0","36","36","36","0","36","0","Sun Oct 22 14:00:21 2023","The main experiment item","False","Sternbergtask.osexp","C:\Users\User\Desktop","False","mono","False","18","no","white","no","yes","768","legacy","24","11","C:/Users/User/Desktop/subject-3.csv","legacy","9 8 2 7 4","Melodramatic Milgram","4.0.5","0","n","0","right","left","left","right","NA","701.0","4125","4799","701","NA","2","legacy","5","1024","2","48000","-16","experiment","3","odd","5","234900","228945","229994","2394","86569","229996","222897","2401","81769","232198","234198","230997","6527","234198","NA","Sternberg task","32","29471.0","37","1024"
"84","84","793","793","#3d3846","experiment","legacy","legacy","legacy","0","undefined","0","right","37","37","37","0","0","37","37","0","0","37","37","37","0","37","0","Sun Oct 22 14:00:21 2023","The main experiment item","False","Sternbergtask.osexp","C:\Users\User\Desktop","False","mono","False","18","no","white","no","yes","768","legacy","25","11","C:/Users/User/Desktop/subject-3.csv","legacy","2 8 6 3 1","Melodramatic Milgram","4.0.5","0","n","0","left","left","left","left","NA","669.0","4125","4799","669","NA","2","legacy","5","1024","2","48000","-16","experiment","3","odd","7","240821","234906","235950","2394","86569","235951","222897","2401","81769","238151","240152","236951","6527","240152","NA","Sternberg task","32","30140.0","38","1024"
"84","84","789","789","#3d3846","experiment","legacy","legacy","legacy","1","undefined","1","right","38","38","38","0","0","38","38","0","0","38","38","38","0","38","0","Sun Oct 22 14:00:21 2023","The main experiment item","False","Sternbergtask.osexp","C:\Users\User\Desktop","False","mono","False","18","no","white","no","yes","768","legacy","26","11","C:/Users/User/Desktop/subject-3.csv","legacy","6 2 9 3 8 4","Melodramatic Milgram","4.0.5","0","n","0","right","left","left","right","NA","640.0","4125","4799","640","NA","2","legacy","6","1024","2","48000","-16","experiment","3","odd","1","246715","234906","241871","2394","86569","241872","240824","2401","81769","244073","246074","242872","6527","246073","NA","Sternberg task","33","30780.0","39","1024"
"85","85","792","792","#3d3846","experiment","legacy","legacy","legacy","1","undefined","1","left","39","39","39","0","0","39","39","0","0","39","39","39","0","39","0","Sun Oct 22 14:00:21 2023","The main experiment item","False","Sternbergtask.osexp","C:\Users\User\Desktop","False","mono","False","18","no","white","no","yes","768","legacy","27","11","C:/Users/User/Desktop/subject-3.csv","legacy","4 9 7 8 5 3","Melodramatic Milgram","4.0.5","4","y","0","left","left","left","left","NA","911.0","4125","4799","911","NA","2","legacy","6","1024","2","48000","-16","experiment","3","odd","8","252890","246721","247776","2394","86569","247777","240824","2401","81769","249979","251979","248778","6527","251979","NA","Sternberg task","34","31691.0","40","1024"
"85","85","791","791","#3d3846","experiment","legacy","legacy","legacy","1","undefined","1","left","40","40","40","0","0","40","40","0","0","40","40","40","0","40","0","Sun Oct 22 14:00:21 2023","The main experiment item","False","Sternbergtask.osexp","C:\Users\User\Desktop","False","mono","False","18","no","white","no","yes","768","legacy","28","11","C:/Users/User/Desktop/subject-3.csv","legacy","4 7 6 8 2 3","Melodramatic Milgram","4.0.5","6","y","0","left","left","left","left","NA","750.0","4125","4799","750","NA","2","legacy","6","1024","2","48000","-16","experiment","3","odd","3","258899","252897","253945","2394","86569","253947","240824","2401","81769","256148","258149","254947","6527","258148","NA","Sternberg task","35","32441.0","41","1024"
"85","85","786","786","#3d3846","experiment","legacy","legacy","legacy","1","undefined","1","right","41","41","41","0","0","41","41","0","0","41","41","41","0","41","0","Sun Oct 22 14:00:21 2023","The main experiment item","False","Sternbergtask.osexp","C:\Users\User\Desktop","False","mono","False","18","no","white","no","yes","768","legacy","29","11","C:/Users/User/Desktop/subject-3.csv","legacy","8 9","Melodramatic Milgram","4.0.5","0","n","0","right","left","left","right","NA","586.0","4125","4799","586","NA","2","legacy","2","1024","2","48000","-16","experiment","3","odd","5","264736","258905","259947","2394","86569","259948","240824","2401","81769","262149","264150","260948","6527","264149","NA","Sternberg task","36","33027.0","42","1024"
"86","86","788","788","#3d3846","experiment","legacy","legacy","legacy","1","undefined","1","left","42","42","42","0","0","42","42","0","0","42","42","42","0","42","0","Sun Oct 22 14:00:21 2023","The main experiment item","False","Sternbergtask.osexp","C:\Users\User\Desktop","False","mono","False","18","no","white","no","yes","768","legacy","30","11","C:/Users/User/Desktop/subject-3.csv","legacy","5 2 6","Melodramatic Milgram","4.0.5","2","y","0","left","left","left","left","NA","891.0","4125","4799","891","NA","2","legacy","3","1024","2","48000","-16","experiment","3","odd","2","270887","264742","265792","2394","86569","265793","240824","2401","81769","267995","269996","266794","6527","269996","NA","Sternberg task","37","33918.0","43","1024"
"86","86","784","784","#3d3846","experiment","legacy","legacy","legacy","1","undefined","1","left","43","43","43","0","0","43","43","0","0","43","43","43","0","43","0","Sun Oct 22 14:00:21 2023","The main experiment item","False","Sternbergtask.osexp","C:\Users\User\Desktop","False","mono","False","18","no","white","no","yes","768","legacy","31","11","C:/Users/User/Desktop/subject-3.csv","legacy","3 2 1 4 7","Melodramatic Milgram","4.0.5","2","y","0","left","left","left","left","NA","618.0","4125","4799","618","NA","2","legacy","5","1024","2","48000","-16","experiment","3","odd","2","276767","270893","271945","2394","86569","271946","240824","2401","81769","274147","276149","272947","6527","276149","NA","Sternberg task","38","34536.0","44","1024"
"86","86","785","785","#3d3846","experiment","legacy","legacy","legacy","1","undefined","1","left","44","44","44","0","0","44","44","0","0","44","44","44","0","44","0","Sun Oct 22 14:00:21 2023","The main experiment item","False","Sternbergtask.osexp","C:\Users\User\Desktop","False","mono","False","18","no","white","no","yes","768","legacy","32","11","C:/Users/User/Desktop/subject-3.csv","legacy","8 3","Melodramatic Milgram","4.0.5","2","y","0","left","left","left","left","NA","799.0","4125","4799","799","NA","2","legacy","2","1024","2","48000","-16","experiment","3","odd","3","282828","276770","277824","2394","86569","277825","240824","2401","81769","280027","282028","278826","6527","282027","NA","Sternberg task","39","35335.0","45","1024"
"84","84","778","778","#3d3846","experiment","legacy","legacy","legacy","0","undefined","0","right","45","45","45","0","0","45","45","0","0","45","45","45","0","45","0","Sun Oct 22 14:00:21 2023","The main experiment item","False","Sternbergtask.osexp","C:\Users\User\Desktop","False","mono","False","18","no","white","no","yes","768","legacy","33","11","C:/Users/User/Desktop/subject-3.csv","legacy","6 8","Melodramatic Milgram","4.0.5","0","n","0","left","left","left","left","NA","487.0","4125","4799","487","NA","2","legacy","2","1024","2","48000","-16","experiment","3","odd","9","288569","282833","283880","2394","86569","283881","240824","2401","81769","286081","288082","284881","6527","288081","NA","Sternberg task","39","35822.0","46","1024"
"82","82","804","804","#3d3846","experiment","legacy","legacy","legacy","0","undefined","0","right","46","46","46","0","0","46","46","0","0","46","46","46","0","46","0","Sun Oct 22 14:00:21 2023","The main experiment item","False","Sternbergtask.osexp","C:\Users\User\Desktop","False","mono","False","18","no","white","no","yes","768","legacy","34","11","C:/Users/User/Desktop/subject-3.csv","legacy","1 8 7","Melodramatic Milgram","4.0.5","0","n","0","None","left","left","None","NA","2000.0","4125","4799","2000","NA","2","legacy","3","1024","2","48000","-16","experiment","3","odd","4","295833","282833","289631","2394","86569","289632","288575","2401","81769","291832","293833","290632","6527","293832","NA","Sternberg task","39","37822.0","47","1024"
"83","83","805","805","#3d3846","experiment","legacy","legacy","legacy","1","undefined","1","right","47","47","47","0","0","47","47","0","0","47","47","47","0","47","0","Sun Oct 22 14:00:21 2023","The main experiment item","False","Sternbergtask.osexp","C:\Users\User\Desktop","False","mono","False","18","no","white","no","yes","768","legacy","35","11","C:/Users/User/Desktop/subject-3.csv","legacy","6 9 7 3 8 2","Melodramatic Milgram","4.0.5","0","n","0","right","left","left","right","NA","834.0","4125","4799","834","NA","2","legacy","6","1024","2","48000","-16","experiment","3","odd","5","301927","282833","296888","2394","86569","296889","295839","2401","81769","299091","301092","297890","6527","301092","NA","Sternberg task","40","38656.0","48","1024"
"83","83","801","801","#3d3846","experiment","legacy","legacy","legacy","1","undefined","1","left","48","48","48","0","0","48","48","0","0","48","48","48","0","48","0","Sun Oct 22 14:00:21 2023","The main experiment item","False","Sternbergtask.osexp","C:\Users\User\Desktop","False","mono","False","18","no","white","no","yes","768","legacy","36","11","C:/Users/User/Desktop/subject-3.csv","legacy","2 3 7 4","Melodramatic Milgram","4.0.5","1","y","0","left","left","left","left","NA","596.0","4125","4799","596","NA","2","legacy","4","1024","2","48000","-16","experiment","3","odd","2","307782","301933","302981","2394","86569","302982","295839","2401","81769","305184","307185","303983","6527","307184","NA","Sternberg task","41","39252.0","49","1024"
"84","84","805","805","#3d3846","experiment","legacy","legacy","legacy","1","undefined","1","right","49","49","49","0","0","49","49","0","0","49","49","49","0","49","0","Sun Oct 22 14:00:21 2023","The main experiment item","False","Sternbergtask.osexp","C:\Users\User\Desktop","False","mono","False","18","no","white","no","yes","768","legacy","37","11","C:/Users/User/Desktop/subject-3.csv","legacy","1 7 8 3 9","Melodramatic Milgram","4.0.5","0","n","0","right","left","left","right","NA","1039.0","4125","4799","1039","NA","2","legacy","5","1024","2","48000","-16","experiment","3","odd","2","314082","307788","308838","2394","86569","308839","295839","2401","81769","311041","313042","309840","6527","313041","NA","Sternberg task","42","40291.0","50","1024"
"84","84","806","806","#3d3846","experiment","legacy","legacy","legacy","1","undefined","1","right","50","50","50","0","0","50","50","0","0","50","50","50","0","50","0","Sun Oct 22 14:00:21 2023","The main experiment item","False","Sternbergtask.osexp","C:\Users\User\Desktop","False","mono","False","18","no","white","no","yes","768","legacy","38","11","C:/Users/User/Desktop/subject-3.csv","legacy","8 5 7 3 6","Melodramatic Milgram","4.0.5","0","n","0","right","left","left","right","NA","833.0","4125","4799","833","NA","2","legacy","5","1024","2","48000","-16","experiment","3","odd","9","320169","314088","315133","2394","86569","315134","295839","2401","81769","317334","319335","316134","6527","319334","NA","Sternberg task","43","41124.0","51","1024"
"84","84","801","801","#3d3846","experiment","legacy","legacy","legacy","1","undefined","1","left","51","51","51","0","0","51","51","0","0","51","51","51","0","51","0","Sun Oct 22 14:00:21 2023","The main experiment item","False","Sternbergtask.osexp","C:\Users\User\Desktop","False","mono","False","18","no","white","no","yes","768","legacy","39","11","C:/Users/User/Desktop/subject-3.csv","legacy","7 1 3","Melodramatic Milgram","4.0.5","2","y","0","left","left","left","left","NA","534.0","4125","4799","534","NA","2","legacy","3","1024","2","48000","-16","experiment","3","odd","1","325961","320175","321223","2394","86569","321224","295839","2401","81769","323425","325426","322224","6527","325426","NA","Sternberg task","44","41658.0","52","1024"
"84","84","801","801","#3d3846","experiment","legacy","legacy","legacy","1","undefined","1","right","52","52","52","0","0","52","52","0","0","52","52","52","0","52","0","Sun Oct 22 14:00:21 2023","The main experiment item","False","Sternbergtask.osexp","C:\Users\User\Desktop","False","mono","False","18","no","white","no","yes","768","legacy","40","11","C:/Users/User/Desktop/subject-3.csv","legacy","8 4 3 5","Melodramatic Milgram","4.0.5","0","n","0","right","left","left","right","NA","801.0","4125","4799","801","NA","2","legacy","4","1024","2","48000","-16","experiment","3","odd","6","332021","325967","327017","2394","86569","327018","295839","2401","81769","329219","331220","328019","6527","331220","NA","Sternberg task","45","42459.0","53","1024"
"85","85","794","794","#3d3846","experiment","legacy","legacy","legacy","1","undefined","1","left","53","53","53","0","0","53","53","0","0","53","53","53","0","53","0","Sun Oct 22 14:00:21 2023","The main experiment item","False","Sternbergtask.osexp","C:\Users\User\Desktop","False","mono","False","18","no","white","no","yes","768","legacy","41","11","C:/Users/User/Desktop/subject-3.csv","legacy","8 5 1 3 9","Melodramatic Milgram","4.0.5","4","y","0","left","left","left","left","NA","433.0","4125","4799","433","NA","2","legacy","5","1024","2","48000","-16","experiment","3","odd","3","337722","332028","333084","2394","86569","333085","295839","2401","81769","335287","337288","334086","6527","337287","NA","Sternberg task","46","42892.0","54","1024"
"85","85","787","787","#3d3846","experiment","legacy","legacy","legacy","1","undefined","1","left","54","54","54","0","0","54","54","0","0","54","54","54","0","54","0","Sun Oct 22 14:00:21 2023","The main experiment item","False","Sternbergtask.osexp","C:\Users\User\Desktop","False","mono","False","18","no","white","no","yes","768","legacy","42","11","C:/Users/User/Desktop/subject-3.csv","legacy","3 5 7 1","Melodramatic Milgram","4.0.5","3","y","0","left","left","left","left","NA","443.0","4125","4799","443","NA","2","legacy","4","1024","2","48000","-16","experiment","3","odd","7","343427","337727","338781","2394","86569","338782","295839","2401","81769","340983","342984","339783","6527","342983","NA","Sternberg task","47","43335.0","55","1024"
"85","85","779","779","#3d3846","experiment","legacy","legacy","legacy","1","undefined","1","right","55","55","55","0","0","55","55","0","0","55","55","55","0","55","0","Sun Oct 22 14:00:21 2023","The main experiment item","False","Sternbergtask.osexp","C:\Users\User\Desktop","False","mono","False","18","no","white","no","yes","768","legacy","43","11","C:/Users/User/Desktop/subject-3.csv","legacy","5 3 2 6 9 8","Melodramatic Milgram","4.0.5","0","n","0","right","left","left","right","NA","343.0","4125","4799","343","NA","2","legacy","6","1024","2","48000","-16","experiment","3","odd","4","349032","343433","344484","2394","86569","344485","295839","2401","81769","346687","348688","345486","6527","348687","NA","Sternberg task","48","43678.0","56","1024"
"85","85","785","785","#3d3846","experiment","legacy","legacy","legacy","1","undefined","1","right","56","56","56","0","0","56","56","0","0","56","56","56","0","56","0","Sun Oct 22 14:00:21 2023","The main experiment item","False","Sternbergtask.osexp","C:\Users\User\Desktop","False","mono","False","18","no","white","no","yes","768","legacy","44","11","C:/Users/User/Desktop/subject-3.csv","legacy","7 1 5 6 3","Melodramatic Milgram","4.0.5","0","n","0","right","left","left","right","NA","1114.0","4125","4799","1114","NA","2","legacy","5","1024","2","48000","-16","experiment","3","odd","8","355399","349038","350081","2394","86569","350083","295839","2401","81769","352284","354285","351084","6527","354285","NA","Sternberg task","49","44792.0","57","1024"
"86","86","787","787","#3d3846","experiment","legacy","legacy","legacy","1","undefined","1","right","57","57","57","0","0","57","57","0","0","57","57","57","0","57","0","Sun Oct 22 14:00:21 2023","The main experiment item","False","Sternbergtask.osexp","C:\Users\User\Desktop","False","mono","False","18","no","white","no","yes","768","legacy","45","11","C:/Users/User/Desktop/subject-3.csv","legacy","3 9 1","Melodramatic Milgram","4.0.5","0","n","0","right","left","left","right","NA","864.0","4125","4799","864","NA","2","legacy","3","1024","2","48000","-16","experiment","3","odd","7","361527","355406","356458","2394","86569","356459","295839","2401","81769","358661","360662","357460","6527","360661","NA","Sternberg task","50","45656.0","58","1024"
"84","84","780","780","#3d3846","experiment","legacy","legacy","legacy","0","undefined","0","left","58","58","58","0","0","58","58","0","0","58","58","58","0","58","0","Sun Oct 22 14:00:21 2023","The main experiment item","False","Sternbergtask.osexp","C:\Users\User\Desktop","False","mono","False","18","no","white","no","yes","768","legacy","46","11","C:/Users/User/Desktop/subject-3.csv","legacy","4","Melodramatic Milgram","4.0.5","1","y","0","right","left","left","right","NA","368.0","4125","4799","368","NA","2","legacy","1","1024","2","48000","-16","experiment","3","odd","4","367161","361533","362586","2394","86569","362588","295839","2401","81769","364790","366791","363588","6527","366791","NA","Sternberg task","50","46024.0","59","1024"
"85","85","773","773","#3d3846","experiment","legacy","legacy","legacy","1","undefined","1","left","59","59","59","0","0","59","59","0","0","59","59","59","0","59","0","Sun Oct 22 14:00:21 2023","The main experiment item","False","Sternbergtask.osexp","C:\Users\User\Desktop","False","mono","False","18","no","white","no","yes","768","legacy","47","11","C:/Users/User/Desktop/subject-3.csv","legacy","8 9 6 1","Melodramatic Milgram","4.0.5","2","y","0","left","left","left","left","NA","394.0","4125","4799","394","NA","2","legacy","4","1024","2","48000","-16","experiment","3","odd","9","372810","361533","368212","2394","86569","368214","367167","2401","81769","370414","372415","369214","6527","372414","NA","Sternberg task","51","46418.0","60","1024"
"85","85","772","772","#3d3846","experiment","legacy","legacy","legacy","1","undefined","1","left","60","60","60","0","0","60","60","0","0","60","60","60","0","60","0","Sun Oct 22 14:00:21 2023","The main experiment item","False","Sternbergtask.osexp","C:\Users\User\Desktop","False","mono","False","18","no","white","no","yes","768","legacy","48","11","C:/Users/User/Desktop/subject-3.csv","legacy","9 5 3 8 4","Melodramatic Milgram","4.0.5","1","y","0","left","left","left","left","NA","674.0","4125","4799","674","NA","2","legacy","5","1024","2","48000","-16","experiment","3","odd","9","378774","372849","373894","2394","86569","373896","367167","2401","81769","376098","378099","374897","6527","378099","NA","Sternberg task","52","47092.0","61","1024"
"85","85","771","771","#3d3846","experiment","legacy","legacy","legacy","1","undefined","1","right","61","61","61","0","0","61","61","0","0","61","61","61","0","61","0","Sun Oct 22 14:00:21 2023","The main experiment item","False","Sternbergtask.osexp","C:\Users\User\Desktop","False","mono","False","18","no","white","no","yes","768","legacy","49","11","C:/Users/User/Desktop/subject-3.csv","legacy","1 4 9 3","Melodramatic Milgram","4.0.5","0","n","0","right","left","left","right","NA","745.0","4125","4799","745","NA","2","legacy","4","1024","2","48000","-16","experiment","3","odd","5","384792","378780","379842","2394","86569","379843","367167","2401","81769","382045","384046","380844","6527","384046","NA","Sternberg task","53","47837.0","62","1024"
"85","85","764","764","#3d3846","experiment","legacy","legacy","legacy","1","undefined","1","left","62","62","62","0","0","62","62","0","0","62","62","62","0","62","0","Sun Oct 22 14:00:21 2023","The main experiment item","False","Sternbergtask.osexp","C:\Users\User\Desktop","False","mono","False","18","no","white","no","yes","768","legacy","50","11","C:/Users/User/Desktop/subject-3.csv","legacy","8 5 3 7 4 6","Melodramatic Milgram","4.0.5","6","y","0","left","left","left","left","NA","319.0","4125","4799","319","NA","2","legacy","6","1024","2","48000","-16","experiment","3","odd","6","390369","384798","385846","2394","86569","385847","367167","2401","81769","388049","390050","386847","6527","390050","NA","Sternberg task","54","48156.0","63","1024"
"85","85","764","764","#3d3846","experiment","legacy","legacy","legacy","1","undefined","1","right","63","63","63","0","0","63","63","0","0","63","63","63","0","63","0","Sun Oct 22 14:00:21 2023","The main experiment item","False","Sternbergtask.osexp","C:\Users\User\Desktop","False","mono","False","18","no","white","no","yes","768","legacy","51","11","C:/Users/User/Desktop/subject-3.csv","legacy","7 6 4 8 1 2","Melodramatic Milgram","4.0.5","0","n","0","right","left","left","right","NA","803.0","4125","4799","803","NA","2","legacy","6","1024","2","48000","-16","experiment","3","odd","9","396427","390376","391422","2394","86569","391423","367167","2401","81769","393623","395623","392423","6527","395623","NA","Sternberg task","55","48959.0","64","1024"
"86","86","767","767","#3d3846","experiment","legacy","legacy","legacy","1","undefined","1","right","64","64","64","0","0","64","64","0","0","64","64","64","0","64","0","Sun Oct 22 14:00:21 2023","The main experiment item","False","Sternbergtask.osexp","C:\Users\User\Desktop","False","mono","False","18","no","white","no","yes","768","legacy","52","11","C:/Users/User/Desktop/subject-3.csv","legacy","9 7 4 5 8","Melodramatic Milgram","4.0.5","0","n","0","right","left","left","right","NA","910.0","4125","4799","910","NA","2","legacy","5","1024","2","48000","-16","experiment","3","odd","6","402608","396434","397493","2394","86569","397494","367167","2401","81769","399696","401697","398495","6527","401697","NA","Sternberg task","56","49869.0","65","1024"
"84","84","769","769","#3d3846","experiment","legacy","legacy","legacy","0","undefined","0","left","65","65","65","0","0","65","65","0","0","65","65","65","0","65","0","Sun Oct 22 14:00:21 2023","The main experiment item","False","Sternbergtask.osexp","C:\Users\User\Desktop","False","mono","False","18","no","white","no","yes","768","legacy","53","11","C:/Users/User/Desktop/subject-3.csv","legacy","4 3 2 5 8","Melodramatic Milgram","4.0.5","2","y","0","right","left","left","right","NA","913.0","4125","4799","913","NA","2","legacy","5","1024","2","48000","-16","experiment","3","odd","3","408775","402615","403657","2394","86569","403658","367167","2401","81769","405860","407861","404659","6527","407861","NA","Sternberg task","56","50782.0","66","1024"
"85","85","766","766","#3d3846","experiment","legacy","legacy","legacy","1","undefined","1","left","66","66","66","0","0","66","66","0","0","66","66","66","0","66","0","Sun Oct 22 14:00:21 2023","The main experiment item","False","Sternbergtask.osexp","C:\Users\User\Desktop","False","mono","False","18","no","white","no","yes","768","legacy","54","11","C:/Users/User/Desktop/subject-3.csv","legacy","6 9 3 1","Melodramatic Milgram","4.0.5","4","y","0","left","left","left","left","NA","552.0","4125","4799","552","NA","2","legacy","4","1024","2","48000","-16","experiment","3","odd","1","414590","402615","409833","2394","86569","409834","408781","2401","81769","412036","414037","410835","6527","414037","NA","Sternberg task","57","51334.0","67","1024"
"83","83","762","762","#3d3846","experiment","legacy","legacy","legacy","0","undefined","0","right","67","67","67","0","0","67","67","0","0","67","67","67","0","67","0","Sun Oct 22 14:00:21 2023","The main experiment item","False","Sternbergtask.osexp","C:\Users\User\Desktop","False","mono","False","18","no","white","no","yes","768","legacy","55","11","C:/Users/User/Desktop/subject-3.csv","legacy","2 6 4 3 9","Melodramatic Milgram","4.0.5","0","n","0","left","left","left","left","NA","532.0","4125","4799","532","NA","2","legacy","5","1024","2","48000","-16","experiment","3","odd","1","420379","414596","415641","2394","86569","415642","408781","2401","81769","417844","419846","416643","6527","419845","NA","Sternberg task","57","51866.0","68","1024"
"84","84","763","763","#3d3846","experiment","legacy","legacy","legacy","1","undefined","1","right","68","68","68","0","0","68","68","0","0","68","68","68","0","68","0","Sun Oct 22 14:00:21 2023","The main experiment item","False","Sternbergtask.osexp","C:\Users\User\Desktop","False","mono","False","18","no","white","no","yes","768","legacy","56","11","C:/Users/User/Desktop/subject-3.csv","legacy","5","Melodramatic Milgram","4.0.5","0","n","0","right","left","left","right","NA","836.0","4125","4799","836","NA","2","legacy","1","1024","2","48000","-16","experiment","3","odd","8","426488","414596","421446","2394","86569","421448","420385","2401","81769","423650","425652","422449","6527","425651","NA","Sternberg task","58","52702.0","69","1024"
"84","84","763","763","#3d3846","experiment","legacy","legacy","legacy","1","undefined","1","right","69","69","69","0","0","69","69","0","0","69","69","69","0","69","0","Sun Oct 22 14:00:21 2023","The main experiment item","False","Sternbergtask.osexp","C:\Users\User\Desktop","False","mono","False","18","no","white","no","yes","768","legacy","57","11","C:/Users/User/Desktop/subject-3.csv","legacy","7 1","Melodramatic Milgram","4.0.5","0","n","0","right","left","left","right","NA","775.0","4125","4799","775","NA","2","legacy","2","1024","2","48000","-16","experiment","3","odd","8","432518","426495","427537","2394","86569","427539","420385","2401","81769","429741","431742","428540","6527","431742","NA","Sternberg task","59","53477.0","70","1024"
"84","84","764","764","#3d3846","experiment","legacy","legacy","legacy","1","undefined","1","right","70","70","70","0","0","70","70","0","0","70","70","70","0","70","0","Sun Oct 22 14:00:21 2023","The main experiment item","False","Sternbergtask.osexp","C:\Users\User\Desktop","False","mono","False","18","no","white","no","yes","768","legacy","58","11","C:/Users/User/Desktop/subject-3.csv","legacy","8 4 3 9","Melodramatic Milgram","4.0.5","0","n","0","right","left","left","right","NA","810.0","4125","4799","810","NA","2","legacy","4","1024","2","48000","-16","experiment","3","odd","5","438596","432524","433581","2394","86569","433583","420385","2401","81769","435784","437785","434583","6527","437785","NA","Sternberg task","60","54287.0","71","1024"
"84","84","771","771","#3d3846","experiment","legacy","legacy","legacy","1","undefined","1","left","71","71","71","0","0","71","71","0","0","71","71","71","0","71","0","Sun Oct 22 14:00:21 2023","The main experiment item","False","Sternbergtask.osexp","C:\Users\User\Desktop","False","mono","False","18","no","white","no","yes","768","legacy","59","11","C:/Users/User/Desktop/subject-3.csv","legacy","4 1 5","Melodramatic Milgram","4.0.5","2","y","0","left","left","left","left","NA","1228.0","4125","4799","1228","NA","2","legacy","3","1024","2","48000","-16","experiment","3","odd","1","445071","438602","439640","2394","86569","439641","420385","2401","81769","441843","443843","440642","6527","443843","NA","Sternberg task","61","55515.0","72","1024"
"83","83","765","765","#3d3846","experiment","legacy","legacy","legacy","0","undefined","0","right","72","72","72","0","0","72","72","0","0","72","72","72","0","72","0","Sun Oct 22 14:00:21 2023","The main experiment item","False","Sternbergtask.osexp","C:\Users\User\Desktop","False","mono","False","18","no","white","no","yes","768","legacy","60","11","C:/Users/User/Desktop/subject-3.csv","legacy","3 4 9 6 7 8","Melodramatic Milgram","4.0.5","0","n","0","left","left","left","left","NA","365.0","4125","4799","365","NA","2","legacy","6","1024","2","48000","-16","experiment","3","odd","2","450707","445078","446137","2394","86569","446138","420385","2401","81769","448340","450341","447139","6527","450341","NA","Sternberg task","61","55880.0","73","1024"
"83","83","765","765","#3d3846","experiment","legacy","legacy","legacy","1","undefined","1","right","73","73","73","0","0","73","73","0","0","73","73","73","0","73","0","Sun Oct 22 14:00:21 2023","The main experiment item","False","Sternbergtask.osexp","C:\Users\User\Desktop","False","mono","False","18","no","white","no","yes","768","legacy","61","11","C:/Users/User/Desktop/subject-3.csv","legacy","6 9 4 5 3 2","Melodramatic Milgram","4.0.5","0","n","0","right","left","left","right","NA","781.0","4125","4799","781","NA","2","legacy","6","1024","2","48000","-16","experiment","3","odd","8","456754","445078","451768","2394","86569","451769","450714","2401","81769","453971","455972","452770","6527","455972","NA","Sternberg task","62","56661.0","74","1024"
"82","82","770","770","#3d3846","experiment","legacy","legacy","legacy","0","undefined","0","right","74","74","74","0","0","74","74","0","0","74","74","74","0","74","0","Sun Oct 22 14:00:21 2023","The main experiment item","False","Sternbergtask.osexp","C:\Users\User\Desktop","False","mono","False","18","no","white","no","yes","768","legacy","62","11","C:/Users/User/Desktop/subject-3.csv","legacy","7 9","Melodramatic Milgram","4.0.5","0","n","0","left","left","left","left","NA","1089.0","4125","4799","1089","NA","2","legacy","2","1024","2","48000","-16","experiment","3","odd","1","463095","456760","457800","2394","86569","457801","450714","2401","81769","460003","462005","458802","6527","462004","NA","Sternberg task","62","57750.0","75","1024"
"82","82","772","772","#3d3846","experiment","legacy","legacy","legacy","1","undefined","1","left","75","75","75","0","0","75","75","0","0","75","75","75","0","75","0","Sun Oct 22 14:00:21 2023","The main experiment item","False","Sternbergtask.osexp","C:\Users\User\Desktop","False","mono","False","18","no","white","no","yes","768","legacy","63","11","C:/Users/User/Desktop/subject-3.csv","legacy","8","Melodramatic Milgram","4.0.5","1","y","0","left","left","left","left","NA","954.0","4125","4799","954","NA","2","legacy","1","1024","2","48000","-16","experiment","3","odd","8","469310","456760","464152","2394","86569","464153","463102","2401","81769","466355","468355","465154","6527","468355","NA","Sternberg task","63","58704.0","76","1024"
"83","83","772","772","#3d3846","experiment","legacy","legacy","legacy","1","undefined","1","left","76","76","76","0","0","76","76","0","0","76","76","76","0","76","0","Sun Oct 22 14:00:21 2023","The main experiment item","False","Sternbergtask.osexp","C:\Users\User\Desktop","False","mono","False","18","no","white","no","yes","768","legacy","64","11","C:/Users/User/Desktop/subject-3.csv","legacy","5 7 8 2 3 8","Melodramatic Milgram","4.0.5","5","y","0","left","left","left","left","NA","743.0","4125","4799","743","NA","2","legacy","6","1024","2","48000","-16","experiment","3","odd","3","475315","469316","470368","2394","86569","470369","463102","2401","81769","472571","474572","471370","6527","474572","NA","Sternberg task","64","59447.0","77","1024"
"83","83","770","770","#3d3846","experiment","legacy","legacy","legacy","1","undefined","1","left","77","77","77","0","0","77","77","0","0","77","77","77","0","77","0","Sun Oct 22 14:00:21 2023","The main experiment item","False","Sternbergtask.osexp","C:\Users\User\Desktop","False","mono","False","18","no","white","no","yes","768","legacy","65","11","C:/Users/User/Desktop/subject-3.csv","legacy","3 5 4 7","Melodramatic Milgram","4.0.5","1","y","0","left","left","left","left","NA","643.0","4125","4799","643","NA","2","legacy","4","1024","2","48000","-16","experiment","3","odd","3","481213","475322","476365","2394","86569","476367","463102","2401","81769","478569","480570","477368","6527","480570","NA","Sternberg task","65","60090.0","78","1024"
"83","83","768","768","#3d3846","experiment","legacy","legacy","legacy","1","undefined","1","right","78","78","78","0","0","78","78","0","0","78","78","78","0","78","0","Sun Oct 22 14:00:21 2023","The main experiment item","False","Sternbergtask.osexp","C:\Users\User\Desktop","False","mono","False","18","no","white","no","yes","768","legacy","66","11","C:/Users/User/Desktop/subject-3.csv","legacy","6 8 4","Melodramatic Milgram","4.0.5","0","n","0","right","left","left","right","NA","620.0","4125","4799","620","NA","2","legacy","3","1024","2","48000","-16","experiment","3","odd","1","487107","481220","482283","2394","86569","482284","463102","2401","81769","484486","486486","483285","6527","486486","NA","Sternberg task","66","60710.0","79","1024"
"83","83","765","765","#3d3846","experiment","legacy","legacy","legacy","1","undefined","1","left","79","79","79","0","0","79","79","0","0","79","79","79","0","79","0","Sun Oct 22 14:00:21 2023","The main experiment item","False","Sternbergtask.osexp","C:\Users\User\Desktop","False","mono","False","18","no","white","no","yes","768","legacy","67","11","C:/Users/User/Desktop/subject-3.csv","legacy","6 5","Melodramatic Milgram","4.0.5","2","y","0","left","left","left","left","NA","529.0","4125","4799","529","NA","2","legacy","2","1024","2","48000","-16","experiment","3","odd","5","492875","487113","488143","2394","86569","488144","463102","2401","81769","490346","492346","489145","6527","492346","NA","Sternberg task","67","61239.0","80","1024"
"83","83","762","762","#3d3846","experiment","legacy","legacy","legacy","1","undefined","1","left","80","80","80","0","0","80","80","0","0","80","80","80","0","80","0","Sun Oct 22 14:00:21 2023","The main experiment item","False","Sternbergtask.osexp","C:\Users\User\Desktop","False","mono","False","18","no","white","no","yes","768","legacy","68","11","C:/Users/User/Desktop/subject-3.csv","legacy","9 5 8 1","Melodramatic Milgram","4.0.5","2","y","0","left","left","left","left","NA","503.0","4125","4799","503","NA","2","legacy","4","1024","2","48000","-16","experiment","3","odd","5","498648","492882","493940","2394","86569","493941","463102","2401","81769","496143","498144","494942","6527","498144","NA","Sternberg task","68","61742.0","81","1024"
"82","82","759","759","#3d3846","experiment","legacy","legacy","legacy","0","undefined","0","left","81","81","81","0","0","81","81","0","0","81","81","81","0","81","0","Sun Oct 22 14:00:21 2023","The main experiment item","False","Sternbergtask.osexp","C:\Users\User\Desktop","False","mono","False","18","no","white","no","yes","768","legacy","69","11","C:/Users/User/Desktop/subject-3.csv","legacy","9 3 1 2 5","Melodramatic Milgram","4.0.5","4","y","0","right","left","left","right","NA","518.0","4125","4799","518","NA","2","legacy","5","1024","2","48000","-16","experiment","3","odd","2","504435","498655","499712","2394","86569","499713","463102","2401","81769","501915","503916","500714","6527","503916","NA","Sternberg task","68","62260.0","82","1024"
"81","81","757","757","#3d3846","experiment","legacy","legacy","legacy","0","undefined","0","right","82","82","82","0","0","82","82","0","0","82","82","82","0","82","0","Sun Oct 22 14:00:21 2023","The main experiment item","False","Sternbergtask.osexp","C:\Users\User\Desktop","False","mono","False","18","no","white","no","yes","768","legacy","70","11","C:/Users/User/Desktop/subject-3.csv","legacy","9 5 3 2 8 6","Melodramatic Milgram","4.0.5","0","n","0","left","left","left","left","NA","633.0","4125","4799","633","NA","2","legacy","6","1024","2","48000","-16","experiment","3","odd","7","510342","498655","505505","2394","86569","505506","504441","2401","81769","507708","509709","506507","6527","509709","NA","Sternberg task","68","62893.0","83","1024"
"82","82","754","754","#3d3846","experiment","legacy","legacy","legacy","1","undefined","1","left","83","83","83","0","0","83","83","0","0","83","83","83","0","83","0","Sun Oct 22 14:00:21 2023","The main experiment item","False","Sternbergtask.osexp","C:\Users\User\Desktop","False","mono","False","18","no","white","no","yes","768","legacy","71","11","C:/Users/User/Desktop/subject-3.csv","legacy","9 8 4","Melodramatic Milgram","4.0.5","1","y","0","left","left","left","left","NA","494.0","4125","4799","494","NA","2","legacy","3","1024","2","48000","-16","experiment","3","odd","9","516100","498655","511401","2394","86569","511402","510348","2401","81769","513604","515605","512403","6527","515605","NA","Sternberg task","69","63387.0","84","1024"
"82","82","757","757","#3d3846","experiment","legacy","legacy","legacy","1","undefined","1","right","84","84","84","0","0","84","84","0","0","84","84","84","0","84","0","Sun Oct 22 14:00:21 2023","The main experiment item","False","Sternbergtask.osexp","C:\Users\User\Desktop","False","mono","False","18","no","white","no","yes","768","legacy","72","11","C:/Users/User/Desktop/subject-3.csv","legacy","1 4 9 2 5","Melodramatic Milgram","4.0.5","0","n","0","right","left","left","right","NA","1012.0","4125","4799","1012","NA","2","legacy","5","1024","2","48000","-16","experiment","3","odd","7","522365","516106","517148","2394","86569","517149","510348","2401","81769","519351","521352","518150","6527","521352","NA","Sternberg task","70","64399.0","85","1024"
"82","82","757","757","#3d3846","experiment","legacy","legacy","legacy","1","undefined","1","right","85","85","85","0","0","85","85","0","0","85","85","85","0","85","0","Sun Oct 22 14:00:21 2023","The main experiment item","False","Sternbergtask.osexp","C:\Users\User\Desktop","False","mono","False","18","no","white","no","yes","768","legacy","73","11","C:/Users/User/Desktop/subject-3.csv","legacy","1 3 2 6 9","Melodramatic Milgram","4.0.5","0","n","0","right","left","left","right","NA","726.0","4125","4799","726","NA","2","legacy","5","1024","2","48000","-16","experiment","3","odd","5","528367","522371","523436","2394","86569","523437","510348","2401","81769","525639","527640","524438","6527","527640","NA","Sternberg task","71","65125.0","86","1024"
"82","82","757","757","#3d3846","experiment","legacy","legacy","legacy","1","undefined","1","right","86","86","86","0","0","86","86","0","0","86","86","86","0","86","0","Sun Oct 22 14:00:21 2023","The main experiment item","False","Sternbergtask.osexp","C:\Users\User\Desktop","False","mono","False","18","no","white","no","yes","768","legacy","74","11","C:/Users/User/Desktop/subject-3.csv","legacy","1 6 4 3 9 7","Melodramatic Milgram","4.0.5","0","n","0","right","left","left","right","NA","792.0","4125","4799","792","NA","2","legacy","6","1024","2","48000","-16","experiment","3","odd","8","534432","528374","529436","2394","86569","529437","510348","2401","81769","531638","533639","530437","6527","533639","NA","Sternberg task","72","65917.0","87","1024"
"82","82","756","756","#3d3846","experiment","legacy","legacy","legacy","1","undefined","1","left","87","87","87","0","0","87","87","0","0","87","87","87","0","87","0","Sun Oct 22 14:00:21 2023","The main experiment item","False","Sternbergtask.osexp","C:\Users\User\Desktop","False","mono","False","18","no","white","no","yes","768","legacy","75","11","C:/Users/User/Desktop/subject-3.csv","legacy","9 1 6 7 8","Melodramatic Milgram","4.0.5","1","y","0","left","left","left","left","NA","671.0","4125","4799","671","NA","2","legacy","5","1024","2","48000","-16","experiment","3","odd","9","540362","534438","535486","2394","86569","535488","510348","2401","81769","537689","539690","536488","6527","539690","NA","Sternberg task","73","66588.0","88","1024"
"83","83","757","757","#3d3846","experiment","legacy","legacy","legacy","1","undefined","1","right","88","88","88","0","0","88","88","0","0","88","88","88","0","88","0","Sun Oct 22 14:00:21 2023","The main experiment item","False","Sternbergtask.osexp","C:\Users\User\Desktop","False","mono","False","18","no","white","no","yes","768","legacy","76","11","C:/Users/User/Desktop/subject-3.csv","legacy","2 8 9","Melodramatic Milgram","4.0.5","0","n","0","right","left","left","right","NA","794.0","4125","4799","794","NA","2","legacy","3","1024","2","48000","-16","experiment","3","odd","6","546410","540368","541411","2394","86569","541412","510348","2401","81769","543614","545615","542413","6527","545615","NA","Sternberg task","74","67382.0","89","1024"
"83","83","755","755","#3d3846","experiment","legacy","legacy","legacy","1","undefined","1","left","89","89","89","0","0","89","89","0","0","89","89","89","0","89","0","Sun Oct 22 14:00:21 2023","The main experiment item","False","Sternbergtask.osexp","C:\Users\User\Desktop","False","mono","False","18","no","white","no","yes","768","legacy","77","11","C:/Users/User/Desktop/subject-3.csv","legacy","8 9 5 6 7","Melodramatic Milgram","4.0.5","1","y","0","left","left","left","left","NA","599.0","4125","4799","599","NA","2","legacy","5","1024","2","48000","-16","experiment","3","odd","8","552282","546416","547480","2394","86569","547481","510348","2401","81769","549683","551683","548482","6527","551683","NA","Sternberg task","75","67981.0","90","1024"
"83","83","752","752","#3d3846","experiment","legacy","legacy","legacy","1","undefined","1","left","90","90","90","0","0","90","90","0","0","90","90","90","0","90","0","Sun Oct 22 14:00:21 2023","The main experiment item","False","Sternbergtask.osexp","C:\Users\User\Desktop","False","mono","False","18","no","white","no","yes","768","legacy","78","11","C:/Users/User/Desktop/subject-3.csv","legacy","7","Melodramatic Milgram","4.0.5","1","y","0","left","left","left","left","NA","499.0","4125","4799","499","NA","2","legacy","1","1024","2","48000","-16","experiment","3","odd","7","558054","552288","553350","2394","86569","553351","510348","2401","81769","555553","557554","554352","6527","557554","NA","Sternberg task","76","68480.0","91","1024"
"83","83","755","755","#3d3846","experiment","legacy","legacy","legacy","1","undefined","1","left","91","91","91","0","0","91","91","0","0","91","91","91","0","91","0","Sun Oct 22 14:00:21 2023","The main experiment item","False","Sternbergtask.osexp","C:\Users\User\Desktop","False","mono","False","18","no","white","no","yes","768","legacy","79","11","C:/Users/User/Desktop/subject-3.csv","legacy","4 1 8 7 5","Melodramatic Milgram","4.0.5","3","y","0","left","left","left","left","NA","1048.0","4125","4799","1048","NA","2","legacy","5","1024","2","48000","-16","experiment","3","odd","8","564381","558060","559130","2394","86569","559131","510348","2401","81769","561332","563333","560131","6527","563333","NA","Sternberg task","77","69528.0","92","1024"
"83","83","759","759","#3d3846","experiment","legacy","legacy","legacy","1","undefined","1","right","92","92","92","0","0","92","92","0","0","92","92","92","0","92","0","Sun Oct 22 14:00:21 2023","The main experiment item","False","Sternbergtask.osexp","C:\Users\User\Desktop","False","mono","False","18","no","white","no","yes","768","legacy","80","11","C:/Users/User/Desktop/subject-3.csv","legacy","4 2 7 6 1 3","Melodramatic Milgram","4.0.5","0","n","0","right","left","left","right","NA","1132.0","4125","4799","1132","NA","2","legacy","6","1024","2","48000","-16","experiment","3","odd","8","570782","564388","565445","2394","86569","565446","510348","2401","81769","567648","569649","566447","6527","569649","NA","Sternberg task","78","70660.0","93","1024"
"84","84","761","761","#3d3846","experiment","legacy","legacy","legacy","1","undefined","1","right","93","93","93","0","0","93","93","0","0","93","93","93","0","93","0","Sun Oct 22 14:00:21 2023","The main experiment item","False","Sternbergtask.osexp","C:\Users\User\Desktop","False","mono","False","18","no","white","no","yes","768","legacy","81","11","C:/Users/User/Desktop/subject-3.csv","legacy","7 3 2 8","Melodramatic Milgram","4.0.5","0","n","0","right","left","left","right","NA","917.0","4125","4799","917","NA","2","legacy","4","1024","2","48000","-16","experiment","3","odd","4","576967","570789","571846","2394","86569","571847","510348","2401","81769","574049","576050","572848","6527","576050","NA","Sternberg task","79","71577.0","94","1024"
"84","84","761","761","#3d3846","experiment","legacy","legacy","legacy","1","undefined","1","left","94","94","94","0","0","94","94","0","0","94","94","94","0","94","0","Sun Oct 22 14:00:21 2023","The main experiment item","False","Sternbergtask.osexp","C:\Users\User\Desktop","False","mono","False","18","no","white","no","yes","768","legacy","82","11","C:/Users/User/Desktop/subject-3.csv","legacy","8 7 3","Melodramatic Milgram","4.0.5","1","y","0","left","left","left","left","NA","758.0","4125","4799","758","NA","2","legacy","3","1024","2","48000","-16","experiment","3","odd","8","582997","576973","578034","2394","86569","578035","510348","2401","81769","580237","582238","579036","6527","582238","NA","Sternberg task","80","72335.0","95","1024"
"84","84","764","764","#3d3846","experiment","legacy","legacy","legacy","1","undefined","1","right","95","95","95","0","0","95","95","0","0","95","95","95","0","95","0","Sun Oct 22 14:00:21 2023","The main experiment item","False","Sternbergtask.osexp","C:\Users\User\Desktop","False","mono","False","18","no","white","no","yes","768","legacy","83","11","C:/Users/User/Desktop/subject-3.csv","legacy","7 9 1 6","Melodramatic Milgram","4.0.5","0","n","0","right","left","left","right","NA","1101.0","4125","4799","1101","NA","2","legacy","4","1024","2","48000","-16","experiment","3","odd","4","589346","583003","584040","2394","86569","584041","510348","2401","81769","586243","588244","585042","6527","588244","NA","Sternberg task","81","73436.0","96","1024"
"84","84","766","766","#3d3846","experiment","legacy","legacy","legacy","1","undefined","1","left","96","96","96","0","0","96","96","0","0","96","96","96","0","96","0","Sun Oct 22 14:00:21 2023","The main experiment item","False","Sternbergtask.osexp","C:\Users\User\Desktop","False","mono","False","18","no","white","no","yes","768","legacy","84","11","C:/Users/User/Desktop/subject-3.csv","legacy","7 2 3","Melodramatic Milgram","4.0.5","3","y","0","left","left","left","left","NA","933.0","4125","4799","933","NA","2","legacy","3","1024","2","48000","-16","experiment","3","odd","3","595558","589352","590419","2394","86569","590420","510348","2401","81769","592623","594624","591422","6527","594624","NA","Sternberg task","82","74369.0","97","1024"
"84","84","765","765","#3d3846","experiment","legacy","legacy","legacy","1","undefined","1","right","97","97","97","0","0","97","97","0","0","97","97","97","0","97","0","Sun Oct 22 14:00:21 2023","The main experiment item","False","Sternbergtask.osexp","C:\Users\User\Desktop","False","mono","False","18","no","white","no","yes","768","legacy","85","11","C:/Users/User/Desktop/subject-3.csv","legacy","4 1","Melodramatic Milgram","4.0.5","0","n","0","right","left","left","right","NA","640.0","4125","4799","640","NA","2","legacy","2","1024","2","48000","-16","experiment","3","odd","6","601459","595565","596613","2394","86569","596614","510348","2401","81769","598816","600818","597615","6527","600818","NA","Sternberg task","83","75009.0","98","1024"
"83","83","762","762","#3d3846","experiment","legacy","legacy","legacy","0","undefined","0","right","98","98","98","0","0","98","98","0","0","98","98","98","0","98","0","Sun Oct 22 14:00:21 2023","The main experiment item","False","Sternbergtask.osexp","C:\Users\User\Desktop","False","mono","False","18","no","white","no","yes","768","legacy","86","11","C:/Users/User/Desktop/subject-3.csv","legacy","2 3 8 5 6 7","Melodramatic Milgram","4.0.5","0","n","0","left","left","left","left","NA","491.0","4125","4799","491","NA","2","legacy","6","1024","2","48000","-16","experiment","3","odd","1","607216","601465","602521","2394","86569","602522","510348","2401","81769","604724","606725","603523","6527","606725","NA","Sternberg task","83","75500.0","99","1024"
"84","84","759","759","#3d3846","experiment","legacy","legacy","legacy","1","undefined","1","right","99","99","99","0","0","99","99","0","0","99","99","99","0","99","0","Sun Oct 22 14:00:21 2023","The main experiment item","False","Sternbergtask.osexp","C:\Users\User\Desktop","False","mono","False","18","no","white","no","yes","768","legacy","87","11","C:/Users/User/Desktop/subject-3.csv","legacy","3 4 2","Melodramatic Milgram","4.0.5","0","n","0","right","left","left","right","NA","461.0","4125","4799","461","NA","2","legacy","3","1024","2","48000","-16","experiment","3","odd","5","612956","601465","608290","2394","86569","608291","607223","2401","81769","610493","612494","609292","6527","612494","NA","Sternberg task","84","75961.0","100","1024"
"84","84","771","771","#3d3846","experiment","legacy","legacy","legacy","1","undefined","1","right","100","100","100","0","0","100","100","0","0","100","100","100","0","100","0","Sun Oct 22 14:00:21 2023","The main experiment item","False","Sternbergtask.osexp","C:\Users\User\Desktop","False","mono","False","18","no","white","no","yes","768","legacy","88","11","C:/Users/User/Desktop/subject-3.csv","legacy","7 8 6 1","Melodramatic Milgram","4.0.5","0","n","0","right","left","left","right","NA","1979.0","4125","4799","1979","NA","2","legacy","4","1024","2","48000","-16","experiment","3","odd","3","620209","612962","614023","2394","86569","614024","607223","2401","81769","616226","618230","615025","6527","618228","NA","Sternberg task","85","77940.0","101","1024"
"84","84","769","769","#3d3846","experiment","legacy","legacy","legacy","1","undefined","1","right","101","101","101","0","0","101","101","0","0","101","101","101","0","101","0","Sun Oct 22 14:00:21 2023","The main experiment item","False","Sternbergtask.osexp","C:\Users\User\Desktop","False","mono","False","18","no","white","no","yes","768","legacy","89","11","C:/Users/User/Desktop/subject-3.csv","legacy","1 4 3 6 5","Melodramatic Milgram","4.0.5","0","n","0","right","left","left","right","NA","568.0","4125","4799","568","NA","2","legacy","5","1024","2","48000","-16","experiment","3","odd","8","626048","620216","621275","2394","86569","621276","607223","2401","81769","623478","625479","622277","6527","625479","NA","Sternberg task","86","78508.0","102","1024"
"83","83","765","765","#3d3846","experiment","legacy","legacy","legacy","0","undefined","0","left","102","102","102","0","0","102","102","0","0","102","102","102","0","102","0","Sun Oct 22 14:00:21 2023","The main experiment item","False","Sternbergtask.osexp","C:\Users\User\Desktop","False","mono","False","18","no","white","no","yes","768","legacy","90","11","C:/Users/User/Desktop/subject-3.csv","legacy","2 5 4 8 7","Melodramatic Milgram","4.0.5","3","y","0","right","left","left","right","NA","313.0","4125","4799","313","NA","2","legacy","5","1024","2","48000","-16","experiment","3","odd","4","631605","626051","627087","2394","86569","627088","607223","2401","81769","629290","631291","628089","6527","631291","NA","Sternberg task","86","78821.0","103","1024"
"83","83","770","770","#3d3846","experiment","legacy","legacy","legacy","1","undefined","1","left","103","103","103","0","0","103","103","0","0","103","103","103","0","103","0","Sun Oct 22 14:00:21 2023","The main experiment item","False","Sternbergtask.osexp","C:\Users\User\Desktop","False","mono","False","18","no","white","no","yes","768","legacy","91","11","C:/Users/User/Desktop/subject-3.csv","legacy","3 5 9 6 2 4","Melodramatic Milgram","4.0.5","1","y","0","left","left","left","left","NA","1281.0","4125","4799","1281","NA","2","legacy","6","1024","2","48000","-16","experiment","3","odd","3","638152","626051","632666","2394","86569","632667","631611","2401","81769","634869","636870","633668","6527","636870","NA","Sternberg task","87","80102.0","104","1024"
"83","83","772","772","#3d3846","experiment","legacy","legacy","legacy","1","undefined","1","left","104","104","104","0","0","104","104","0","0","104","104","104","0","104","0","Sun Oct 22 14:00:21 2023","The main experiment item","False","Sternbergtask.osexp","C:\Users\User\Desktop","False","mono","False","18","no","white","no","yes","768","legacy","92","11","C:/Users/User/Desktop/subject-3.csv","legacy","7 8 4 6 9 5","Melodramatic Milgram","4.0.5","4","y","0","left","left","left","left","NA","971.0","4125","4799","971","NA","2","legacy","6","1024","2","48000","-16","experiment","3","odd","6","644386","638158","639209","2394","86569","639211","631611","2401","81769","641413","643414","640212","6527","643414","NA","Sternberg task","88","81073.0","105","1024"
"83","83","777","777","#3d3846","experiment","legacy","legacy","legacy","1","undefined","1","left","105","105","105","0","0","105","105","0","0","105","105","105","0","105","0","Sun Oct 22 14:00:21 2023","The main experiment item","False","Sternbergtask.osexp","C:\Users\User\Desktop","False","mono","False","18","no","white","no","yes","768","legacy","93","11","C:/Users/User/Desktop/subject-3.csv","legacy","4 6 5 8","Melodramatic Milgram","4.0.5","1","y","0","left","left","left","left","NA","1318.0","4125","4799","1318","NA","2","legacy","4","1024","2","48000","-16","experiment","3","odd","4","650970","644393","645447","2394","86569","645448","631611","2401","81769","647650","649651","646449","6527","649651","NA","Sternberg task","89","82391.0","106","1024"
"84","84","774","774","#3d3846","experiment","legacy","legacy","legacy","1","undefined","1","left","106","106","106","0","0","106","106","0","0","106","106","106","0","106","0","Sun Oct 22 14:00:21 2023","The main experiment item","False","Sternbergtask.osexp","C:\Users\User\Desktop","False","mono","False","18","no","white","no","yes","768","legacy","94","11","C:/Users/User/Desktop/subject-3.csv","legacy","5 2 9 6 1 7","Melodramatic Milgram","4.0.5","3","y","0","left","left","left","left","NA","466.0","4125","4799","466","NA","2","legacy","6","1024","2","48000","-16","experiment","3","odd","9","656688","650976","652017","2394","86569","652018","631611","2401","81769","654220","656221","653019","6527","656221","NA","Sternberg task","90","82857.0","107","1024"
"84","84","771","771","#3d3846","experiment","legacy","legacy","legacy","1","undefined","1","left","107","107","107","0","0","107","107","0","0","107","107","107","0","107","0","Sun Oct 22 14:00:21 2023","The main experiment item","False","Sternbergtask.osexp","C:\Users\User\Desktop","False","mono","False","18","no","white","no","yes","768","legacy","95","11","C:/Users/User/Desktop/subject-3.csv","legacy","9 6 2 4 1","Melodramatic Milgram","4.0.5","4","y","0","left","left","left","left","NA","438.0","4125","4799","438","NA","2","legacy","5","1024","2","48000","-16","experiment","3","odd","4","662397","656695","657754","2394","86569","657755","631611","2401","81769","659957","661958","658756","6527","661958","NA","Sternberg task","91","83295.0","108","1024"
"83","83","770","770","#3d3846","experiment","legacy","legacy","legacy","0","undefined","0","right","108","108","108","0","0","108","108","0","0","108","108","108","0","108","0","Sun Oct 22 14:00:21 2023","The main experiment item","False","Sternbergtask.osexp","C:\Users\User\Desktop","False","mono","False","18","no","white","no","yes","768","legacy","96","11","C:/Users/User/Desktop/subject-3.csv","legacy","5 3 8 7 2 4","Melodramatic Milgram","4.0.5","0","n","0","left","left","left","left","NA","739.0","4125","4799","739","NA","2","legacy","6","1024","2","48000","-16","experiment","3","odd","9","668394","662404","663450","2394","86569","663451","631611","2401","81769","665653","667654","664452","6527","667654","NA","Sternberg task","91","84034.0","109","1024"
"82","82","769","769","#3d3846","experiment","legacy","legacy","legacy","0","undefined","0","right","109","109","109","0","0","109","109","0","0","109","109","109","0","109","0","Sun Oct 22 14:00:21 2023","The main experiment item","False","Sternbergtask.osexp","C:\Users\User\Desktop","False","mono","False","18","no","white","no","yes","768","legacy","97","11","C:/Users/User/Desktop/subject-3.csv","legacy","6 3 1 7 9 8","Melodramatic Milgram","4.0.5","0","n","0","left","left","left","left","NA","618.0","4125","4799","618","NA","2","legacy","6","1024","2","48000","-16","experiment","3","odd","4","674282","662404","669457","2394","86569","669459","668400","2401","81769","671661","673663","670460","6527","673662","NA","Sternberg task","91","84652.0","110","1024"
"82","82","768","768","#3d3846","experiment","legacy","legacy","legacy","1","undefined","1","right","110","110","110","0","0","110","110","0","0","110","110","110","0","110","0","Sun Oct 22 14:00:21 2023","The main experiment item","False","Sternbergtask.osexp","C:\Users\User\Desktop","False","mono","False","18","no","white","no","yes","768","legacy","98","11","C:/Users/User/Desktop/subject-3.csv","legacy","4 2 6 9","Melodramatic Milgram","4.0.5","0","n","0","right","left","left","right","NA","648.0","4125","4799","648","NA","2","legacy","4","1024","2","48000","-16","experiment","3","odd","7","680184","662404","675331","2394","86569","675332","674288","2401","81769","677534","679535","676333","6527","679535","NA","Sternberg task","92","85300.0","111","1024"
"83","83","766","766","#3d3846","experiment","legacy","legacy","legacy","1","undefined","1","left","111","111","111","0","0","111","111","0","0","111","111","111","0","111","0","Sun Oct 22 14:00:21 2023","The main experiment item","False","Sternbergtask.osexp","C:\Users\User\Desktop","False","mono","False","18","no","white","no","yes","768","legacy","99","11","C:/Users/User/Desktop/subject-3.csv","legacy","6 7 8 5","Melodramatic Milgram","4.0.5","3","y","0","left","left","left","left","NA","503.0","4125","4799","503","NA","2","legacy","4","1024","2","48000","-16","experiment","3","odd","8","685958","680190","681251","2394","86569","681252","674288","2401","81769","683453","685454","682252","6527","685454","NA","Sternberg task","93","85803.0","112","1024"
"82","82","765","765","#3d3846","experiment","legacy","legacy","legacy","0","undefined","0","right","112","112","112","0","0","112","112","0","0","112","112","112","0","112","0","Sun Oct 22 14:00:21 2023","The main experiment item","False","Sternbergtask.osexp","C:\Users\User\Desktop","False","mono","False","18","no","white","no","yes","768","legacy","100","11","C:/Users/User/Desktop/subject-3.csv","legacy","8 2 1 4 5 9","Melodramatic Milgram","4.0.5","0","n","0","left","left","left","left","NA","712.0","4125","4799","712","NA","2","legacy","6","1024","2","48000","-16","experiment","3","odd","7","691942","685965","687026","2394","86569","687027","674288","2401","81769","689229","691230","688028","6527","691230","NA","Sternberg task","93","86515.0","113","1024"
"82","82","763","763","#3d3846","experiment","legacy","legacy","legacy","1","undefined","1","right","113","113","113","0","0","113","113","0","0","113","113","113","0","113","0","Sun Oct 22 14:00:21 2023","The main experiment item","False","Sternbergtask.osexp","C:\Users\User\Desktop","False","mono","False","18","no","white","no","yes","768","legacy","101","11","C:/Users/User/Desktop/subject-3.csv","legacy","1 5 3 2 8","Melodramatic Milgram","4.0.5","0","n","0","right","left","left","right","NA","571.0","4125","4799","571","NA","2","legacy","5","1024","2","48000","-16","experiment","3","odd","4","697762","685965","692986","2394","86569","692987","691949","2401","81769","695189","697190","693988","6527","697190","NA","Sternberg task","94","87086.0","114","1024"
"82","82","760","760","#3d3846","experiment","legacy","legacy","legacy","1","undefined","1","left","114","114","114","0","0","114","114","0","0","114","114","114","0","114","0","Sun Oct 22 14:00:21 2023","The main experiment item","False","Sternbergtask.osexp","C:\Users\User\Desktop","False","mono","False","18","no","white","no","yes","768","legacy","102","11","C:/Users/User/Desktop/subject-3.csv","legacy","2 8 5 1","Melodramatic Milgram","4.0.5","4","y","0","left","left","left","left","NA","421.0","4125","4799","421","NA","2","legacy","4","1024","2","48000","-16","experiment","3","odd","1","703462","697768","698835","2394","86569","698836","691949","2401","81769","701038","703040","699837","6527","703039","NA","Sternberg task","95","87507.0","115","1024"
"81","81","760","760","#3d3846","experiment","legacy","legacy","legacy","0","undefined","0","right","115","115","115","0","0","115","115","0","0","115","115","115","0","115","0","Sun Oct 22 14:00:21 2023","The main experiment item","False","Sternbergtask.osexp","C:\Users\User\Desktop","False","mono","False","18","no","white","no","yes","768","legacy","103","11","C:/Users/User/Desktop/subject-3.csv","legacy","5 9 2 3","Melodramatic Milgram","4.0.5","0","n","0","left","left","left","left","NA","691.0","4125","4799","691","NA","2","legacy","4","1024","2","48000","-16","experiment","3","odd","8","709420","703469","704524","2394","86569","704525","691949","2401","81769","706727","708729","705526","6527","708728","NA","Sternberg task","95","88198.0","116","1024"
"82","82","758","758","#3d3846","experiment","legacy","legacy","legacy","1","undefined","1","left","116","116","116","0","0","116","116","0","0","116","116","116","0","116","0","Sun Oct 22 14:00:21 2023","The main experiment item","False","Sternbergtask.osexp","C:\Users\User\Desktop","False","mono","False","18","no","white","no","yes","768","legacy","104","11","C:/Users/User/Desktop/subject-3.csv","legacy","3 4","Melodramatic Milgram","4.0.5","1","y","0","left","left","left","left","NA","552.0","4125","4799","552","NA","2","legacy","2","1024","2","48000","-16","experiment","3","odd","3","715244","703469","710487","2394","86569","710488","709427","2401","81769","712690","714691","711489","6527","714691","NA","Sternberg task","96","88750.0","117","1024"
"82","82","758","758","#3d3846","experiment","legacy","legacy","legacy","1","undefined","1","right","117","117","117","0","0","117","117","0","0","117","117","117","0","117","0","Sun Oct 22 14:00:21 2023","The main experiment item","False","Sternbergtask.osexp","C:\Users\User\Desktop","False","mono","False","18","no","white","no","yes","768","legacy","105","11","C:/Users/User/Desktop/subject-3.csv","legacy","2 8 7 9 5 3","Melodramatic Milgram","4.0.5","0","n","0","right","left","left","right","NA","746.0","4125","4799","746","NA","2","legacy","6","1024","2","48000","-16","experiment","3","odd","6","721239","715250","716286","2394","86569","716287","709427","2401","81769","718490","720492","717289","6527","720492","NA","Sternberg task","97","89496.0","118","1024"
"82","82","755","755","#3d3846","experiment","legacy","legacy","legacy","1","undefined","1","left","118","118","118","0","0","118","118","0","0","118","118","118","0","118","0","Sun Oct 22 14:00:21 2023","The main experiment item","False","Sternbergtask.osexp","C:\Users\User\Desktop","False","mono","False","18","no","white","no","yes","768","legacy","106","11","C:/Users/User/Desktop/subject-3.csv","legacy","6 7 9 3 1 2","Melodramatic Milgram","4.0.5","1","y","0","left","left","left","left","NA","447.0","4125","4799","447","NA","2","legacy","6","1024","2","48000","-16","experiment","3","odd","6","726932","721245","722282","2394","86569","722283","709427","2401","81769","724485","726485","723284","6527","726485","NA","Sternberg task","98","89943.0","119","1024"
"81","81","755","755","#3d3846","experiment","legacy","legacy","legacy","0","undefined","0","right","119","119","119","0","0","119","119","0","0","119","119","119","0","119","0","Sun Oct 22 14:00:21 2023","The main experiment item","False","Sternbergtask.osexp","C:\Users\User\Desktop","False","mono","False","18","no","white","no","yes","768","legacy","107","11","C:/Users/User/Desktop/subject-3.csv","legacy","2 7 5","Melodramatic Milgram","4.0.5","0","n","0","left","left","left","left","NA","725.0","4125","4799","725","NA","2","legacy","3","1024","2","48000","-16","experiment","3","odd","8","732928","726939","727998","2394","86569","727999","709427","2401","81769","730201","732202","729000","6527","732202","NA","Sternberg task","98","90668.0","120","1024"
"80","80","751","751","#3d3846","experiment","legacy","legacy","legacy","0","undefined","0","right","120","120","120","0","0","120","120","0","0","120","120","120","0","120","0","Sun Oct 22 14:00:21 2023","The main experiment item","False","Sternbergtask.osexp","C:\Users\User\Desktop","False","mono","False","18","no","white","no","yes","768","legacy","108","11","C:/Users/User/Desktop/subject-3.csv","legacy","7 4 2 8 1 9","Melodramatic Milgram","4.0.5","0","n","0","left","left","left","left","NA","248.0","4125","4799","248","NA","2","legacy","6","1024","2","48000","-16","experiment","3","odd","5","738423","726939","733970","2394","86569","733971","732935","2401","81769","736173","738174","734972","6527","738174","NA","Sternberg task","98","90916.0","121","1024"
"80","80","749","749","#3d3846","experiment","legacy","legacy","legacy","0","undefined","0","left","121","121","121","0","0","121","121","0","0","121","121","121","0","121","0","Sun Oct 22 14:00:21 2023","The main experiment item","False","Sternbergtask.osexp","C:\Users\User\Desktop","False","mono","False","18","no","white","no","yes","768","legacy","109","11","C:/Users/User/Desktop/subject-3.csv","legacy","9 3 8 2 1 4","Melodramatic Milgram","4.0.5","3","y","0","right","left","left","right","NA","464.0","4125","4799","464","NA","2","legacy","6","1024","2","48000","-16","experiment","3","odd","8","744171","726939","739502","2394","86569","739503","738429","2401","81769","741705","743706","740504","6527","743705","NA","Sternberg task","98","91380.0","122","1024"
"80","80","746","746","#3d3846","experiment","legacy","legacy","legacy","1","undefined","1","left","122","122","122","0","0","122","122","0","0","122","122","122","0","122","0","Sun Oct 22 14:00:21 2023","The main experiment item","False","Sternbergtask.osexp","C:\Users\User\Desktop","False","mono","False","18","no","white","no","yes","768","legacy","110","11","C:/Users/User/Desktop/subject-3.csv","legacy","7 6","Melodramatic Milgram","4.0.5","2","y","0","left","left","left","left","NA","462.0","4125","4799","462","NA","2","legacy","2","1024","2","48000","-16","experiment","3","odd","6","749908","726939","745241","2394","86569","745242","744177","2401","81769","747444","749445","746243","6527","749445","NA","Sternberg task","99","91842.0","123","1024"
"79","79","745","745","#3d3846","experiment","legacy","legacy","legacy","0","undefined","0","right","123","123","123","0","0","123","123","0","0","123","123","123","0","123","0","Sun Oct 22 14:00:21 2023","The main experiment item","False","Sternbergtask.osexp","C:\Users\User\Desktop","False","mono","False","18","no","white","no","yes","768","legacy","111","11","C:/Users/User/Desktop/subject-3.csv","legacy","6 9 5","Melodramatic Milgram","4.0.5","0","n","0","left","left","left","left","NA","548.0","4125","4799","548","NA","2","legacy","3","1024","2","48000","-16","experiment","3","odd","8","755710","749914","750956","2394","86569","750957","744177","2401","81769","753160","755162","751959","6527","755161","NA","Sternberg task","99","92390.0","124","1024"
"79","79","743","743","#3d3846","experiment","legacy","legacy","legacy","0","undefined","0","right","124","124","124","0","0","124","124","0","0","124","124","124","0","124","0","Sun Oct 22 14:00:21 2023","The main experiment item","False","Sternbergtask.osexp","C:\Users\User\Desktop","False","mono","False","18","no","white","no","yes","768","legacy","112","11","C:/Users/User/Desktop/subject-3.csv","legacy","8 6 3 4 7","Melodramatic Milgram","4.0.5","0","n","0","left","left","left","left","NA","494.0","4125","4799","494","NA","2","legacy","5","1024","2","48000","-16","experiment","3","odd","1","761477","749914","756778","2394","86569","756779","755717","2401","81769","758981","760982","757780","6527","760982","NA","Sternberg task","99","92884.0","125","1024"
"79","79","741","741","#3d3846","experiment","legacy","legacy","legacy","1","undefined","1","right","125","125","125","0","0","125","125","0","0","125","125","125","0","125","0","Sun Oct 22 14:00:21 2023","The main experiment item","False","Sternbergtask.osexp","C:\Users\User\Desktop","False","mono","False","18","no","white","no","yes","768","legacy","113","11","C:/Users/User/Desktop/subject-3.csv","legacy","9","Melodramatic Milgram","4.0.5","0","n","0","right","left","left","right","NA","491.0","4125","4799","491","NA","2","legacy","1","1024","2","48000","-16","experiment","3","odd","6","767215","749914","762520","2394","86569","762521","761483","2401","81769","764723","766723","763522","6527","766723","NA","Sternberg task","100","93375.0","126","1024"
"79","79","739","739","#3d3846","experiment","legacy","legacy","legacy","1","undefined","1","left","126","126","126","0","0","126","126","0","0","126","126","126","0","126","0","Sun Oct 22 14:00:21 2023","The main experiment item","False","Sternbergtask.osexp","C:\Users\User\Desktop","False","mono","False","18","no","white","no","yes","768","legacy","114","11","C:/Users/User/Desktop/subject-3.csv","legacy","2 3","Melodramatic Milgram","4.0.5","1","y","0","left","left","left","left","NA","600.0","4125","4799","600","NA","2","legacy","2","1024","2","48000","-16","experiment","3","odd","2","773062","767221","768256","2394","86569","768257","761483","2401","81769","770460","772461","769259","6527","772461","NA","Sternberg task","101","93975.0","127","1024"
"78","78","739","739","#3d3846","experiment","legacy","legacy","legacy","0","undefined","0","left","127","127","127","0","0","127","127","0","0","127","127","127","0","127","0","Sun Oct 22 14:00:21 2023","The main experiment item","False","Sternbergtask.osexp","C:\Users\User\Desktop","False","mono","False","18","no","white","no","yes","768","legacy","115","11","C:/Users/User/Desktop/subject-3.csv","legacy","3 4 9 6 2 9","Melodramatic Milgram","4.0.5","5","y","0","right","left","left","right","NA","646.0","4125","4799","646","NA","2","legacy","6","1024","2","48000","-16","experiment","3","odd","2","778969","773069","774119","2394","86569","774120","761483","2401","81769","776322","778323","775121","6527","778323","NA","Sternberg task","101","94621.0","128","1024"
"78","78","736","736","#3d3846","experiment","legacy","legacy","legacy","0","undefined","0","right","128","128","128","0","0","128","128","0","0","128","128","128","0","128","0","Sun Oct 22 14:00:21 2023","The main experiment item","False","Sternbergtask.osexp","C:\Users\User\Desktop","False","mono","False","18","no","white","no","yes","768","legacy","116","11","C:/Users/User/Desktop/subject-3.csv","legacy","5 7 3","Melodramatic Milgram","4.0.5","0","n","0","left","left","left","left","NA","377.0","4125","4799","377","NA","2","legacy","3","1024","2","48000","-16","experiment","3","odd","9","784595","773069","780014","2394","86569","780015","778976","2401","81769","782216","784217","781015","6527","784217","NA","Sternberg task","101","94998.0","129","1024"
