"acc","accuracy","average_response_time","avg_rt","background","block","canvas_backend","clock_backend","color_backend","correct","correct_instruction1_sketchpad","correct_keyboard_response","correct_response","count_ISI_sketchpad","count_correct_sketchpad","count_exp_sequence","count_experiment","count_experiment_loop","count_fixation_sketchpad","count_incorrect_sketchpad","count_instruction1_sketchpad","count_instructions2_sketchpad","count_keyboard_response","count_memoryset_sketchpad","count_new_logger","count_practice_loop","count_probe_sketchpad","count_thankyou_sketchpad","datetime","description","disable_garbage_collection","experiment_file","experiment_path","font_bold","font_family","font_italic","font_size","font_underline","foreground","form_clicks","fullscreen","height","keyboard_backend","live_row","live_row_practice_loop","logfile","mouse_backend","numberSet","opensesame_codename","opensesame_version","posInSet","present","repeat_cycle","response","response_instruction1_sketchpad","response_instructions2_sketchpad","response_keyboard_response","response_thankyou_sketchpad","response_time","response_time_instruction1_sketchpad","response_time_instructions2_sketchpad","response_time_keyboard_response","response_time_thankyou_sketchpad","round_decimals","sampler_backend","setSize","sound_buf_size","sound_channels","sound_freq","sound_sample_size","start","subject_nr","subject_parity","target","time_ISI_sketchpad","time_correct_sketchpad","time_exp_sequence","time_experiment","time_experiment_loop","time_fixation_sketchpad","time_incorrect_sketchpad","time_instruction1_sketchpad","time_instructions2_sketchpad","time_keyboard_response","time_memoryset_sketchpad","time_new_logger","time_practice_loop","time_probe_sketchpad","time_thankyou_sketchpad","title","total_correct","total_response_time","total_responses","width"
"0","0","2000","2000","#3d3846","practice","legacy","legacy","legacy","0","undefined","0","right","0","0","0","0","0","0","0","0","0","0","0","0","0","0","0","Tue Oct 17 03:10:16 2023","The main experiment item","True","Sternbergtask.osexp","C:\Users\kikip\OneDrive\Dokumente\QUANT HW","False","mono","False","18","no","white","no","yes","768","legacy","0","0","C:/Users/kikip/OneDrive/Dokumente/QUANT HW/JB-subject-3.csv","legacy","2 1","Melodramatic Milgram","4.0.5","0","n","0","None","right","NA","None","NA","2000.0","55134","NA","2000","NA","2","legacy","2","1024","2","48000","-16","experiment","3","odd","5","63130","NA","60926","4601","NA","60928","NA","4608","NA","65131","61929","67131","59744","65131","NA","Sternberg task ","0","2000.0","1","1024"
"0","0","2000","2000","#3d3846","practice","legacy","legacy","legacy","0","undefined","0","right","1","1","1","0","0","1","1","0","0","1","1","1","0","1","0","Tue Oct 17 03:10:16 2023","The main experiment item","True","Sternbergtask.osexp","C:\Users\kikip\OneDrive\Dokumente\QUANT HW","False","mono","False","18","no","white","no","yes","768","legacy","1","1","C:/Users/kikip/OneDrive/Dokumente/QUANT HW/JB-subject-3.csv","legacy","5","Melodramatic Milgram","4.0.5","0","n","0","None","right","NA","None","NA","2000.0","55134","NA","2000","NA","2","legacy","1","1024","2","48000","-16","experiment","3","odd","3","70477","NA","68273","4601","NA","68275","67198","4608","NA","72480","69276","74480","59744","72480","NA","Sternberg task ","0","4000.0","2","1024"
"0","0","2000","2000","#3d3846","practice","legacy","legacy","legacy","0","undefined","0","right","2","2","2","0","0","2","2","0","0","2","2","2","0","2","0","Tue Oct 17 03:10:16 2023","The main experiment item","True","Sternbergtask.osexp","C:\Users\kikip\OneDrive\Dokumente\QUANT HW","False","mono","False","18","no","white","no","yes","768","legacy","2","2","C:/Users/kikip/OneDrive/Dokumente/QUANT HW/JB-subject-3.csv","legacy","3 1 9 4","Melodramatic Milgram","4.0.5","0","n","0","None","right","NA","None","NA","2000.0","55134","NA","2000","NA","2","legacy","4","1024","2","48000","-16","experiment","3","odd","6","77793","NA","75586","4601","NA","75589","74487","4608","NA","79796","76591","81796","59744","79796","NA","Sternberg task ","0","6000.0","3","1024"
"0","0","1670","1670","#3d3846","practice","legacy","legacy","legacy","0","undefined","0","left","3","3","3","0","0","3","3","0","0","3","3","3","0","3","0","Tue Oct 17 03:10:16 2023","The main experiment item","True","Sternbergtask.osexp","C:\Users\kikip\OneDrive\Dokumente\QUANT HW","False","mono","False","18","no","white","no","yes","768","legacy","3","3","C:/Users/kikip/OneDrive/Dokumente/QUANT HW/JB-subject-3.csv","legacy","2 9 4","Melodramatic Milgram","4.0.5","3","y","0","right","right","NA","right","NA","680.0","55134","NA","680","NA","2","legacy","3","1024","2","48000","-16","experiment","3","odd","4","85081","NA","82877","4601","NA","82879","81801","4608","NA","87083","83880","87764","59744","87082","NA","Sternberg task ","0","6680.0","4","1024"
"20","20","1469","1469","#3d3846","practice","legacy","legacy","legacy","1","undefined","1","left","4","4","4","0","0","4","4","0","0","4","4","4","0","4","0","Tue Oct 17 03:10:16 2023","The main experiment item","True","Sternbergtask.osexp","C:\Users\kikip\OneDrive\Dokumente\QUANT HW","False","mono","False","18","no","white","no","yes","768","legacy","4","4","C:/Users/kikip/OneDrive/Dokumente/QUANT HW/JB-subject-3.csv","legacy","4 3 1 7 9 8","Melodramatic Milgram","4.0.5","1","y","0","left","right","NA","left","NA","667.0","55134","NA","667","NA","2","legacy","6","1024","2","48000","-16","experiment","3","odd","4","91040","NA","88836","4601","NA","88838","87768","4608","NA","93042","89839","93709","59744","93042","NA","Sternberg task ","1","7347.0","5","1024"
"33","33","1351","1351","#3d3846","practice","legacy","legacy","legacy","1","undefined","1","left","5","5","5","0","0","5","5","0","0","5","5","5","0","5","0","Tue Oct 17 03:10:16 2023","The main experiment item","True","Sternbergtask.osexp","C:\Users\kikip\OneDrive\Dokumente\QUANT HW","False","mono","False","18","no","white","no","yes","768","legacy","5","5","C:/Users/kikip/OneDrive/Dokumente/QUANT HW/JB-subject-3.csv","legacy","1 5 2 9","Melodramatic Milgram","4.0.5","2","y","0","left","right","NA","left","NA","763.0","55134","NA","763","NA","2","legacy","4","1024","2","48000","-16","experiment","3","odd","5","96993","93715","94789","4601","NA","94791","87768","4608","NA","98994","95792","99758","59744","98994","NA","Sternberg task ","2","8110.0","6","1024"
"42","42","1297","1297","#3d3846","practice","legacy","legacy","legacy","1","undefined","1","right","6","6","6","0","0","6","6","0","0","6","6","6","0","6","0","Tue Oct 17 03:10:16 2023","The main experiment item","True","Sternbergtask.osexp","C:\Users\kikip\OneDrive\Dokumente\QUANT HW","False","mono","False","18","no","white","no","yes","768","legacy","6","6","C:/Users/kikip/OneDrive/Dokumente/QUANT HW/JB-subject-3.csv","legacy","9 6 7 4 5","Melodramatic Milgram","4.0.5","0","n","0","right","right","NA","right","NA","972.0","55134","NA","972","NA","2","legacy","5","1024","2","48000","-16","experiment","3","odd","3","103046","99763","100842","4601","NA","100844","87768","4608","NA","105049","101845","106022","59744","105049","NA","Sternberg task ","3","9082.0","7","1024"
"50","50","1217","1217","#3d3846","practice","legacy","legacy","legacy","1","undefined","1","right","7","7","7","0","0","7","7","0","0","7","7","7","0","7","0","Tue Oct 17 03:10:16 2023","The main experiment item","True","Sternbergtask.osexp","C:\Users\kikip\OneDrive\Dokumente\QUANT HW","False","mono","False","18","no","white","no","yes","768","legacy","7","7","C:/Users/kikip/OneDrive/Dokumente/QUANT HW/JB-subject-3.csv","legacy","5 7 8 4 1 2","Melodramatic Milgram","4.0.5","0","n","0","right","right","NA","right","NA","658.0","55134","NA","658","NA","2","legacy","6","1024","2","48000","-16","experiment","3","odd","6","109314","106027","107109","4601","NA","107112","87768","4608","NA","111317","108113","111976","59744","111317","NA","Sternberg task ","4","9740.0","8","1024"
"55","55","1154","1154","#3d3846","practice","legacy","legacy","legacy","1","undefined","1","right","8","8","8","0","0","8","8","0","0","8","8","8","0","8","0","Tue Oct 17 03:10:16 2023","The main experiment item","True","Sternbergtask.osexp","C:\Users\kikip\OneDrive\Dokumente\QUANT HW","False","mono","False","18","no","white","no","yes","768","legacy","8","8","C:/Users/kikip/OneDrive/Dokumente/QUANT HW/JB-subject-3.csv","legacy","4 1 5","Melodramatic Milgram","4.0.5","0","n","0","right","right","NA","right","NA","650.0","55134","NA","650","NA","2","legacy","3","1024","2","48000","-16","experiment","3","odd","2","115263","111982","113059","4601","NA","113061","87768","4608","NA","117265","114062","117915","59744","117264","NA","Sternberg task ","5","10390.0","9","1024"
"60","60","1120","1120","#3d3846","practice","legacy","legacy","legacy","1","undefined","1","left","9","9","9","0","0","9","9","0","0","9","9","9","0","9","0","Tue Oct 17 03:10:16 2023","The main experiment item","True","Sternbergtask.osexp","C:\Users\kikip\OneDrive\Dokumente\QUANT HW","False","mono","False","18","no","white","no","yes","768","legacy","9","9","C:/Users/kikip/OneDrive/Dokumente/QUANT HW/JB-subject-3.csv","legacy","1 7 9 8 5","Melodramatic Milgram","4.0.5","4","y","0","left","right","NA","left","NA","817.0","55134","NA","817","NA","2","legacy","5","1024","2","48000","-16","experiment","3","odd","8","121211","117923","119005","4601","NA","119008","87768","4608","NA","123213","120010","124031","59744","123213","NA","Sternberg task ","6","11207.0","10","1024"
"63","63","1068","1068","#3d3846","practice","legacy","legacy","legacy","1","undefined","1","left","10","10","10","0","0","10","10","0","0","10","10","10","0","10","0","Tue Oct 17 03:10:16 2023","The main experiment item","True","Sternbergtask.osexp","C:\Users\kikip\OneDrive\Dokumente\QUANT HW","False","mono","False","18","no","white","no","yes","768","legacy","10","10","C:/Users/kikip/OneDrive/Dokumente/QUANT HW/JB-subject-3.csv","legacy","4 8","Melodramatic Milgram","4.0.5","1","y","0","left","right","NA","left","NA","550.0","55134","NA","550","NA","2","legacy","2","1024","2","48000","-16","experiment","3","odd","4","127324","124036","125118","4601","NA","125121","87768","4608","NA","129325","126122","129876","59744","129325","NA","Sternberg task ","7","11757.0","11","1024"
"66","66","1037","1037","#3d3846","practice","legacy","legacy","legacy","1","undefined","1","left","11","11","11","0","0","11","11","0","0","11","11","11","0","11","0","Tue Oct 17 03:10:16 2023","The main experiment item","True","Sternbergtask.osexp","C:\Users\kikip\OneDrive\Dokumente\QUANT HW","False","mono","False","18","no","white","no","yes","768","legacy","11","11","C:/Users/kikip/OneDrive/Dokumente/QUANT HW/JB-subject-3.csv","legacy","6","Melodramatic Milgram","4.0.5","1","y","0","left","right","NA","left","NA","698.0","55134","NA","698","NA","2","legacy","1","1024","2","48000","-16","experiment","3","odd","6","133158","129881","130953","4601","NA","130955","87768","4608","NA","135160","131957","135859","59744","135159","NA","Sternberg task ","8","12455.0","12","1024"
"69","69","1016","1016","#3d3846","experiment","legacy","legacy","legacy","1","undefined","1","right","12","12","12","0","0","12","12","0","0","12","12","12","0","12","0","Tue Oct 17 03:10:16 2023","The main experiment item","True","Sternbergtask.osexp","C:\Users\kikip\OneDrive\Dokumente\QUANT HW","False","mono","False","18","no","white","no","yes","768","legacy","0","11","C:/Users/kikip/OneDrive/Dokumente/QUANT HW/JB-subject-3.csv","legacy","8 5 7 3 6","Melodramatic Milgram","4.0.5","0","n","0","right","right","right","right","NA","755.0","55134","25795","755","NA","2","legacy","5","1024","2","48000","-16","experiment","3","odd","9","165142","135863","162936","4601","162661","162939","87768","4608","136865","167143","163941","167899","59744","167143","NA","Sternberg task ","9","13210.0","13","1024"
"71","71","997","997","#3d3846","experiment","legacy","legacy","legacy","1","undefined","1","left","13","13","13","0","0","13","13","0","0","13","13","13","0","13","0","Tue Oct 17 03:10:16 2023","The main experiment item","True","Sternbergtask.osexp","C:\Users\kikip\OneDrive\Dokumente\QUANT HW","False","mono","False","18","no","white","no","yes","768","legacy","1","11","C:/Users/kikip/OneDrive/Dokumente/QUANT HW/JB-subject-3.csv","legacy","8 5 1 3 9","Melodramatic Milgram","4.0.5","4","y","0","left","right","right","left","NA","761.0","55134","25795","761","NA","2","legacy","5","1024","2","48000","-16","experiment","3","odd","3","171184","167904","168980","4601","162661","168982","87768","4608","136865","173186","169983","173948","59744","173185","NA","Sternberg task ","10","13971.0","14","1024"
"73","73","998","998","#3d3846","experiment","legacy","legacy","legacy","1","undefined","1","right","14","14","14","0","0","14","14","0","0","14","14","14","0","14","0","Tue Oct 17 03:10:16 2023","The main experiment item","True","Sternbergtask.osexp","C:\Users\kikip\OneDrive\Dokumente\QUANT HW","False","mono","False","18","no","white","no","yes","768","legacy","2","11","C:/Users/kikip/OneDrive/Dokumente/QUANT HW/JB-subject-3.csv","legacy","9 8 2 7 4","Melodramatic Milgram","4.0.5","0","n","0","right","right","right","right","NA","1004.0","55134","25795","1004","NA","2","legacy","5","1024","2","48000","-16","experiment","3","odd","5","177237","173956","175033","4601","162661","175035","87768","4608","136865","179238","176036","180243","59744","179238","NA","Sternberg task ","11","14975.0","15","1024"
"75","75","974","974","#3d3846","experiment","legacy","legacy","legacy","1","undefined","1","right","15","15","15","0","0","15","15","0","0","15","15","15","0","15","0","Tue Oct 17 03:10:16 2023","The main experiment item","True","Sternbergtask.osexp","C:\Users\kikip\OneDrive\Dokumente\QUANT HW","False","mono","False","18","no","white","no","yes","768","legacy","3","11","C:/Users/kikip/OneDrive/Dokumente/QUANT HW/JB-subject-3.csv","legacy","6 8","Melodramatic Milgram","4.0.5","0","n","0","right","right","right","right","NA","609.0","55134","25795","609","NA","2","legacy","2","1024","2","48000","-16","experiment","3","odd","9","183525","180247","181320","4601","162661","181322","87768","4608","136865","185527","182323","186137","59744","185526","NA","Sternberg task ","12","15584.0","16","1024"
"76","76","953","953","#3d3846","experiment","legacy","legacy","legacy","1","undefined","1","right","16","16","16","0","0","16","16","0","0","16","16","16","0","16","0","Tue Oct 17 03:10:16 2023","The main experiment item","True","Sternbergtask.osexp","C:\Users\kikip\OneDrive\Dokumente\QUANT HW","False","mono","False","18","no","white","no","yes","768","legacy","4","11","C:/Users/kikip/OneDrive/Dokumente/QUANT HW/JB-subject-3.csv","legacy","2 8 6 3 1","Melodramatic Milgram","4.0.5","0","n","0","right","right","right","right","NA","623.0","55134","25795","623","NA","2","legacy","5","1024","2","48000","-16","experiment","3","odd","7","189431","186142","187227","4601","162661","187229","87768","4608","136865","191433","188230","192057","59744","191432","NA","Sternberg task ","13","16207.0","17","1024"
"77","77","940","940","#3d3846","experiment","legacy","legacy","legacy","1","undefined","1","right","17","17","17","0","0","17","17","0","0","17","17","17","0","17","0","Tue Oct 17 03:10:16 2023","The main experiment item","True","Sternbergtask.osexp","C:\Users\kikip\OneDrive\Dokumente\QUANT HW","False","mono","False","18","no","white","no","yes","768","legacy","5","11","C:/Users/kikip/OneDrive/Dokumente/QUANT HW/JB-subject-3.csv","legacy","1 8 7","Melodramatic Milgram","4.0.5","0","n","0","right","right","right","right","NA","717.0","55134","25795","717","NA","2","legacy","3","1024","2","48000","-16","experiment","3","odd","4","195343","192065","193137","4601","162661","193140","87768","4608","136865","197344","194141","198062","59744","197344","NA","Sternberg task ","14","16924.0","18","1024"
"78","78","918","918","#3d3846","experiment","legacy","legacy","legacy","1","undefined","1","left","18","18","18","0","0","18","18","0","0","18","18","18","0","18","0","Tue Oct 17 03:10:16 2023","The main experiment item","True","Sternbergtask.osexp","C:\Users\kikip\OneDrive\Dokumente\QUANT HW","False","mono","False","18","no","white","no","yes","768","legacy","6","11","C:/Users/kikip/OneDrive/Dokumente/QUANT HW/JB-subject-3.csv","legacy","8 3","Melodramatic Milgram","4.0.5","2","y","0","left","right","right","left","NA","519.0","55134","25795","519","NA","2","legacy","2","1024","2","48000","-16","experiment","3","odd","3","201344","198067","199139","4601","162661","199141","87768","4608","136865","203345","200142","203865","59744","203345","NA","Sternberg task ","15","17443.0","19","1024"
"80","80","904","904","#3d3846","experiment","legacy","legacy","legacy","1","undefined","1","left","19","19","19","0","0","19","19","0","0","19","19","19","0","19","0","Tue Oct 17 03:10:16 2023","The main experiment item","True","Sternbergtask.osexp","C:\Users\kikip\OneDrive\Dokumente\QUANT HW","False","mono","False","18","no","white","no","yes","768","legacy","7","11","C:/Users/kikip/OneDrive/Dokumente/QUANT HW/JB-subject-3.csv","legacy","2 6 1 7 4","Melodramatic Milgram","4.0.5","2","y","0","left","right","right","left","NA","649.0","55134","25795","649","NA","2","legacy","5","1024","2","48000","-16","experiment","3","odd","6","207159","203872","204954","4601","162661","204956","87768","4608","136865","209160","205957","209810","59744","209160","NA","Sternberg task ","16","18092.0","20","1024"
"80","80","889","889","#3d3846","experiment","legacy","legacy","legacy","1","undefined","1","right","20","20","20","0","0","20","20","0","0","20","20","20","0","20","0","Tue Oct 17 03:10:16 2023","The main experiment item","True","Sternbergtask.osexp","C:\Users\kikip\OneDrive\Dokumente\QUANT HW","False","mono","False","18","no","white","no","yes","768","legacy","8","11","C:/Users/kikip/OneDrive/Dokumente/QUANT HW/JB-subject-3.csv","legacy","2 7 5","Melodramatic Milgram","4.0.5","0","n","0","right","right","right","right","NA","581.0","55134","25795","581","NA","2","legacy","3","1024","2","48000","-16","experiment","3","odd","8","213095","209818","210891","4601","162661","210893","87768","4608","136865","215096","211894","215678","59744","215096","NA","Sternberg task ","17","18673.0","21","1024"
"81","81","876","876","#3d3846","experiment","legacy","legacy","legacy","1","undefined","1","right","21","21","21","0","0","21","21","0","0","21","21","21","0","21","0","Tue Oct 17 03:10:16 2023","The main experiment item","True","Sternbergtask.osexp","C:\Users\kikip\OneDrive\Dokumente\QUANT HW","False","mono","False","18","no","white","no","yes","768","legacy","9","11","C:/Users/kikip/OneDrive/Dokumente/QUANT HW/JB-subject-3.csv","legacy","7 4 2 8 1 9","Melodramatic Milgram","4.0.5","0","n","0","right","right","right","right","NA","601.0","55134","25795","601","NA","2","legacy","6","1024","2","48000","-16","experiment","3","odd","5","218965","215683","216761","4601","162661","216763","87768","4608","136865","220966","217764","221568","59744","220966","NA","Sternberg task ","18","19274.0","22","1024"
"82","82","860","860","#3d3846","experiment","legacy","legacy","legacy","1","undefined","1","right","22","22","22","0","0","22","22","0","0","22","22","22","0","22","0","Tue Oct 17 03:10:16 2023","The main experiment item","True","Sternbergtask.osexp","C:\Users\kikip\OneDrive\Dokumente\QUANT HW","False","mono","False","18","no","white","no","yes","768","legacy","10","11","C:/Users/kikip/OneDrive/Dokumente/QUANT HW/JB-subject-3.csv","legacy","2 3 8 5 6 7","Melodramatic Milgram","4.0.5","0","n","0","right","right","right","right","NA","524.0","55134","25795","524","NA","2","legacy","6","1024","2","48000","-16","experiment","3","odd","1","224852","221572","222648","4601","162661","222650","87768","4608","136865","226854","223651","227379","59744","226854","NA","Sternberg task ","19","19798.0","23","1024"
"83","83","845","845","#3d3846","experiment","legacy","legacy","legacy","1","undefined","1","left","23","23","23","0","0","23","23","0","0","23","23","23","0","23","0","Tue Oct 17 03:10:16 2023","The main experiment item","True","Sternbergtask.osexp","C:\Users\kikip\OneDrive\Dokumente\QUANT HW","False","mono","False","18","no","white","no","yes","768","legacy","11","11","C:/Users/kikip/OneDrive/Dokumente/QUANT HW/JB-subject-3.csv","legacy","9 5 8 1","Melodramatic Milgram","4.0.5","2","y","0","left","right","right","left","NA","495.0","55134","25795","495","NA","2","legacy","4","1024","2","48000","-16","experiment","3","odd","5","230685","227386","228480","4601","162661","228482","87768","4608","136865","232686","229484","233182","59744","232686","NA","Sternberg task ","20","20293.0","24","1024"
"84","84","835","835","#3d3846","experiment","legacy","legacy","legacy","1","undefined","1","right","24","24","24","0","0","24","24","0","0","24","24","24","0","24","0","Tue Oct 17 03:10:16 2023","The main experiment item","True","Sternbergtask.osexp","C:\Users\kikip\OneDrive\Dokumente\QUANT HW","False","mono","False","18","no","white","no","yes","768","legacy","12","11","C:/Users/kikip/OneDrive/Dokumente/QUANT HW/JB-subject-3.csv","legacy","1 7 8 3 9","Melodramatic Milgram","4.0.5","0","n","0","right","right","right","right","NA","597.0","55134","25795","597","NA","2","legacy","5","1024","2","48000","-16","experiment","3","odd","2","236473","233188","234269","4601","162661","234271","87768","4608","136865","238474","235272","239072","59744","238474","NA","Sternberg task ","21","20890.0","25","1024"
"84","84","825","825","#3d3846","experiment","legacy","legacy","legacy","1","undefined","1","right","25","25","25","0","0","25","25","0","0","25","25","25","0","25","0","Tue Oct 17 03:10:16 2023","The main experiment item","True","Sternbergtask.osexp","C:\Users\kikip\OneDrive\Dokumente\QUANT HW","False","mono","False","18","no","white","no","yes","768","legacy","13","11","C:/Users/kikip/OneDrive/Dokumente/QUANT HW/JB-subject-3.csv","legacy","6 8 4","Melodramatic Milgram","4.0.5","0","n","0","right","right","right","right","NA","568.0","55134","25795","568","NA","2","legacy","3","1024","2","48000","-16","experiment","3","odd","1","242352","239076","240148","4601","162661","240150","87768","4608","136865","244354","241151","244923","59744","244354","NA","Sternberg task ","22","21458.0","26","1024"
"81","81","822","822","#3d3846","experiment","legacy","legacy","legacy","0","undefined","0","left","26","26","26","0","0","26","26","0","0","26","26","26","0","26","0","Tue Oct 17 03:10:16 2023","The main experiment item","True","Sternbergtask.osexp","C:\Users\kikip\OneDrive\Dokumente\QUANT HW","False","mono","False","18","no","white","no","yes","768","legacy","14","11","C:/Users/kikip/OneDrive/Dokumente/QUANT HW/JB-subject-3.csv","legacy","5 7 3 6 2","Melodramatic Milgram","4.0.5","5","y","0","right","right","right","right","NA","743.0","55134","25795","743","NA","2","legacy","5","1024","2","48000","-16","experiment","3","odd","2","248206","244931","246001","4601","162661","246004","87768","4608","136865","250207","247005","250952","59744","250207","NA","Sternberg task ","22","22201.0","27","1024"
"82","82","814","814","#3d3846","experiment","legacy","legacy","legacy","1","undefined","1","right","27","27","27","0","0","27","27","0","0","27","27","27","0","27","0","Tue Oct 17 03:10:16 2023","The main experiment item","True","Sternbergtask.osexp","C:\Users\kikip\OneDrive\Dokumente\QUANT HW","False","mono","False","18","no","white","no","yes","768","legacy","15","11","C:/Users/kikip/OneDrive/Dokumente/QUANT HW/JB-subject-3.csv","legacy","5 7 3","Melodramatic Milgram","4.0.5","0","n","0","right","right","right","right","NA","606.0","55134","25795","606","NA","2","legacy","3","1024","2","48000","-16","experiment","3","odd","9","254233","244931","252028","4601","162661","252031","250956","4608","136865","256235","253032","256843","59744","256234","NA","Sternberg task ","23","22807.0","28","1024"
"82","82","804","804","#3d3846","experiment","legacy","legacy","legacy","1","undefined","1","left","28","28","28","0","0","28","28","0","0","28","28","28","0","28","0","Tue Oct 17 03:10:16 2023","The main experiment item","True","Sternbergtask.osexp","C:\Users\kikip\OneDrive\Dokumente\QUANT HW","False","mono","False","18","no","white","no","yes","768","legacy","16","11","C:/Users/kikip/OneDrive/Dokumente/QUANT HW/JB-subject-3.csv","legacy","8 5 3 7 4 6","Melodramatic Milgram","4.0.5","6","y","0","left","right","right","left","NA","533.0","55134","25795","533","NA","2","legacy","6","1024","2","48000","-16","experiment","3","odd","6","260132","256851","257926","4601","162661","257929","250956","4608","136865","262133","258931","262667","59744","262133","NA","Sternberg task ","24","23340.0","29","1024"
"83","83","805","805","#3d3846","experiment","legacy","legacy","legacy","1","undefined","1","right","29","29","29","0","0","29","29","0","0","29","29","29","0","29","0","Tue Oct 17 03:10:16 2023","The main experiment item","True","Sternbergtask.osexp","C:\Users\kikip\OneDrive\Dokumente\QUANT HW","False","mono","False","18","no","white","no","yes","768","legacy","17","11","C:/Users/kikip/OneDrive/Dokumente/QUANT HW/JB-subject-3.csv","legacy","8 4 3 9","Melodramatic Milgram","4.0.5","0","n","0","right","right","right","right","NA","821.0","55134","25795","821","NA","2","legacy","4","1024","2","48000","-16","experiment","3","odd","5","265964","262674","263759","4601","162661","263762","250956","4608","136865","267965","264763","268787","59744","267965","NA","Sternberg task ","25","24161.0","30","1024"
"83","83","798","798","#3d3846","experiment","legacy","legacy","legacy","1","undefined","1","left","30","30","30","0","0","30","30","0","0","30","30","30","0","30","0","Tue Oct 17 03:10:16 2023","The main experiment item","True","Sternbergtask.osexp","C:\Users\kikip\OneDrive\Dokumente\QUANT HW","False","mono","False","18","no","white","no","yes","768","legacy","18","11","C:/Users/kikip/OneDrive/Dokumente/QUANT HW/JB-subject-3.csv","legacy","9 1 6 7 8","Melodramatic Milgram","4.0.5","1","y","0","left","right","right","left","NA","581.0","55134","25795","581","NA","2","legacy","5","1024","2","48000","-16","experiment","3","odd","9","272074","268792","269868","4601","162661","269871","250956","4608","136865","274075","270873","274657","59744","274075","NA","Sternberg task ","26","24742.0","31","1024"
"84","84","791","791","#3d3846","experiment","legacy","legacy","legacy","1","undefined","1","left","31","31","31","0","0","31","31","0","0","31","31","31","0","31","0","Tue Oct 17 03:10:16 2023","The main experiment item","True","Sternbergtask.osexp","C:\Users\kikip\OneDrive\Dokumente\QUANT HW","False","mono","False","18","no","white","no","yes","768","legacy","19","11","C:/Users/kikip/OneDrive/Dokumente/QUANT HW/JB-subject-3.csv","legacy","2 4 6 9","Melodramatic Milgram","4.0.5","3","y","0","left","right","right","left","NA","585.0","55134","25795","585","NA","2","legacy","4","1024","2","48000","-16","experiment","3","odd","6","277973","274664","275769","4601","162661","275771","250956","4608","136865","279974","276772","280560","59744","279974","NA","Sternberg task ","27","25327.0","32","1024"
"84","84","787","787","#3d3846","experiment","legacy","legacy","legacy","1","undefined","1","left","32","32","32","0","0","32","32","0","0","32","32","32","0","32","0","Tue Oct 17 03:10:16 2023","The main experiment item","True","Sternbergtask.osexp","C:\Users\kikip\OneDrive\Dokumente\QUANT HW","False","mono","False","18","no","white","no","yes","768","legacy","20","11","C:/Users/kikip/OneDrive/Dokumente/QUANT HW/JB-subject-3.csv","legacy","6 9 7 4 5 1","Melodramatic Milgram","4.0.5","2","y","0","left","right","right","left","NA","652.0","55134","25795","652","NA","2","legacy","6","1024","2","48000","-16","experiment","3","odd","9","283845","280568","281641","4601","162661","281643","250956","4608","136865","285846","282644","286500","59744","285846","NA","Sternberg task ","28","25979.0","33","1024"
"85","85","778","778","#3d3846","experiment","legacy","legacy","legacy","1","undefined","1","left","33","33","33","0","0","33","33","0","0","33","33","33","0","33","0","Tue Oct 17 03:10:16 2023","The main experiment item","True","Sternbergtask.osexp","C:\Users\kikip\OneDrive\Dokumente\QUANT HW","False","mono","False","18","no","white","no","yes","768","legacy","21","11","C:/Users/kikip/OneDrive/Dokumente/QUANT HW/JB-subject-3.csv","legacy","3 4","Melodramatic Milgram","4.0.5","1","y","0","left","right","right","left","NA","493.0","55134","25795","493","NA","2","legacy","2","1024","2","48000","-16","experiment","3","odd","3","289785","286504","287580","4601","162661","287583","250956","4608","136865","291786","288584","292280","59744","291786","NA","Sternberg task ","29","26472.0","34","1024"
"85","85","773","773","#3d3846","experiment","legacy","legacy","legacy","1","undefined","1","left","34","34","34","0","0","34","34","0","0","34","34","34","0","34","0","Tue Oct 17 03:10:16 2023","The main experiment item","True","Sternbergtask.osexp","C:\Users\kikip\OneDrive\Dokumente\QUANT HW","False","mono","False","18","no","white","no","yes","768","legacy","22","11","C:/Users/kikip/OneDrive/Dokumente/QUANT HW/JB-subject-3.csv","legacy","4","Melodramatic Milgram","4.0.5","1","y","0","left","right","right","left","NA","609.0","55134","25795","609","NA","2","legacy","1","1024","2","48000","-16","experiment","3","odd","4","295566","292288","293361","4601","162661","293364","250956","4608","136865","297568","294365","298179","59744","297568","NA","Sternberg task ","30","27081.0","35","1024"
"86","86","769","769","#3d3846","experiment","legacy","legacy","legacy","1","undefined","1","right","35","35","35","0","0","35","35","0","0","35","35","35","0","35","0","Tue Oct 17 03:10:16 2023","The main experiment item","True","Sternbergtask.osexp","C:\Users\kikip\OneDrive\Dokumente\QUANT HW","False","mono","False","18","no","white","no","yes","768","legacy","23","11","C:/Users/kikip/OneDrive/Dokumente/QUANT HW/JB-subject-3.csv","legacy","8 4 3 5","Melodramatic Milgram","4.0.5","0","n","0","right","right","right","right","NA","633.0","55134","25795","633","NA","2","legacy","4","1024","2","48000","-16","experiment","3","odd","6","301468","298187","299264","4601","162661","299266","250956","4608","136865","303469","300267","304103","59744","303469","NA","Sternberg task ","31","27714.0","36","1024"
"86","86","772","772","#3d3846","experiment","legacy","legacy","legacy","1","undefined","1","right","36","36","36","0","0","36","36","0","0","36","36","36","0","36","0","Tue Oct 17 03:10:16 2023","The main experiment item","True","Sternbergtask.osexp","C:\Users\kikip\OneDrive\Dokumente\QUANT HW","False","mono","False","18","no","white","no","yes","768","legacy","24","11","C:/Users/kikip/OneDrive/Dokumente/QUANT HW/JB-subject-3.csv","legacy","3 4 2","Melodramatic Milgram","4.0.5","0","n","0","right","right","right","right","NA","872.0","55134","25795","872","NA","2","legacy","3","1024","2","48000","-16","experiment","3","odd","5","307388","304108","305182","4601","162661","305184","250956","4608","136865","309389","306185","310263","59744","309389","NA","Sternberg task ","32","28586.0","37","1024"
"86","86","766","766","#3d3846","experiment","legacy","legacy","legacy","1","undefined","1","right","37","37","37","0","0","37","37","0","0","37","37","37","0","37","0","Tue Oct 17 03:10:16 2023","The main experiment item","True","Sternbergtask.osexp","C:\Users\kikip\OneDrive\Dokumente\QUANT HW","False","mono","False","18","no","white","no","yes","768","legacy","25","11","C:/Users/kikip/OneDrive/Dokumente/QUANT HW/JB-subject-3.csv","legacy","7 1","Melodramatic Milgram","4.0.5","0","n","0","right","right","right","right","NA","550.0","55134","25795","550","NA","2","legacy","2","1024","2","48000","-16","experiment","3","odd","8","313545","310270","311341","4601","162661","311343","250956","4608","136865","315546","312344","316097","59744","315546","NA","Sternberg task ","33","29136.0","38","1024"
"87","87","776","776","#3d3846","experiment","legacy","legacy","legacy","1","undefined","1","right","38","38","38","0","0","38","38","0","0","38","38","38","0","38","0","Tue Oct 17 03:10:16 2023","The main experiment item","True","Sternbergtask.osexp","C:\Users\kikip\OneDrive\Dokumente\QUANT HW","False","mono","False","18","no","white","no","yes","768","legacy","26","11","C:/Users/kikip/OneDrive/Dokumente/QUANT HW/JB-subject-3.csv","legacy","3 9 8 1 6 4","Melodramatic Milgram","4.0.5","0","n","0","right","right","right","right","NA","1139.0","55134","25795","1139","NA","2","legacy","6","1024","2","48000","-16","experiment","3","odd","7","319415","316104","317209","4601","162661","317212","250956","4608","136865","321416","318213","322556","59744","321416","NA","Sternberg task ","34","30275.0","39","1024"
"87","87","772","772","#3d3846","experiment","legacy","legacy","legacy","1","undefined","1","left","39","39","39","0","0","39","39","0","0","39","39","39","0","39","0","Tue Oct 17 03:10:16 2023","The main experiment item","True","Sternbergtask.osexp","C:\Users\kikip\OneDrive\Dokumente\QUANT HW","False","mono","False","18","no","white","no","yes","768","legacy","27","11","C:/Users/kikip/OneDrive/Dokumente/QUANT HW/JB-subject-3.csv","legacy","1 4 9 3 2 5","Melodramatic Milgram","4.0.5","3","y","0","left","right","right","left","NA","613.0","55134","25795","613","NA","2","legacy","6","1024","2","48000","-16","experiment","3","odd","9","325841","322562","323636","4601","162661","323638","250956","4608","136865","327842","324640","328456","59744","327842","NA","Sternberg task ","35","30888.0","40","1024"
"87","87","772","772","#3d3846","experiment","legacy","legacy","legacy","1","undefined","1","left","40","40","40","0","0","40","40","0","0","40","40","40","0","40","0","Tue Oct 17 03:10:16 2023","The main experiment item","True","Sternbergtask.osexp","C:\Users\kikip\OneDrive\Dokumente\QUANT HW","False","mono","False","18","no","white","no","yes","768","legacy","28","11","C:/Users/kikip/OneDrive/Dokumente/QUANT HW/JB-subject-3.csv","legacy","2 4 8 5 1 3","Melodramatic Milgram","4.0.5","1","y","0","left","right","right","left","NA","770.0","55134","25795","770","NA","2","legacy","6","1024","2","48000","-16","experiment","3","odd","2","331738","328461","329531","4601","162661","329534","250956","4608","136865","333739","330536","334510","59744","333739","NA","Sternberg task ","36","31658.0","41","1024"
"88","88","766","766","#3d3846","experiment","legacy","legacy","legacy","1","undefined","1","right","41","41","41","0","0","41","41","0","0","41","41","41","0","41","0","Tue Oct 17 03:10:16 2023","The main experiment item","True","Sternbergtask.osexp","C:\Users\kikip\OneDrive\Dokumente\QUANT HW","False","mono","False","18","no","white","no","yes","768","legacy","29","11","C:/Users/kikip/OneDrive/Dokumente/QUANT HW/JB-subject-3.csv","legacy","7 8 6 1","Melodramatic Milgram","4.0.5","0","n","0","right","right","right","right","NA","524.0","55134","25795","524","NA","2","legacy","4","1024","2","48000","-16","experiment","3","odd","3","337799","334516","335594","4601","162661","335596","250956","4608","136865","339800","336598","340325","59744","339800","NA","Sternberg task ","37","32182.0","42","1024"
"88","88","767","767","#3d3846","experiment","legacy","legacy","legacy","1","undefined","1","right","42","42","42","0","0","42","42","0","0","42","42","42","0","42","0","Tue Oct 17 03:10:16 2023","The main experiment item","True","Sternbergtask.osexp","C:\Users\kikip\OneDrive\Dokumente\QUANT HW","False","mono","False","18","no","white","no","yes","768","legacy","30","11","C:/Users/kikip/OneDrive/Dokumente/QUANT HW/JB-subject-3.csv","legacy","4 2 6 9","Melodramatic Milgram","4.0.5","0","n","0","right","right","right","right","NA","825.0","55134","25795","825","NA","2","legacy","4","1024","2","48000","-16","experiment","3","odd","7","343612","340333","341407","4601","162661","341410","250956","4608","136865","345613","342411","346440","59744","345613","NA","Sternberg task ","38","33007.0","43","1024"
"88","88","764","764","#3d3846","experiment","legacy","legacy","legacy","1","undefined","1","left","43","43","43","0","0","43","43","0","0","43","43","43","0","43","0","Tue Oct 17 03:10:16 2023","The main experiment item","True","Sternbergtask.osexp","C:\Users\kikip\OneDrive\Dokumente\QUANT HW","False","mono","False","18","no","white","no","yes","768","legacy","31","11","C:/Users/kikip/OneDrive/Dokumente/QUANT HW/JB-subject-3.csv","legacy","6 2","Melodramatic Milgram","4.0.5","1","y","0","left","right","right","left","NA","612.0","55134","25795","612","NA","2","legacy","2","1024","2","48000","-16","experiment","3","odd","6","349725","346448","347519","4601","162661","347522","250956","4608","136865","351726","348524","352339","59744","351726","NA","Sternberg task ","39","33619.0","44","1024"
"88","88","761","761","#3d3846","experiment","legacy","legacy","legacy","1","undefined","1","right","44","44","44","0","0","44","44","0","0","44","44","44","0","44","0","Tue Oct 17 03:10:16 2023","The main experiment item","True","Sternbergtask.osexp","C:\Users\kikip\OneDrive\Dokumente\QUANT HW","False","mono","False","18","no","white","no","yes","768","legacy","32","11","C:/Users/kikip/OneDrive/Dokumente/QUANT HW/JB-subject-3.csv","legacy","2 8 9","Melodramatic Milgram","4.0.5","0","n","0","right","right","right","right","NA","656.0","55134","25795","656","NA","2","legacy","3","1024","2","48000","-16","experiment","3","odd","6","355635","352347","353430","4601","162661","353432","250956","4608","136865","357636","354433","358294","59744","357636","NA","Sternberg task ","40","34275.0","45","1024"
"89","89","760","760","#3d3846","experiment","legacy","legacy","legacy","1","undefined","1","right","45","45","45","0","0","45","45","0","0","45","45","45","0","45","0","Tue Oct 17 03:10:16 2023","The main experiment item","True","Sternbergtask.osexp","C:\Users\kikip\OneDrive\Dokumente\QUANT HW","False","mono","False","18","no","white","no","yes","768","legacy","33","11","C:/Users/kikip/OneDrive/Dokumente/QUANT HW/JB-subject-3.csv","legacy","8 2 1 4 5 9","Melodramatic Milgram","4.0.5","0","n","0","right","right","right","right","NA","692.0","55134","25795","692","NA","2","legacy","6","1024","2","48000","-16","experiment","3","odd","7","361578","358302","359373","4601","162661","359376","250956","4608","136865","363580","360377","364273","59744","363579","NA","Sternberg task ","41","34967.0","46","1024"
"89","89","758","758","#3d3846","experiment","legacy","legacy","legacy","1","undefined","1","right","46","46","46","0","0","46","46","0","0","46","46","46","0","46","0","Tue Oct 17 03:10:16 2023","The main experiment item","True","Sternbergtask.osexp","C:\Users\kikip\OneDrive\Dokumente\QUANT HW","False","mono","False","18","no","white","no","yes","768","legacy","34","11","C:/Users/kikip/OneDrive/Dokumente/QUANT HW/JB-subject-3.csv","legacy","1 4 3 6 5","Melodramatic Milgram","4.0.5","0","n","0","right","right","right","right","NA","659.0","55134","25795","659","NA","2","legacy","5","1024","2","48000","-16","experiment","3","odd","8","367581","364278","365376","4601","162661","365378","250956","4608","136865","369582","366379","370243","59744","369582","NA","Sternberg task ","42","35626.0","47","1024"
"89","89","756","756","#3d3846","experiment","legacy","legacy","legacy","1","undefined","1","left","47","47","47","0","0","47","47","0","0","47","47","47","0","47","0","Tue Oct 17 03:10:16 2023","The main experiment item","True","Sternbergtask.osexp","C:\Users\kikip\OneDrive\Dokumente\QUANT HW","False","mono","False","18","no","white","no","yes","768","legacy","35","11","C:/Users/kikip/OneDrive/Dokumente/QUANT HW/JB-subject-3.csv","legacy","7 2 3","Melodramatic Milgram","4.0.5","3","y","0","left","right","right","left","NA","694.0","55134","25795","694","NA","2","legacy","3","1024","2","48000","-16","experiment","3","odd","3","373530","370247","371324","4601","162661","371327","250956","4608","136865","375531","372328","376227","59744","375531","NA","Sternberg task ","43","36320.0","48","1024"
"89","89","758","758","#3d3846","experiment","legacy","legacy","legacy","1","undefined","1","left","48","48","48","0","0","48","48","0","0","48","48","48","0","48","0","Tue Oct 17 03:10:16 2023","The main experiment item","True","Sternbergtask.osexp","C:\Users\kikip\OneDrive\Dokumente\QUANT HW","False","mono","False","18","no","white","no","yes","768","legacy","36","11","C:/Users/kikip/OneDrive/Dokumente/QUANT HW/JB-subject-3.csv","legacy","4 6 2 5 1","Melodramatic Milgram","4.0.5","5","y","0","left","right","right","left","NA","830.0","55134","25795","830","NA","2","legacy","5","1024","2","48000","-16","experiment","3","odd","1","379514","376234","377308","4601","162661","377311","250956","4608","136865","381515","378313","382346","59744","381515","NA","Sternberg task ","44","37150.0","49","1024"
"90","90","753","753","#3d3846","experiment","legacy","legacy","legacy","1","undefined","1","right","49","49","49","0","0","49","49","0","0","49","49","49","0","49","0","Tue Oct 17 03:10:16 2023","The main experiment item","True","Sternbergtask.osexp","C:\Users\kikip\OneDrive\Dokumente\QUANT HW","False","mono","False","18","no","white","no","yes","768","legacy","37","11","C:/Users/kikip/OneDrive/Dokumente/QUANT HW/JB-subject-3.csv","legacy","5","Melodramatic Milgram","4.0.5","0","n","0","right","right","right","right","NA","520.0","55134","25795","520","NA","2","legacy","1","1024","2","48000","-16","experiment","3","odd","8","385643","382354","383437","4601","162661","383440","250956","4608","136865","387644","384441","388165","59744","387644","NA","Sternberg task ","45","37670.0","50","1024"
"90","90","752","752","#3d3846","experiment","legacy","legacy","legacy","1","undefined","1","right","50","50","50","0","0","50","50","0","0","50","50","50","0","50","0","Tue Oct 17 03:10:16 2023","The main experiment item","True","Sternbergtask.osexp","C:\Users\kikip\OneDrive\Dokumente\QUANT HW","False","mono","False","18","no","white","no","yes","768","legacy","38","11","C:/Users/kikip/OneDrive/Dokumente/QUANT HW/JB-subject-3.csv","legacy","3 4 9 6 7 8","Melodramatic Milgram","4.0.5","0","n","0","right","right","right","right","NA","711.0","55134","25795","711","NA","2","legacy","6","1024","2","48000","-16","experiment","3","odd","2","391450","388173","389246","4601","162661","389248","250956","4608","136865","393452","390249","394164","59744","393452","NA","Sternberg task ","46","38381.0","51","1024"
"90","90","749","749","#3d3846","experiment","legacy","legacy","legacy","1","undefined","1","right","51","51","51","0","0","51","51","0","0","51","51","51","0","51","0","Tue Oct 17 03:10:16 2023","The main experiment item","True","Sternbergtask.osexp","C:\Users\kikip\OneDrive\Dokumente\QUANT HW","False","mono","False","18","no","white","no","yes","768","legacy","39","11","C:/Users/kikip/OneDrive/Dokumente/QUANT HW/JB-subject-3.csv","legacy","1 4 9 3","Melodramatic Milgram","4.0.5","0","n","0","right","right","right","right","NA","591.0","55134","25795","591","NA","2","legacy","4","1024","2","48000","-16","experiment","3","odd","5","397446","394169","395242","4601","162661","395244","250956","4608","136865","399447","396245","400040","59744","399447","NA","Sternberg task ","47","38972.0","52","1024"
"90","90","748","748","#3d3846","experiment","legacy","legacy","legacy","1","undefined","1","right","52","52","52","0","0","52","52","0","0","52","52","52","0","52","0","Tue Oct 17 03:10:16 2023","The main experiment item","True","Sternbergtask.osexp","C:\Users\kikip\OneDrive\Dokumente\QUANT HW","False","mono","False","18","no","white","no","yes","768","legacy","40","11","C:/Users/kikip/OneDrive/Dokumente/QUANT HW/JB-subject-3.csv","legacy","6 9 5","Melodramatic Milgram","4.0.5","0","n","0","right","right","right","right","NA","676.0","55134","25795","676","NA","2","legacy","3","1024","2","48000","-16","experiment","3","odd","8","403324","400047","401120","4601","162661","401122","250956","4608","136865","405326","402123","406003","59744","405325","NA","Sternberg task ","48","39648.0","53","1024"
"90","90","749","749","#3d3846","experiment","legacy","legacy","legacy","1","undefined","1","left","53","53","53","0","0","53","53","0","0","53","53","53","0","53","0","Tue Oct 17 03:10:16 2023","The main experiment item","True","Sternbergtask.osexp","C:\Users\kikip\OneDrive\Dokumente\QUANT HW","False","mono","False","18","no","white","no","yes","768","legacy","41","11","C:/Users/kikip/OneDrive/Dokumente/QUANT HW/JB-subject-3.csv","legacy","9 5 3 8 4","Melodramatic Milgram","4.0.5","1","y","0","left","right","right","left","NA","851.0","55134","25795","851","NA","2","legacy","5","1024","2","48000","-16","experiment","3","odd","9","409309","406011","407104","4601","162661","407106","250956","4608","136865","411310","408107","412162","59744","411310","NA","Sternberg task ","49","40499.0","54","1024"
"90","90","746","746","#3d3846","experiment","legacy","legacy","legacy","1","undefined","1","right","54","54","54","0","0","54","54","0","0","54","54","54","0","54","0","Tue Oct 17 03:10:16 2023","The main experiment item","True","Sternbergtask.osexp","C:\Users\kikip\OneDrive\Dokumente\QUANT HW","False","mono","False","18","no","white","no","yes","768","legacy","42","11","C:/Users/kikip/OneDrive/Dokumente/QUANT HW/JB-subject-3.csv","legacy","1 7 5 2 9","Melodramatic Milgram","4.0.5","0","n","0","right","right","right","right","NA","564.0","55134","25795","564","NA","2","legacy","5","1024","2","48000","-16","experiment","3","odd","3","415447","412167","413241","4601","162661","413244","250956","4608","136865","417448","414245","418013","59744","417448","NA","Sternberg task ","50","41063.0","55","1024"
"91","91","743","743","#3d3846","experiment","legacy","legacy","legacy","1","undefined","1","right","55","55","55","0","0","55","55","0","0","55","55","55","0","55","0","Tue Oct 17 03:10:16 2023","The main experiment item","True","Sternbergtask.osexp","C:\Users\kikip\OneDrive\Dokumente\QUANT HW","False","mono","False","18","no","white","no","yes","768","legacy","43","11","C:/Users/kikip/OneDrive/Dokumente/QUANT HW/JB-subject-3.csv","legacy","6 3 1 7 9 8","Melodramatic Milgram","4.0.5","0","n","0","right","right","right","right","NA","593.0","55134","25795","593","NA","2","legacy","6","1024","2","48000","-16","experiment","3","odd","4","421300","418020","419094","4601","162661","419096","250956","4608","136865","423302","420099","423897","59744","423302","NA","Sternberg task ","51","41656.0","56","1024"
"91","91","741","741","#3d3846","experiment","legacy","legacy","legacy","1","undefined","1","right","56","56","56","0","0","56","56","0","0","56","56","56","0","56","0","Tue Oct 17 03:10:16 2023","The main experiment item","True","Sternbergtask.osexp","C:\Users\kikip\OneDrive\Dokumente\QUANT HW","False","mono","False","18","no","white","no","yes","768","legacy","44","11","C:/Users/kikip/OneDrive/Dokumente/QUANT HW/JB-subject-3.csv","legacy","7 1 5 6 3","Melodramatic Milgram","4.0.5","0","n","0","right","right","right","right","NA","594.0","55134","25795","594","NA","2","legacy","5","1024","2","48000","-16","experiment","3","odd","8","427185","423904","424981","4601","162661","424983","250956","4608","136865","429187","425984","429782","59744","429186","NA","Sternberg task ","52","42250.0","57","1024"
"91","91","736","736","#3d3846","experiment","legacy","legacy","legacy","1","undefined","1","left","57","57","57","0","0","57","57","0","0","57","57","57","0","57","0","Tue Oct 17 03:10:16 2023","The main experiment item","True","Sternbergtask.osexp","C:\Users\kikip\OneDrive\Dokumente\QUANT HW","False","mono","False","18","no","white","no","yes","768","legacy","45","11","C:/Users/kikip/OneDrive/Dokumente/QUANT HW/JB-subject-3.csv","legacy","2 3","Melodramatic Milgram","4.0.5","1","y","0","left","right","right","left","NA","464.0","55134","25795","464","NA","2","legacy","2","1024","2","48000","-16","experiment","3","odd","2","433063","429786","430858","4601","162661","430861","250956","4608","136865","435065","431862","435530","59744","435064","NA","Sternberg task ","53","42714.0","58","1024"
"91","91","736","736","#3d3846","experiment","legacy","legacy","legacy","1","undefined","1","left","58","58","58","0","0","58","58","0","0","58","58","58","0","58","0","Tue Oct 17 03:10:16 2023","The main experiment item","True","Sternbergtask.osexp","C:\Users\kikip\OneDrive\Dokumente\QUANT HW","False","mono","False","18","no","white","no","yes","768","legacy","46","11","C:/Users/kikip/OneDrive/Dokumente/QUANT HW/JB-subject-3.csv","legacy","5 2 6","Melodramatic Milgram","4.0.5","2","y","0","left","right","right","left","NA","754.0","55134","25795","754","NA","2","legacy","3","1024","2","48000","-16","experiment","3","odd","2","438817","435538","436611","4601","162661","436614","250956","4608","136865","440819","437616","441575","59744","440818","NA","Sternberg task ","54","43468.0","59","1024"
"91","91","737","737","#3d3846","experiment","legacy","legacy","legacy","1","undefined","1","right","59","59","59","0","0","59","59","0","0","59","59","59","0","59","0","Tue Oct 17 03:10:16 2023","The main experiment item","True","Sternbergtask.osexp","C:\Users\kikip\OneDrive\Dokumente\QUANT HW","False","mono","False","18","no","white","no","yes","768","legacy","47","11","C:/Users/kikip/OneDrive/Dokumente/QUANT HW/JB-subject-3.csv","legacy","6 9 4 5 2","Melodramatic Milgram","4.0.5","0","n","0","right","right","right","right","NA","772.0","55134","25795","772","NA","2","legacy","5","1024","2","48000","-16","experiment","3","odd","1","444873","441582","442668","4601","162661","442670","250956","4608","136865","446875","443672","447649","59744","446875","NA","Sternberg task ","55","44240.0","60","1024"
"91","91","736","736","#3d3846","experiment","legacy","legacy","legacy","1","undefined","1","left","60","60","60","0","0","60","60","0","0","60","60","60","0","60","0","Tue Oct 17 03:10:16 2023","The main experiment item","True","Sternbergtask.osexp","C:\Users\kikip\OneDrive\Dokumente\QUANT HW","False","mono","False","18","no","white","no","yes","768","legacy","48","11","C:/Users/kikip/OneDrive/Dokumente/QUANT HW/JB-subject-3.csv","legacy","3 5 4 7","Melodramatic Milgram","4.0.5","1","y","0","left","right","right","left","NA","663.0","55134","25795","663","NA","2","legacy","4","1024","2","48000","-16","experiment","3","odd","3","450932","447653","448727","4601","162661","448729","250956","4608","136865","452934","449731","453598","59744","452933","NA","Sternberg task ","56","44903.0","61","1024"
"91","91","740","740","#3d3846","experiment","legacy","legacy","legacy","1","undefined","1","left","61","61","61","0","0","61","61","0","0","61","61","61","0","61","0","Tue Oct 17 03:10:16 2023","The main experiment item","True","Sternbergtask.osexp","C:\Users\kikip\OneDrive\Dokumente\QUANT HW","False","mono","False","18","no","white","no","yes","768","legacy","49","11","C:/Users/kikip/OneDrive/Dokumente/QUANT HW/JB-subject-3.csv","legacy","9 8 4","Melodramatic Milgram","4.0.5","1","y","0","left","right","right","left","NA","1015.0","55134","25795","1015","NA","2","legacy","3","1024","2","48000","-16","experiment","3","odd","9","456920","453606","454714","4601","162661","454716","250956","4608","136865","458921","455718","459937","59744","458921","NA","Sternberg task ","57","45918.0","62","1024"
"92","92","737","737","#3d3846","experiment","legacy","legacy","legacy","1","undefined","1","left","62","62","62","0","0","62","62","0","0","62","62","62","0","62","0","Tue Oct 17 03:10:16 2023","The main experiment item","True","Sternbergtask.osexp","C:\Users\kikip\OneDrive\Dokumente\QUANT HW","False","mono","False","18","no","white","no","yes","768","legacy","50","11","C:/Users/kikip/OneDrive/Dokumente/QUANT HW/JB-subject-3.csv","legacy","8","Melodramatic Milgram","4.0.5","1","y","0","left","right","right","left","NA","536.0","55134","25795","536","NA","2","legacy","1","1024","2","48000","-16","experiment","3","odd","8","463228","459945","461022","4601","162661","461024","250956","4608","136865","465230","462026","465768","59744","465230","NA","Sternberg task ","58","46454.0","63","1024"
"92","92","735","735","#3d3846","experiment","legacy","legacy","legacy","1","undefined","1","right","63","63","63","0","0","63","63","0","0","63","63","63","0","63","0","Tue Oct 17 03:10:16 2023","The main experiment item","True","Sternbergtask.osexp","C:\Users\kikip\OneDrive\Dokumente\QUANT HW","False","mono","False","18","no","white","no","yes","768","legacy","51","11","C:/Users/kikip/OneDrive/Dokumente/QUANT HW/JB-subject-3.csv","legacy","7 9","Melodramatic Milgram","4.0.5","0","n","0","right","right","right","right","NA","623.0","55134","25795","623","NA","2","legacy","2","1024","2","48000","-16","experiment","3","odd","1","469066","465776","466862","4601","162661","466864","250956","4608","136865","471067","467865","471692","59744","471067","NA","Sternberg task ","59","47077.0","64","1024"
"92","92","740","740","#3d3846","experiment","legacy","legacy","legacy","1","undefined","1","right","64","64","64","0","0","64","64","0","0","64","64","64","0","64","0","Tue Oct 17 03:10:16 2023","The main experiment item","True","Sternbergtask.osexp","C:\Users\kikip\OneDrive\Dokumente\QUANT HW","False","mono","False","18","no","white","no","yes","768","legacy","52","11","C:/Users/kikip/OneDrive/Dokumente/QUANT HW/JB-subject-3.csv","legacy","7 6 4 8 1 2","Melodramatic Milgram","4.0.5","0","n","0","right","right","right","right","NA","1082.0","55134","25795","1082","NA","2","legacy","6","1024","2","48000","-16","experiment","3","odd","9","474974","471697","472770","4601","162661","472772","250956","4608","136865","476976","473773","478060","59744","476976","NA","Sternberg task ","60","48159.0","65","1024"
"92","92","744","744","#3d3846","experiment","legacy","legacy","legacy","1","undefined","1","left","65","65","65","0","0","65","65","0","0","65","65","65","0","65","0","Tue Oct 17 03:10:16 2023","The main experiment item","True","Sternbergtask.osexp","C:\Users\kikip\OneDrive\Dokumente\QUANT HW","False","mono","False","18","no","white","no","yes","768","legacy","53","11","C:/Users/kikip/OneDrive/Dokumente/QUANT HW/JB-subject-3.csv","legacy","9 1 7 2","Melodramatic Milgram","4.0.5","2","y","0","left","right","right","left","NA","949.0","55134","25795","949","NA","2","legacy","4","1024","2","48000","-16","experiment","3","odd","1","481358","478068","479153","4601","162661","479156","250956","4608","136865","483359","480157","484309","59744","483359","NA","Sternberg task ","61","49108.0","66","1024"
"91","91","745","745","#3d3846","experiment","legacy","legacy","legacy","0","undefined","0","left","66","66","66","0","0","66","66","0","0","66","66","66","0","66","0","Tue Oct 17 03:10:16 2023","The main experiment item","True","Sternbergtask.osexp","C:\Users\kikip\OneDrive\Dokumente\QUANT HW","False","mono","False","18","no","white","no","yes","768","legacy","54","11","C:/Users/kikip/OneDrive/Dokumente/QUANT HW/JB-subject-3.csv","legacy","6 8 9 3 4 9","Melodramatic Milgram","4.0.5","5","y","0","right","right","right","right","NA","854.0","55134","25795","854","NA","2","legacy","6","1024","2","48000","-16","experiment","3","odd","4","487594","484314","485389","4601","162661","485391","250956","4608","136865","489595","486393","490451","59744","489595","NA","Sternberg task ","61","49962.0","67","1024"
"91","91","746","746","#3d3846","experiment","legacy","legacy","legacy","1","undefined","1","right","67","67","67","0","0","67","67","0","0","67","67","67","0","67","0","Tue Oct 17 03:10:16 2023","The main experiment item","True","Sternbergtask.osexp","C:\Users\kikip\OneDrive\Dokumente\QUANT HW","False","mono","False","18","no","white","no","yes","768","legacy","55","11","C:/Users/kikip/OneDrive/Dokumente/QUANT HW/JB-subject-3.csv","legacy","3 9 1","Melodramatic Milgram","4.0.5","0","n","0","right","right","right","right","NA","831.0","55134","25795","831","NA","2","legacy","3","1024","2","48000","-16","experiment","3","odd","7","493740","484314","491534","4601","162661","491537","490458","4608","136865","495741","492538","496574","59744","495741","NA","Sternberg task ","62","50793.0","68","1024"
"91","91","745","745","#3d3846","experiment","legacy","legacy","legacy","1","undefined","1","right","68","68","68","0","0","68","68","0","0","68","68","68","0","68","0","Tue Oct 17 03:10:16 2023","The main experiment item","True","Sternbergtask.osexp","C:\Users\kikip\OneDrive\Dokumente\QUANT HW","False","mono","False","18","no","white","no","yes","768","legacy","56","11","C:/Users/kikip/OneDrive/Dokumente/QUANT HW/JB-subject-3.csv","legacy","4 2 7 6 1 3","Melodramatic Milgram","4.0.5","0","n","0","right","right","right","right","NA","654.0","55134","25795","654","NA","2","legacy","6","1024","2","48000","-16","experiment","3","odd","8","499886","496578","497681","4601","162661","497684","490458","4608","136865","501887","498685","502543","59744","501887","NA","Sternberg task ","63","51447.0","69","1024"
"91","91","743","743","#3d3846","experiment","legacy","legacy","legacy","1","undefined","1","right","69","69","69","0","0","69","69","0","0","69","69","69","0","69","0","Tue Oct 17 03:10:16 2023","The main experiment item","True","Sternbergtask.osexp","C:\Users\kikip\OneDrive\Dokumente\QUANT HW","False","mono","False","18","no","white","no","yes","768","legacy","57","11","C:/Users/kikip/OneDrive/Dokumente/QUANT HW/JB-subject-3.csv","legacy","6 7 5 9","Melodramatic Milgram","4.0.5","0","n","0","right","right","right","right","NA","590.0","55134","25795","590","NA","2","legacy","4","1024","2","48000","-16","experiment","3","odd","2","505830","502551","503626","4601","162661","503628","490458","4608","136865","507831","504629","508422","59744","507831","NA","Sternberg task ","64","52037.0","70","1024"
"91","91","742","742","#3d3846","experiment","legacy","legacy","legacy","1","undefined","1","left","70","70","70","0","0","70","70","0","0","70","70","70","0","70","0","Tue Oct 17 03:10:16 2023","The main experiment item","True","Sternbergtask.osexp","C:\Users\kikip\OneDrive\Dokumente\QUANT HW","False","mono","False","18","no","white","no","yes","768","legacy","58","11","C:/Users/kikip/OneDrive/Dokumente/QUANT HW/JB-subject-3.csv","legacy","9 3 8 2 1 4","Melodramatic Milgram","4.0.5","3","y","0","left","right","right","left","NA","715.0","55134","25795","715","NA","2","legacy","6","1024","2","48000","-16","experiment","3","odd","8","511711","508430","509506","4601","162661","509508","490458","4608","136865","513712","510510","514429","59744","513712","NA","Sternberg task ","65","52752.0","71","1024"
"91","91","741","741","#3d3846","experiment","legacy","legacy","legacy","1","undefined","1","left","71","71","71","0","0","71","71","0","0","71","71","71","0","71","0","Tue Oct 17 03:10:16 2023","The main experiment item","True","Sternbergtask.osexp","C:\Users\kikip\OneDrive\Dokumente\QUANT HW","False","mono","False","18","no","white","no","yes","768","legacy","59","11","C:/Users/kikip/OneDrive/Dokumente/QUANT HW/JB-subject-3.csv","legacy","8 9 5 6 7","Melodramatic Milgram","4.0.5","1","y","0","left","right","right","left","NA","620.0","55134","25795","620","NA","2","legacy","5","1024","2","48000","-16","experiment","3","odd","8","517724","514433","515519","4601","162661","515521","490458","4608","136865","519726","516522","520348","59744","519725","NA","Sternberg task ","66","53372.0","72","1024"
"91","91","738","738","#3d3846","experiment","legacy","legacy","legacy","1","undefined","1","left","72","72","72","0","0","72","72","0","0","72","72","72","0","72","0","Tue Oct 17 03:10:16 2023","The main experiment item","True","Sternbergtask.osexp","C:\Users\kikip\OneDrive\Dokumente\QUANT HW","False","mono","False","18","no","white","no","yes","768","legacy","60","11","C:/Users/kikip/OneDrive/Dokumente/QUANT HW/JB-subject-3.csv","legacy","4 9 7 8 5 3","Melodramatic Milgram","4.0.5","4","y","0","left","right","right","left","NA","541.0","55134","25795","541","NA","2","legacy","6","1024","2","48000","-16","experiment","3","odd","8","523633","520356","521429","4601","162661","521431","490458","4608","136865","525634","522432","526176","59744","525634","NA","Sternberg task ","67","53913.0","73","1024"
"91","91","742","742","#3d3846","experiment","legacy","legacy","legacy","1","undefined","1","right","73","73","73","0","0","73","73","0","0","73","73","73","0","73","0","Tue Oct 17 03:10:16 2023","The main experiment item","True","Sternbergtask.osexp","C:\Users\kikip\OneDrive\Dokumente\QUANT HW","False","mono","False","18","no","white","no","yes","768","legacy","61","11","C:/Users/kikip/OneDrive/Dokumente/QUANT HW/JB-subject-3.csv","legacy","7 9 1 6","Melodramatic Milgram","4.0.5","0","n","0","right","right","right","right","NA","1047.0","55134","25795","1047","NA","2","legacy","4","1024","2","48000","-16","experiment","3","odd","4","529466","526184","527262","4601","162661","527264","490458","4608","136865","531467","528265","532516","59744","531467","NA","Sternberg task ","68","54960.0","74","1024"
"92","92","741","741","#3d3846","experiment","legacy","legacy","legacy","1","undefined","1","left","74","74","74","0","0","74","74","0","0","74","74","74","0","74","0","Tue Oct 17 03:10:16 2023","The main experiment item","True","Sternbergtask.osexp","C:\Users\kikip\OneDrive\Dokumente\QUANT HW","False","mono","False","18","no","white","no","yes","768","legacy","62","11","C:/Users/kikip/OneDrive/Dokumente/QUANT HW/JB-subject-3.csv","legacy","3 5 9 6 2 4","Melodramatic Milgram","4.0.5","1","y","0","left","right","right","left","NA","626.0","55134","25795","626","NA","2","legacy","6","1024","2","48000","-16","experiment","3","odd","3","535804","532523","533598","4601","162661","533601","490458","4608","136865","537805","534603","538432","59744","537805","NA","Sternberg task ","69","55586.0","75","1024"
"92","92","739","739","#3d3846","experiment","legacy","legacy","legacy","1","undefined","1","right","75","75","75","0","0","75","75","0","0","75","75","75","0","75","0","Tue Oct 17 03:10:16 2023","The main experiment item","True","Sternbergtask.osexp","C:\Users\kikip\OneDrive\Dokumente\QUANT HW","False","mono","False","18","no","white","no","yes","768","legacy","63","11","C:/Users/kikip/OneDrive/Dokumente/QUANT HW/JB-subject-3.csv","legacy","9 7 4 5 8","Melodramatic Milgram","4.0.5","0","n","0","right","right","right","right","NA","648.0","55134","25795","648","NA","2","legacy","5","1024","2","48000","-16","experiment","3","odd","6","541719","538440","539514","4601","162661","539517","490458","4608","136865","543721","540518","544370","59744","543720","NA","Sternberg task ","70","56234.0","76","1024"
"92","92","738","738","#3d3846","experiment","legacy","legacy","legacy","1","undefined","1","right","76","76","76","0","0","76","76","0","0","76","76","76","0","76","0","Tue Oct 17 03:10:16 2023","The main experiment item","True","Sternbergtask.osexp","C:\Users\kikip\OneDrive\Dokumente\QUANT HW","False","mono","False","18","no","white","no","yes","768","legacy","64","11","C:/Users/kikip/OneDrive/Dokumente/QUANT HW/JB-subject-3.csv","legacy","1 7 5 2","Melodramatic Milgram","4.0.5","0","n","0","right","right","right","right","NA","637.0","55134","25795","637","NA","2","legacy","4","1024","2","48000","-16","experiment","3","odd","3","547670","544375","545466","4601","162661","545468","490458","4608","136865","549672","546469","550310","59744","549671","NA","Sternberg task ","71","56871.0","77","1024"
"92","92","737","737","#3d3846","experiment","legacy","legacy","legacy","1","undefined","1","right","77","77","77","0","0","77","77","0","0","77","77","77","0","77","0","Tue Oct 17 03:10:16 2023","The main experiment item","True","Sternbergtask.osexp","C:\Users\kikip\OneDrive\Dokumente\QUANT HW","False","mono","False","18","no","white","no","yes","768","legacy","65","11","C:/Users/kikip/OneDrive/Dokumente/QUANT HW/JB-subject-3.csv","legacy","4 1","Melodramatic Milgram","4.0.5","0","n","0","right","right","right","right","NA","636.0","55134","25795","636","NA","2","legacy","2","1024","2","48000","-16","experiment","3","odd","6","553596","550318","551391","4601","162661","551393","490458","4608","136865","555597","552395","556235","59744","555597","NA","Sternberg task ","72","57507.0","78","1024"
"91","91","738","738","#3d3846","experiment","legacy","legacy","legacy","0","undefined","0","right","78","78","78","0","0","78","78","0","0","78","78","78","0","78","0","Tue Oct 17 03:10:16 2023","The main experiment item","True","Sternbergtask.osexp","C:\Users\kikip\OneDrive\Dokumente\QUANT HW","False","mono","False","18","no","white","no","yes","768","legacy","66","11","C:/Users/kikip/OneDrive/Dokumente/QUANT HW/JB-subject-3.csv","legacy","2 8 7 9 5 3","Melodramatic Milgram","4.0.5","0","n","0","left","right","right","left","NA","825.0","55134","25795","825","NA","2","legacy","6","1024","2","48000","-16","experiment","3","odd","6","559529","556240","557323","4601","162661","557326","490458","4608","136865","561530","558327","562356","59744","561530","NA","Sternberg task ","72","58332.0","79","1024"
"91","91","738","738","#3d3846","experiment","legacy","legacy","legacy","1","undefined","1","left","79","79","79","0","0","79","79","0","0","79","79","79","0","79","0","Tue Oct 17 03:10:16 2023","The main experiment item","True","Sternbergtask.osexp","C:\Users\kikip\OneDrive\Dokumente\QUANT HW","False","mono","False","18","no","white","no","yes","768","legacy","67","11","C:/Users/kikip/OneDrive/Dokumente/QUANT HW/JB-subject-3.csv","legacy","8 9 5 7 1 6","Melodramatic Milgram","4.0.5","4","y","0","left","right","right","left","NA","734.0","55134","25795","734","NA","2","legacy","6","1024","2","48000","-16","experiment","3","odd","7","565638","556240","563433","4601","162661","563435","562361","4608","136865","567640","564437","568376","59744","567639","NA","Sternberg task ","73","59066.0","80","1024"
"91","91","737","737","#3d3846","experiment","legacy","legacy","legacy","1","undefined","1","right","80","80","80","0","0","80","80","0","0","80","80","80","0","80","0","Tue Oct 17 03:10:16 2023","The main experiment item","True","Sternbergtask.osexp","C:\Users\kikip\OneDrive\Dokumente\QUANT HW","False","mono","False","18","no","white","no","yes","768","legacy","68","11","C:/Users/kikip/OneDrive/Dokumente/QUANT HW/JB-subject-3.csv","legacy","1 4 9 2 5","Melodramatic Milgram","4.0.5","0","n","0","right","right","right","right","NA","640.0","55134","25795","640","NA","2","legacy","5","1024","2","48000","-16","experiment","3","odd","7","571658","568383","569454","4601","162661","569456","562361","4608","136865","573659","570457","574301","59744","573659","NA","Sternberg task ","74","59706.0","81","1024"
"91","91","735","735","#3d3846","experiment","legacy","legacy","legacy","1","undefined","1","right","81","81","81","0","0","81","81","0","0","81","81","81","0","81","0","Tue Oct 17 03:10:16 2023","The main experiment item","True","Sternbergtask.osexp","C:\Users\kikip\OneDrive\Dokumente\QUANT HW","False","mono","False","18","no","white","no","yes","768","legacy","69","11","C:/Users/kikip/OneDrive/Dokumente/QUANT HW/JB-subject-3.csv","legacy","5 3 8 7 2 4","Melodramatic Milgram","4.0.5","0","n","0","right","right","right","right","NA","632.0","55134","25795","632","NA","2","legacy","6","1024","2","48000","-16","experiment","3","odd","9","577589","574305","575384","4601","162661","575386","562361","4608","136865","579590","576388","580224","59744","579590","NA","Sternberg task ","75","60338.0","82","1024"
"91","91","735","735","#3d3846","experiment","legacy","legacy","legacy","1","undefined","1","right","82","82","82","0","0","82","82","0","0","82","82","82","0","82","0","Tue Oct 17 03:10:16 2023","The main experiment item","True","Sternbergtask.osexp","C:\Users\kikip\OneDrive\Dokumente\QUANT HW","False","mono","False","18","no","white","no","yes","768","legacy","70","11","C:/Users/kikip/OneDrive/Dokumente/QUANT HW/JB-subject-3.csv","legacy","5 3 2 6 9 8","Melodramatic Milgram","4.0.5","0","n","0","right","right","right","right","NA","735.0","55134","25795","735","NA","2","legacy","6","1024","2","48000","-16","experiment","3","odd","4","583520","580228","581315","4601","162661","581318","562361","4608","136865","585523","582319","586260","59744","585522","NA","Sternberg task ","76","61073.0","83","1024"
"91","91","733","733","#3d3846","experiment","legacy","legacy","legacy","1","undefined","1","left","83","83","83","0","0","83","83","0","0","83","83","83","0","83","0","Tue Oct 17 03:10:16 2023","The main experiment item","True","Sternbergtask.osexp","C:\Users\kikip\OneDrive\Dokumente\QUANT HW","False","mono","False","18","no","white","no","yes","768","legacy","71","11","C:/Users/kikip/OneDrive/Dokumente/QUANT HW/JB-subject-3.csv","legacy","6 7 8 5","Melodramatic Milgram","4.0.5","3","y","0","left","right","right","left","NA","571.0","55134","25795","571","NA","2","legacy","4","1024","2","48000","-16","experiment","3","odd","8","589564","586264","587359","4601","162661","587361","562361","4608","136865","591565","588363","592138","59744","591565","NA","Sternberg task ","77","61644.0","84","1024"
"91","91","737","737","#3d3846","experiment","legacy","legacy","legacy","1","undefined","1","right","84","84","84","0","0","84","84","0","0","84","84","84","0","84","0","Tue Oct 17 03:10:16 2023","The main experiment item","True","Sternbergtask.osexp","C:\Users\kikip\OneDrive\Dokumente\QUANT HW","False","mono","False","18","no","white","no","yes","768","legacy","72","11","C:/Users/kikip/OneDrive/Dokumente/QUANT HW/JB-subject-3.csv","legacy","9 5 3 2 8 6","Melodramatic Milgram","4.0.5","0","n","0","right","right","right","right","NA","1029.0","55134","25795","1029","NA","2","legacy","6","1024","2","48000","-16","experiment","3","odd","7","595431","592142","593225","4601","162661","593228","562361","4608","136865","597432","594229","598463","59744","597432","NA","Sternberg task ","78","62673.0","85","1024"
"91","91","735","735","#3d3846","experiment","legacy","legacy","legacy","1","undefined","1","left","85","85","85","0","0","85","85","0","0","85","85","85","0","85","0","Tue Oct 17 03:10:16 2023","The main experiment item","True","Sternbergtask.osexp","C:\Users\kikip\OneDrive\Dokumente\QUANT HW","False","mono","False","18","no","white","no","yes","768","legacy","73","11","C:/Users/kikip/OneDrive/Dokumente/QUANT HW/JB-subject-3.csv","legacy","3 9 6 2","Melodramatic Milgram","4.0.5","4","y","0","left","right","right","left","NA","589.0","55134","25795","589","NA","2","legacy","4","1024","2","48000","-16","experiment","3","odd","2","601747","598467","599542","4601","162661","599544","562361","4608","136865","603748","600545","604339","59744","603748","NA","Sternberg task ","79","63262.0","86","1024"
"91","91","733","733","#3d3846","experiment","legacy","legacy","legacy","1","undefined","1","right","86","86","86","0","0","86","86","0","0","86","86","86","0","86","0","Tue Oct 17 03:10:16 2023","The main experiment item","True","Sternbergtask.osexp","C:\Users\kikip\OneDrive\Dokumente\QUANT HW","False","mono","False","18","no","white","no","yes","768","legacy","74","11","C:/Users/kikip/OneDrive/Dokumente/QUANT HW/JB-subject-3.csv","legacy","1 6 4","Melodramatic Milgram","4.0.5","0","n","0","right","right","right","right","NA","547.0","55134","25795","547","NA","2","legacy","3","1024","2","48000","-16","experiment","3","odd","7","607649","604344","605445","4601","162661","605447","562361","4608","136865","609650","606448","610199","59744","609650","NA","Sternberg task ","80","63809.0","87","1024"
"92","92","732","732","#3d3846","experiment","legacy","legacy","legacy","1","undefined","1","left","87","87","87","0","0","87","87","0","0","87","87","87","0","87","0","Tue Oct 17 03:10:16 2023","The main experiment item","True","Sternbergtask.osexp","C:\Users\kikip\OneDrive\Dokumente\QUANT HW","False","mono","False","18","no","white","no","yes","768","legacy","75","11","C:/Users/kikip/OneDrive/Dokumente/QUANT HW/JB-subject-3.csv","legacy","6 9 3 1","Melodramatic Milgram","4.0.5","4","y","0","left","right","right","left","NA","645.0","55134","25795","645","NA","2","legacy","4","1024","2","48000","-16","experiment","3","odd","1","613484","610206","611280","4601","162661","611282","562361","4608","136865","615485","612283","616132","59744","615485","NA","Sternberg task ","81","64454.0","88","1024"
"92","92","731","731","#3d3846","experiment","legacy","legacy","legacy","1","undefined","1","right","88","88","88","0","0","88","88","0","0","88","88","88","0","88","0","Tue Oct 17 03:10:16 2023","The main experiment item","True","Sternbergtask.osexp","C:\Users\kikip\OneDrive\Dokumente\QUANT HW","False","mono","False","18","no","white","no","yes","768","legacy","76","11","C:/Users/kikip/OneDrive/Dokumente/QUANT HW/JB-subject-3.csv","legacy","7 1 8 4 9 3","Melodramatic Milgram","4.0.5","0","n","0","right","right","right","right","NA","676.0","55134","25795","676","NA","2","legacy","6","1024","2","48000","-16","experiment","3","odd","6","619419","616140","617214","4601","162661","617217","562361","4608","136865","621420","618218","622098","59744","621420","NA","Sternberg task ","82","65130.0","89","1024"
"92","92","729","729","#3d3846","experiment","legacy","legacy","legacy","1","undefined","1","right","89","89","89","0","0","89","89","0","0","89","89","89","0","89","0","Tue Oct 17 03:10:16 2023","The main experiment item","True","Sternbergtask.osexp","C:\Users\kikip\OneDrive\Dokumente\QUANT HW","False","mono","False","18","no","white","no","yes","768","legacy","77","11","C:/Users/kikip/OneDrive/Dokumente/QUANT HW/JB-subject-3.csv","legacy","2 6 4 3 9","Melodramatic Milgram","4.0.5","0","n","0","right","right","right","right","NA","543.0","55134","25795","543","NA","2","legacy","5","1024","2","48000","-16","experiment","3","odd","1","625385","622106","623181","4601","162661","623183","562361","4608","136865","627387","624184","627931","59744","627386","NA","Sternberg task ","83","65673.0","90","1024"
"92","92","733","733","#3d3846","experiment","legacy","legacy","legacy","1","undefined","1","right","90","90","90","0","0","90","90","0","0","90","90","90","0","90","0","Tue Oct 17 03:10:16 2023","The main experiment item","True","Sternbergtask.osexp","C:\Users\kikip\OneDrive\Dokumente\QUANT HW","False","mono","False","18","no","white","no","yes","768","legacy","78","11","C:/Users/kikip/OneDrive/Dokumente/QUANT HW/JB-subject-3.csv","legacy","1 5 3 2 8","Melodramatic Milgram","4.0.5","0","n","0","right","right","right","right","NA","1061.0","55134","25795","1061","NA","2","legacy","5","1024","2","48000","-16","experiment","3","odd","4","631223","627939","629018","4601","162661","629020","562361","4608","136865","633225","630021","634288","59744","633224","NA","Sternberg task ","84","66734.0","91","1024"
"92","92","731","731","#3d3846","experiment","legacy","legacy","legacy","1","undefined","1","right","91","91","91","0","0","91","91","0","0","91","91","91","0","91","0","Tue Oct 17 03:10:16 2023","The main experiment item","True","Sternbergtask.osexp","C:\Users\kikip\OneDrive\Dokumente\QUANT HW","False","mono","False","18","no","white","no","yes","768","legacy","79","11","C:/Users/kikip/OneDrive/Dokumente/QUANT HW/JB-subject-3.csv","legacy","7 3 2 8","Melodramatic Milgram","4.0.5","0","n","0","right","right","right","right","NA","569.0","55134","25795","569","NA","2","legacy","4","1024","2","48000","-16","experiment","3","odd","4","637634","634292","635430","4601","162661","635432","562361","4608","136865","639636","636433","640207","59744","639636","NA","Sternberg task ","85","67303.0","92","1024"
"92","92","730","730","#3d3846","experiment","legacy","legacy","legacy","1","undefined","1","left","92","92","92","0","0","92","92","0","0","92","92","92","0","92","0","Tue Oct 17 03:10:16 2023","The main experiment item","True","Sternbergtask.osexp","C:\Users\kikip\OneDrive\Dokumente\QUANT HW","False","mono","False","18","no","white","no","yes","768","legacy","80","11","C:/Users/kikip/OneDrive/Dokumente/QUANT HW/JB-subject-3.csv","legacy","4 1 5","Melodramatic Milgram","4.0.5","2","y","0","left","right","right","left","NA","595.0","55134","25795","595","NA","2","legacy","3","1024","2","48000","-16","experiment","3","odd","1","643498","640216","641293","4601","162661","641295","562361","4608","136865","645499","642297","646096","59744","645499","NA","Sternberg task ","86","67898.0","93","1024"
"92","92","730","730","#3d3846","experiment","legacy","legacy","legacy","1","undefined","1","right","93","93","93","0","0","93","93","0","0","93","93","93","0","93","0","Tue Oct 17 03:10:16 2023","The main experiment item","True","Sternbergtask.osexp","C:\Users\kikip\OneDrive\Dokumente\QUANT HW","False","mono","False","18","no","white","no","yes","768","legacy","81","11","C:/Users/kikip/OneDrive/Dokumente/QUANT HW/JB-subject-3.csv","legacy","9","Melodramatic Milgram","4.0.5","0","n","0","right","right","right","right","NA","757.0","55134","25795","757","NA","2","legacy","1","1024","2","48000","-16","experiment","3","odd","6","649381","646104","647176","4601","162661","647178","562361","4608","136865","651382","648179","652140","59744","651382","NA","Sternberg task ","87","68655.0","94","1024"
"92","92","728","728","#3d3846","experiment","legacy","legacy","legacy","1","undefined","1","left","94","94","94","0","0","94","94","0","0","94","94","94","0","94","0","Tue Oct 17 03:10:16 2023","The main experiment item","True","Sternbergtask.osexp","C:\Users\kikip\OneDrive\Dokumente\QUANT HW","False","mono","False","18","no","white","no","yes","768","legacy","82","11","C:/Users/kikip/OneDrive/Dokumente/QUANT HW/JB-subject-3.csv","legacy","9 6 2 4 1","Melodramatic Milgram","4.0.5","4","y","0","left","right","right","left","NA","521.0","55134","25795","521","NA","2","legacy","5","1024","2","48000","-16","experiment","3","odd","4","655427","652148","653221","4601","162661","653224","562361","4608","136865","657428","654226","657951","59744","657428","NA","Sternberg task ","88","69176.0","95","1024"
"92","92","726","726","#3d3846","experiment","legacy","legacy","legacy","1","undefined","1","left","95","95","95","0","0","95","95","0","0","95","95","95","0","95","0","Tue Oct 17 03:10:16 2023","The main experiment item","True","Sternbergtask.osexp","C:\Users\kikip\OneDrive\Dokumente\QUANT HW","False","mono","False","18","no","white","no","yes","768","legacy","83","11","C:/Users/kikip/OneDrive/Dokumente/QUANT HW/JB-subject-3.csv","legacy","6 7 9 3 1 2","Melodramatic Milgram","4.0.5","1","y","0","left","right","right","left","NA","599.0","55134","25795","599","NA","2","legacy","6","1024","2","48000","-16","experiment","3","odd","6","661244","657958","659040","4601","162661","659042","562361","4608","136865","663245","660043","663846","59744","663245","NA","Sternberg task ","89","69775.0","96","1024"
"92","92","730","730","#3d3846","experiment","legacy","legacy","legacy","1","undefined","1","right","96","96","96","0","0","96","96","0","0","96","96","96","0","96","0","Tue Oct 17 03:10:16 2023","The main experiment item","True","Sternbergtask.osexp","C:\Users\kikip\OneDrive\Dokumente\QUANT HW","False","mono","False","18","no","white","no","yes","768","legacy","84","11","C:/Users/kikip/OneDrive/Dokumente/QUANT HW/JB-subject-3.csv","legacy","2 5 1 4","Melodramatic Milgram","4.0.5","0","n","0","right","right","right","right","NA","1036.0","55134","25795","1036","NA","2","legacy","4","1024","2","48000","-16","experiment","3","odd","6","667137","663853","664933","4601","162661","664935","562361","4608","136865","669138","665936","670176","59744","669138","NA","Sternberg task ","90","70811.0","97","1024"
"92","92","728","728","#3d3846","experiment","legacy","legacy","legacy","1","undefined","1","left","97","97","97","0","0","97","97","0","0","97","97","97","0","97","0","Tue Oct 17 03:10:16 2023","The main experiment item","True","Sternbergtask.osexp","C:\Users\kikip\OneDrive\Dokumente\QUANT HW","False","mono","False","18","no","white","no","yes","768","legacy","85","11","C:/Users/kikip/OneDrive/Dokumente/QUANT HW/JB-subject-3.csv","legacy","3 5 7 1","Melodramatic Milgram","4.0.5","3","y","0","left","right","right","left","NA","584.0","55134","25795","584","NA","2","legacy","4","1024","2","48000","-16","experiment","3","odd","7","673464","670183","671260","4601","162661","671262","562361","4608","136865","675465","672263","676051","59744","675465","NA","Sternberg task ","91","71395.0","98","1024"
"92","92","728","728","#3d3846","experiment","legacy","legacy","legacy","1","undefined","1","left","98","98","98","0","0","98","98","0","0","98","98","98","0","98","0","Tue Oct 17 03:10:16 2023","The main experiment item","True","Sternbergtask.osexp","C:\Users\kikip\OneDrive\Dokumente\QUANT HW","False","mono","False","18","no","white","no","yes","768","legacy","86","11","C:/Users/kikip/OneDrive/Dokumente/QUANT HW/JB-subject-3.csv","legacy","4 7 6 8 2 3","Melodramatic Milgram","4.0.5","6","y","0","left","right","right","left","NA","747.0","55134","25795","747","NA","2","legacy","6","1024","2","48000","-16","experiment","3","odd","3","679351","676059","677147","4601","162661","677149","562361","4608","136865","681353","678150","682102","59744","681353","NA","Sternberg task ","92","72142.0","99","1024"
"93","93","726","726","#3d3846","experiment","legacy","legacy","legacy","1","undefined","1","left","99","99","99","0","0","99","99","0","0","99","99","99","0","99","0","Tue Oct 17 03:10:16 2023","The main experiment item","True","Sternbergtask.osexp","C:\Users\kikip\OneDrive\Dokumente\QUANT HW","False","mono","False","18","no","white","no","yes","768","legacy","87","11","C:/Users/kikip/OneDrive/Dokumente/QUANT HW/JB-subject-3.csv","legacy","4 6 5 8","Melodramatic Milgram","4.0.5","1","y","0","left","right","right","left","NA","507.0","55134","25795","507","NA","2","legacy","4","1024","2","48000","-16","experiment","3","odd","4","685385","682107","683181","4601","162661","683183","562361","4608","136865","687386","684184","687895","59744","687386","NA","Sternberg task ","93","72649.0","100","1024"
"93","93","728","728","#3d3846","experiment","legacy","legacy","legacy","1","undefined","1","right","100","100","100","0","0","100","100","0","0","100","100","100","0","100","0","Tue Oct 17 03:10:16 2023","The main experiment item","True","Sternbergtask.osexp","C:\Users\kikip\OneDrive\Dokumente\QUANT HW","False","mono","False","18","no","white","no","yes","768","legacy","88","11","C:/Users/kikip/OneDrive/Dokumente/QUANT HW/JB-subject-3.csv","legacy","5 9 2 3","Melodramatic Milgram","4.0.5","0","n","0","right","right","right","right","NA","918.0","55134","25795","918","NA","2","legacy","4","1024","2","48000","-16","experiment","3","odd","8","691191","687902","688986","4601","162661","688989","562361","4608","136865","693193","689990","694113","59744","693193","NA","Sternberg task ","94","73567.0","101","1024"
"93","93","729","729","#3d3846","experiment","legacy","legacy","legacy","1","undefined","1","left","101","101","101","0","0","101","101","0","0","101","101","101","0","101","0","Tue Oct 17 03:10:16 2023","The main experiment item","True","Sternbergtask.osexp","C:\Users\kikip\OneDrive\Dokumente\QUANT HW","False","mono","False","18","no","white","no","yes","768","legacy","89","11","C:/Users/kikip/OneDrive/Dokumente/QUANT HW/JB-subject-3.csv","legacy","8 9 6 1","Melodramatic Milgram","4.0.5","2","y","0","left","right","right","left","NA","855.0","55134","25795","855","NA","2","legacy","4","1024","2","48000","-16","experiment","3","odd","9","697395","694118","695190","4601","162661","695192","562361","4608","136865","699396","696194","700253","59744","699396","NA","Sternberg task ","95","74422.0","102","1024"
"93","93","727","727","#3d3846","experiment","legacy","legacy","legacy","1","undefined","1","right","102","102","102","0","0","102","102","0","0","102","102","102","0","102","0","Tue Oct 17 03:10:16 2023","The main experiment item","True","Sternbergtask.osexp","C:\Users\kikip\OneDrive\Dokumente\QUANT HW","False","mono","False","18","no","white","no","yes","768","legacy","90","11","C:/Users/kikip/OneDrive/Dokumente/QUANT HW/JB-subject-3.csv","legacy","8 5 4 2 9 6","Melodramatic Milgram","4.0.5","0","n","0","right","right","right","right","NA","544.0","55134","25795","544","NA","2","legacy","6","1024","2","48000","-16","experiment","3","odd","3","703548","700261","701343","4601","162661","701345","562361","4608","136865","705549","702347","706095","59744","705549","NA","Sternberg task ","96","74966.0","103","1024"
"93","93","726","726","#3d3846","experiment","legacy","legacy","legacy","1","undefined","1","right","103","103","103","0","0","103","103","0","0","103","103","103","0","103","0","Tue Oct 17 03:10:16 2023","The main experiment item","True","Sternbergtask.osexp","C:\Users\kikip\OneDrive\Dokumente\QUANT HW","False","mono","False","18","no","white","no","yes","768","legacy","91","11","C:/Users/kikip/OneDrive/Dokumente/QUANT HW/JB-subject-3.csv","legacy","6 9 7 3 8 2","Melodramatic Milgram","4.0.5","0","n","0","right","right","right","right","NA","568.0","55134","25795","568","NA","2","legacy","6","1024","2","48000","-16","experiment","3","odd","5","709382","706102","707178","4601","162661","707180","562361","4608","136865","711383","708181","711953","59744","711383","NA","Sternberg task ","97","75534.0","104","1024"
"93","93","725","725","#3d3846","experiment","legacy","legacy","legacy","1","undefined","1","left","104","104","104","0","0","104","104","0","0","104","104","104","0","104","0","Tue Oct 17 03:10:16 2023","The main experiment item","True","Sternbergtask.osexp","C:\Users\kikip\OneDrive\Dokumente\QUANT HW","False","mono","False","18","no","white","no","yes","768","legacy","92","11","C:/Users/kikip/OneDrive/Dokumente/QUANT HW/JB-subject-3.csv","legacy","4 1 8 7 5","Melodramatic Milgram","4.0.5","3","y","0","left","right","right","left","NA","635.0","55134","25795","635","NA","2","legacy","5","1024","2","48000","-16","experiment","3","odd","8","715237","711958","713032","4601","162661","713035","562361","4608","136865","717238","714036","717875","59744","717238","NA","Sternberg task ","98","76169.0","105","1024"
"93","93","737","737","#3d3846","experiment","legacy","legacy","legacy","1","undefined","1","right","105","105","105","0","0","105","105","0","0","105","105","105","0","105","0","Tue Oct 17 03:10:16 2023","The main experiment item","True","Sternbergtask.osexp","C:\Users\kikip\OneDrive\Dokumente\QUANT HW","False","mono","False","18","no","white","no","yes","768","legacy","93","11","C:/Users/kikip/OneDrive/Dokumente/QUANT HW/JB-subject-3.csv","legacy","2 8 9 4 1","Melodramatic Milgram","4.0.5","0","n","0","right","right","right","right","NA","1972.0","55134","25795","1972","NA","2","legacy","5","1024","2","48000","-16","experiment","3","odd","5","721158","717879","718951","4601","162661","718954","562361","4608","136865","723159","719955","725134","59744","723159","NA","Sternberg task ","99","78141.0","106","1024"
"93","93","735","735","#3d3846","experiment","legacy","legacy","legacy","1","undefined","1","left","106","106","106","0","0","106","106","0","0","106","106","106","0","106","0","Tue Oct 17 03:10:16 2023","The main experiment item","True","Sternbergtask.osexp","C:\Users\kikip\OneDrive\Dokumente\QUANT HW","False","mono","False","18","no","white","no","yes","768","legacy","94","11","C:/Users/kikip/OneDrive/Dokumente/QUANT HW/JB-subject-3.csv","legacy","6 1 2","Melodramatic Milgram","4.0.5","3","y","0","left","right","right","left","NA","586.0","55134","25795","586","NA","2","legacy","3","1024","2","48000","-16","experiment","3","odd","2","728433","725141","726228","4601","162661","726230","562361","4608","136865","730434","727232","731022","59744","730434","NA","Sternberg task ","100","78727.0","107","1024"
"93","93","732","732","#3d3846","experiment","legacy","legacy","legacy","1","undefined","1","left","107","107","107","0","0","107","107","0","0","107","107","107","0","107","0","Tue Oct 17 03:10:16 2023","The main experiment item","True","Sternbergtask.osexp","C:\Users\kikip\OneDrive\Dokumente\QUANT HW","False","mono","False","18","no","white","no","yes","768","legacy","95","11","C:/Users/kikip/OneDrive/Dokumente/QUANT HW/JB-subject-3.csv","legacy","7","Melodramatic Milgram","4.0.5","1","y","0","left","right","right","left","NA","411.0","55134","25795","411","NA","2","legacy","1","1024","2","48000","-16","experiment","3","odd","7","734308","731026","732103","4601","162661","732105","562361","4608","136865","736310","733107","736723","59744","736309","NA","Sternberg task ","101","79138.0","108","1024"
"92","92","731","731","#3d3846","experiment","legacy","legacy","legacy","0","undefined","0","left","108","108","108","0","0","108","108","0","0","108","108","108","0","108","0","Tue Oct 17 03:10:16 2023","The main experiment item","True","Sternbergtask.osexp","C:\Users\kikip\OneDrive\Dokumente\QUANT HW","False","mono","False","18","no","white","no","yes","768","legacy","96","11","C:/Users/kikip/OneDrive/Dokumente/QUANT HW/JB-subject-3.csv","legacy","2 8 5 1","Melodramatic Milgram","4.0.5","4","y","0","right","right","right","right","NA","623.0","55134","25795","623","NA","2","legacy","4","1024","2","48000","-16","experiment","3","odd","1","740018","736728","737814","4601","162661","737816","562361","4608","136865","742019","738817","742645","59744","742019","NA","Sternberg task ","101","79761.0","109","1024"
"91","91","733","733","#3d3846","experiment","legacy","legacy","legacy","0","undefined","0","left","109","109","109","0","0","109","109","0","0","109","109","109","0","109","0","Tue Oct 17 03:10:16 2023","The main experiment item","True","Sternbergtask.osexp","C:\Users\kikip\OneDrive\Dokumente\QUANT HW","False","mono","False","18","no","white","no","yes","768","legacy","97","11","C:/Users/kikip/OneDrive/Dokumente/QUANT HW/JB-subject-3.csv","legacy","6 5","Melodramatic Milgram","4.0.5","2","y","0","right","right","right","right","NA","944.0","55134","25795","944","NA","2","legacy","2","1024","2","48000","-16","experiment","3","odd","5","745928","736728","743724","4601","162661","743726","742649","4608","136865","747929","744727","748875","59744","747929","NA","Sternberg task ","101","80705.0","110","1024"
"91","91","733","733","#3d3846","experiment","legacy","legacy","legacy","1","undefined","1","left","110","110","110","0","0","110","110","0","0","110","110","110","0","110","0","Tue Oct 17 03:10:16 2023","The main experiment item","True","Sternbergtask.osexp","C:\Users\kikip\OneDrive\Dokumente\QUANT HW","False","mono","False","18","no","white","no","yes","768","legacy","98","11","C:/Users/kikip/OneDrive/Dokumente/QUANT HW/JB-subject-3.csv","legacy","7 1 3","Melodramatic Milgram","4.0.5","2","y","0","left","right","right","left","NA","749.0","55134","25795","749","NA","2","legacy","3","1024","2","48000","-16","experiment","3","odd","1","752165","736728","749959","4601","162661","749962","748879","4608","136865","754167","750963","754918","59744","754167","NA","Sternberg task ","102","81454.0","111","1024"
"91","91","733","733","#3d3846","experiment","legacy","legacy","legacy","1","undefined","1","left","111","111","111","0","0","111","111","0","0","111","111","111","0","111","0","Tue Oct 17 03:10:16 2023","The main experiment item","True","Sternbergtask.osexp","C:\Users\kikip\OneDrive\Dokumente\QUANT HW","False","mono","False","18","no","white","no","yes","768","legacy","99","11","C:/Users/kikip/OneDrive/Dokumente/QUANT HW/JB-subject-3.csv","legacy","4 3 2 5 8","Melodramatic Milgram","4.0.5","2","y","0","left","right","right","left","NA","707.0","55134","25795","707","NA","2","legacy","5","1024","2","48000","-16","experiment","3","odd","3","758204","754925","755999","4601","162661","756001","748879","4608","136865","760205","757003","760914","59744","760205","NA","Sternberg task ","103","82161.0","112","1024"
"92","92","734","734","#3d3846","experiment","legacy","legacy","legacy","1","undefined","1","right","112","112","112","0","0","112","112","0","0","112","112","112","0","112","0","Tue Oct 17 03:10:16 2023","The main experiment item","True","Sternbergtask.osexp","C:\Users\kikip\OneDrive\Dokumente\QUANT HW","False","mono","False","18","no","white","no","yes","768","legacy","100","11","C:/Users/kikip/OneDrive/Dokumente/QUANT HW/JB-subject-3.csv","legacy","1","Melodramatic Milgram","4.0.5","0","n","0","right","right","right","right","NA","888.0","55134","25795","888","NA","2","legacy","1","1024","2","48000","-16","experiment","3","odd","7","764205","760918","762000","4601","162661","762002","748879","4608","136865","766208","763004","767098","59744","766207","NA","Sternberg task ","104","83049.0","113","1024"
"92","92","734","734","#3d3846","experiment","legacy","legacy","legacy","1","undefined","1","left","113","113","113","0","0","113","113","0","0","113","113","113","0","113","0","Tue Oct 17 03:10:16 2023","The main experiment item","True","Sternbergtask.osexp","C:\Users\kikip\OneDrive\Dokumente\QUANT HW","False","mono","False","18","no","white","no","yes","768","legacy","101","11","C:/Users/kikip/OneDrive/Dokumente/QUANT HW/JB-subject-3.csv","legacy","3 9 7 6 4","Melodramatic Milgram","4.0.5","3","y","0","left","right","right","left","NA","646.0","55134","25795","646","NA","2","legacy","5","1024","2","48000","-16","experiment","3","odd","7","770414","767107","768209","4601","162661","768212","748879","4608","136865","772415","769213","773063","59744","772415","NA","Sternberg task ","105","83695.0","114","1024"
"92","92","735","735","#3d3846","experiment","legacy","legacy","legacy","1","undefined","1","left","114","114","114","0","0","114","114","0","0","114","114","114","0","114","0","Tue Oct 17 03:10:16 2023","The main experiment item","True","Sternbergtask.osexp","C:\Users\kikip\OneDrive\Dokumente\QUANT HW","False","mono","False","18","no","white","no","yes","768","legacy","102","11","C:/Users/kikip/OneDrive/Dokumente/QUANT HW/JB-subject-3.csv","legacy","3 4 9 6 2 9","Melodramatic Milgram","4.0.5","5","y","0","left","right","right","left","NA","835.0","55134","25795","835","NA","2","legacy","6","1024","2","48000","-16","experiment","3","odd","2","776358","773067","774153","4601","162661","774156","748879","4608","136865","778359","775157","779196","59744","778359","NA","Sternberg task ","106","84530.0","115","1024"
"92","92","733","733","#3d3846","experiment","legacy","legacy","legacy","1","undefined","1","left","115","115","115","0","0","115","115","0","0","115","115","115","0","115","0","Tue Oct 17 03:10:16 2023","The main experiment item","True","Sternbergtask.osexp","C:\Users\kikip\OneDrive\Dokumente\QUANT HW","False","mono","False","18","no","white","no","yes","768","legacy","103","11","C:/Users/kikip/OneDrive/Dokumente/QUANT HW/JB-subject-3.csv","legacy","5 2 9 6 1 7","Melodramatic Milgram","4.0.5","3","y","0","left","right","right","left","NA","572.0","55134","25795","572","NA","2","legacy","6","1024","2","48000","-16","experiment","3","odd","9","782476","779201","780272","4601","162661","780274","748879","4608","136865","784477","781275","785051","59744","784477","NA","Sternberg task ","107","85102.0","116","1024"
"92","92","737","737","#3d3846","experiment","legacy","legacy","legacy","1","undefined","1","left","116","116","116","0","0","116","116","0","0","116","116","116","0","116","0","Tue Oct 17 03:10:16 2023","The main experiment item","True","Sternbergtask.osexp","C:\Users\kikip\OneDrive\Dokumente\QUANT HW","False","mono","False","18","no","white","no","yes","768","legacy","104","11","C:/Users/kikip/OneDrive/Dokumente/QUANT HW/JB-subject-3.csv","legacy","7 8 4 6 9 5","Melodramatic Milgram","4.0.5","4","y","0","left","right","right","left","NA","1148.0","55134","25795","1148","NA","2","legacy","6","1024","2","48000","-16","experiment","3","odd","6","788340","785059","786135","4601","162661","786138","748879","4608","136865","790342","787139","791492","59744","790342","NA","Sternberg task ","108","86250.0","117","1024"
"92","92","737","737","#3d3846","experiment","legacy","legacy","legacy","1","undefined","1","left","117","117","117","0","0","117","117","0","0","117","117","117","0","117","0","Tue Oct 17 03:10:16 2023","The main experiment item","True","Sternbergtask.osexp","C:\Users\kikip\OneDrive\Dokumente\QUANT HW","False","mono","False","18","no","white","no","yes","768","legacy","105","11","C:/Users/kikip/OneDrive/Dokumente/QUANT HW/JB-subject-3.csv","legacy","2 5 4 8 7","Melodramatic Milgram","4.0.5","3","y","0","left","right","right","left","NA","791.0","55134","25795","791","NA","2","legacy","5","1024","2","48000","-16","experiment","3","odd","4","794777","791501","792572","4601","162661","792575","748879","4608","136865","796778","793576","797572","59744","796778","NA","Sternberg task ","109","87041.0","118","1024"
"92","92","741","741","#3d3846","experiment","legacy","legacy","legacy","1","undefined","1","right","118","118","118","0","0","118","118","0","0","118","118","118","0","118","0","Tue Oct 17 03:10:16 2023","The main experiment item","True","Sternbergtask.osexp","C:\Users\kikip\OneDrive\Dokumente\QUANT HW","False","mono","False","18","no","white","no","yes","768","legacy","106","11","C:/Users/kikip/OneDrive/Dokumente/QUANT HW/JB-subject-3.csv","legacy","6 9 4 5 3 2","Melodramatic Milgram","4.0.5","0","n","0","right","right","right","right","NA","1160.0","55134","25795","1160","NA","2","legacy","6","1024","2","48000","-16","experiment","3","odd","8","800863","797577","798659","4601","162661","798661","748879","4608","136865","802864","799662","804026","59744","802864","NA","Sternberg task ","110","88201.0","119","1024"
"92","92","741","741","#3d3846","experiment","legacy","legacy","legacy","1","undefined","1","left","119","119","119","0","0","119","119","0","0","119","119","119","0","119","0","Tue Oct 17 03:10:16 2023","The main experiment item","True","Sternbergtask.osexp","C:\Users\kikip\OneDrive\Dokumente\QUANT HW","False","mono","False","18","no","white","no","yes","768","legacy","107","11","C:/Users/kikip/OneDrive/Dokumente/QUANT HW/JB-subject-3.csv","legacy","8 5 4 7 3 1","Melodramatic Milgram","4.0.5","2","y","0","left","right","right","left","NA","745.0","55134","25795","745","NA","2","legacy","6","1024","2","48000","-16","experiment","3","odd","5","807316","804034","805111","4601","162661","805113","748879","4608","136865","809317","806114","810064","59744","809317","NA","Sternberg task ","111","88946.0","120","1024"
"91","91","741","741","#3d3846","experiment","legacy","legacy","legacy","0","undefined","0","right","120","120","120","0","0","120","120","0","0","120","120","120","0","120","0","Tue Oct 17 03:10:16 2023","The main experiment item","True","Sternbergtask.osexp","C:\Users\kikip\OneDrive\Dokumente\QUANT HW","False","mono","False","18","no","white","no","yes","768","legacy","108","11","C:/Users/kikip/OneDrive/Dokumente/QUANT HW/JB-subject-3.csv","legacy","1 3 2 6 9","Melodramatic Milgram","4.0.5","0","n","0","left","right","right","left","NA","736.0","55134","25795","736","NA","2","legacy","5","1024","2","48000","-16","experiment","3","odd","5","813351","810069","811147","4601","162661","811149","748879","4608","136865","815352","812150","816090","59744","815352","NA","Sternberg task ","111","89682.0","121","1024"
