"acc","accuracy","average_response_time","avg_rt","background","block","canvas_backend","clock_backend","color_backend","correct","correct_instruction1","correct_keyboard_response","correct_response","count_ISI","count_correctFeedback","count_expSequence","count_experiment","count_experimentLoop","count_fixation","count_incorrectFeedback","count_instruction1","count_instructions2","count_keyboard_response","count_logger","count_memorySet","count_practiceLoop","count_probe","count_thankYou","datetime","description","disable_garbage_collection","experiment_file","experiment_path","font_bold","font_family","font_italic","font_size","font_underline","foreground","form_clicks","fullscreen","height","keyboard_backend","live_row","live_row_practiceLoop","logfile","mouse_backend","numberSet","opensesame_codename","opensesame_version","posInSet","present","repeat_cycle","response","response_instruction1","response_instructions2","response_keyboard_response","response_thankYou","response_time","response_time_instruction1","response_time_instructions2","response_time_keyboard_response","response_time_thankYou","round_decimals","sampler_backend","setSize","sound_buf_size","sound_channels","sound_freq","sound_sample_size","start","subject_nr","subject_parity","target","time_ISI","time_correctFeedback","time_expSequence","time_experiment","time_experimentLoop","time_fixation","time_incorrectFeedback","time_instruction1","time_instructions2","time_keyboard_response","time_logger","time_memorySet","time_practiceLoop","time_probe","time_thankYou","title","total_correct","total_response_time","total_responses","width"
"0","0","2000","2000","#3d3846","practice","legacy","legacy","legacy","0","undefined","0","right","0","0","0","0","0","0","0","0","0","0","0","0","0","0","0","Tue Oct 17 09:17:19 2023","The main experiment item","False","Sternbergtask.osexp","C:\Users\stcka\OneDrive\Sam Docs\Psychology Program\AP Textbooks\Quantitative Methods","False","mono","False","18","no","white","no","yes","768","legacy","0","0","C:/Users/stcka/OneDrive/Sam Docs/Psychology Program/AP Textbooks/Quantitative Methods/SA-subject-3.csv","legacy","5 7 8 4 1 2","Melodramatic Milgram","4.0.5","0","n","0","None","right","NA","None","NA","2000.0","10467","NA","2000","NA","2","legacy","6","1024","2","48000","-16","experiment","3","odd","6","15289","NA","13086","2189","NA","13087","NA","2194","NA","17290","19290","14088","12662","17290","NA","Sternberg task","0","2000.0","1","1024"
"50","50","1586","1586","#3d3846","practice","legacy","legacy","legacy","1","undefined","1","right","1","1","1","0","0","1","1","0","0","1","1","1","0","1","0","Tue Oct 17 09:17:19 2023","The main experiment item","False","Sternbergtask.osexp","C:\Users\stcka\OneDrive\Sam Docs\Psychology Program\AP Textbooks\Quantitative Methods","False","mono","False","18","no","white","no","yes","768","legacy","1","1","C:/Users/stcka/OneDrive/Sam Docs/Psychology Program/AP Textbooks/Quantitative Methods/SA-subject-3.csv","legacy","4 1 5","Melodramatic Milgram","4.0.5","0","n","0","right","right","NA","right","NA","1173.0","10467","NA","1173","NA","2","legacy","3","1024","2","48000","-16","experiment","3","odd","2","22551","NA","20348","2189","NA","20349","19315","2194","NA","24551","25724","21350","12662","24551","NA","Sternberg task","1","3173.0","2","1024"
"66","66","1343","1343","#3d3846","practice","legacy","legacy","legacy","1","undefined","1","right","2","2","2","0","0","2","2","0","0","2","2","2","0","2","0","Tue Oct 17 09:17:19 2023","The main experiment item","False","Sternbergtask.osexp","C:\Users\stcka\OneDrive\Sam Docs\Psychology Program\AP Textbooks\Quantitative Methods","False","mono","False","18","no","white","no","yes","768","legacy","2","2","C:/Users/stcka/OneDrive/Sam Docs/Psychology Program/AP Textbooks/Quantitative Methods/SA-subject-3.csv","legacy","3 1 9 4","Melodramatic Milgram","4.0.5","0","n","0","right","right","NA","right","NA","858.0","10467","NA","858","NA","2","legacy","4","1024","2","48000","-16","experiment","3","odd","6","28969","25730","26766","2189","NA","26767","19315","2194","NA","30970","31828","27768","12662","30970","NA","Sternberg task","2","4031.0","3","1024"
"75","75","1201","1201","#3d3846","practice","legacy","legacy","legacy","1","undefined","1","right","3","3","3","0","0","3","3","0","0","3","3","3","0","3","0","Tue Oct 17 09:17:19 2023","The main experiment item","False","Sternbergtask.osexp","C:\Users\stcka\OneDrive\Sam Docs\Psychology Program\AP Textbooks\Quantitative Methods","False","mono","False","18","no","white","no","yes","768","legacy","3","3","C:/Users/stcka/OneDrive/Sam Docs/Psychology Program/AP Textbooks/Quantitative Methods/SA-subject-3.csv","legacy","9 6 7 4 5","Melodramatic Milgram","4.0.5","0","n","0","right","right","NA","right","NA","775.0","10467","NA","775","NA","2","legacy","5","1024","2","48000","-16","experiment","3","odd","3","35072","31835","32869","2189","NA","32870","19315","2194","NA","37073","37849","33871","12662","37073","NA","Sternberg task","3","4806.0","4","1024"
"80","80","1187","1187","#3d3846","practice","legacy","legacy","legacy","1","undefined","1","left","4","4","4","0","0","4","4","0","0","4","4","4","0","4","0","Tue Oct 17 09:17:19 2023","The main experiment item","False","Sternbergtask.osexp","C:\Users\stcka\OneDrive\Sam Docs\Psychology Program\AP Textbooks\Quantitative Methods","False","mono","False","18","no","white","no","yes","768","legacy","4","4","C:/Users/stcka/OneDrive/Sam Docs/Psychology Program/AP Textbooks/Quantitative Methods/SA-subject-3.csv","legacy","4 3 1 7 9 8","Melodramatic Milgram","4.0.5","1","y","0","left","right","NA","left","NA","1130.0","10467","NA","1130","NA","2","legacy","6","1024","2","48000","-16","experiment","3","odd","4","41093","37853","38889","2189","NA","38890","19315","2194","NA","43095","44226","39892","12662","43095","NA","Sternberg task","4","5936.0","5","1024"
"83","83","1131","1131","#3d3846","practice","legacy","legacy","legacy","1","undefined","1","left","5","5","5","0","0","5","5","0","0","5","5","5","0","5","0","Tue Oct 17 09:17:19 2023","The main experiment item","False","Sternbergtask.osexp","C:\Users\stcka\OneDrive\Sam Docs\Psychology Program\AP Textbooks\Quantitative Methods","False","mono","False","18","no","white","no","yes","768","legacy","5","5","C:/Users/stcka/OneDrive/Sam Docs/Psychology Program/AP Textbooks/Quantitative Methods/SA-subject-3.csv","legacy","6","Melodramatic Milgram","4.0.5","1","y","0","left","right","NA","left","NA","851.0","10467","NA","851","NA","2","legacy","1","1024","2","48000","-16","experiment","3","odd","6","47471","44232","45268","2189","NA","45268","19315","2194","NA","49472","50324","46270","12662","49472","NA","Sternberg task","5","6787.0","6","1024"
"85","85","1238","1238","#3d3846","practice","legacy","legacy","legacy","1","undefined","1","left","6","6","6","0","0","6","6","0","0","6","6","6","0","6","0","Tue Oct 17 09:17:19 2023","The main experiment item","False","Sternbergtask.osexp","C:\Users\stcka\OneDrive\Sam Docs\Psychology Program\AP Textbooks\Quantitative Methods","False","mono","False","18","no","white","no","yes","768","legacy","6","6","C:/Users/stcka/OneDrive/Sam Docs/Psychology Program/AP Textbooks/Quantitative Methods/SA-subject-3.csv","legacy","2 9 4","Melodramatic Milgram","4.0.5","3","y","0","left","right","NA","left","NA","1881.0","10467","NA","1881","NA","2","legacy","3","1024","2","48000","-16","experiment","3","odd","4","53569","50331","51366","2189","NA","51367","19315","2194","NA","55570","57452","52368","12662","55570","NA","Sternberg task","6","8668.0","7","1024"
"87","87","1142","1142","#3d3846","practice","legacy","legacy","legacy","1","undefined","1","right","7","7","7","0","0","7","7","0","0","7","7","7","0","7","0","Tue Oct 17 09:17:19 2023","The main experiment item","False","Sternbergtask.osexp","C:\Users\stcka\OneDrive\Sam Docs\Psychology Program\AP Textbooks\Quantitative Methods","False","mono","False","18","no","white","no","yes","768","legacy","7","7","C:/Users/stcka/OneDrive/Sam Docs/Psychology Program/AP Textbooks/Quantitative Methods/SA-subject-3.csv","legacy","5","Melodramatic Milgram","4.0.5","0","n","0","right","right","NA","right","NA","472.0","10467","NA","472","NA","2","legacy","1","1024","2","48000","-16","experiment","3","odd","3","60697","57455","58494","2189","NA","58495","19315","2194","NA","62698","63171","59496","12662","62698","NA","Sternberg task","7","9140.0","8","1024"
"88","88","1116","1116","#3d3846","practice","legacy","legacy","legacy","1","undefined","1","left","8","8","8","0","0","8","8","0","0","8","8","8","0","8","0","Tue Oct 17 09:17:19 2023","The main experiment item","False","Sternbergtask.osexp","C:\Users\stcka\OneDrive\Sam Docs\Psychology Program\AP Textbooks\Quantitative Methods","False","mono","False","18","no","white","no","yes","768","legacy","8","8","C:/Users/stcka/OneDrive/Sam Docs/Psychology Program/AP Textbooks/Quantitative Methods/SA-subject-3.csv","legacy","1 7 9 8 5","Melodramatic Milgram","4.0.5","4","y","0","left","right","NA","left","NA","909.0","10467","NA","909","NA","2","legacy","5","1024","2","48000","-16","experiment","3","odd","8","66414","63175","64211","2189","NA","64212","19315","2194","NA","68416","69325","65213","12662","68416","NA","Sternberg task","8","10049.0","9","1024"
"90","90","1069","1069","#3d3846","practice","legacy","legacy","legacy","1","undefined","1","left","9","9","9","0","0","9","9","0","0","9","9","9","0","9","0","Tue Oct 17 09:17:19 2023","The main experiment item","False","Sternbergtask.osexp","C:\Users\stcka\OneDrive\Sam Docs\Psychology Program\AP Textbooks\Quantitative Methods","False","mono","False","18","no","white","no","yes","768","legacy","9","9","C:/Users/stcka/OneDrive/Sam Docs/Psychology Program/AP Textbooks/Quantitative Methods/SA-subject-3.csv","legacy","4 8","Melodramatic Milgram","4.0.5","1","y","0","left","right","NA","left","NA","650.0","10467","NA","650","NA","2","legacy","2","1024","2","48000","-16","experiment","3","odd","4","72569","69330","70366","2189","NA","70367","19315","2194","NA","74570","75221","71368","12662","74570","NA","Sternberg task","9","10699.0","10","1024"
"90","90","1101","1101","#3d3846","practice","legacy","legacy","legacy","1","undefined","1","right","10","10","10","0","0","10","10","0","0","10","10","10","0","10","0","Tue Oct 17 09:17:19 2023","The main experiment item","False","Sternbergtask.osexp","C:\Users\stcka\OneDrive\Sam Docs\Psychology Program\AP Textbooks\Quantitative Methods","False","mono","False","18","no","white","no","yes","768","legacy","10","10","C:/Users/stcka/OneDrive/Sam Docs/Psychology Program/AP Textbooks/Quantitative Methods/SA-subject-3.csv","legacy","2 1","Melodramatic Milgram","4.0.5","0","n","0","right","right","NA","right","NA","1417.0","10467","NA","1417","NA","2","legacy","2","1024","2","48000","-16","experiment","3","odd","5","78464","75226","76261","2189","NA","76262","19315","2194","NA","80465","81883","77263","12662","80465","NA","Sternberg task","10","12116.0","11","1024"
"91","91","1080","1080","#3d3846","practice","legacy","legacy","legacy","1","undefined","1","left","11","11","11","0","0","11","11","0","0","11","11","11","0","11","0","Tue Oct 17 09:17:19 2023","The main experiment item","False","Sternbergtask.osexp","C:\Users\stcka\OneDrive\Sam Docs\Psychology Program\AP Textbooks\Quantitative Methods","False","mono","False","18","no","white","no","yes","768","legacy","11","11","C:/Users/stcka/OneDrive/Sam Docs/Psychology Program/AP Textbooks/Quantitative Methods/SA-subject-3.csv","legacy","1 5 2 9","Melodramatic Milgram","4.0.5","2","y","0","left","right","NA","left","NA","850.0","10467","NA","850","NA","2","legacy","4","1024","2","48000","-16","experiment","3","odd","5","85127","81888","82924","2189","NA","82925","19315","2194","NA","87128","87979","83926","12662","87128","NA","Sternberg task","11","12966.0","12","1024"
"92","92","1116","1116","#3d3846","experiment","legacy","legacy","legacy","1","undefined","1","left","12","12","12","0","0","12","12","0","0","12","12","12","0","12","0","Tue Oct 17 09:17:19 2023","The main experiment item","False","Sternbergtask.osexp","C:\Users\stcka\OneDrive\Sam Docs\Psychology Program\AP Textbooks\Quantitative Methods","False","mono","False","18","no","white","no","yes","768","legacy","0","11","C:/Users/stcka/OneDrive/Sam Docs/Psychology Program/AP Textbooks/Quantitative Methods/SA-subject-3.csv","legacy","9 6 2 4 1","Melodramatic Milgram","4.0.5","4","y","0","left","right","left","left","NA","1546.0","10467","5925","1546","NA","2","legacy","5","1024","2","48000","-16","experiment","3","odd","4","97190","87984","94987","2189","94911","94988","19315","2194","88985","99195","100743","95989","12662","99192","NA","Sternberg task","12","14512.0","13","1024"
"92","92","1113","1113","#3d3846","experiment","legacy","legacy","legacy","1","undefined","1","left","13","13","13","0","0","13","13","0","0","13","13","13","0","13","0","Tue Oct 17 09:17:19 2023","The main experiment item","False","Sternbergtask.osexp","C:\Users\stcka\OneDrive\Sam Docs\Psychology Program\AP Textbooks\Quantitative Methods","False","mono","False","18","no","white","no","yes","768","legacy","1","11","C:/Users/stcka/OneDrive/Sam Docs/Psychology Program/AP Textbooks/Quantitative Methods/SA-subject-3.csv","legacy","6 8 9 3 4 9","Melodramatic Milgram","4.0.5","5","y","0","left","right","left","left","NA","1074.0","10467","5925","1074","NA","2","legacy","6","1024","2","48000","-16","experiment","3","odd","4","103984","100748","101780","2189","94911","101781","19315","2194","88985","105985","107059","102782","12662","105985","NA","Sternberg task","13","15586.0","14","1024"
"93","93","1093","1093","#3d3846","experiment","legacy","legacy","legacy","1","undefined","1","left","14","14","14","0","0","14","14","0","0","14","14","14","0","14","0","Tue Oct 17 09:17:19 2023","The main experiment item","False","Sternbergtask.osexp","C:\Users\stcka\OneDrive\Sam Docs\Psychology Program\AP Textbooks\Quantitative Methods","False","mono","False","18","no","white","no","yes","768","legacy","2","11","C:/Users/stcka/OneDrive/Sam Docs/Psychology Program/AP Textbooks/Quantitative Methods/SA-subject-3.csv","legacy","6 7 8 5","Melodramatic Milgram","4.0.5","3","y","0","left","right","left","left","NA","815.0","10467","5925","815","NA","2","legacy","4","1024","2","48000","-16","experiment","3","odd","8","110302","107065","108099","2189","94911","108099","19315","2194","88985","112303","113119","109101","12662","112303","NA","Sternberg task","14","16401.0","15","1024"
"93","93","1113","1113","#3d3846","experiment","legacy","legacy","legacy","1","undefined","1","right","15","15","15","0","0","15","15","0","0","15","15","15","0","15","0","Tue Oct 17 09:17:19 2023","The main experiment item","False","Sternbergtask.osexp","C:\Users\stcka\OneDrive\Sam Docs\Psychology Program\AP Textbooks\Quantitative Methods","False","mono","False","18","no","white","no","yes","768","legacy","3","11","C:/Users/stcka/OneDrive/Sam Docs/Psychology Program/AP Textbooks/Quantitative Methods/SA-subject-3.csv","legacy","2 8 7 9 5 3","Melodramatic Milgram","4.0.5","0","n","0","right","right","left","right","NA","1410.0","10467","5925","1410","NA","2","legacy","6","1024","2","48000","-16","experiment","3","odd","6","116361","113124","114157","2189","94911","114159","19315","2194","88985","118363","119774","115160","12662","118362","NA","Sternberg task","15","17811.0","16","1024"
"94","94","1096","1096","#3d3846","experiment","legacy","legacy","legacy","1","undefined","1","right","16","16","16","0","0","16","16","0","0","16","16","16","0","16","0","Tue Oct 17 09:17:19 2023","The main experiment item","False","Sternbergtask.osexp","C:\Users\stcka\OneDrive\Sam Docs\Psychology Program\AP Textbooks\Quantitative Methods","False","mono","False","18","no","white","no","yes","768","legacy","4","11","C:/Users/stcka/OneDrive/Sam Docs/Psychology Program/AP Textbooks/Quantitative Methods/SA-subject-3.csv","legacy","2 8 9 4 1","Melodramatic Milgram","4.0.5","0","n","0","right","right","left","right","NA","829.0","10467","5925","829","NA","2","legacy","5","1024","2","48000","-16","experiment","3","odd","5","123021","119780","120819","2189","94911","120820","19315","2194","88985","125024","125854","121821","12662","125023","NA","Sternberg task","16","18640.0","17","1024"
"94","94","1096","1096","#3d3846","experiment","legacy","legacy","legacy","1","undefined","1","right","17","17","17","0","0","17","17","0","0","17","17","17","0","17","0","Tue Oct 17 09:17:19 2023","The main experiment item","False","Sternbergtask.osexp","C:\Users\stcka\OneDrive\Sam Docs\Psychology Program\AP Textbooks\Quantitative Methods","False","mono","False","18","no","white","no","yes","768","legacy","5","11","C:/Users/stcka/OneDrive/Sam Docs/Psychology Program/AP Textbooks/Quantitative Methods/SA-subject-3.csv","legacy","5","Melodramatic Milgram","4.0.5","0","n","0","right","right","left","right","NA","1101.0","10467","5925","1101","NA","2","legacy","1","1024","2","48000","-16","experiment","3","odd","8","129089","125860","126887","2189","94911","126888","19315","2194","88985","131091","132193","127889","12662","131091","NA","Sternberg task","17","19741.0","18","1024"
"94","94","1081","1081","#3d3846","experiment","legacy","legacy","legacy","1","undefined","1","left","18","18","18","0","0","18","18","0","0","18","18","18","0","18","0","Tue Oct 17 09:17:19 2023","The main experiment item","False","Sternbergtask.osexp","C:\Users\stcka\OneDrive\Sam Docs\Psychology Program\AP Textbooks\Quantitative Methods","False","mono","False","18","no","white","no","yes","768","legacy","6","11","C:/Users/stcka/OneDrive/Sam Docs/Psychology Program/AP Textbooks/Quantitative Methods/SA-subject-3.csv","legacy","5 2 9 6 1 7","Melodramatic Milgram","4.0.5","3","y","0","left","right","left","left","NA","799.0","10467","5925","799","NA","2","legacy","6","1024","2","48000","-16","experiment","3","odd","9","135437","132199","133235","2189","94911","133236","19315","2194","88985","137438","138238","134236","12662","137438","NA","Sternberg task","18","20540.0","19","1024"
"95","95","1077","1077","#3d3846","experiment","legacy","legacy","legacy","1","undefined","1","right","19","19","19","0","0","19","19","0","0","19","19","19","0","19","0","Tue Oct 17 09:17:19 2023","The main experiment item","False","Sternbergtask.osexp","C:\Users\stcka\OneDrive\Sam Docs\Psychology Program\AP Textbooks\Quantitative Methods","False","mono","False","18","no","white","no","yes","768","legacy","7","11","C:/Users/stcka/OneDrive/Sam Docs/Psychology Program/AP Textbooks/Quantitative Methods/SA-subject-3.csv","legacy","1 5 3 2 8","Melodramatic Milgram","4.0.5","0","n","0","right","right","left","right","NA","1012.0","10467","5925","1012","NA","2","legacy","5","1024","2","48000","-16","experiment","3","odd","4","141482","138243","139278","2189","94911","139280","19315","2194","88985","143483","144495","140281","12662","143482","NA","Sternberg task","19","21552.0","20","1024"
"95","95","1059","1059","#3d3846","experiment","legacy","legacy","legacy","1","undefined","1","right","20","20","20","0","0","20","20","0","0","20","20","20","0","20","0","Tue Oct 17 09:17:19 2023","The main experiment item","False","Sternbergtask.osexp","C:\Users\stcka\OneDrive\Sam Docs\Psychology Program\AP Textbooks\Quantitative Methods","False","mono","False","18","no","white","no","yes","768","legacy","8","11","C:/Users/stcka/OneDrive/Sam Docs/Psychology Program/AP Textbooks/Quantitative Methods/SA-subject-3.csv","legacy","5 2","Melodramatic Milgram","4.0.5","0","n","0","right","right","left","right","NA","698.0","10467","5925","698","NA","2","legacy","2","1024","2","48000","-16","experiment","3","odd","7","147751","144501","145548","2189","94911","145549","19315","2194","88985","149752","150450","146550","12662","149752","NA","Sternberg task","20","22250.0","21","1024"
"95","95","1096","1096","#3d3846","experiment","legacy","legacy","legacy","1","undefined","1","right","21","21","21","0","0","21","21","0","0","21","21","21","0","21","0","Tue Oct 17 09:17:19 2023","The main experiment item","False","Sternbergtask.osexp","C:\Users\stcka\OneDrive\Sam Docs\Psychology Program\AP Textbooks\Quantitative Methods","False","mono","False","18","no","white","no","yes","768","legacy","9","11","C:/Users/stcka/OneDrive/Sam Docs/Psychology Program/AP Textbooks/Quantitative Methods/SA-subject-3.csv","legacy","2 8 9","Melodramatic Milgram","4.0.5","0","n","0","right","right","left","right","NA","1882.0","10467","5925","1882","NA","2","legacy","3","1024","2","48000","-16","experiment","3","odd","6","153694","150455","151491","2189","94911","151492","19315","2194","88985","155696","157579","152493","12662","155696","NA","Sternberg task","21","24132.0","22","1024"
"95","95","1087","1087","#3d3846","experiment","legacy","legacy","legacy","1","undefined","1","right","22","22","22","0","0","22","22","0","0","22","22","22","0","22","0","Tue Oct 17 09:17:19 2023","The main experiment item","False","Sternbergtask.osexp","C:\Users\stcka\OneDrive\Sam Docs\Psychology Program\AP Textbooks\Quantitative Methods","False","mono","False","18","no","white","no","yes","768","legacy","10","11","C:/Users/stcka/OneDrive/Sam Docs/Psychology Program/AP Textbooks/Quantitative Methods/SA-subject-3.csv","legacy","1 8 7","Melodramatic Milgram","4.0.5","0","n","0","right","right","left","right","NA","872.0","10467","5925","872","NA","2","legacy","3","1024","2","48000","-16","experiment","3","odd","4","160821","157584","158617","2189","94911","158619","19315","2194","88985","162824","163697","159620","12662","162824","NA","Sternberg task","22","25004.0","23","1024"
"95","95","1077","1077","#3d3846","experiment","legacy","legacy","legacy","1","undefined","1","left","23","23","23","0","0","23","23","0","0","23","23","23","0","23","0","Tue Oct 17 09:17:19 2023","The main experiment item","False","Sternbergtask.osexp","C:\Users\stcka\OneDrive\Sam Docs\Psychology Program\AP Textbooks\Quantitative Methods","False","mono","False","18","no","white","no","yes","768","legacy","11","11","C:/Users/stcka/OneDrive/Sam Docs/Psychology Program/AP Textbooks/Quantitative Methods/SA-subject-3.csv","legacy","9 8 4","Melodramatic Milgram","4.0.5","1","y","0","left","right","left","left","NA","864.0","10467","5925","864","NA","2","legacy","3","1024","2","48000","-16","experiment","3","odd","9","166946","163702","164743","2189","94911","164744","19315","2194","88985","168948","169813","165745","12662","168947","NA","Sternberg task","23","25868.0","24","1024"
"96","96","1071","1071","#3d3846","experiment","legacy","legacy","legacy","1","undefined","1","left","24","24","24","0","0","24","24","0","0","24","24","24","0","24","0","Tue Oct 17 09:17:19 2023","The main experiment item","False","Sternbergtask.osexp","C:\Users\stcka\OneDrive\Sam Docs\Psychology Program\AP Textbooks\Quantitative Methods","False","mono","False","18","no","white","no","yes","768","legacy","12","11","C:/Users/stcka/OneDrive/Sam Docs/Psychology Program/AP Textbooks/Quantitative Methods/SA-subject-3.csv","legacy","2 4 6 9","Melodramatic Milgram","4.0.5","3","y","0","left","right","left","left","NA","930.0","10467","5925","930","NA","2","legacy","4","1024","2","48000","-16","experiment","3","odd","6","173055","169817","170851","2189","94911","170853","19315","2194","88985","175056","175987","171854","12662","175056","NA","Sternberg task","24","26798.0","25","1024"
"96","96","1071","1071","#3d3846","experiment","legacy","legacy","legacy","1","undefined","1","right","25","25","25","0","0","25","25","0","0","25","25","25","0","25","0","Tue Oct 17 09:17:19 2023","The main experiment item","False","Sternbergtask.osexp","C:\Users\stcka\OneDrive\Sam Docs\Psychology Program\AP Textbooks\Quantitative Methods","False","mono","False","18","no","white","no","yes","768","legacy","13","11","C:/Users/stcka/OneDrive/Sam Docs/Psychology Program/AP Textbooks/Quantitative Methods/SA-subject-3.csv","legacy","6 9 7 3 8 2","Melodramatic Milgram","4.0.5","0","n","0","right","right","left","right","NA","1055.0","10467","5925","1055","NA","2","legacy","6","1024","2","48000","-16","experiment","3","odd","5","179228","175993","177026","2189","94911","177028","19315","2194","88985","181230","182285","178028","12662","181229","NA","Sternberg task","25","27853.0","26","1024"
"96","96","1080","1080","#3d3846","experiment","legacy","legacy","legacy","1","undefined","1","left","26","26","26","0","0","26","26","0","0","26","26","26","0","26","0","Tue Oct 17 09:17:19 2023","The main experiment item","False","Sternbergtask.osexp","C:\Users\stcka\OneDrive\Sam Docs\Psychology Program\AP Textbooks\Quantitative Methods","False","mono","False","18","no","white","no","yes","768","legacy","14","11","C:/Users/stcka/OneDrive/Sam Docs/Psychology Program/AP Textbooks/Quantitative Methods/SA-subject-3.csv","legacy","4 7 6 8 2 3","Melodramatic Milgram","4.0.5","6","y","0","left","right","left","left","NA","1317.0","10467","5925","1317","NA","2","legacy","6","1024","2","48000","-16","experiment","3","odd","3","185518","182290","183315","2189","94911","183316","19315","2194","88985","187521","188839","184317","12662","187521","NA","Sternberg task","26","29170.0","27","1024"
"96","96","1077","1077","#3d3846","experiment","legacy","legacy","legacy","1","undefined","1","left","27","27","27","0","0","27","27","0","0","27","27","27","0","27","0","Tue Oct 17 09:17:19 2023","The main experiment item","False","Sternbergtask.osexp","C:\Users\stcka\OneDrive\Sam Docs\Psychology Program\AP Textbooks\Quantitative Methods","False","mono","False","18","no","white","no","yes","768","legacy","15","11","C:/Users/stcka/OneDrive/Sam Docs/Psychology Program/AP Textbooks/Quantitative Methods/SA-subject-3.csv","legacy","1 4 9 3 2 5","Melodramatic Milgram","4.0.5","3","y","0","left","right","left","left","NA","986.0","10467","5925","986","NA","2","legacy","6","1024","2","48000","-16","experiment","3","odd","9","192085","188844","189880","2189","94911","189882","19315","2194","88985","194086","195073","190883","12662","194086","NA","Sternberg task","27","30156.0","28","1024"
"96","96","1072","1072","#3d3846","experiment","legacy","legacy","legacy","1","undefined","1","right","28","28","28","0","0","28","28","0","0","28","28","28","0","28","0","Tue Oct 17 09:17:19 2023","The main experiment item","False","Sternbergtask.osexp","C:\Users\stcka\OneDrive\Sam Docs\Psychology Program\AP Textbooks\Quantitative Methods","False","mono","False","18","no","white","no","yes","768","legacy","16","11","C:/Users/stcka/OneDrive/Sam Docs/Psychology Program/AP Textbooks/Quantitative Methods/SA-subject-3.csv","legacy","7 9 1 6","Melodramatic Milgram","4.0.5","0","n","0","right","right","left","right","NA","955.0","10467","5925","955","NA","2","legacy","4","1024","2","48000","-16","experiment","3","odd","4","198315","195078","196111","2189","94911","196112","19315","2194","88985","200317","201273","197113","12662","200316","NA","Sternberg task","28","31111.0","29","1024"
"96","96","1064","1064","#3d3846","experiment","legacy","legacy","legacy","1","undefined","1","left","29","29","29","0","0","29","29","0","0","29","29","29","0","29","0","Tue Oct 17 09:17:19 2023","The main experiment item","False","Sternbergtask.osexp","C:\Users\stcka\OneDrive\Sam Docs\Psychology Program\AP Textbooks\Quantitative Methods","False","mono","False","18","no","white","no","yes","768","legacy","17","11","C:/Users/stcka/OneDrive/Sam Docs/Psychology Program/AP Textbooks/Quantitative Methods/SA-subject-3.csv","legacy","3 2 1 4 7","Melodramatic Milgram","4.0.5","2","y","0","left","right","left","left","NA","814.0","10467","5925","814","NA","2","legacy","5","1024","2","48000","-16","experiment","3","odd","2","204513","201278","202309","2189","94911","202310","19315","2194","88985","206515","207330","203312","12662","206515","NA","Sternberg task","29","31925.0","30","1024"
"96","96","1053","1053","#3d3846","experiment","legacy","legacy","legacy","1","undefined","1","right","30","30","30","0","0","30","30","0","0","30","30","30","0","30","0","Tue Oct 17 09:17:19 2023","The main experiment item","False","Sternbergtask.osexp","C:\Users\stcka\OneDrive\Sam Docs\Psychology Program\AP Textbooks\Quantitative Methods","False","mono","False","18","no","white","no","yes","768","legacy","18","11","C:/Users/stcka/OneDrive/Sam Docs/Psychology Program/AP Textbooks/Quantitative Methods/SA-subject-3.csv","legacy","8 2 1 4 5 9","Melodramatic Milgram","4.0.5","0","n","0","right","right","left","right","NA","733.0","10467","5925","733","NA","2","legacy","6","1024","2","48000","-16","experiment","3","odd","7","210573","207334","208370","2189","94911","208371","19315","2194","88985","212574","213307","209373","12662","212574","NA","Sternberg task","30","32658.0","31","1024"
"96","96","1048","1048","#3d3846","experiment","legacy","legacy","legacy","1","undefined","1","right","31","31","31","0","0","31","31","0","0","31","31","31","0","31","0","Tue Oct 17 09:17:19 2023","The main experiment item","False","Sternbergtask.osexp","C:\Users\stcka\OneDrive\Sam Docs\Psychology Program\AP Textbooks\Quantitative Methods","False","mono","False","18","no","white","no","yes","768","legacy","19","11","C:/Users/stcka/OneDrive/Sam Docs/Psychology Program/AP Textbooks/Quantitative Methods/SA-subject-3.csv","legacy","6 8","Melodramatic Milgram","4.0.5","0","n","0","right","right","left","right","NA","880.0","10467","5925","880","NA","2","legacy","2","1024","2","48000","-16","experiment","3","odd","9","216555","213311","214351","2189","94911","214352","19315","2194","88985","218556","219437","215354","12662","218556","NA","Sternberg task","31","33538.0","32","1024"
"96","96","1043","1043","#3d3846","experiment","legacy","legacy","legacy","1","undefined","1","left","32","32","32","0","0","32","32","0","0","32","32","32","0","32","0","Tue Oct 17 09:17:19 2023","The main experiment item","False","Sternbergtask.osexp","C:\Users\stcka\OneDrive\Sam Docs\Psychology Program\AP Textbooks\Quantitative Methods","False","mono","False","18","no","white","no","yes","768","legacy","20","11","C:/Users/stcka/OneDrive/Sam Docs/Psychology Program/AP Textbooks/Quantitative Methods/SA-subject-3.csv","legacy","9 1 6 7 8","Melodramatic Milgram","4.0.5","1","y","0","left","right","left","left","NA","912.0","10467","5925","912","NA","2","legacy","5","1024","2","48000","-16","experiment","3","odd","9","222696","219443","220493","2189","94911","220494","19315","2194","88985","224697","225610","221495","12662","224697","NA","Sternberg task","32","34450.0","33","1024"
"97","97","1041","1041","#3d3846","experiment","legacy","legacy","legacy","1","undefined","1","left","33","33","33","0","0","33","33","0","0","33","33","33","0","33","0","Tue Oct 17 09:17:19 2023","The main experiment item","False","Sternbergtask.osexp","C:\Users\stcka\OneDrive\Sam Docs\Psychology Program\AP Textbooks\Quantitative Methods","False","mono","False","18","no","white","no","yes","768","legacy","21","11","C:/Users/stcka/OneDrive/Sam Docs/Psychology Program/AP Textbooks/Quantitative Methods/SA-subject-3.csv","legacy","6 9 3 1","Melodramatic Milgram","4.0.5","4","y","0","left","right","left","left","NA","967.0","10467","5925","967","NA","2","legacy","4","1024","2","48000","-16","experiment","3","odd","1","228851","225615","226647","2189","94911","226648","19315","2194","88985","230852","231819","227649","12662","230852","NA","Sternberg task","33","35417.0","34","1024"
"97","97","1037","1037","#3d3846","experiment","legacy","legacy","legacy","1","undefined","1","left","34","34","34","0","0","34","34","0","0","34","34","34","0","34","0","Tue Oct 17 09:17:19 2023","The main experiment item","False","Sternbergtask.osexp","C:\Users\stcka\OneDrive\Sam Docs\Psychology Program\AP Textbooks\Quantitative Methods","False","mono","False","18","no","white","no","yes","768","legacy","22","11","C:/Users/stcka/OneDrive/Sam Docs/Psychology Program/AP Textbooks/Quantitative Methods/SA-subject-3.csv","legacy","2 4 8 5 1 3","Melodramatic Milgram","4.0.5","1","y","0","left","right","left","left","NA","900.0","10467","5925","900","NA","2","legacy","6","1024","2","48000","-16","experiment","3","odd","2","235051","231823","232848","2189","94911","232849","19315","2194","88985","237052","237952","233850","12662","237052","NA","Sternberg task","34","36317.0","35","1024"
"97","97","1031","1031","#3d3846","experiment","legacy","legacy","legacy","1","undefined","1","right","35","35","35","0","0","35","35","0","0","35","35","35","0","35","0","Tue Oct 17 09:17:19 2023","The main experiment item","False","Sternbergtask.osexp","C:\Users\stcka\OneDrive\Sam Docs\Psychology Program\AP Textbooks\Quantitative Methods","False","mono","False","18","no","white","no","yes","768","legacy","23","11","C:/Users/stcka/OneDrive/Sam Docs/Psychology Program/AP Textbooks/Quantitative Methods/SA-subject-3.csv","legacy","6 8 4","Melodramatic Milgram","4.0.5","0","n","0","right","right","left","right","NA","803.0","10467","5925","803","NA","2","legacy","3","1024","2","48000","-16","experiment","3","odd","1","241182","237957","238978","2189","94911","238979","19315","2194","88985","243183","243987","239980","12662","243183","NA","Sternberg task","35","37120.0","36","1024"
"97","97","1027","1027","#3d3846","experiment","legacy","legacy","legacy","1","undefined","1","right","36","36","36","0","0","36","36","0","0","36","36","36","0","36","0","Tue Oct 17 09:17:19 2023","The main experiment item","False","Sternbergtask.osexp","C:\Users\stcka\OneDrive\Sam Docs\Psychology Program\AP Textbooks\Quantitative Methods","False","mono","False","18","no","white","no","yes","768","legacy","24","11","C:/Users/stcka/OneDrive/Sam Docs/Psychology Program/AP Textbooks/Quantitative Methods/SA-subject-3.csv","legacy","8 5 7 3 6","Melodramatic Milgram","4.0.5","0","n","0","right","right","left","right","NA","884.0","10467","5925","884","NA","2","legacy","5","1024","2","48000","-16","experiment","3","odd","9","247231","243992","245028","2189","94911","245029","19315","2194","88985","249232","250117","246030","12662","249231","NA","Sternberg task","36","38004.0","37","1024"
"97","97","1021","1021","#3d3846","experiment","legacy","legacy","legacy","1","undefined","1","left","37","37","37","0","0","37","37","0","0","37","37","37","0","37","0","Tue Oct 17 09:17:19 2023","The main experiment item","False","Sternbergtask.osexp","C:\Users\stcka\OneDrive\Sam Docs\Psychology Program\AP Textbooks\Quantitative Methods","False","mono","False","18","no","white","no","yes","768","legacy","25","11","C:/Users/stcka/OneDrive/Sam Docs/Psychology Program/AP Textbooks/Quantitative Methods/SA-subject-3.csv","legacy","4 6 5 8","Melodramatic Milgram","4.0.5","1","y","0","left","right","left","left","NA","804.0","10467","5925","804","NA","2","legacy","4","1024","2","48000","-16","experiment","3","odd","4","253361","250122","251158","2189","94911","251159","19315","2194","88985","255362","256167","252160","12662","255362","NA","Sternberg task","37","38808.0","38","1024"
"97","97","1008","1008","#3d3846","experiment","legacy","legacy","legacy","1","undefined","1","right","38","38","38","0","0","38","38","0","0","38","38","38","0","38","0","Tue Oct 17 09:17:19 2023","The main experiment item","False","Sternbergtask.osexp","C:\Users\stcka\OneDrive\Sam Docs\Psychology Program\AP Textbooks\Quantitative Methods","False","mono","False","18","no","white","no","yes","768","legacy","26","11","C:/Users/stcka/OneDrive/Sam Docs/Psychology Program/AP Textbooks/Quantitative Methods/SA-subject-3.csv","legacy","4 8 1 2","Melodramatic Milgram","4.0.5","0","n","0","right","right","left","right","NA","514.0","10467","5925","514","NA","2","legacy","4","1024","2","48000","-16","experiment","3","odd","7","259418","256173","257214","2189","94911","257215","19315","2194","88985","261420","261935","258216","12662","261419","NA","Sternberg task","38","39322.0","39","1024"
"97","97","995","995","#3d3846","experiment","legacy","legacy","legacy","1","undefined","1","right","39","39","39","0","0","39","39","0","0","39","39","39","0","39","0","Tue Oct 17 09:17:19 2023","The main experiment item","False","Sternbergtask.osexp","C:\Users\stcka\OneDrive\Sam Docs\Psychology Program\AP Textbooks\Quantitative Methods","False","mono","False","18","no","white","no","yes","768","legacy","27","11","C:/Users/stcka/OneDrive/Sam Docs/Psychology Program/AP Textbooks/Quantitative Methods/SA-subject-3.csv","legacy","1 6 4","Melodramatic Milgram","4.0.5","0","n","0","right","right","left","right","NA","488.0","10467","5925","488","NA","2","legacy","3","1024","2","48000","-16","experiment","3","odd","7","265188","261939","262985","2189","94911","262986","19315","2194","88985","267189","267678","263987","12662","267189","NA","Sternberg task","39","39810.0","40","1024"
"97","97","986","986","#3d3846","experiment","legacy","legacy","legacy","1","undefined","1","right","40","40","40","0","0","40","40","0","0","40","40","40","0","40","0","Tue Oct 17 09:17:19 2023","The main experiment item","False","Sternbergtask.osexp","C:\Users\stcka\OneDrive\Sam Docs\Psychology Program\AP Textbooks\Quantitative Methods","False","mono","False","18","no","white","no","yes","768","legacy","28","11","C:/Users/stcka/OneDrive/Sam Docs/Psychology Program/AP Textbooks/Quantitative Methods/SA-subject-3.csv","legacy","1 7 8 3 9","Melodramatic Milgram","4.0.5","0","n","0","right","right","left","right","NA","652.0","10467","5925","652","NA","2","legacy","5","1024","2","48000","-16","experiment","3","odd","2","270920","267682","268717","2189","94911","268719","19315","2194","88985","272921","273574","269720","12662","272921","NA","Sternberg task","40","40462.0","41","1024"
"97","97","994","994","#3d3846","experiment","legacy","legacy","legacy","1","undefined","1","left","41","41","41","0","0","41","41","0","0","41","41","41","0","41","0","Tue Oct 17 09:17:19 2023","The main experiment item","False","Sternbergtask.osexp","C:\Users\stcka\OneDrive\Sam Docs\Psychology Program\AP Textbooks\Quantitative Methods","False","mono","False","18","no","white","no","yes","768","legacy","29","11","C:/Users/stcka/OneDrive/Sam Docs/Psychology Program/AP Textbooks/Quantitative Methods/SA-subject-3.csv","legacy","8 1 6","Melodramatic Milgram","4.0.5","3","y","0","left","right","left","left","NA","1286.0","10467","5925","1286","NA","2","legacy","3","1024","2","48000","-16","experiment","3","odd","6","276805","273578","274601","2189","94911","274602","19315","2194","88985","278806","280093","275604","12662","278806","NA","Sternberg task","41","41748.0","42","1024"
"97","97","988","988","#3d3846","experiment","legacy","legacy","legacy","1","undefined","1","right","42","42","42","0","0","42","42","0","0","42","42","42","0","42","0","Tue Oct 17 09:17:19 2023","The main experiment item","False","Sternbergtask.osexp","C:\Users\stcka\OneDrive\Sam Docs\Psychology Program\AP Textbooks\Quantitative Methods","False","mono","False","18","no","white","no","yes","768","legacy","30","11","C:/Users/stcka/OneDrive/Sam Docs/Psychology Program/AP Textbooks/Quantitative Methods/SA-subject-3.csv","legacy","5 9 2 3","Melodramatic Milgram","4.0.5","0","n","0","right","right","left","right","NA","776.0","10467","5925","776","NA","2","legacy","4","1024","2","48000","-16","experiment","3","odd","8","283335","280098","281131","2189","94911","281132","19315","2194","88985","285336","286113","282133","12662","285336","NA","Sternberg task","42","42524.0","43","1024"
"97","97","984","984","#3d3846","experiment","legacy","legacy","legacy","1","undefined","1","right","43","43","43","0","0","43","43","0","0","43","43","43","0","43","0","Tue Oct 17 09:17:19 2023","The main experiment item","False","Sternbergtask.osexp","C:\Users\stcka\OneDrive\Sam Docs\Psychology Program\AP Textbooks\Quantitative Methods","False","mono","False","18","no","white","no","yes","768","legacy","31","11","C:/Users/stcka/OneDrive/Sam Docs/Psychology Program/AP Textbooks/Quantitative Methods/SA-subject-3.csv","legacy","8 9","Melodramatic Milgram","4.0.5","0","n","0","right","right","left","right","NA","810.0","10467","5925","810","NA","2","legacy","2","1024","2","48000","-16","experiment","3","odd","5","289365","286118","287161","2189","94911","287162","19315","2194","88985","291366","292177","288163","12662","291366","NA","Sternberg task","43","43334.0","44","1024"
"95","95","980","980","#3d3846","experiment","legacy","legacy","legacy","0","undefined","0","right","44","44","44","0","0","44","44","0","0","44","44","44","0","44","0","Tue Oct 17 09:17:19 2023","The main experiment item","False","Sternbergtask.osexp","C:\Users\stcka\OneDrive\Sam Docs\Psychology Program\AP Textbooks\Quantitative Methods","False","mono","False","18","no","white","no","yes","768","legacy","32","11","C:/Users/stcka/OneDrive/Sam Docs/Psychology Program/AP Textbooks/Quantitative Methods/SA-subject-3.csv","legacy","3 9 8 1 6 4","Melodramatic Milgram","4.0.5","0","n","0","left","right","left","left","NA","788.0","10467","5925","788","NA","2","legacy","6","1024","2","48000","-16","experiment","3","odd","7","295412","292182","293209","2189","94911","293210","19315","2194","88985","297413","298201","294211","12662","297413","NA","Sternberg task","43","44122.0","45","1024"
"95","95","978","978","#3d3846","experiment","legacy","legacy","legacy","1","undefined","1","left","45","45","45","0","0","45","45","0","0","45","45","45","0","45","0","Tue Oct 17 09:17:19 2023","The main experiment item","False","Sternbergtask.osexp","C:\Users\stcka\OneDrive\Sam Docs\Psychology Program\AP Textbooks\Quantitative Methods","False","mono","False","18","no","white","no","yes","768","legacy","33","11","C:/Users/stcka/OneDrive/Sam Docs/Psychology Program/AP Textbooks/Quantitative Methods/SA-subject-3.csv","legacy","4 6 2 5 1","Melodramatic Milgram","4.0.5","5","y","0","left","right","left","left","NA","890.0","10467","5925","890","NA","2","legacy","5","1024","2","48000","-16","experiment","3","odd","1","301443","292182","299238","2189","94911","299239","298207","2194","88985","303444","304334","300241","12662","303444","NA","Sternberg task","44","45012.0","46","1024"
"95","95","981","981","#3d3846","experiment","legacy","legacy","legacy","1","undefined","1","left","46","46","46","0","0","46","46","0","0","46","46","46","0","46","0","Tue Oct 17 09:17:19 2023","The main experiment item","False","Sternbergtask.osexp","C:\Users\stcka\OneDrive\Sam Docs\Psychology Program\AP Textbooks\Quantitative Methods","False","mono","False","18","no","white","no","yes","768","legacy","34","11","C:/Users/stcka/OneDrive/Sam Docs/Psychology Program/AP Textbooks/Quantitative Methods/SA-subject-3.csv","legacy","8","Melodramatic Milgram","4.0.5","1","y","0","left","right","left","left","NA","1114.0","10467","5925","1114","NA","2","legacy","1","1024","2","48000","-16","experiment","3","odd","8","307580","304340","305376","2189","94911","305378","298207","2194","88985","309580","310695","306379","12662","309580","NA","Sternberg task","45","46126.0","47","1024"
"95","95","975","975","#3d3846","experiment","legacy","legacy","legacy","1","undefined","1","right","47","47","47","0","0","47","47","0","0","47","47","47","0","47","0","Tue Oct 17 09:17:19 2023","The main experiment item","False","Sternbergtask.osexp","C:\Users\stcka\OneDrive\Sam Docs\Psychology Program\AP Textbooks\Quantitative Methods","False","mono","False","18","no","white","no","yes","768","legacy","35","11","C:/Users/stcka/OneDrive/Sam Docs/Psychology Program/AP Textbooks/Quantitative Methods/SA-subject-3.csv","legacy","9","Melodramatic Milgram","4.0.5","0","n","0","right","right","left","right","NA","715.0","10467","5925","715","NA","2","legacy","1","1024","2","48000","-16","experiment","3","odd","6","313938","310700","311735","2189","94911","311736","298207","2194","88985","315941","316656","312737","12662","315940","NA","Sternberg task","46","46841.0","48","1024"
"95","95","976","976","#3d3846","experiment","legacy","legacy","legacy","1","undefined","1","left","48","48","48","0","0","48","48","0","0","48","48","48","0","48","0","Tue Oct 17 09:17:19 2023","The main experiment item","False","Sternbergtask.osexp","C:\Users\stcka\OneDrive\Sam Docs\Psychology Program\AP Textbooks\Quantitative Methods","False","mono","False","18","no","white","no","yes","768","legacy","36","11","C:/Users/stcka/OneDrive/Sam Docs/Psychology Program/AP Textbooks/Quantitative Methods/SA-subject-3.csv","legacy","8 3","Melodramatic Milgram","4.0.5","2","y","0","left","right","left","left","NA","1001.0","10467","5925","1001","NA","2","legacy","2","1024","2","48000","-16","experiment","3","odd","3","319897","316661","317694","2189","94911","317695","298207","2194","88985","321898","322900","318696","12662","321898","NA","Sternberg task","47","47842.0","49","1024"
"96","96","988","988","#3d3846","experiment","legacy","legacy","legacy","1","undefined","1","right","49","49","49","0","0","49","49","0","0","49","49","49","0","49","0","Tue Oct 17 09:17:19 2023","The main experiment item","False","Sternbergtask.osexp","C:\Users\stcka\OneDrive\Sam Docs\Psychology Program\AP Textbooks\Quantitative Methods","False","mono","False","18","no","white","no","yes","768","legacy","37","11","C:/Users/stcka/OneDrive/Sam Docs/Psychology Program/AP Textbooks/Quantitative Methods/SA-subject-3.csv","legacy","6 7 5 9","Melodramatic Milgram","4.0.5","0","n","0","right","right","left","right","NA","1560.0","10467","5925","1560","NA","2","legacy","4","1024","2","48000","-16","experiment","3","odd","2","326145","322905","323941","2189","94911","323942","298207","2194","88985","328146","329707","324944","12662","328146","NA","Sternberg task","48","49402.0","50","1024"
"96","96","1003","1003","#3d3846","experiment","legacy","legacy","legacy","1","undefined","1","right","50","50","50","0","0","50","50","0","0","50","50","50","0","50","0","Tue Oct 17 09:17:19 2023","The main experiment item","False","Sternbergtask.osexp","C:\Users\stcka\OneDrive\Sam Docs\Psychology Program\AP Textbooks\Quantitative Methods","False","mono","False","18","no","white","no","yes","768","legacy","38","11","C:/Users/stcka/OneDrive/Sam Docs/Psychology Program/AP Textbooks/Quantitative Methods/SA-subject-3.csv","legacy","6 9 4 5 2","Melodramatic Milgram","4.0.5","0","n","0","right","right","left","right","NA","1787.0","10467","5925","1787","NA","2","legacy","5","1024","2","48000","-16","experiment","3","odd","1","332949","329711","330746","2189","94911","330747","298207","2194","88985","334950","336738","331748","12662","334950","NA","Sternberg task","49","51189.0","51","1024"
"96","96","1012","1012","#3d3846","experiment","legacy","legacy","legacy","1","undefined","1","right","51","51","51","0","0","51","51","0","0","51","51","51","0","51","0","Tue Oct 17 09:17:19 2023","The main experiment item","False","Sternbergtask.osexp","C:\Users\stcka\OneDrive\Sam Docs\Psychology Program\AP Textbooks\Quantitative Methods","False","mono","False","18","no","white","no","yes","768","legacy","39","11","C:/Users/stcka/OneDrive/Sam Docs/Psychology Program/AP Textbooks/Quantitative Methods/SA-subject-3.csv","legacy","2 5 1 4","Melodramatic Milgram","4.0.5","0","n","0","right","right","left","right","NA","1447.0","10467","5925","1447","NA","2","legacy","4","1024","2","48000","-16","experiment","3","odd","6","339980","336743","337777","2189","94911","337778","298207","2194","88985","341981","343429","338779","12662","341981","NA","Sternberg task","50","52636.0","52","1024"
"96","96","1022","1022","#3d3846","experiment","legacy","legacy","legacy","1","undefined","1","left","52","52","52","0","0","52","52","0","0","52","52","52","0","52","0","Tue Oct 17 09:17:19 2023","The main experiment item","False","Sternbergtask.osexp","C:\Users\stcka\OneDrive\Sam Docs\Psychology Program\AP Textbooks\Quantitative Methods","False","mono","False","18","no","white","no","yes","768","legacy","40","11","C:/Users/stcka/OneDrive/Sam Docs/Psychology Program/AP Textbooks/Quantitative Methods/SA-subject-3.csv","legacy","7 8 4 6 9 5","Melodramatic Milgram","4.0.5","4","y","0","left","right","left","left","NA","1538.0","10467","5925","1538","NA","2","legacy","6","1024","2","48000","-16","experiment","3","odd","6","346671","343434","344468","2189","94911","344469","298207","2194","88985","348672","350211","345470","12662","348672","NA","Sternberg task","51","54174.0","53","1024"
"94","94","1012","1012","#3d3846","experiment","legacy","legacy","legacy","0","undefined","0","left","53","53","53","0","0","53","53","0","0","53","53","53","0","53","0","Tue Oct 17 09:17:19 2023","The main experiment item","False","Sternbergtask.osexp","C:\Users\stcka\OneDrive\Sam Docs\Psychology Program\AP Textbooks\Quantitative Methods","False","mono","False","18","no","white","no","yes","768","legacy","41","11","C:/Users/stcka/OneDrive/Sam Docs/Psychology Program/AP Textbooks/Quantitative Methods/SA-subject-3.csv","legacy","6 9 7 4 5 1","Melodramatic Milgram","4.0.5","2","y","0","right","right","left","right","NA","480.0","10467","5925","480","NA","2","legacy","6","1024","2","48000","-16","experiment","3","odd","9","353463","350217","351260","2189","94911","351261","298207","2194","88985","355464","355945","352262","12662","355464","NA","Sternberg task","51","54654.0","54","1024"
"94","94","1015","1015","#3d3846","experiment","legacy","legacy","legacy","1","undefined","1","right","54","54","54","0","0","54","54","0","0","54","54","54","0","54","0","Tue Oct 17 09:17:19 2023","The main experiment item","False","Sternbergtask.osexp","C:\Users\stcka\OneDrive\Sam Docs\Psychology Program\AP Textbooks\Quantitative Methods","False","mono","False","18","no","white","no","yes","768","legacy","42","11","C:/Users/stcka/OneDrive/Sam Docs/Psychology Program/AP Textbooks/Quantitative Methods/SA-subject-3.csv","legacy","5 3 8 7 2 4","Melodramatic Milgram","4.0.5","0","n","0","right","right","left","right","NA","1198.0","10467","5925","1198","NA","2","legacy","6","1024","2","48000","-16","experiment","3","odd","9","359175","350217","356972","2189","94911","356973","355950","2194","88985","361176","362375","357974","12662","361176","NA","Sternberg task","52","55852.0","55","1024"
"94","94","1009","1009","#3d3846","experiment","legacy","legacy","legacy","1","undefined","1","right","55","55","55","0","0","55","55","0","0","55","55","55","0","55","0","Tue Oct 17 09:17:19 2023","The main experiment item","False","Sternbergtask.osexp","C:\Users\stcka\OneDrive\Sam Docs\Psychology Program\AP Textbooks\Quantitative Methods","False","mono","False","18","no","white","no","yes","768","legacy","43","11","C:/Users/stcka/OneDrive/Sam Docs/Psychology Program/AP Textbooks/Quantitative Methods/SA-subject-3.csv","legacy","1 4 9 2 5","Melodramatic Milgram","4.0.5","0","n","0","right","right","left","right","NA","658.0","10467","5925","658","NA","2","legacy","5","1024","2","48000","-16","experiment","3","odd","7","365619","362381","363417","2189","94911","363417","355950","2194","88985","367621","368280","364418","12662","367621","NA","Sternberg task","53","56510.0","56","1024"
"94","94","1011","1011","#3d3846","experiment","legacy","legacy","legacy","1","undefined","1","left","56","56","56","0","0","56","56","0","0","56","56","56","0","56","0","Tue Oct 17 09:17:19 2023","The main experiment item","False","Sternbergtask.osexp","C:\Users\stcka\OneDrive\Sam Docs\Psychology Program\AP Textbooks\Quantitative Methods","False","mono","False","18","no","white","no","yes","768","legacy","44","11","C:/Users/stcka/OneDrive/Sam Docs/Psychology Program/AP Textbooks/Quantitative Methods/SA-subject-3.csv","legacy","7 2 3","Melodramatic Milgram","4.0.5","3","y","0","left","right","left","left","NA","1141.0","10467","5925","1141","NA","2","legacy","3","1024","2","48000","-16","experiment","3","odd","3","371524","368285","369320","2189","94911","369321","355950","2194","88985","373525","374666","370322","12662","373525","NA","Sternberg task","54","57651.0","57","1024"
"94","94","1021","1021","#3d3846","experiment","legacy","legacy","legacy","1","undefined","1","left","57","57","57","0","0","57","57","0","0","57","57","57","0","57","0","Tue Oct 17 09:17:19 2023","The main experiment item","False","Sternbergtask.osexp","C:\Users\stcka\OneDrive\Sam Docs\Psychology Program\AP Textbooks\Quantitative Methods","False","mono","False","18","no","white","no","yes","768","legacy","45","11","C:/Users/stcka/OneDrive/Sam Docs/Psychology Program/AP Textbooks/Quantitative Methods/SA-subject-3.csv","legacy","4 1 5","Melodramatic Milgram","4.0.5","2","y","0","left","right","left","left","NA","1602.0","10467","5925","1602","NA","2","legacy","3","1024","2","48000","-16","experiment","3","odd","1","377917","374671","375712","2189","94911","375714","355950","2194","88985","379919","381522","376716","12662","379919","NA","Sternberg task","55","59253.0","58","1024"
"94","94","1017","1017","#3d3846","experiment","legacy","legacy","legacy","1","undefined","1","left","58","58","58","0","0","58","58","0","0","58","58","58","0","58","0","Tue Oct 17 09:17:19 2023","The main experiment item","False","Sternbergtask.osexp","C:\Users\stcka\OneDrive\Sam Docs\Psychology Program\AP Textbooks\Quantitative Methods","False","mono","False","18","no","white","no","yes","768","legacy","46","11","C:/Users/stcka/OneDrive/Sam Docs/Psychology Program/AP Textbooks/Quantitative Methods/SA-subject-3.csv","legacy","6 2","Melodramatic Milgram","4.0.5","1","y","0","left","right","left","left","NA","755.0","10467","5925","755","NA","2","legacy","2","1024","2","48000","-16","experiment","3","odd","6","384762","381527","382560","2189","94911","382560","355950","2194","88985","386764","387520","383561","12662","386764","NA","Sternberg task","56","60008.0","59","1024"
"95","95","1014","1014","#3d3846","experiment","legacy","legacy","legacy","1","undefined","1","right","59","59","59","0","0","59","59","0","0","59","59","59","0","59","0","Tue Oct 17 09:17:19 2023","The main experiment item","False","Sternbergtask.osexp","C:\Users\stcka\OneDrive\Sam Docs\Psychology Program\AP Textbooks\Quantitative Methods","False","mono","False","18","no","white","no","yes","768","legacy","47","11","C:/Users/stcka/OneDrive/Sam Docs/Psychology Program/AP Textbooks/Quantitative Methods/SA-subject-3.csv","legacy","9 5 3 2 8 6","Melodramatic Milgram","4.0.5","0","n","0","right","right","left","right","NA","858.0","10467","5925","858","NA","2","legacy","6","1024","2","48000","-16","experiment","3","odd","7","390766","387524","388561","2189","94911","388563","355950","2194","88985","392767","393626","389564","12662","392767","NA","Sternberg task","57","60866.0","60","1024"
"95","95","1010","1010","#3d3846","experiment","legacy","legacy","legacy","1","undefined","1","left","60","60","60","0","0","60","60","0","0","60","60","60","0","60","0","Tue Oct 17 09:17:19 2023","The main experiment item","False","Sternbergtask.osexp","C:\Users\stcka\OneDrive\Sam Docs\Psychology Program\AP Textbooks\Quantitative Methods","False","mono","False","18","no","white","no","yes","768","legacy","48","11","C:/Users/stcka/OneDrive/Sam Docs/Psychology Program/AP Textbooks/Quantitative Methods/SA-subject-3.csv","legacy","9 5 3 8 4","Melodramatic Milgram","4.0.5","1","y","0","left","right","left","left","NA","788.0","10467","5925","788","NA","2","legacy","5","1024","2","48000","-16","experiment","3","odd","9","396853","393629","394650","2189","94911","394651","355950","2194","88985","398854","399643","395652","12662","398854","NA","Sternberg task","58","61654.0","61","1024"
"95","95","1011","1011","#3d3846","experiment","legacy","legacy","legacy","1","undefined","1","left","61","61","61","0","0","61","61","0","0","61","61","61","0","61","0","Tue Oct 17 09:17:19 2023","The main experiment item","False","Sternbergtask.osexp","C:\Users\stcka\OneDrive\Sam Docs\Psychology Program\AP Textbooks\Quantitative Methods","False","mono","False","18","no","white","no","yes","768","legacy","49","11","C:/Users/stcka/OneDrive/Sam Docs/Psychology Program/AP Textbooks/Quantitative Methods/SA-subject-3.csv","legacy","5 7 3 6 2","Melodramatic Milgram","4.0.5","5","y","0","left","right","left","left","NA","1044.0","10467","5925","1044","NA","2","legacy","5","1024","2","48000","-16","experiment","3","odd","2","402892","399647","400687","2189","94911","400689","355950","2194","88985","404893","405939","401691","12662","404893","NA","Sternberg task","59","62698.0","62","1024"
"93","93","1016","1016","#3d3846","experiment","legacy","legacy","legacy","0","undefined","0","left","62","62","62","0","0","62","62","0","0","62","62","62","0","62","0","Tue Oct 17 09:17:19 2023","The main experiment item","False","Sternbergtask.osexp","C:\Users\stcka\OneDrive\Sam Docs\Psychology Program\AP Textbooks\Quantitative Methods","False","mono","False","18","no","white","no","yes","768","legacy","50","11","C:/Users/stcka/OneDrive/Sam Docs/Psychology Program/AP Textbooks/Quantitative Methods/SA-subject-3.csv","legacy","7","Melodramatic Milgram","4.0.5","1","y","0","right","right","left","right","NA","1344.0","10467","5925","1344","NA","2","legacy","1","1024","2","48000","-16","experiment","3","odd","7","409180","405944","406977","2189","94911","406979","355950","2194","88985","411182","412526","407979","12662","411182","NA","Sternberg task","59","64042.0","63","1024"
"93","93","1018","1018","#3d3846","experiment","legacy","legacy","legacy","1","undefined","1","right","63","63","63","0","0","63","63","0","0","63","63","63","0","63","0","Tue Oct 17 09:17:19 2023","The main experiment item","False","Sternbergtask.osexp","C:\Users\stcka\OneDrive\Sam Docs\Psychology Program\AP Textbooks\Quantitative Methods","False","mono","False","18","no","white","no","yes","768","legacy","51","11","C:/Users/stcka/OneDrive/Sam Docs/Psychology Program/AP Textbooks/Quantitative Methods/SA-subject-3.csv","legacy","7 4 2 8 1 9","Melodramatic Milgram","4.0.5","0","n","0","right","right","left","right","NA","1168.0","10467","5925","1168","NA","2","legacy","6","1024","2","48000","-16","experiment","3","odd","5","415760","405944","413557","2189","94911","413558","412531","2194","88985","417761","418930","414559","12662","417761","NA","Sternberg task","60","65210.0","64","1024"
"92","92","1034","1034","#3d3846","experiment","legacy","legacy","legacy","0","undefined","0","left","64","64","64","0","0","64","64","0","0","64","64","64","0","64","0","Tue Oct 17 09:17:19 2023","The main experiment item","False","Sternbergtask.osexp","C:\Users\stcka\OneDrive\Sam Docs\Psychology Program\AP Textbooks\Quantitative Methods","False","mono","False","18","no","white","no","yes","768","legacy","52","11","C:/Users/stcka/OneDrive/Sam Docs/Psychology Program/AP Textbooks/Quantitative Methods/SA-subject-3.csv","legacy","3 9 7 6 4","Melodramatic Milgram","4.0.5","3","y","0","None","right","left","None","NA","2000.0","10467","5925","2000","NA","2","legacy","5","1024","2","48000","-16","experiment","3","odd","7","422176","418935","419971","2189","94911","419973","412531","2194","88985","424178","426178","420974","12662","424178","NA","Sternberg task","60","67210.0","65","1024"
"92","92","1034","1034","#3d3846","experiment","legacy","legacy","legacy","1","undefined","1","left","65","65","65","0","0","65","65","0","0","65","65","65","0","65","0","Tue Oct 17 09:17:19 2023","The main experiment item","False","Sternbergtask.osexp","C:\Users\stcka\OneDrive\Sam Docs\Psychology Program\AP Textbooks\Quantitative Methods","False","mono","False","18","no","white","no","yes","768","legacy","53","11","C:/Users/stcka/OneDrive/Sam Docs/Psychology Program/AP Textbooks/Quantitative Methods/SA-subject-3.csv","legacy","8 5 4 7 3 1","Melodramatic Milgram","4.0.5","2","y","0","left","right","left","left","NA","1050.0","10467","5925","1050","NA","2","legacy","6","1024","2","48000","-16","experiment","3","odd","5","429433","418935","427230","2189","94911","427231","426183","2194","88985","431434","432485","428232","12662","431434","NA","Sternberg task","61","68260.0","66","1024"
"92","92","1041","1041","#3d3846","experiment","legacy","legacy","legacy","1","undefined","1","left","66","66","66","0","0","66","66","0","0","66","66","66","0","66","0","Tue Oct 17 09:17:19 2023","The main experiment item","False","Sternbergtask.osexp","C:\Users\stcka\OneDrive\Sam Docs\Psychology Program\AP Textbooks\Quantitative Methods","False","mono","False","18","no","white","no","yes","768","legacy","54","11","C:/Users/stcka/OneDrive/Sam Docs/Psychology Program/AP Textbooks/Quantitative Methods/SA-subject-3.csv","legacy","4 1 8 7 5","Melodramatic Milgram","4.0.5","3","y","0","left","right","left","left","NA","1498.0","10467","5925","1498","NA","2","legacy","5","1024","2","48000","-16","experiment","3","odd","8","435727","432489","433524","2189","94911","433525","426183","2194","88985","437728","439226","434526","12662","437728","NA","Sternberg task","62","69758.0","67","1024"
"92","92","1040","1040","#3d3846","experiment","legacy","legacy","legacy","1","undefined","1","left","67","67","67","0","0","67","67","0","0","67","67","67","0","67","0","Tue Oct 17 09:17:19 2023","The main experiment item","False","Sternbergtask.osexp","C:\Users\stcka\OneDrive\Sam Docs\Psychology Program\AP Textbooks\Quantitative Methods","False","mono","False","18","no","white","no","yes","768","legacy","55","11","C:/Users/stcka/OneDrive/Sam Docs/Psychology Program/AP Textbooks/Quantitative Methods/SA-subject-3.csv","legacy","3 4 9 6 2 9","Melodramatic Milgram","4.0.5","5","y","0","left","right","left","left","NA","978.0","10467","5925","978","NA","2","legacy","6","1024","2","48000","-16","experiment","3","odd","2","442470","439231","440266","2189","94911","440268","426183","2194","88985","444471","445450","441269","12662","444471","NA","Sternberg task","63","70736.0","68","1024"
"92","92","1036","1036","#3d3846","experiment","legacy","legacy","legacy","1","undefined","1","left","68","68","68","0","0","68","68","0","0","68","68","68","0","68","0","Tue Oct 17 09:17:19 2023","The main experiment item","False","Sternbergtask.osexp","C:\Users\stcka\OneDrive\Sam Docs\Psychology Program\AP Textbooks\Quantitative Methods","False","mono","False","18","no","white","no","yes","768","legacy","56","11","C:/Users/stcka/OneDrive/Sam Docs/Psychology Program/AP Textbooks/Quantitative Methods/SA-subject-3.csv","legacy","4","Melodramatic Milgram","4.0.5","1","y","0","left","right","left","left","NA","779.0","10467","5925","779","NA","2","legacy","1","1024","2","48000","-16","experiment","3","odd","4","448688","445455","446484","2189","94911","446486","426183","2194","88985","450690","451470","447487","12662","450689","NA","Sternberg task","64","71515.0","69","1024"
"92","92","1036","1036","#3d3846","experiment","legacy","legacy","legacy","1","undefined","1","left","69","69","69","0","0","69","69","0","0","69","69","69","0","69","0","Tue Oct 17 09:17:19 2023","The main experiment item","False","Sternbergtask.osexp","C:\Users\stcka\OneDrive\Sam Docs\Psychology Program\AP Textbooks\Quantitative Methods","False","mono","False","18","no","white","no","yes","768","legacy","57","11","C:/Users/stcka/OneDrive/Sam Docs/Psychology Program/AP Textbooks/Quantitative Methods/SA-subject-3.csv","legacy","8 9 5 6 7","Melodramatic Milgram","4.0.5","1","y","0","left","right","left","left","NA","1053.0","10467","5925","1053","NA","2","legacy","5","1024","2","48000","-16","experiment","3","odd","8","454701","451474","452498","2189","94911","452499","426183","2194","88985","456703","457757","453500","12662","456703","NA","Sternberg task","65","72568.0","70","1024"
"92","92","1040","1040","#3d3846","experiment","legacy","legacy","legacy","1","undefined","1","left","70","70","70","0","0","70","70","0","0","70","70","70","0","70","0","Tue Oct 17 09:17:19 2023","The main experiment item","False","Sternbergtask.osexp","C:\Users\stcka\OneDrive\Sam Docs\Psychology Program\AP Textbooks\Quantitative Methods","False","mono","False","18","no","white","no","yes","768","legacy","58","11","C:/Users/stcka/OneDrive/Sam Docs/Psychology Program/AP Textbooks/Quantitative Methods/SA-subject-3.csv","legacy","5 7 8 2 3 8","Melodramatic Milgram","4.0.5","5","y","0","left","right","left","left","NA","1276.0","10467","5925","1276","NA","2","legacy","6","1024","2","48000","-16","experiment","3","odd","3","461002","457762","458799","2189","94911","458800","426183","2194","88985","463003","464280","459801","12662","463003","NA","Sternberg task","66","73844.0","71","1024"
"93","93","1042","1042","#3d3846","experiment","legacy","legacy","legacy","1","undefined","1","left","71","71","71","0","0","71","71","0","0","71","71","71","0","71","0","Tue Oct 17 09:17:19 2023","The main experiment item","False","Sternbergtask.osexp","C:\Users\stcka\OneDrive\Sam Docs\Psychology Program\AP Textbooks\Quantitative Methods","False","mono","False","18","no","white","no","yes","768","legacy","59","11","C:/Users/stcka/OneDrive/Sam Docs/Psychology Program/AP Textbooks/Quantitative Methods/SA-subject-3.csv","legacy","8 9 5 7 1 6","Melodramatic Milgram","4.0.5","4","y","0","left","right","left","left","NA","1224.0","10467","5925","1224","NA","2","legacy","6","1024","2","48000","-16","experiment","3","odd","7","467524","464285","465320","2189","94911","465321","426183","2194","88985","469525","470751","466322","12662","469525","NA","Sternberg task","67","75068.0","72","1024"
"93","93","1042","1042","#3d3846","experiment","legacy","legacy","legacy","1","undefined","1","right","72","72","72","0","0","72","72","0","0","72","72","72","0","72","0","Tue Oct 17 09:17:19 2023","The main experiment item","False","Sternbergtask.osexp","C:\Users\stcka\OneDrive\Sam Docs\Psychology Program\AP Textbooks\Quantitative Methods","False","mono","False","18","no","white","no","yes","768","legacy","60","11","C:/Users/stcka/OneDrive/Sam Docs/Psychology Program/AP Textbooks/Quantitative Methods/SA-subject-3.csv","legacy","9 8 2 7 4","Melodramatic Milgram","4.0.5","0","n","0","right","right","left","right","NA","1020.0","10467","5925","1020","NA","2","legacy","5","1024","2","48000","-16","experiment","3","odd","5","473994","470756","471792","2189","94911","471792","426183","2194","88985","475995","477016","472793","12662","475995","NA","Sternberg task","68","76088.0","73","1024"
"93","93","1042","1042","#3d3846","experiment","legacy","legacy","legacy","1","undefined","1","left","73","73","73","0","0","73","73","0","0","73","73","73","0","73","0","Tue Oct 17 09:17:19 2023","The main experiment item","False","Sternbergtask.osexp","C:\Users\stcka\OneDrive\Sam Docs\Psychology Program\AP Textbooks\Quantitative Methods","False","mono","False","18","no","white","no","yes","768","legacy","61","11","C:/Users/stcka/OneDrive/Sam Docs/Psychology Program/AP Textbooks/Quantitative Methods/SA-subject-3.csv","legacy","3 4","Melodramatic Milgram","4.0.5","1","y","0","left","right","left","left","NA","1044.0","10467","5925","1044","NA","2","legacy","2","1024","2","48000","-16","experiment","3","odd","3","480262","477021","478060","2189","94911","478061","426183","2194","88985","482263","483308","479061","12662","482263","NA","Sternberg task","69","77132.0","74","1024"
"92","92","1055","1055","#3d3846","experiment","legacy","legacy","legacy","0","undefined","0","right","74","74","74","0","0","74","74","0","0","74","74","74","0","74","0","Tue Oct 17 09:17:19 2023","The main experiment item","False","Sternbergtask.osexp","C:\Users\stcka\OneDrive\Sam Docs\Psychology Program\AP Textbooks\Quantitative Methods","False","mono","False","18","no","white","no","yes","768","legacy","62","11","C:/Users/stcka/OneDrive/Sam Docs/Psychology Program/AP Textbooks/Quantitative Methods/SA-subject-3.csv","legacy","4 2 7 6 1 3","Melodramatic Milgram","4.0.5","0","n","0","None","right","left","None","NA","2000.0","10467","5925","2000","NA","2","legacy","6","1024","2","48000","-16","experiment","3","odd","8","486562","483322","484358","2189","94911","484359","426183","2194","88985","488563","490563","485360","12662","488563","NA","Sternberg task","69","79132.0","75","1024"
"92","92","1052","1052","#3d3846","experiment","legacy","legacy","legacy","1","undefined","1","left","75","75","75","0","0","75","75","0","0","75","75","75","0","75","0","Tue Oct 17 09:17:19 2023","The main experiment item","False","Sternbergtask.osexp","C:\Users\stcka\OneDrive\Sam Docs\Psychology Program\AP Textbooks\Quantitative Methods","False","mono","False","18","no","white","no","yes","768","legacy","63","11","C:/Users/stcka/OneDrive/Sam Docs/Psychology Program/AP Textbooks/Quantitative Methods/SA-subject-3.csv","legacy","9 3 8 2 1 4","Melodramatic Milgram","4.0.5","3","y","0","left","right","left","left","NA","874.0","10467","5925","874","NA","2","legacy","6","1024","2","48000","-16","experiment","3","odd","8","493807","483322","491604","2189","94911","491605","490568","2194","88985","495809","496684","492606","12662","495809","NA","Sternberg task","70","80006.0","76","1024"
"92","92","1052","1052","#3d3846","experiment","legacy","legacy","legacy","1","undefined","1","right","76","76","76","0","0","76","76","0","0","76","76","76","0","76","0","Tue Oct 17 09:17:19 2023","The main experiment item","False","Sternbergtask.osexp","C:\Users\stcka\OneDrive\Sam Docs\Psychology Program\AP Textbooks\Quantitative Methods","False","mono","False","18","no","white","no","yes","768","legacy","64","11","C:/Users/stcka/OneDrive/Sam Docs/Psychology Program/AP Textbooks/Quantitative Methods/SA-subject-3.csv","legacy","3 4 2","Melodramatic Milgram","4.0.5","0","n","0","right","right","left","right","NA","1070.0","10467","5925","1070","NA","2","legacy","3","1024","2","48000","-16","experiment","3","odd","5","499933","496690","497729","2189","94911","497730","490568","2194","88985","501934","503005","498732","12662","501934","NA","Sternberg task","71","81076.0","77","1024"
"92","92","1051","1051","#3d3846","experiment","legacy","legacy","legacy","1","undefined","1","right","77","77","77","0","0","77","77","0","0","77","77","77","0","77","0","Tue Oct 17 09:17:19 2023","The main experiment item","False","Sternbergtask.osexp","C:\Users\stcka\OneDrive\Sam Docs\Psychology Program\AP Textbooks\Quantitative Methods","False","mono","False","18","no","white","no","yes","768","legacy","65","11","C:/Users/stcka/OneDrive/Sam Docs/Psychology Program/AP Textbooks/Quantitative Methods/SA-subject-3.csv","legacy","4 2 6 9","Melodramatic Milgram","4.0.5","0","n","0","right","right","left","right","NA","919.0","10467","5925","919","NA","2","legacy","4","1024","2","48000","-16","experiment","3","odd","7","506250","503011","504047","2189","94911","504048","490568","2194","88985","508251","509171","505049","12662","508251","NA","Sternberg task","72","81995.0","78","1024"
"92","92","1049","1049","#3d3846","experiment","legacy","legacy","legacy","1","undefined","1","right","78","78","78","0","0","78","78","0","0","78","78","78","0","78","0","Tue Oct 17 09:17:19 2023","The main experiment item","False","Sternbergtask.osexp","C:\Users\stcka\OneDrive\Sam Docs\Psychology Program\AP Textbooks\Quantitative Methods","False","mono","False","18","no","white","no","yes","768","legacy","66","11","C:/Users/stcka/OneDrive/Sam Docs/Psychology Program/AP Textbooks/Quantitative Methods/SA-subject-3.csv","legacy","7 8 6 1","Melodramatic Milgram","4.0.5","0","n","0","right","right","left","right","NA","917.0","10467","5925","917","NA","2","legacy","4","1024","2","48000","-16","experiment","3","odd","3","512414","509175","510211","2189","94911","510211","490568","2194","88985","514415","515333","511212","12662","514415","NA","Sternberg task","73","82912.0","79","1024"
"91","91","1061","1061","#3d3846","experiment","legacy","legacy","legacy","0","undefined","0","left","79","79","79","0","0","79","79","0","0","79","79","79","0","79","0","Tue Oct 17 09:17:19 2023","The main experiment item","False","Sternbergtask.osexp","C:\Users\stcka\OneDrive\Sam Docs\Psychology Program\AP Textbooks\Quantitative Methods","False","mono","False","18","no","white","no","yes","768","legacy","67","11","C:/Users/stcka/OneDrive/Sam Docs/Psychology Program/AP Textbooks/Quantitative Methods/SA-subject-3.csv","legacy","9 4 2","Melodramatic Milgram","4.0.5","1","y","0","None","right","left","None","NA","2000.0","10467","5925","2000","NA","2","legacy","3","1024","2","48000","-16","experiment","3","odd","9","518575","515336","516372","2189","94911","516373","490568","2194","88985","520576","522576","517374","12662","520576","NA","Sternberg task","73","84912.0","80","1024"
"91","91","1062","1062","#3d3846","experiment","legacy","legacy","legacy","1","undefined","1","left","80","80","80","0","0","80","80","0","0","80","80","80","0","80","0","Tue Oct 17 09:17:19 2023","The main experiment item","False","Sternbergtask.osexp","C:\Users\stcka\OneDrive\Sam Docs\Psychology Program\AP Textbooks\Quantitative Methods","False","mono","False","18","no","white","no","yes","768","legacy","68","11","C:/Users/stcka/OneDrive/Sam Docs/Psychology Program/AP Textbooks/Quantitative Methods/SA-subject-3.csv","legacy","8 5 1 3 9","Melodramatic Milgram","4.0.5","4","y","0","left","right","left","left","NA","1149.0","10467","5925","1149","NA","2","legacy","5","1024","2","48000","-16","experiment","3","odd","3","525822","515336","523619","2189","94911","523620","522581","2194","88985","527823","528974","524621","12662","527823","NA","Sternberg task","74","86061.0","81","1024"
"91","91","1062","1062","#3d3846","experiment","legacy","legacy","legacy","1","undefined","1","left","81","81","81","0","0","81","81","0","0","81","81","81","0","81","0","Tue Oct 17 09:17:19 2023","The main experiment item","False","Sternbergtask.osexp","C:\Users\stcka\OneDrive\Sam Docs\Psychology Program\AP Textbooks\Quantitative Methods","False","mono","False","18","no","white","no","yes","768","legacy","69","11","C:/Users/stcka/OneDrive/Sam Docs/Psychology Program/AP Textbooks/Quantitative Methods/SA-subject-3.csv","legacy","3 9 6 2","Melodramatic Milgram","4.0.5","4","y","0","left","right","left","left","NA","1071.0","10467","5925","1071","NA","2","legacy","4","1024","2","48000","-16","experiment","3","odd","2","532217","528979","530013","2189","94911","530014","522581","2194","88985","534218","535290","531015","12662","534218","NA","Sternberg task","75","87132.0","82","1024"
"91","91","1061","1061","#3d3846","experiment","legacy","legacy","legacy","1","undefined","1","right","82","82","82","0","0","82","82","0","0","82","82","82","0","82","0","Tue Oct 17 09:17:19 2023","The main experiment item","False","Sternbergtask.osexp","C:\Users\stcka\OneDrive\Sam Docs\Psychology Program\AP Textbooks\Quantitative Methods","False","mono","False","18","no","white","no","yes","768","legacy","70","11","C:/Users/stcka/OneDrive/Sam Docs/Psychology Program/AP Textbooks/Quantitative Methods/SA-subject-3.csv","legacy","7 9","Melodramatic Milgram","4.0.5","0","n","0","right","right","left","right","NA","936.0","10467","5925","936","NA","2","legacy","2","1024","2","48000","-16","experiment","3","odd","1","538527","535294","536324","2189","94911","536325","522581","2194","88985","540528","541466","537326","12662","540528","NA","Sternberg task","76","88068.0","83","1024"
"91","91","1058","1058","#3d3846","experiment","legacy","legacy","legacy","1","undefined","1","left","83","83","83","0","0","83","83","0","0","83","83","83","0","83","0","Tue Oct 17 09:17:19 2023","The main experiment item","False","Sternbergtask.osexp","C:\Users\stcka\OneDrive\Sam Docs\Psychology Program\AP Textbooks\Quantitative Methods","False","mono","False","18","no","white","no","yes","768","legacy","71","11","C:/Users/stcka/OneDrive/Sam Docs/Psychology Program/AP Textbooks/Quantitative Methods/SA-subject-3.csv","legacy","4 3 2 5 8","Melodramatic Milgram","4.0.5","2","y","0","left","right","left","left","NA","872.0","10467","5925","872","NA","2","legacy","5","1024","2","48000","-16","experiment","3","odd","3","544716","541471","542513","2189","94911","542514","522581","2194","88985","546717","547590","543515","12662","546717","NA","Sternberg task","77","88940.0","84","1024"
"91","91","1056","1056","#3d3846","experiment","legacy","legacy","legacy","1","undefined","1","left","84","84","84","0","0","84","84","0","0","84","84","84","0","84","0","Tue Oct 17 09:17:19 2023","The main experiment item","False","Sternbergtask.osexp","C:\Users\stcka\OneDrive\Sam Docs\Psychology Program\AP Textbooks\Quantitative Methods","False","mono","False","18","no","white","no","yes","768","legacy","72","11","C:/Users/stcka/OneDrive/Sam Docs/Psychology Program/AP Textbooks/Quantitative Methods/SA-subject-3.csv","legacy","2 3 7 4","Melodramatic Milgram","4.0.5","1","y","0","left","right","left","left","NA","828.0","10467","5925","828","NA","2","legacy","4","1024","2","48000","-16","experiment","3","odd","2","550826","547595","548622","2189","94911","548623","522581","2194","88985","552828","553658","549624","12662","552827","NA","Sternberg task","78","89768.0","85","1024"
"91","91","1060","1060","#3d3846","experiment","legacy","legacy","legacy","1","undefined","1","left","85","85","85","0","0","85","85","0","0","85","85","85","0","85","0","Tue Oct 17 09:17:19 2023","The main experiment item","False","Sternbergtask.osexp","C:\Users\stcka\OneDrive\Sam Docs\Psychology Program\AP Textbooks\Quantitative Methods","False","mono","False","18","no","white","no","yes","768","legacy","73","11","C:/Users/stcka/OneDrive/Sam Docs/Psychology Program/AP Textbooks/Quantitative Methods/SA-subject-3.csv","legacy","3 5 9 6 2 4","Melodramatic Milgram","4.0.5","1","y","0","left","right","left","left","NA","1415.0","10467","5925","1415","NA","2","legacy","6","1024","2","48000","-16","experiment","3","odd","3","556901","553661","554697","2189","94911","554698","522581","2194","88985","558902","560318","555699","12662","558902","NA","Sternberg task","79","91183.0","86","1024"
"91","91","1056","1056","#3d3846","experiment","legacy","legacy","legacy","1","undefined","1","right","86","86","86","0","0","86","86","0","0","86","86","86","0","86","0","Tue Oct 17 09:17:19 2023","The main experiment item","False","Sternbergtask.osexp","C:\Users\stcka\OneDrive\Sam Docs\Psychology Program\AP Textbooks\Quantitative Methods","False","mono","False","18","no","white","no","yes","768","legacy","74","11","C:/Users/stcka/OneDrive/Sam Docs/Psychology Program/AP Textbooks/Quantitative Methods/SA-subject-3.csv","legacy","7 1 5 6 3","Melodramatic Milgram","4.0.5","0","n","0","right","right","left","right","NA","755.0","10467","5925","755","NA","2","legacy","5","1024","2","48000","-16","experiment","3","odd","8","563561","560323","561357","2189","94911","561359","522581","2194","88985","565562","566318","562360","12662","565562","NA","Sternberg task","80","91938.0","87","1024"
"90","90","1067","1067","#3d3846","experiment","legacy","legacy","legacy","0","undefined","0","right","87","87","87","0","0","87","87","0","0","87","87","87","0","87","0","Tue Oct 17 09:17:19 2023","The main experiment item","False","Sternbergtask.osexp","C:\Users\stcka\OneDrive\Sam Docs\Psychology Program\AP Textbooks\Quantitative Methods","False","mono","False","18","no","white","no","yes","768","legacy","75","11","C:/Users/stcka/OneDrive/Sam Docs/Psychology Program/AP Textbooks/Quantitative Methods/SA-subject-3.csv","legacy","1 4 3 6 5","Melodramatic Milgram","4.0.5","0","n","0","None","right","left","None","NA","2000.0","10467","5925","2000","NA","2","legacy","5","1024","2","48000","-16","experiment","3","odd","8","569568","566323","567364","2189","94911","567365","522581","2194","88985","571568","573568","568366","12662","571568","NA","Sternberg task","80","93938.0","88","1024"
"91","91","1069","1069","#3d3846","experiment","legacy","legacy","legacy","1","undefined","1","left","88","88","88","0","0","88","88","0","0","88","88","88","0","88","0","Tue Oct 17 09:17:19 2023","The main experiment item","False","Sternbergtask.osexp","C:\Users\stcka\OneDrive\Sam Docs\Psychology Program\AP Textbooks\Quantitative Methods","False","mono","False","18","no","white","no","yes","768","legacy","76","11","C:/Users/stcka/OneDrive/Sam Docs/Psychology Program/AP Textbooks/Quantitative Methods/SA-subject-3.csv","legacy","4 9 7 8 5 3","Melodramatic Milgram","4.0.5","4","y","0","left","right","left","left","NA","1205.0","10467","5925","1205","NA","2","legacy","6","1024","2","48000","-16","experiment","3","odd","8","576801","566323","574598","2189","94911","574599","573571","2194","88985","578804","580011","575600","12662","578803","NA","Sternberg task","81","95143.0","89","1024"
"91","91","1069","1069","#3d3846","experiment","legacy","legacy","legacy","1","undefined","1","left","89","89","89","0","0","89","89","0","0","89","89","89","0","89","0","Tue Oct 17 09:17:19 2023","The main experiment item","False","Sternbergtask.osexp","C:\Users\stcka\OneDrive\Sam Docs\Psychology Program\AP Textbooks\Quantitative Methods","False","mono","False","18","no","white","no","yes","768","legacy","77","11","C:/Users/stcka/OneDrive/Sam Docs/Psychology Program/AP Textbooks/Quantitative Methods/SA-subject-3.csv","legacy","8 7 3","Melodramatic Milgram","4.0.5","1","y","0","left","right","left","left","NA","1085.0","10467","5925","1085","NA","2","legacy","3","1024","2","48000","-16","experiment","3","odd","8","583256","580016","581052","2189","94911","581054","573571","2194","88985","585257","586343","582055","12662","585257","NA","Sternberg task","82","96228.0","90","1024"
"91","91","1067","1067","#3d3846","experiment","legacy","legacy","legacy","1","undefined","1","left","90","90","90","0","0","90","90","0","0","90","90","90","0","90","0","Tue Oct 17 09:17:19 2023","The main experiment item","False","Sternbergtask.osexp","C:\Users\stcka\OneDrive\Sam Docs\Psychology Program\AP Textbooks\Quantitative Methods","False","mono","False","18","no","white","no","yes","768","legacy","78","11","C:/Users/stcka/OneDrive/Sam Docs/Psychology Program/AP Textbooks/Quantitative Methods/SA-subject-3.csv","legacy","2 6 1 7 4","Melodramatic Milgram","4.0.5","2","y","0","left","right","left","left","NA","925.0","10467","5925","925","NA","2","legacy","5","1024","2","48000","-16","experiment","3","odd","6","589596","586352","587393","2189","94911","587394","573571","2194","88985","591598","592524","588395","12662","591597","NA","Sternberg task","83","97153.0","91","1024"
"91","91","1064","1064","#3d3846","experiment","legacy","legacy","legacy","1","undefined","1","right","91","91","91","0","0","91","91","0","0","91","91","91","0","91","0","Tue Oct 17 09:17:19 2023","The main experiment item","False","Sternbergtask.osexp","C:\Users\stcka\OneDrive\Sam Docs\Psychology Program\AP Textbooks\Quantitative Methods","False","mono","False","18","no","white","no","yes","768","legacy","79","11","C:/Users/stcka/OneDrive/Sam Docs/Psychology Program/AP Textbooks/Quantitative Methods/SA-subject-3.csv","legacy","7 1","Melodramatic Milgram","4.0.5","0","n","0","right","right","left","right","NA","796.0","10467","5925","796","NA","2","legacy","2","1024","2","48000","-16","experiment","3","odd","8","595794","592529","593592","2189","94911","593593","573571","2194","88985","597795","598592","594594","12662","597795","NA","Sternberg task","84","97949.0","92","1024"
"91","91","1063","1063","#3d3846","experiment","legacy","legacy","legacy","1","undefined","1","left","92","92","92","0","0","92","92","0","0","92","92","92","0","92","0","Tue Oct 17 09:17:19 2023","The main experiment item","False","Sternbergtask.osexp","C:\Users\stcka\OneDrive\Sam Docs\Psychology Program\AP Textbooks\Quantitative Methods","False","mono","False","18","no","white","no","yes","768","legacy","80","11","C:/Users/stcka/OneDrive/Sam Docs/Psychology Program/AP Textbooks/Quantitative Methods/SA-subject-3.csv","legacy","9 5 8 1","Melodramatic Milgram","4.0.5","2","y","0","left","right","left","left","NA","969.0","10467","5925","969","NA","2","legacy","4","1024","2","48000","-16","experiment","3","odd","5","601832","598596","599628","2189","94911","599629","573571","2194","88985","603833","604803","600630","12662","603833","NA","Sternberg task","85","98918.0","93","1024"
"91","91","1061","1061","#3d3846","experiment","legacy","legacy","legacy","1","undefined","1","right","93","93","93","0","0","93","93","0","0","93","93","93","0","93","0","Tue Oct 17 09:17:19 2023","The main experiment item","False","Sternbergtask.osexp","C:\Users\stcka\OneDrive\Sam Docs\Psychology Program\AP Textbooks\Quantitative Methods","False","mono","False","18","no","white","no","yes","768","legacy","81","11","C:/Users/stcka/OneDrive/Sam Docs/Psychology Program/AP Textbooks/Quantitative Methods/SA-subject-3.csv","legacy","1 3 2 6 9","Melodramatic Milgram","4.0.5","0","n","0","right","right","left","right","NA","850.0","10467","5925","850","NA","2","legacy","5","1024","2","48000","-16","experiment","3","odd","5","608035","604808","605831","2189","94911","605833","573571","2194","88985","610036","610887","606834","12662","610036","NA","Sternberg task","86","99768.0","94","1024"
"90","90","1062","1062","#3d3846","experiment","legacy","legacy","legacy","0","undefined","0","left","94","94","94","0","0","94","94","0","0","94","94","94","0","94","0","Tue Oct 17 09:17:19 2023","The main experiment item","False","Sternbergtask.osexp","C:\Users\stcka\OneDrive\Sam Docs\Psychology Program\AP Textbooks\Quantitative Methods","False","mono","False","18","no","white","no","yes","768","legacy","82","11","C:/Users/stcka/OneDrive/Sam Docs/Psychology Program/AP Textbooks/Quantitative Methods/SA-subject-3.csv","legacy","3 5 7 1","Melodramatic Milgram","4.0.5","3","y","0","right","right","left","right","NA","1139.0","10467","5925","1139","NA","2","legacy","4","1024","2","48000","-16","experiment","3","odd","7","614132","610892","611929","2189","94911","611930","573571","2194","88985","616133","617274","612931","12662","616133","NA","Sternberg task","86","100907.0","95","1024"
"90","90","1060","1060","#3d3846","experiment","legacy","legacy","legacy","1","undefined","1","right","95","95","95","0","0","95","95","0","0","95","95","95","0","95","0","Tue Oct 17 09:17:19 2023","The main experiment item","False","Sternbergtask.osexp","C:\Users\stcka\OneDrive\Sam Docs\Psychology Program\AP Textbooks\Quantitative Methods","False","mono","False","18","no","white","no","yes","768","legacy","83","11","C:/Users/stcka/OneDrive/Sam Docs/Psychology Program/AP Textbooks/Quantitative Methods/SA-subject-3.csv","legacy","3 9 1","Melodramatic Milgram","4.0.5","0","n","0","right","right","left","right","NA","938.0","10467","5925","938","NA","2","legacy","3","1024","2","48000","-16","experiment","3","odd","7","620517","610892","618314","2189","94911","618315","617279","2194","88985","622519","623459","619316","12662","622519","NA","Sternberg task","87","101845.0","96","1024"
"90","90","1059","1059","#3d3846","experiment","legacy","legacy","legacy","1","undefined","1","right","96","96","96","0","0","96","96","0","0","96","96","96","0","96","0","Tue Oct 17 09:17:19 2023","The main experiment item","False","Sternbergtask.osexp","C:\Users\stcka\OneDrive\Sam Docs\Psychology Program\AP Textbooks\Quantitative Methods","False","mono","False","18","no","white","no","yes","768","legacy","84","11","C:/Users/stcka/OneDrive/Sam Docs/Psychology Program/AP Textbooks/Quantitative Methods/SA-subject-3.csv","legacy","8 4 3 5","Melodramatic Milgram","4.0.5","0","n","0","right","right","left","right","NA","879.0","10467","5925","879","NA","2","legacy","4","1024","2","48000","-16","experiment","3","odd","6","626700","623463","624496","2189","94911","624497","617279","2194","88985","628701","629581","625498","12662","628701","NA","Sternberg task","88","102724.0","97","1024"
"90","90","1056","1056","#3d3846","experiment","legacy","legacy","legacy","1","undefined","1","left","97","97","97","0","0","97","97","0","0","97","97","97","0","97","0","Tue Oct 17 09:17:19 2023","The main experiment item","False","Sternbergtask.osexp","C:\Users\stcka\OneDrive\Sam Docs\Psychology Program\AP Textbooks\Quantitative Methods","False","mono","False","18","no","white","no","yes","768","legacy","85","11","C:/Users/stcka/OneDrive/Sam Docs/Psychology Program/AP Textbooks/Quantitative Methods/SA-subject-3.csv","legacy","7 1 3","Melodramatic Milgram","4.0.5","2","y","0","left","right","left","left","NA","860.0","10467","5925","860","NA","2","legacy","3","1024","2","48000","-16","experiment","3","odd","1","632817","629586","630613","2189","94911","630615","617279","2194","88985","634818","635679","631616","12662","634818","NA","Sternberg task","89","103584.0","98","1024"
"90","90","1055","1055","#3d3846","experiment","legacy","legacy","legacy","1","undefined","1","right","98","98","98","0","0","98","98","0","0","98","98","98","0","98","0","Tue Oct 17 09:17:19 2023","The main experiment item","False","Sternbergtask.osexp","C:\Users\stcka\OneDrive\Sam Docs\Psychology Program\AP Textbooks\Quantitative Methods","False","mono","False","18","no","white","no","yes","768","legacy","86","11","C:/Users/stcka/OneDrive/Sam Docs/Psychology Program/AP Textbooks/Quantitative Methods/SA-subject-3.csv","legacy","1 7 5 2","Melodramatic Milgram","4.0.5","0","n","0","right","right","left","right","NA","939.0","10467","5925","939","NA","2","legacy","4","1024","2","48000","-16","experiment","3","odd","3","638928","635683","636725","2189","94911","636727","617279","2194","88985","640929","641869","637727","12662","640929","NA","Sternberg task","90","104523.0","99","1024"
"91","91","1050","1050","#3d3846","experiment","legacy","legacy","legacy","1","undefined","1","right","99","99","99","0","0","99","99","0","0","99","99","99","0","99","0","Tue Oct 17 09:17:19 2023","The main experiment item","False","Sternbergtask.osexp","C:\Users\stcka\OneDrive\Sam Docs\Psychology Program\AP Textbooks\Quantitative Methods","False","mono","False","18","no","white","no","yes","768","legacy","87","11","C:/Users/stcka/OneDrive/Sam Docs/Psychology Program/AP Textbooks/Quantitative Methods/SA-subject-3.csv","legacy","4 1","Melodramatic Milgram","4.0.5","0","n","0","right","right","left","right","NA","530.0","10467","5925","530","NA","2","legacy","2","1024","2","48000","-16","experiment","3","odd","6","645104","641874","642900","2189","94911","642901","617279","2194","88985","647105","647636","643903","12662","647105","NA","Sternberg task","91","105053.0","100","1024"
"91","91","1053","1053","#3d3846","experiment","legacy","legacy","legacy","1","undefined","1","right","100","100","100","0","0","100","100","0","0","100","100","100","0","100","0","Tue Oct 17 09:17:19 2023","The main experiment item","False","Sternbergtask.osexp","C:\Users\stcka\OneDrive\Sam Docs\Psychology Program\AP Textbooks\Quantitative Methods","False","mono","False","18","no","white","no","yes","768","legacy","88","11","C:/Users/stcka/OneDrive/Sam Docs/Psychology Program/AP Textbooks/Quantitative Methods/SA-subject-3.csv","legacy","7 1 8 4 9 3","Melodramatic Milgram","4.0.5","0","n","0","right","right","left","right","NA","1342.0","10467","5925","1342","NA","2","legacy","6","1024","2","48000","-16","experiment","3","odd","6","650877","647641","648673","2189","94911","648675","617279","2194","88985","652878","654221","649676","12662","652878","NA","Sternberg task","92","106395.0","101","1024"
"91","91","1055","1055","#3d3846","experiment","legacy","legacy","legacy","1","undefined","1","left","101","101","101","0","0","101","101","0","0","101","101","101","0","101","0","Tue Oct 17 09:17:19 2023","The main experiment item","False","Sternbergtask.osexp","C:\Users\stcka\OneDrive\Sam Docs\Psychology Program\AP Textbooks\Quantitative Methods","False","mono","False","18","no","white","no","yes","768","legacy","89","11","C:/Users/stcka/OneDrive/Sam Docs/Psychology Program/AP Textbooks/Quantitative Methods/SA-subject-3.csv","legacy","3 5 4 7","Melodramatic Milgram","4.0.5","1","y","0","left","right","left","left","NA","1307.0","10467","5925","1307","NA","2","legacy","4","1024","2","48000","-16","experiment","3","odd","3","657457","654226","655253","2189","94911","655255","617279","2194","88985","659458","660766","656256","12662","659458","NA","Sternberg task","93","107702.0","102","1024"
"91","91","1056","1056","#3d3846","experiment","legacy","legacy","legacy","1","undefined","1","right","102","102","102","0","0","102","102","0","0","102","102","102","0","102","0","Tue Oct 17 09:17:19 2023","The main experiment item","False","Sternbergtask.osexp","C:\Users\stcka\OneDrive\Sam Docs\Psychology Program\AP Textbooks\Quantitative Methods","False","mono","False","18","no","white","no","yes","768","legacy","90","11","C:/Users/stcka/OneDrive/Sam Docs/Psychology Program/AP Textbooks/Quantitative Methods/SA-subject-3.csv","legacy","2 3 8 5 6 7","Melodramatic Milgram","4.0.5","0","n","0","right","right","left","right","NA","1087.0","10467","5925","1087","NA","2","legacy","6","1024","2","48000","-16","experiment","3","odd","1","664008","660771","661804","2189","94911","661806","617279","2194","88985","666010","667099","662807","12662","666010","NA","Sternberg task","94","108789.0","103","1024"
"91","91","1054","1054","#3d3846","experiment","legacy","legacy","legacy","1","undefined","1","right","103","103","103","0","0","103","103","0","0","103","103","103","0","103","0","Tue Oct 17 09:17:19 2023","The main experiment item","False","Sternbergtask.osexp","C:\Users\stcka\OneDrive\Sam Docs\Psychology Program\AP Textbooks\Quantitative Methods","False","mono","False","18","no","white","no","yes","768","legacy","91","11","C:/Users/stcka/OneDrive/Sam Docs/Psychology Program/AP Textbooks/Quantitative Methods/SA-subject-3.csv","legacy","1 4 9 3","Melodramatic Milgram","4.0.5","0","n","0","right","right","left","right","NA","876.0","10467","5925","876","NA","2","legacy","4","1024","2","48000","-16","experiment","3","odd","5","670345","667105","668142","2189","94911","668143","617279","2194","88985","672346","673223","669144","12662","672346","NA","Sternberg task","95","109665.0","104","1024"
"91","91","1052","1052","#3d3846","experiment","legacy","legacy","legacy","1","undefined","1","right","104","104","104","0","0","104","104","0","0","104","104","104","0","104","0","Tue Oct 17 09:17:19 2023","The main experiment item","False","Sternbergtask.osexp","C:\Users\stcka\OneDrive\Sam Docs\Psychology Program\AP Textbooks\Quantitative Methods","False","mono","False","18","no","white","no","yes","768","legacy","92","11","C:/Users/stcka/OneDrive/Sam Docs/Psychology Program/AP Textbooks/Quantitative Methods/SA-subject-3.csv","legacy","3 4 9 6 7 8","Melodramatic Milgram","4.0.5","0","n","0","right","right","left","right","NA","859.0","10467","5925","859","NA","2","legacy","6","1024","2","48000","-16","experiment","3","odd","2","676469","673228","674264","2189","94911","674266","617279","2194","88985","678471","679331","675267","12662","678470","NA","Sternberg task","96","110524.0","105","1024"
"91","91","1049","1049","#3d3846","experiment","legacy","legacy","legacy","1","undefined","1","right","105","105","105","0","0","105","105","0","0","105","105","105","0","105","0","Tue Oct 17 09:17:19 2023","The main experiment item","False","Sternbergtask.osexp","C:\Users\stcka\OneDrive\Sam Docs\Psychology Program\AP Textbooks\Quantitative Methods","False","mono","False","18","no","white","no","yes","768","legacy","93","11","C:/Users/stcka/OneDrive/Sam Docs/Psychology Program/AP Textbooks/Quantitative Methods/SA-subject-3.csv","legacy","6 9 5","Melodramatic Milgram","4.0.5","0","n","0","right","right","left","right","NA","743.0","10467","5925","743","NA","2","legacy","3","1024","2","48000","-16","experiment","3","odd","8","682574","679335","680370","2189","94911","680371","617279","2194","88985","684575","685319","681372","12662","684575","NA","Sternberg task","97","111267.0","106","1024"
"91","91","1047","1047","#3d3846","experiment","legacy","legacy","legacy","1","undefined","1","right","106","106","106","0","0","106","106","0","0","106","106","106","0","106","0","Tue Oct 17 09:17:19 2023","The main experiment item","False","Sternbergtask.osexp","C:\Users\stcka\OneDrive\Sam Docs\Psychology Program\AP Textbooks\Quantitative Methods","False","mono","False","18","no","white","no","yes","768","legacy","94","11","C:/Users/stcka/OneDrive/Sam Docs/Psychology Program/AP Textbooks/Quantitative Methods/SA-subject-3.csv","legacy","6 3 1 7 9 8","Melodramatic Milgram","4.0.5","0","n","0","right","right","left","right","NA","766.0","10467","5925","766","NA","2","legacy","6","1024","2","48000","-16","experiment","3","odd","4","688565","685325","686362","2189","94911","686363","617279","2194","88985","690566","691335","687364","12662","690566","NA","Sternberg task","98","112033.0","107","1024"
"91","91","1046","1046","#3d3846","experiment","legacy","legacy","legacy","1","undefined","1","right","107","107","107","0","0","107","107","0","0","107","107","107","0","107","0","Tue Oct 17 09:17:19 2023","The main experiment item","False","Sternbergtask.osexp","C:\Users\stcka\OneDrive\Sam Docs\Psychology Program\AP Textbooks\Quantitative Methods","False","mono","False","18","no","white","no","yes","768","legacy","95","11","C:/Users/stcka/OneDrive/Sam Docs/Psychology Program/AP Textbooks/Quantitative Methods/SA-subject-3.csv","legacy","2 8 6 3 1","Melodramatic Milgram","4.0.5","0","n","0","right","right","left","right","NA","954.0","10467","5925","954","NA","2","legacy","5","1024","2","48000","-16","experiment","3","odd","7","694568","691338","692366","2189","94911","692367","617279","2194","88985","696569","697524","693368","12662","696569","NA","Sternberg task","99","112987.0","108","1024"
"91","91","1044","1044","#3d3846","experiment","legacy","legacy","legacy","1","undefined","1","right","108","108","108","0","0","108","108","0","0","108","108","108","0","108","0","Tue Oct 17 09:17:19 2023","The main experiment item","False","Sternbergtask.osexp","C:\Users\stcka\OneDrive\Sam Docs\Psychology Program\AP Textbooks\Quantitative Methods","False","mono","False","18","no","white","no","yes","768","legacy","96","11","C:/Users/stcka/OneDrive/Sam Docs/Psychology Program/AP Textbooks/Quantitative Methods/SA-subject-3.csv","legacy","5 3 2 6 9 8","Melodramatic Milgram","4.0.5","0","n","0","right","right","left","right","NA","831.0","10467","5925","831","NA","2","legacy","6","1024","2","48000","-16","experiment","3","odd","4","700766","697530","698562","2189","94911","698564","617279","2194","88985","702767","703600","699565","12662","702767","NA","Sternberg task","100","113818.0","109","1024"
"91","91","1042","1042","#3d3846","experiment","legacy","legacy","legacy","1","undefined","1","left","109","109","109","0","0","109","109","0","0","109","109","109","0","109","0","Tue Oct 17 09:17:19 2023","The main experiment item","False","Sternbergtask.osexp","C:\Users\stcka\OneDrive\Sam Docs\Psychology Program\AP Textbooks\Quantitative Methods","False","mono","False","18","no","white","no","yes","768","legacy","97","11","C:/Users/stcka/OneDrive/Sam Docs/Psychology Program/AP Textbooks/Quantitative Methods/SA-subject-3.csv","legacy","7 6","Melodramatic Milgram","4.0.5","2","y","0","left","right","left","left","NA","848.0","10467","5925","848","NA","2","legacy","2","1024","2","48000","-16","experiment","3","odd","6","706836","703604","704632","2189","94911","704633","617279","2194","88985","708838","709687","705634","12662","708838","NA","Sternberg task","101","114666.0","110","1024"
