acc,accuracy,average_response_time,avg_rt,background,block,canvas_backend,clock_backend,color_backend,compensation,coordinates,correct,correct_Instruction1,correct_keyboard_response,correct_response,count_CorrectFeedback,count_ExpSequence,count_ExperimentLoop,count_Fixation,count_ISI,count_Instruction1,count_Instructions2,count_MemorySet,count_PracticeLoop,count_Probe,count_ThankYou,count_experiment,count_incorrectFeedback,count_keyboard_response,count_logger,datetime,description,disable_garbage_collection,experiment_file,experiment_path,font_bold,font_family,font_italic,font_size,font_underline,foreground,form_clicks,fullscreen,height,keyboard_backend,live_row,live_row_PracticeLoop,logfile,mouse_backend,numberSet,opensesame_codename,opensesame_version,posInSet,present,repeat_cycle,response,response_Instruction1,response_Instructions2,response_ThankYou,response_keyboard_response,response_time,response_time_Instruction1,response_time_Instructions2,response_time_ThankYou,response_time_keyboard_response,round_decimals,sampler_backend,setSize,sound_buf_size,sound_channels,sound_freq,sound_sample_size,start,subject_nr,subject_parity,target,time_CorrectFeedback,time_ExpSequence,time_ExperimentLoop,time_Fixation,time_ISI,time_Instruction1,time_Instructions2,time_MemorySet,time_PracticeLoop,time_Probe,time_ThankYou,time_experiment,time_incorrectFeedback,time_keyboard_response,time_logger,title,total_correct,total_response_time,total_responses,uniform_coordinates,width
100,100,903,903,black,practice,legacy,legacy,legacy,0,uniform,1,undefined,1,right,0,0,0,0,0,0,0,0,0,0,0,0,0,0,0,10/27/19 18:52,The main experiment item,yes,SternbergTask.osexp,E:\Classwork\AQMAED,no,mono,no,18,no,white,no,yes,768,legacy,0,0,E:/Classwork/AQMAED/Stenberg/MA-subject-2.csv,legacy,5 7 8 4 1 2,Kafkaesque Koffka,3.2.8,0,n,0,right,left,NA,NA,right,903,152975,NA,NA,903,2,legacy,6,1024,2,48000,-16,experiment,2,even,6,NA,159098,NA,159101,161309,2962,NA,160105,155937,163313,NA,2957,NA,163314,164218,Sternberg Task,1,903,1,yes,1024
100,100,893,893,black,practice,legacy,legacy,legacy,0,uniform,1,undefined,1,left,1,1,0,1,1,0,0,1,0,1,0,0,1,1,1,10/27/19 18:52,The main experiment item,yes,SternbergTask.osexp,E:\Classwork\AQMAED,no,mono,no,18,no,white,no,yes,768,legacy,1,1,E:/Classwork/AQMAED/Stenberg/MA-subject-2.csv,legacy,6,Kafkaesque Koffka,3.2.8,1,y,0,left,left,NA,NA,left,883,152975,NA,NA,883,2,legacy,1,1024,2,48000,-16,experiment,2,even,6,164281,165367,NA,165369,167576,2962,NA,166374,155937,169580,NA,2957,NA,169580,170464,Sternberg Task,2,1786,2,yes,1024
100,100,913.3333333,913.3333333,black,practice,legacy,legacy,legacy,0,uniform,1,undefined,1,left,2,2,0,2,2,0,0,2,0,2,0,0,2,2,2,10/27/19 18:52,The main experiment item,yes,SternbergTask.osexp,E:\Classwork\AQMAED,no,mono,no,18,no,white,no,yes,768,legacy,2,2,E:/Classwork/AQMAED/Stenberg/MA-subject-2.csv,legacy,1 7 9 8 5,Kafkaesque Koffka,3.2.8,4,y,0,left,left,NA,NA,left,954,152975,NA,NA,954,2,legacy,5,1024,2,48000,-16,experiment,2,even,8,170475,171580,NA,171582,173791,2962,NA,172586,155937,175796,NA,2957,NA,175797,176751,Sternberg Task,3,2740,3,yes,1024
100,100,954.75,954.75,black,practice,legacy,legacy,legacy,0,uniform,1,undefined,1,left,3,3,0,3,3,0,0,3,0,3,0,0,3,3,3,10/27/19 18:52,The main experiment item,yes,SternbergTask.osexp,E:\Classwork\AQMAED,no,mono,no,18,no,white,no,yes,768,legacy,3,3,E:/Classwork/AQMAED/Stenberg/MA-subject-2.csv,legacy,1 5 2 9,Kafkaesque Koffka,3.2.8,2,y,0,left,left,NA,NA,left,1079,152975,NA,NA,1079,2,legacy,4,1024,2,48000,-16,experiment,2,even,5,176757,177868,NA,177870,180079,2962,NA,178874,155937,182084,NA,2957,NA,182084,183164,Sternberg Task,4,3819,4,yes,1024
100,100,930,930,black,practice,legacy,legacy,legacy,0,uniform,1,undefined,1,right,4,4,0,4,4,0,0,4,0,4,0,0,4,4,4,10/27/19 18:52,The main experiment item,yes,SternbergTask.osexp,E:\Classwork\AQMAED,no,mono,no,18,no,white,no,yes,768,legacy,4,4,E:/Classwork/AQMAED/Stenberg/MA-subject-2.csv,legacy,9 6 7 4 5,Kafkaesque Koffka,3.2.8,0,n,0,right,left,NA,NA,right,831,152975,NA,NA,831,2,legacy,5,1024,2,48000,-16,experiment,2,even,3,183170,184275,NA,184276,186484,2962,NA,185279,155937,188489,NA,2957,NA,188489,189320,Sternberg Task,5,4650,5,yes,1024
100,100,923.8333333,923.8333333,black,practice,legacy,legacy,legacy,0,uniform,1,undefined,1,left,5,5,0,5,5,0,0,5,0,5,0,0,5,5,5,10/27/19 18:52,The main experiment item,yes,SternbergTask.osexp,E:\Classwork\AQMAED,no,mono,no,18,no,white,no,yes,768,legacy,5,5,E:/Classwork/AQMAED/Stenberg/MA-subject-2.csv,legacy,2 9 4,Kafkaesque Koffka,3.2.8,3,y,0,left,left,NA,NA,left,893,152975,NA,NA,893,2,legacy,3,1024,2,48000,-16,experiment,2,even,4,189326,190432,NA,190434,192644,2962,NA,191438,155937,194648,NA,2957,NA,194648,195542,Sternberg Task,6,5543,6,yes,1024
100,100,928.1428571,928.1428571,black,practice,legacy,legacy,legacy,0,uniform,1,undefined,1,right,6,6,0,6,6,0,0,6,0,6,0,0,6,6,6,10/27/19 18:52,The main experiment item,yes,SternbergTask.osexp,E:\Classwork\AQMAED,no,mono,no,18,no,white,no,yes,768,legacy,6,6,E:/Classwork/AQMAED/Stenberg/MA-subject-2.csv,legacy,3 1 9 4,Kafkaesque Koffka,3.2.8,0,n,0,right,left,NA,NA,right,954,152975,NA,NA,954,2,legacy,4,1024,2,48000,-16,experiment,2,even,6,195547,196633,NA,196635,198841,2962,NA,197636,155937,200847,NA,2957,NA,200847,201802,Sternberg Task,7,6497,7,yes,1024
100,100,909.125,909.125,black,practice,legacy,legacy,legacy,0,uniform,1,undefined,1,left,7,7,0,7,7,0,0,7,0,7,0,0,7,7,7,10/27/19 18:52,The main experiment item,yes,SternbergTask.osexp,E:\Classwork\AQMAED,no,mono,no,18,no,white,no,yes,768,legacy,7,7,E:/Classwork/AQMAED/Stenberg/MA-subject-2.csv,legacy,4 8,Kafkaesque Koffka,3.2.8,1,y,0,left,left,NA,NA,left,776,152975,NA,NA,776,2,legacy,2,1024,2,48000,-16,experiment,2,even,4,201807,202901,NA,202903,205113,2962,NA,203908,155937,207116,NA,2957,NA,207116,207893,Sternberg Task,8,7273,8,yes,1024
100,100,901.1111111,901.1111111,black,practice,legacy,legacy,legacy,0,uniform,1,undefined,1,right,8,8,0,8,8,0,0,8,0,8,0,0,8,8,8,10/27/19 18:52,The main experiment item,yes,SternbergTask.osexp,E:\Classwork\AQMAED,no,mono,no,18,no,white,no,yes,768,legacy,8,8,E:/Classwork/AQMAED/Stenberg/MA-subject-2.csv,legacy,2 1,Kafkaesque Koffka,3.2.8,0,n,0,right,left,NA,NA,right,837,152975,NA,NA,837,2,legacy,2,1024,2,48000,-16,experiment,2,even,5,207898,208996,NA,208998,211207,2962,NA,210003,155937,213212,NA,2957,NA,213212,214050,Sternberg Task,9,8110,9,yes,1024
100,100,865.3,865.3,black,practice,legacy,legacy,legacy,0,uniform,1,undefined,1,right,9,9,0,9,9,0,0,9,0,9,0,0,9,9,9,10/27/19 18:52,The main experiment item,yes,SternbergTask.osexp,E:\Classwork\AQMAED,no,mono,no,18,no,white,no,yes,768,legacy,9,9,E:/Classwork/AQMAED/Stenberg/MA-subject-2.csv,legacy,5,Kafkaesque Koffka,3.2.8,0,n,0,right,left,NA,NA,right,543,152975,NA,NA,543,2,legacy,1,1024,2,48000,-16,experiment,2,even,3,214055,215161,NA,215162,217370,2962,NA,216167,155937,219375,NA,2957,NA,219375,219918,Sternberg Task,10,8653,10,yes,1024
100,100,863.4545455,863.4545455,black,practice,legacy,legacy,legacy,0,uniform,1,undefined,1,right,10,10,0,10,10,0,0,10,0,10,0,0,10,10,10,10/27/19 18:52,The main experiment item,yes,SternbergTask.osexp,E:\Classwork\AQMAED,no,mono,no,18,no,white,no,yes,768,legacy,10,10,E:/Classwork/AQMAED/Stenberg/MA-subject-2.csv,legacy,4 1 5,Kafkaesque Koffka,3.2.8,0,n,0,right,left,NA,NA,right,845,152975,NA,NA,845,2,legacy,3,1024,2,48000,-16,experiment,2,even,2,219929,221034,NA,221036,223246,2962,NA,222040,155937,225252,NA,2957,NA,225252,226097,Sternberg Task,11,9498,11,yes,1024
100,100,861.8333333,861.8333333,black,practice,legacy,legacy,legacy,0,uniform,1,undefined,1,left,11,11,0,11,11,0,0,11,0,11,0,0,11,11,11,10/27/19 18:52,The main experiment item,yes,SternbergTask.osexp,E:\Classwork\AQMAED,no,mono,no,18,no,white,no,yes,768,legacy,11,11,E:/Classwork/AQMAED/Stenberg/MA-subject-2.csv,legacy,4 3 1 7 9 8,Kafkaesque Koffka,3.2.8,1,y,0,left,left,NA,NA,left,844,152975,NA,NA,844,2,legacy,6,1024,2,48000,-16,experiment,2,even,4,226104,227203,NA,227205,229415,2962,NA,228210,155937,231420,NA,2957,NA,231420,232265,Sternberg Task,12,10342,12,yes,1024
100,100,860.7692308,860.7692308,black,experiment,legacy,legacy,legacy,0,uniform,1,undefined,1,left,12,12,0,12,12,0,0,12,0,12,0,0,12,12,12,10/27/19 18:52,The main experiment item,yes,SternbergTask.osexp,E:\Classwork\AQMAED,no,mono,no,18,no,white,no,yes,768,legacy,0,11,E:/Classwork/AQMAED/Stenberg/MA-subject-2.csv,legacy,7 8 4 6 9 5,Kafkaesque Koffka,3.2.8,4,y,0,left,left,left,NA,left,848,152975,81019,NA,848,2,legacy,6,1024,2,48000,-16,experiment,2,even,6,232270,314431,314335,314432,316641,2962,233315,315436,155937,318646,NA,2957,NA,318648,319497,Sternberg Task,13,11190,13,yes,1024
100,100,855.1428571,855.1428571,black,experiment,legacy,legacy,legacy,0,uniform,1,undefined,1,right,13,13,0,13,13,0,0,13,0,13,0,0,13,13,13,10/27/19 18:52,The main experiment item,yes,SternbergTask.osexp,E:\Classwork\AQMAED,no,mono,no,18,no,white,no,yes,768,legacy,1,11,E:/Classwork/AQMAED/Stenberg/MA-subject-2.csv,legacy,2 8 9,Kafkaesque Koffka,3.2.8,0,n,0,right,left,left,NA,right,782,152975,81019,NA,782,2,legacy,3,1024,2,48000,-16,experiment,2,even,6,319506,320597,314335,320599,322808,2962,233315,321603,155937,324814,NA,2957,NA,324814,325596,Sternberg Task,14,11972,14,yes,1024
100,100,856.8666667,856.8666667,black,experiment,legacy,legacy,legacy,0,uniform,1,undefined,1,left,14,14,0,14,14,0,0,14,0,14,0,0,14,14,14,10/27/19 18:52,The main experiment item,yes,SternbergTask.osexp,E:\Classwork\AQMAED,no,mono,no,18,no,white,no,yes,768,legacy,2,11,E:/Classwork/AQMAED/Stenberg/MA-subject-2.csv,legacy,8 9 5 6 7,Kafkaesque Koffka,3.2.8,1,y,0,left,left,left,NA,left,881,152975,81019,NA,881,2,legacy,5,1024,2,48000,-16,experiment,2,even,8,325601,326674,314335,326676,328884,2962,233315,327679,155937,330890,NA,2957,NA,330891,331772,Sternberg Task,15,12853,15,yes,1024
100,100,852.5,852.5,black,experiment,legacy,legacy,legacy,0,uniform,1,undefined,1,right,15,15,0,15,15,0,0,15,0,15,0,0,15,15,15,10/27/19 18:52,The main experiment item,yes,SternbergTask.osexp,E:\Classwork\AQMAED,no,mono,no,18,no,white,no,yes,768,legacy,3,11,E:/Classwork/AQMAED/Stenberg/MA-subject-2.csv,legacy,8 6 3 4 7,Kafkaesque Koffka,3.2.8,0,n,0,right,left,left,NA,right,787,152975,81019,NA,787,2,legacy,5,1024,2,48000,-16,experiment,2,even,1,331782,332885,314335,332886,335096,2962,233315,333891,155937,337101,NA,2957,NA,337101,337889,Sternberg Task,16,13640,16,yes,1024
100,100,844.4117647,844.4117647,black,experiment,legacy,legacy,legacy,0,uniform,1,undefined,1,left,16,16,0,16,16,0,0,16,0,16,0,0,16,16,16,10/27/19 18:52,The main experiment item,yes,SternbergTask.osexp,E:\Classwork\AQMAED,no,mono,no,18,no,white,no,yes,768,legacy,4,11,E:/Classwork/AQMAED/Stenberg/MA-subject-2.csv,legacy,9 8 4,Kafkaesque Koffka,3.2.8,1,y,0,left,left,left,NA,left,715,152975,81019,NA,715,2,legacy,3,1024,2,48000,-16,experiment,2,even,9,337894,338991,314335,338993,341203,2962,233315,339998,155937,343208,NA,2957,NA,343209,343925,Sternberg Task,17,14355,17,yes,1024
100,100,828.3333333,828.3333333,black,experiment,legacy,legacy,legacy,0,uniform,1,undefined,1,right,17,17,0,17,17,0,0,17,0,17,0,0,17,17,17,10/27/19 18:52,The main experiment item,yes,SternbergTask.osexp,E:\Classwork\AQMAED,no,mono,no,18,no,white,no,yes,768,legacy,5,11,E:/Classwork/AQMAED/Stenberg/MA-subject-2.csv,legacy,5,Kafkaesque Koffka,3.2.8,0,n,0,right,left,left,NA,right,555,152975,81019,NA,555,2,legacy,1,1024,2,48000,-16,experiment,2,even,8,343930,345032,314335,345034,347244,2962,233315,346039,155937,349250,NA,2957,NA,349250,349806,Sternberg Task,18,14910,18,yes,1024
100,100,819.6842105,819.6842105,black,experiment,legacy,legacy,legacy,0,uniform,1,undefined,1,left,18,18,0,18,18,0,0,18,0,18,0,0,18,18,18,10/27/19 18:52,The main experiment item,yes,SternbergTask.osexp,E:\Classwork\AQMAED,no,mono,no,18,no,white,no,yes,768,legacy,6,11,E:/Classwork/AQMAED/Stenberg/MA-subject-2.csv,legacy,9 1 6 7 8,Kafkaesque Koffka,3.2.8,1,y,0,left,left,left,NA,left,664,152975,81019,NA,664,2,legacy,5,1024,2,48000,-16,experiment,2,even,9,349811,350908,314335,350909,353119,2962,233315,351914,155937,355124,NA,2957,NA,355124,355788,Sternberg Task,19,15574,19,yes,1024
100,100,812.95,812.95,black,experiment,legacy,legacy,legacy,0,uniform,1,undefined,1,left,19,19,0,19,19,0,0,19,0,19,0,0,19,19,19,10/27/19 18:52,The main experiment item,yes,SternbergTask.osexp,E:\Classwork\AQMAED,no,mono,no,18,no,white,no,yes,768,legacy,7,11,E:/Classwork/AQMAED/Stenberg/MA-subject-2.csv,legacy,3 5 4 7,Kafkaesque Koffka,3.2.8,1,y,0,left,left,left,NA,left,685,152975,81019,NA,685,2,legacy,4,1024,2,48000,-16,experiment,2,even,3,355793,356886,314335,356888,359098,2962,233315,357893,155937,361103,NA,2957,NA,361103,361789,Sternberg Task,20,16259,20,yes,1024
100,100,805.5714286,805.5714286,black,experiment,legacy,legacy,legacy,0,uniform,1,undefined,1,right,20,20,0,20,20,0,0,20,0,20,0,0,20,20,20,10/27/19 18:52,The main experiment item,yes,SternbergTask.osexp,E:\Classwork\AQMAED,no,mono,no,18,no,white,no,yes,768,legacy,8,11,E:/Classwork/AQMAED/Stenberg/MA-subject-2.csv,legacy,8 9,Kafkaesque Koffka,3.2.8,0,n,0,right,left,left,NA,right,658,152975,81019,NA,658,2,legacy,2,1024,2,48000,-16,experiment,2,even,5,361801,362907,314335,362909,365119,2962,233315,363913,155937,367121,NA,2957,NA,367121,367779,Sternberg Task,21,16917,21,yes,1024
100,100,806.7727273,806.7727273,black,experiment,legacy,legacy,legacy,0,uniform,1,undefined,1,right,21,21,0,21,21,0,0,21,0,21,0,0,21,21,21,10/27/19 18:52,The main experiment item,yes,SternbergTask.osexp,E:\Classwork\AQMAED,no,mono,no,18,no,white,no,yes,768,legacy,9,11,E:/Classwork/AQMAED/Stenberg/MA-subject-2.csv,legacy,7 9 1 6,Kafkaesque Koffka,3.2.8,0,n,0,right,left,left,NA,right,832,152975,81019,NA,832,2,legacy,4,1024,2,48000,-16,experiment,2,even,4,367792,368891,314335,368893,371103,2962,233315,369897,155937,373107,NA,2957,NA,373108,373940,Sternberg Task,22,17749,22,yes,1024
100,100,803.826087,803.826087,black,experiment,legacy,legacy,legacy,0,uniform,1,undefined,1,right,22,22,0,22,22,0,0,22,0,22,0,0,22,22,22,10/27/19 18:52,The main experiment item,yes,SternbergTask.osexp,E:\Classwork\AQMAED,no,mono,no,18,no,white,no,yes,768,legacy,10,11,E:/Classwork/AQMAED/Stenberg/MA-subject-2.csv,legacy,3 9 1,Kafkaesque Koffka,3.2.8,0,n,0,right,left,left,NA,right,739,152975,81019,NA,739,2,legacy,3,1024,2,48000,-16,experiment,2,even,7,373949,375059,314335,375061,377271,2962,233315,376065,155937,379275,NA,2957,NA,379275,380015,Sternberg Task,23,18488,23,yes,1024
100,100,801.375,801.375,black,experiment,legacy,legacy,legacy,0,uniform,1,undefined,1,right,23,23,0,23,23,0,0,23,0,23,0,0,23,23,23,10/27/19 18:52,The main experiment item,yes,SternbergTask.osexp,E:\Classwork\AQMAED,no,mono,no,18,no,white,no,yes,768,legacy,11,11,E:/Classwork/AQMAED/Stenberg/MA-subject-2.csv,legacy,2 8 9 4 1,Kafkaesque Koffka,3.2.8,0,n,0,right,left,left,NA,right,745,152975,81019,NA,745,2,legacy,5,1024,2,48000,-16,experiment,2,even,5,380022,381129,314335,381131,383341,2962,233315,382136,155937,385346,NA,2957,NA,385346,386091,Sternberg Task,24,19233,24,yes,1024
96,96,814.24,814.24,black,experiment,legacy,legacy,legacy,0,uniform,0,undefined,0,left,24,24,0,24,24,0,0,24,0,24,0,0,24,24,24,10/27/19 18:52,The main experiment item,yes,SternbergTask.osexp,E:\Classwork\AQMAED,no,mono,no,18,no,white,no,yes,768,legacy,12,11,E:/Classwork/AQMAED/Stenberg/MA-subject-2.csv,legacy,6 1 2,Kafkaesque Koffka,3.2.8,3,y,0,right,left,left,NA,right,1123,152975,81019,NA,1123,2,legacy,3,1024,2,48000,-16,experiment,2,even,2,386095,387193,314335,387194,389404,2962,233315,388199,155937,391410,NA,2957,NA,391410,392534,Sternberg Task,24,20356,25,yes,1024
96.15384615,96.15384615,819.8076923,819.8076923,black,experiment,legacy,legacy,legacy,0,uniform,1,undefined,1,right,25,25,0,25,25,0,0,25,0,25,0,0,25,25,25,10/27/19 18:52,The main experiment item,yes,SternbergTask.osexp,E:\Classwork\AQMAED,no,mono,no,18,no,white,no,yes,768,legacy,13,11,E:/Classwork/AQMAED/Stenberg/MA-subject-2.csv,legacy,6 9 5,Kafkaesque Koffka,3.2.8,0,n,0,right,left,left,NA,right,959,152975,81019,NA,959,2,legacy,3,1024,2,48000,-16,experiment,2,even,8,386095,393648,314335,393650,395860,2962,233315,394655,155937,397864,NA,2957,392540,397865,398824,Sternberg Task,25,21315,26,yes,1024
96.2962963,96.2962963,817.5185185,817.5185185,black,experiment,legacy,legacy,legacy,0,uniform,1,undefined,1,right,26,26,0,26,26,0,0,26,0,26,0,0,26,26,26,10/27/19 18:52,The main experiment item,yes,SternbergTask.osexp,E:\Classwork\AQMAED,no,mono,no,18,no,white,no,yes,768,legacy,14,11,E:/Classwork/AQMAED/Stenberg/MA-subject-2.csv,legacy,6 8 4,Kafkaesque Koffka,3.2.8,0,n,0,right,left,left,NA,right,758,152975,81019,NA,758,2,legacy,3,1024,2,48000,-16,experiment,2,even,1,398829,399923,314335,399925,402134,2962,233315,400930,155937,404140,NA,2957,392540,404140,404899,Sternberg Task,26,22073,27,yes,1024
96.42857143,96.42857143,821.25,821.25,black,experiment,legacy,legacy,legacy,0,uniform,1,undefined,1,left,27,27,0,27,27,0,0,27,0,27,0,0,27,27,27,10/27/19 18:52,The main experiment item,yes,SternbergTask.osexp,E:\Classwork\AQMAED,no,mono,no,18,no,white,no,yes,768,legacy,15,11,E:/Classwork/AQMAED/Stenberg/MA-subject-2.csv,legacy,7 1 3,Kafkaesque Koffka,3.2.8,2,y,0,left,left,left,NA,left,922,152975,81019,NA,922,2,legacy,3,1024,2,48000,-16,experiment,2,even,1,404904,405987,314335,405989,408198,2962,233315,406993,155937,410203,NA,2957,392540,410203,411125,Sternberg Task,27,22995,28,yes,1024
96.55172414,96.55172414,824.4137931,824.4137931,black,experiment,legacy,legacy,legacy,0,uniform,1,undefined,1,left,28,28,0,28,28,0,0,28,0,28,0,0,28,28,28,10/27/19 18:52,The main experiment item,yes,SternbergTask.osexp,E:\Classwork\AQMAED,no,mono,no,18,no,white,no,yes,768,legacy,16,11,E:/Classwork/AQMAED/Stenberg/MA-subject-2.csv,legacy,8 5 3 7 4 6,Kafkaesque Koffka,3.2.8,6,y,0,left,left,left,NA,left,913,152975,81019,NA,913,2,legacy,6,1024,2,48000,-16,experiment,2,even,6,411136,412243,314335,412244,414453,2962,233315,413248,155937,416458,NA,2957,392540,416458,417372,Sternberg Task,28,23908,29,yes,1024
96.66666667,96.66666667,821.8333333,821.8333333,black,experiment,legacy,legacy,legacy,0,uniform,1,undefined,1,right,29,29,0,29,29,0,0,29,0,29,0,0,29,29,29,10/27/19 18:52,The main experiment item,yes,SternbergTask.osexp,E:\Classwork\AQMAED,no,mono,no,18,no,white,no,yes,768,legacy,17,11,E:/Classwork/AQMAED/Stenberg/MA-subject-2.csv,legacy,2 6 4 3 9,Kafkaesque Koffka,3.2.8,0,n,0,right,left,left,NA,right,747,152975,81019,NA,747,2,legacy,5,1024,2,48000,-16,experiment,2,even,1,417379,418482,314335,418483,420691,2962,233315,419488,155937,422696,NA,2957,392540,422696,423443,Sternberg Task,29,24655,30,yes,1024
96.77419355,96.77419355,819.8709677,819.8709677,black,experiment,legacy,legacy,legacy,0,uniform,1,undefined,1,right,30,30,0,30,30,0,0,30,0,30,0,0,30,30,30,10/27/19 18:52,The main experiment item,yes,SternbergTask.osexp,E:\Classwork\AQMAED,no,mono,no,18,no,white,no,yes,768,legacy,18,11,E:/Classwork/AQMAED/Stenberg/MA-subject-2.csv,legacy,1 3 2 6 9,Kafkaesque Koffka,3.2.8,0,n,0,right,left,left,NA,right,761,152975,81019,NA,761,2,legacy,5,1024,2,48000,-16,experiment,2,even,5,423452,424548,314335,424550,426760,2962,233315,425554,155937,428766,NA,2957,392540,428766,429527,Sternberg Task,30,25416,31,yes,1024
96.875,96.875,819.03125,819.03125,black,experiment,legacy,legacy,legacy,0,uniform,1,undefined,1,right,31,31,0,31,31,0,0,31,0,31,0,0,31,31,31,10/27/19 18:52,The main experiment item,yes,SternbergTask.osexp,E:\Classwork\AQMAED,no,mono,no,18,no,white,no,yes,768,legacy,19,11,E:/Classwork/AQMAED/Stenberg/MA-subject-2.csv,legacy,9,Kafkaesque Koffka,3.2.8,0,n,0,right,left,left,NA,right,793,152975,81019,NA,793,2,legacy,1,1024,2,48000,-16,experiment,2,even,6,429544,430645,314335,430647,432856,2962,233315,431651,155937,434861,NA,2957,392540,434862,435656,Sternberg Task,31,26209,32,yes,1024
96.96969697,96.96969697,817.2727273,817.2727273,black,experiment,legacy,legacy,legacy,0,uniform,1,undefined,1,right,32,32,0,32,32,0,0,32,0,32,0,0,32,32,32,10/27/19 18:52,The main experiment item,yes,SternbergTask.osexp,E:\Classwork\AQMAED,no,mono,no,18,no,white,no,yes,768,legacy,20,11,E:/Classwork/AQMAED/Stenberg/MA-subject-2.csv,legacy,1 6 4,Kafkaesque Koffka,3.2.8,0,n,0,right,left,left,NA,right,761,152975,81019,NA,761,2,legacy,3,1024,2,48000,-16,experiment,2,even,7,435661,436760,314335,436763,438973,2962,233315,437768,155937,440979,NA,2957,392540,440979,441740,Sternberg Task,32,26970,33,yes,1024
97.05882353,97.05882353,817.3823529,817.3823529,black,experiment,legacy,legacy,legacy,0,uniform,1,undefined,1,right,33,33,0,33,33,0,0,33,0,33,0,0,33,33,33,10/27/19 18:52,The main experiment item,yes,SternbergTask.osexp,E:\Classwork\AQMAED,no,mono,no,18,no,white,no,yes,768,legacy,21,11,E:/Classwork/AQMAED/Stenberg/MA-subject-2.csv,legacy,2 8 6 3 1,Kafkaesque Koffka,3.2.8,0,n,0,right,left,left,NA,right,821,152975,81019,NA,821,2,legacy,5,1024,2,48000,-16,experiment,2,even,7,441745,442845,314335,442847,445057,2962,233315,443851,155937,447063,NA,2957,392540,447064,447885,Sternberg Task,33,27791,34,yes,1024
97.14285714,97.14285714,816.3428571,816.3428571,black,experiment,legacy,legacy,legacy,0,uniform,1,undefined,1,right,34,34,0,34,34,0,0,34,0,34,0,0,34,34,34,10/27/19 18:52,The main experiment item,yes,SternbergTask.osexp,E:\Classwork\AQMAED,no,mono,no,18,no,white,no,yes,768,legacy,22,11,E:/Classwork/AQMAED/Stenberg/MA-subject-2.csv,legacy,4 8 1 2,Kafkaesque Koffka,3.2.8,0,n,0,right,left,left,NA,right,781,152975,81019,NA,781,2,legacy,4,1024,2,48000,-16,experiment,2,even,7,447891,448992,314335,448994,451204,2962,233315,449998,155937,453209,NA,2957,392540,453209,453991,Sternberg Task,34,28572,35,yes,1024
94.44444444,94.44444444,826.6111111,826.6111111,black,experiment,legacy,legacy,legacy,0,uniform,0,undefined,0,right,35,35,0,35,35,0,0,35,0,35,0,0,35,35,35,10/27/19 18:52,The main experiment item,yes,SternbergTask.osexp,E:\Classwork\AQMAED,no,mono,no,18,no,white,no,yes,768,legacy,23,11,E:/Classwork/AQMAED/Stenberg/MA-subject-2.csv,legacy,6 9 4 5 3 2,Kafkaesque Koffka,3.2.8,0,n,0,left,left,left,NA,left,1186,152975,81019,NA,1186,2,legacy,6,1024,2,48000,-16,experiment,2,even,8,453997,455095,314335,455097,457307,2962,233315,456102,155937,459312,NA,2957,392540,459312,460499,Sternberg Task,34,29758,36,yes,1024
94.59459459,94.59459459,832.3513514,832.3513514,black,experiment,legacy,legacy,legacy,0,uniform,1,undefined,1,left,36,36,0,36,36,0,0,36,0,36,0,0,36,36,36,10/27/19 18:52,The main experiment item,yes,SternbergTask.osexp,E:\Classwork\AQMAED,no,mono,no,18,no,white,no,yes,768,legacy,24,11,E:/Classwork/AQMAED/Stenberg/MA-subject-2.csv,legacy,5 7 8 2 3 8,Kafkaesque Koffka,3.2.8,5,y,0,left,left,left,NA,left,1039,152975,81019,NA,1039,2,legacy,6,1024,2,48000,-16,experiment,2,even,3,453997,461601,314335,461603,463813,2962,233315,462608,155937,465818,NA,2957,460504,465818,466858,Sternberg Task,35,30797,37,yes,1024
94.73684211,94.73684211,833.5526316,833.5526316,black,experiment,legacy,legacy,legacy,0,uniform,1,undefined,1,left,37,37,0,37,37,0,0,37,0,37,0,0,37,37,37,10/27/19 18:52,The main experiment item,yes,SternbergTask.osexp,E:\Classwork\AQMAED,no,mono,no,18,no,white,no,yes,768,legacy,25,11,E:/Classwork/AQMAED/Stenberg/MA-subject-2.csv,legacy,4 6 2 5 1,Kafkaesque Koffka,3.2.8,5,y,0,left,left,left,NA,left,878,152975,81019,NA,878,2,legacy,5,1024,2,48000,-16,experiment,2,even,1,466863,467979,314335,467981,470191,2962,233315,468986,155937,472195,NA,2957,460504,472195,473074,Sternberg Task,36,31675,38,yes,1024
94.87179487,94.87179487,831.2564103,831.2564103,black,experiment,legacy,legacy,legacy,0,uniform,1,undefined,1,right,38,38,0,38,38,0,0,38,0,38,0,0,38,38,38,10/27/19 18:52,The main experiment item,yes,SternbergTask.osexp,E:\Classwork\AQMAED,no,mono,no,18,no,white,no,yes,768,legacy,26,11,E:/Classwork/AQMAED/Stenberg/MA-subject-2.csv,legacy,2 8 7 9 5 3,Kafkaesque Koffka,3.2.8,0,n,0,right,left,left,NA,right,744,152975,81019,NA,744,2,legacy,6,1024,2,48000,-16,experiment,2,even,6,473078,474178,314335,474180,476390,2962,233315,475184,155937,478395,NA,2957,460504,478395,479139,Sternberg Task,37,32419,39,yes,1024
95,95,832.85,832.85,black,experiment,legacy,legacy,legacy,0,uniform,1,undefined,1,left,39,39,0,39,39,0,0,39,0,39,0,0,39,39,39,10/27/19 18:52,The main experiment item,yes,SternbergTask.osexp,E:\Classwork\AQMAED,no,mono,no,18,no,white,no,yes,768,legacy,27,11,E:/Classwork/AQMAED/Stenberg/MA-subject-2.csv,legacy,9 5 3 8 4,Kafkaesque Koffka,3.2.8,1,y,0,left,left,left,NA,left,895,152975,81019,NA,895,2,legacy,5,1024,2,48000,-16,experiment,2,even,9,479144,480254,314335,480256,482463,2962,233315,481261,155937,484468,NA,2957,460504,484469,485365,Sternberg Task,38,33314,40,yes,1024
95.12195122,95.12195122,830.9512195,830.9512195,black,experiment,legacy,legacy,legacy,0,uniform,1,undefined,1,right,40,40,0,40,40,0,0,40,0,40,0,0,40,40,40,10/27/19 18:52,The main experiment item,yes,SternbergTask.osexp,E:\Classwork\AQMAED,no,mono,no,18,no,white,no,yes,768,legacy,28,11,E:/Classwork/AQMAED/Stenberg/MA-subject-2.csv,legacy,6 8,Kafkaesque Koffka,3.2.8,0,n,0,right,left,left,NA,right,755,152975,81019,NA,755,2,legacy,2,1024,2,48000,-16,experiment,2,even,9,485379,486473,314335,486475,488685,2962,233315,487481,155937,490691,NA,2957,460504,490691,491447,Sternberg Task,39,34069,41,yes,1024
95.23809524,95.23809524,827.6190476,827.6190476,black,experiment,legacy,legacy,legacy,0,uniform,1,undefined,1,right,41,41,0,41,41,0,0,41,0,41,0,0,41,41,41,10/27/19 18:52,The main experiment item,yes,SternbergTask.osexp,E:\Classwork\AQMAED,no,mono,no,18,no,white,no,yes,768,legacy,29,11,E:/Classwork/AQMAED/Stenberg/MA-subject-2.csv,legacy,9 8 2 7 4,Kafkaesque Koffka,3.2.8,0,n,0,right,left,left,NA,right,691,152975,81019,NA,691,2,legacy,5,1024,2,48000,-16,experiment,2,even,5,491455,492543,314335,492545,494755,2962,233315,493549,155937,496761,NA,2957,460504,496761,497453,Sternberg Task,40,34760,42,yes,1024
95.34883721,95.34883721,832.0232558,832.0232558,black,experiment,legacy,legacy,legacy,0,uniform,1,undefined,1,right,42,42,0,42,42,0,0,42,0,42,0,0,42,42,42,10/27/19 18:52,The main experiment item,yes,SternbergTask.osexp,E:\Classwork\AQMAED,no,mono,no,18,no,white,no,yes,768,legacy,30,11,E:/Classwork/AQMAED/Stenberg/MA-subject-2.csv,legacy,3 4 9 6 7 8,Kafkaesque Koffka,3.2.8,0,n,0,right,left,left,NA,right,1017,152975,81019,NA,1017,2,legacy,6,1024,2,48000,-16,experiment,2,even,2,497458,498552,314335,498554,500764,2962,233315,499559,155937,502769,NA,2957,460504,502769,503787,Sternberg Task,41,35777,43,yes,1024
95.45454545,95.45454545,839.8181818,839.8181818,black,experiment,legacy,legacy,legacy,0,uniform,1,undefined,1,right,43,43,0,43,43,0,0,43,0,43,0,0,43,43,43,10/27/19 18:52,The main experiment item,yes,SternbergTask.osexp,E:\Classwork\AQMAED,no,mono,no,18,no,white,no,yes,768,legacy,31,11,E:/Classwork/AQMAED/Stenberg/MA-subject-2.csv,legacy,1 4 9 2 5,Kafkaesque Koffka,3.2.8,0,n,0,right,left,left,NA,right,1175,152975,81019,NA,1175,2,legacy,5,1024,2,48000,-16,experiment,2,even,7,503792,504892,314335,504893,507103,2962,233315,505897,155937,509108,NA,2957,460504,509108,510283,Sternberg Task,42,36952,44,yes,1024
95.55555556,95.55555556,844.4222222,844.4222222,black,experiment,legacy,legacy,legacy,0,uniform,1,undefined,1,left,44,44,0,44,44,0,0,44,0,44,0,0,44,44,44,10/27/19 18:52,The main experiment item,yes,SternbergTask.osexp,E:\Classwork\AQMAED,no,mono,no,18,no,white,no,yes,768,legacy,32,11,E:/Classwork/AQMAED/Stenberg/MA-subject-2.csv,legacy,8 1 6,Kafkaesque Koffka,3.2.8,3,y,0,left,left,left,NA,left,1047,152975,81019,NA,1047,2,legacy,3,1024,2,48000,-16,experiment,2,even,6,510288,511390,314335,511392,513601,2962,233315,512397,155937,515603,NA,2957,460504,515603,516651,Sternberg Task,43,37999,45,yes,1024
95.65217391,95.65217391,855.173913,855.173913,black,experiment,legacy,legacy,legacy,0,uniform,1,undefined,1,right,45,45,0,45,45,0,0,45,0,45,0,0,45,45,45,10/27/19 18:52,The main experiment item,yes,SternbergTask.osexp,E:\Classwork\AQMAED,no,mono,no,18,no,white,no,yes,768,legacy,33,11,E:/Classwork/AQMAED/Stenberg/MA-subject-2.csv,legacy,1 5 3 2 8,Kafkaesque Koffka,3.2.8,0,n,0,right,left,left,NA,right,1339,152975,81019,NA,1339,2,legacy,5,1024,2,48000,-16,experiment,2,even,4,516657,517752,314335,517754,519963,2962,233315,518758,155937,521967,NA,2957,460504,521968,523307,Sternberg Task,44,39338,46,yes,1024
93.61702128,93.61702128,879.5319149,879.5319149,black,experiment,legacy,legacy,legacy,0,uniform,0,undefined,0,left,46,46,0,46,46,0,0,46,0,46,0,0,46,46,46,10/27/19 18:52,The main experiment item,yes,SternbergTask.osexp,E:\Classwork\AQMAED,no,mono,no,18,no,white,no,yes,768,legacy,34,11,E:/Classwork/AQMAED/Stenberg/MA-subject-2.csv,legacy,9 5 8 1,Kafkaesque Koffka,3.2.8,2,y,0,None,left,left,NA,None,2000,152975,81019,NA,2000,2,legacy,4,1024,2,48000,-16,experiment,2,even,5,523312,524407,314335,524409,526619,2962,233315,525414,155937,528624,NA,2957,460504,528624,530624,Sternberg Task,44,41338,47,yes,1024
91.66666667,91.66666667,881.5,881.5,black,experiment,legacy,legacy,legacy,0,uniform,0,undefined,0,left,47,47,0,47,47,0,0,47,0,47,0,0,47,47,47,10/27/19 18:52,The main experiment item,yes,SternbergTask.osexp,E:\Classwork\AQMAED,no,mono,no,18,no,white,no,yes,768,legacy,35,11,E:/Classwork/AQMAED/Stenberg/MA-subject-2.csv,legacy,2 3,Kafkaesque Koffka,3.2.8,1,y,0,right,left,left,NA,right,974,152975,81019,NA,974,2,legacy,2,1024,2,48000,-16,experiment,2,even,2,523312,531724,314335,531726,533935,2962,233315,532730,155937,535940,NA,2957,530629,535940,536915,Sternberg Task,44,42312,48,yes,1024
91.83673469,91.83673469,880.3673469,880.3673469,black,experiment,legacy,legacy,legacy,0,uniform,1,undefined,1,right,48,48,0,48,48,0,0,48,0,48,0,0,48,48,48,10/27/19 18:52,The main experiment item,yes,SternbergTask.osexp,E:\Classwork\AQMAED,no,mono,no,18,no,white,no,yes,768,legacy,36,11,E:/Classwork/AQMAED/Stenberg/MA-subject-2.csv,legacy,7 1 8 4 9 3,Kafkaesque Koffka,3.2.8,0,n,0,right,left,left,NA,right,826,152975,81019,NA,826,2,legacy,6,1024,2,48000,-16,experiment,2,even,6,523312,538025,314335,538027,540235,2962,233315,539030,155937,542239,NA,2957,536921,542239,543066,Sternberg Task,45,43138,49,yes,1024
92,92,880.34,880.34,black,experiment,legacy,legacy,legacy,0,uniform,1,undefined,1,left,49,49,0,49,49,0,0,49,0,49,0,0,49,49,49,10/27/19 18:52,The main experiment item,yes,SternbergTask.osexp,E:\Classwork\AQMAED,no,mono,no,18,no,white,no,yes,768,legacy,37,11,E:/Classwork/AQMAED/Stenberg/MA-subject-2.csv,legacy,4 7 6 8 2 3,Kafkaesque Koffka,3.2.8,6,y,0,left,left,left,NA,left,879,152975,81019,NA,879,2,legacy,6,1024,2,48000,-16,experiment,2,even,3,543079,544183,314335,544184,546395,2962,233315,545189,155937,548400,NA,2957,536921,548401,549281,Sternberg Task,46,44017,50,yes,1024
92.15686275,92.15686275,881.5882353,881.5882353,black,experiment,legacy,legacy,legacy,0,uniform,1,undefined,1,left,50,50,0,50,50,0,0,50,0,50,0,0,50,50,50,10/27/19 18:52,The main experiment item,yes,SternbergTask.osexp,E:\Classwork\AQMAED,no,mono,no,18,no,white,no,yes,768,legacy,38,11,E:/Classwork/AQMAED/Stenberg/MA-subject-2.csv,legacy,2 8 5 1,Kafkaesque Koffka,3.2.8,4,y,0,left,left,left,NA,left,944,152975,81019,NA,944,2,legacy,4,1024,2,48000,-16,experiment,2,even,1,549289,550385,314335,550388,552598,2962,233315,551393,155937,554603,NA,2957,536921,554603,555548,Sternberg Task,47,44961,51,yes,1024
92.30769231,92.30769231,881.5961538,881.5961538,black,experiment,legacy,legacy,legacy,0,uniform,1,undefined,1,right,51,51,0,51,51,0,0,51,0,51,0,0,51,51,51,10/27/19 18:52,The main experiment item,yes,SternbergTask.osexp,E:\Classwork\AQMAED,no,mono,no,18,no,white,no,yes,768,legacy,39,11,E:/Classwork/AQMAED/Stenberg/MA-subject-2.csv,legacy,5 2,Kafkaesque Koffka,3.2.8,0,n,0,right,left,left,NA,right,882,152975,81019,NA,882,2,legacy,2,1024,2,48000,-16,experiment,2,even,7,555552,556635,314335,556637,558845,2962,233315,557642,155937,560850,NA,2957,536921,560850,561732,Sternberg Task,48,45843,52,yes,1024
92.45283019,92.45283019,880.5283019,880.5283019,black,experiment,legacy,legacy,legacy,0,uniform,1,undefined,1,right,52,52,0,52,52,0,0,52,0,52,0,0,52,52,52,10/27/19 18:52,The main experiment item,yes,SternbergTask.osexp,E:\Classwork\AQMAED,no,mono,no,18,no,white,no,yes,768,legacy,40,11,E:/Classwork/AQMAED/Stenberg/MA-subject-2.csv,legacy,5 9 2 3,Kafkaesque Koffka,3.2.8,0,n,0,right,left,left,NA,right,825,152975,81019,NA,825,2,legacy,4,1024,2,48000,-16,experiment,2,even,8,561737,562830,314335,562832,565042,2962,233315,563837,155937,567047,NA,2957,536921,567048,567873,Sternberg Task,49,46668,53,yes,1024
92.59259259,92.59259259,879.2037037,879.2037037,black,experiment,legacy,legacy,legacy,0,uniform,1,undefined,1,left,53,53,0,53,53,0,0,53,0,53,0,0,53,53,53,10/27/19 18:52,The main experiment item,yes,SternbergTask.osexp,E:\Classwork\AQMAED,no,mono,no,18,no,white,no,yes,768,legacy,41,11,E:/Classwork/AQMAED/Stenberg/MA-subject-2.csv,legacy,7,Kafkaesque Koffka,3.2.8,1,y,0,left,left,left,NA,left,809,152975,81019,NA,809,2,legacy,1,1024,2,48000,-16,experiment,2,even,7,567879,568964,314335,568966,571174,2962,233315,569969,155937,573180,NA,2957,536921,573180,573990,Sternberg Task,50,47477,54,yes,1024
92.72727273,92.72727273,880.0363636,880.0363636,black,experiment,legacy,legacy,legacy,0,uniform,1,undefined,1,left,54,54,0,54,54,0,0,54,0,54,0,0,54,54,54,10/27/19 18:52,The main experiment item,yes,SternbergTask.osexp,E:\Classwork\AQMAED,no,mono,no,18,no,white,no,yes,768,legacy,42,11,E:/Classwork/AQMAED/Stenberg/MA-subject-2.csv,legacy,6 7 8 5,Kafkaesque Koffka,3.2.8,3,y,0,left,left,left,NA,left,925,152975,81019,NA,925,2,legacy,4,1024,2,48000,-16,experiment,2,even,8,573995,575107,314335,575109,577319,2962,233315,576114,155937,579324,NA,2957,536921,579324,580250,Sternberg Task,51,48402,55,yes,1024
91.07142857,91.07142857,880.2857143,880.2857143,black,experiment,legacy,legacy,legacy,0,uniform,0,undefined,0,left,55,55,0,55,55,0,0,55,0,55,0,0,55,55,55,10/27/19 18:52,The main experiment item,yes,SternbergTask.osexp,E:\Classwork\AQMAED,no,mono,no,18,no,white,no,yes,768,legacy,43,11,E:/Classwork/AQMAED/Stenberg/MA-subject-2.csv,legacy,9 3 8 2 1 4,Kafkaesque Koffka,3.2.8,3,y,0,right,left,left,NA,right,894,152975,81019,NA,894,2,legacy,6,1024,2,48000,-16,experiment,2,even,8,580255,581353,314335,581355,583565,2962,233315,582360,155937,585571,NA,2957,536921,585571,586466,Sternberg Task,51,49296,56,yes,1024
91.22807018,91.22807018,878.5263158,878.5263158,black,experiment,legacy,legacy,legacy,0,uniform,1,undefined,1,left,56,56,0,56,56,0,0,56,0,56,0,0,56,56,56,10/27/19 18:52,The main experiment item,yes,SternbergTask.osexp,E:\Classwork\AQMAED,no,mono,no,18,no,white,no,yes,768,legacy,44,11,E:/Classwork/AQMAED/Stenberg/MA-subject-2.csv,legacy,2 5 4 8 7,Kafkaesque Koffka,3.2.8,3,y,0,left,left,left,NA,left,780,152975,81019,NA,780,2,legacy,5,1024,2,48000,-16,experiment,2,even,4,580255,587579,314335,587581,589791,2962,233315,588586,155937,591795,NA,2957,586482,591795,592576,Sternberg Task,52,50076,57,yes,1024
91.37931034,91.37931034,878.3965517,878.3965517,black,experiment,legacy,legacy,legacy,0,uniform,1,undefined,1,left,57,57,0,57,57,0,0,57,0,57,0,0,57,57,57,10/27/19 18:52,The main experiment item,yes,SternbergTask.osexp,E:\Classwork\AQMAED,no,mono,no,18,no,white,no,yes,768,legacy,45,11,E:/Classwork/AQMAED/Stenberg/MA-subject-2.csv,legacy,8 3,Kafkaesque Koffka,3.2.8,2,y,0,left,left,left,NA,left,871,152975,81019,NA,871,2,legacy,2,1024,2,48000,-16,experiment,2,even,3,592581,593680,314335,593682,595892,2962,233315,594687,155937,597894,NA,2957,586482,597895,598767,Sternberg Task,53,50947,58,yes,1024
91.52542373,91.52542373,875.4237288,875.4237288,black,experiment,legacy,legacy,legacy,0,uniform,1,undefined,1,left,58,58,0,58,58,0,0,58,0,58,0,0,58,58,58,10/27/19 18:52,The main experiment item,yes,SternbergTask.osexp,E:\Classwork\AQMAED,no,mono,no,18,no,white,no,yes,768,legacy,46,11,E:/Classwork/AQMAED/Stenberg/MA-subject-2.csv,legacy,7 6,Kafkaesque Koffka,3.2.8,2,y,0,left,left,left,NA,left,703,152975,81019,NA,703,2,legacy,2,1024,2,48000,-16,experiment,2,even,6,598773,599869,314335,599871,602081,2962,233315,600876,155937,604086,NA,2957,586482,604086,604789,Sternberg Task,54,51650,59,yes,1024
91.66666667,91.66666667,881.1666667,881.1666667,black,experiment,legacy,legacy,legacy,0,uniform,1,undefined,1,right,59,59,0,59,59,0,0,59,0,59,0,0,59,59,59,10/27/19 18:52,The main experiment item,yes,SternbergTask.osexp,E:\Classwork\AQMAED,no,mono,no,18,no,white,no,yes,768,legacy,47,11,E:/Classwork/AQMAED/Stenberg/MA-subject-2.csv,legacy,6 2 9 3 8 4,Kafkaesque Koffka,3.2.8,0,n,0,right,left,left,NA,right,1220,152975,81019,NA,1220,2,legacy,6,1024,2,48000,-16,experiment,2,even,1,604794,605894,314335,605896,608105,2962,233315,606900,155937,610109,NA,2957,586482,610110,611331,Sternberg Task,55,52870,60,yes,1024
91.80327869,91.80327869,878.9016393,878.9016393,black,experiment,legacy,legacy,legacy,0,uniform,1,undefined,1,right,60,60,0,60,60,0,0,60,0,60,0,0,60,60,60,10/27/19 18:52,The main experiment item,yes,SternbergTask.osexp,E:\Classwork\AQMAED,no,mono,no,18,no,white,no,yes,768,legacy,48,11,E:/Classwork/AQMAED/Stenberg/MA-subject-2.csv,legacy,7 3 2 8,Kafkaesque Koffka,3.2.8,0,n,0,right,left,left,NA,right,743,152975,81019,NA,743,2,legacy,4,1024,2,48000,-16,experiment,2,even,4,611344,612449,314335,612451,614660,2962,233315,613455,155937,616666,NA,2957,586482,616666,617410,Sternberg Task,56,53613,61,yes,1024
90.32258065,90.32258065,882.4032258,882.4032258,black,experiment,legacy,legacy,legacy,0,uniform,0,undefined,0,left,61,61,0,61,61,0,0,61,0,61,0,0,61,61,61,10/27/19 18:52,The main experiment item,yes,SternbergTask.osexp,E:\Classwork\AQMAED,no,mono,no,18,no,white,no,yes,768,legacy,49,11,E:/Classwork/AQMAED/Stenberg/MA-subject-2.csv,legacy,3 5 9 6 2 4,Kafkaesque Koffka,3.2.8,1,y,0,right,left,left,NA,right,1096,152975,81019,NA,1096,2,legacy,6,1024,2,48000,-16,experiment,2,even,3,617419,618515,314335,618516,620726,2962,233315,619520,155937,622730,NA,2957,586482,622730,623826,Sternberg Task,56,54709,62,yes,1024
88.88888889,88.88888889,882.8571429,882.8571429,black,experiment,legacy,legacy,legacy,0,uniform,0,undefined,0,left,62,62,0,62,62,0,0,62,0,62,0,0,62,62,62,10/27/19 18:52,The main experiment item,yes,SternbergTask.osexp,E:\Classwork\AQMAED,no,mono,no,18,no,white,no,yes,768,legacy,50,11,E:/Classwork/AQMAED/Stenberg/MA-subject-2.csv,legacy,6 5,Kafkaesque Koffka,3.2.8,2,y,0,right,left,left,NA,right,911,152975,81019,NA,911,2,legacy,2,1024,2,48000,-16,experiment,2,even,5,617419,624931,314335,624933,627141,2962,233315,625936,155937,629146,NA,2957,623832,629146,630057,Sternberg Task,56,55620,63,yes,1024
89.0625,89.0625,880.390625,880.390625,black,experiment,legacy,legacy,legacy,0,uniform,1,undefined,1,left,63,63,0,63,63,0,0,63,0,63,0,0,63,63,63,10/27/19 18:52,The main experiment item,yes,SternbergTask.osexp,E:\Classwork\AQMAED,no,mono,no,18,no,white,no,yes,768,legacy,51,11,E:/Classwork/AQMAED/Stenberg/MA-subject-2.csv,legacy,7 8 6 3 1,Kafkaesque Koffka,3.2.8,5,y,0,left,left,left,NA,left,725,152975,81019,NA,725,2,legacy,5,1024,2,48000,-16,experiment,2,even,1,617419,631158,314335,631159,633370,2962,233315,632165,155937,635372,NA,2957,630062,635372,636098,Sternberg Task,57,56345,64,yes,1024
89.23076923,89.23076923,879.4923077,879.4923077,black,experiment,legacy,legacy,legacy,0,uniform,1,undefined,1,right,64,64,0,64,64,0,0,64,0,64,0,0,64,64,64,10/27/19 18:52,The main experiment item,yes,SternbergTask.osexp,E:\Classwork\AQMAED,no,mono,no,18,no,white,no,yes,768,legacy,52,11,E:/Classwork/AQMAED/Stenberg/MA-subject-2.csv,legacy,4 2 6 9,Kafkaesque Koffka,3.2.8,0,n,0,right,left,left,NA,right,822,152975,81019,NA,822,2,legacy,4,1024,2,48000,-16,experiment,2,even,7,636104,637217,314335,637219,639426,2962,233315,638222,155937,641431,NA,2957,630062,641432,642255,Sternberg Task,58,57167,65,yes,1024
89.39393939,89.39393939,879.6969697,879.6969697,black,experiment,legacy,legacy,legacy,0,uniform,1,undefined,1,right,65,65,0,65,65,0,0,65,0,65,0,0,65,65,65,10/27/19 18:52,The main experiment item,yes,SternbergTask.osexp,E:\Classwork\AQMAED,no,mono,no,18,no,white,no,yes,768,legacy,53,11,E:/Classwork/AQMAED/Stenberg/MA-subject-2.csv,legacy,8 5 4 2 9 6,Kafkaesque Koffka,3.2.8,0,n,0,right,left,left,NA,right,893,152975,81019,NA,893,2,legacy,6,1024,2,48000,-16,experiment,2,even,3,642260,643359,314335,643361,645570,2962,233315,644365,155937,647575,NA,2957,630062,647575,648469,Sternberg Task,59,58060,66,yes,1024
89.55223881,89.55223881,883.8059701,883.8059701,black,experiment,legacy,legacy,legacy,0,uniform,1,undefined,1,left,66,66,0,66,66,0,0,66,0,66,0,0,66,66,66,10/27/19 18:52,The main experiment item,yes,SternbergTask.osexp,E:\Classwork\AQMAED,no,mono,no,18,no,white,no,yes,768,legacy,54,11,E:/Classwork/AQMAED/Stenberg/MA-subject-2.csv,legacy,1 4 9 3 2 5,Kafkaesque Koffka,3.2.8,3,y,0,left,left,left,NA,left,1155,152975,81019,NA,1155,2,legacy,6,1024,2,48000,-16,experiment,2,even,9,648474,649578,314335,649580,651790,2962,233315,650584,155937,653795,NA,2957,630062,653795,654951,Sternberg Task,60,59215,67,yes,1024
89.70588235,89.70588235,885.0147059,885.0147059,black,experiment,legacy,legacy,legacy,0,uniform,1,undefined,1,left,67,67,0,67,67,0,0,67,0,67,0,0,67,67,67,10/27/19 18:52,The main experiment item,yes,SternbergTask.osexp,E:\Classwork\AQMAED,no,mono,no,18,no,white,no,yes,768,legacy,55,11,E:/Classwork/AQMAED/Stenberg/MA-subject-2.csv,legacy,9 1 7 2,Kafkaesque Koffka,3.2.8,2,y,0,left,left,left,NA,left,966,152975,81019,NA,966,2,legacy,4,1024,2,48000,-16,experiment,2,even,1,654958,656054,314335,656056,658264,2962,233315,657058,155937,660269,NA,2957,630062,660269,661236,Sternberg Task,61,60181,68,yes,1024
89.85507246,89.85507246,886.057971,886.057971,black,experiment,legacy,legacy,legacy,0,uniform,1,undefined,1,left,68,68,0,68,68,0,0,68,0,68,0,0,68,68,68,10/27/19 18:52,The main experiment item,yes,SternbergTask.osexp,E:\Classwork\AQMAED,no,mono,no,18,no,white,no,yes,768,legacy,56,11,E:/Classwork/AQMAED/Stenberg/MA-subject-2.csv,legacy,5 2 9 6 1 7,Kafkaesque Koffka,3.2.8,3,y,0,left,left,left,NA,left,957,152975,81019,NA,957,2,legacy,6,1024,2,48000,-16,experiment,2,even,9,661250,662356,314335,662358,664568,2962,233315,663363,155937,666573,NA,2957,630062,666573,667531,Sternberg Task,62,61138,69,yes,1024
90,90,887.9428571,887.9428571,black,experiment,legacy,legacy,legacy,0,uniform,1,undefined,1,right,69,69,0,69,69,0,0,69,0,69,0,0,69,69,69,10/27/19 18:52,The main experiment item,yes,SternbergTask.osexp,E:\Classwork\AQMAED,no,mono,no,18,no,white,no,yes,768,legacy,57,11,E:/Classwork/AQMAED/Stenberg/MA-subject-2.csv,legacy,4 2 7 6 1 3,Kafkaesque Koffka,3.2.8,0,n,0,right,left,left,NA,right,1018,152975,81019,NA,1018,2,legacy,6,1024,2,48000,-16,experiment,2,even,8,667540,668650,314335,668651,670861,2962,233315,669656,155937,672867,NA,2957,630062,672867,673886,Sternberg Task,63,62156,70,yes,1024
90.14084507,90.14084507,887.2253521,887.2253521,black,experiment,legacy,legacy,legacy,0,uniform,1,undefined,1,left,70,70,0,70,70,0,0,70,0,70,0,0,70,70,70,10/27/19 18:52,The main experiment item,yes,SternbergTask.osexp,E:\Classwork\AQMAED,no,mono,no,18,no,white,no,yes,768,legacy,58,11,E:/Classwork/AQMAED/Stenberg/MA-subject-2.csv,legacy,8 9 6 1,Kafkaesque Koffka,3.2.8,2,y,0,left,left,left,NA,left,837,152975,81019,NA,837,2,legacy,4,1024,2,48000,-16,experiment,2,even,9,673891,675001,314335,675003,677213,2962,233315,676008,155937,679219,NA,2957,630062,679219,680056,Sternberg Task,64,62993,71,yes,1024
90.27777778,90.27777778,885.4444444,885.4444444,black,experiment,legacy,legacy,legacy,0,uniform,1,undefined,1,right,71,71,0,71,71,0,0,71,0,71,0,0,71,71,71,10/27/19 18:52,The main experiment item,yes,SternbergTask.osexp,E:\Classwork\AQMAED,no,mono,no,18,no,white,no,yes,768,legacy,59,11,E:/Classwork/AQMAED/Stenberg/MA-subject-2.csv,legacy,1 4 9 3,Kafkaesque Koffka,3.2.8,0,n,0,right,left,left,NA,right,759,152975,81019,NA,759,2,legacy,4,1024,2,48000,-16,experiment,2,even,5,680062,681174,314335,681176,683386,2962,233315,682181,155937,685392,NA,2957,630062,685392,686152,Sternberg Task,65,63752,72,yes,1024
90.4109589,90.4109589,881.8219178,881.8219178,black,experiment,legacy,legacy,legacy,0,uniform,1,undefined,1,right,72,72,0,72,72,0,0,72,0,72,0,0,72,72,72,10/27/19 18:52,The main experiment item,yes,SternbergTask.osexp,E:\Classwork\AQMAED,no,mono,no,18,no,white,no,yes,768,legacy,60,11,E:/Classwork/AQMAED/Stenberg/MA-subject-2.csv,legacy,8 4 3 5,Kafkaesque Koffka,3.2.8,0,n,0,right,left,left,NA,right,621,152975,81019,NA,621,2,legacy,4,1024,2,48000,-16,experiment,2,even,6,686157,687244,314335,687245,689455,2962,233315,688249,155937,691461,NA,2957,630062,691461,692083,Sternberg Task,66,64373,73,yes,1024
90.54054054,90.54054054,881.1621622,881.1621622,black,experiment,legacy,legacy,legacy,0,uniform,1,undefined,1,left,73,73,0,73,73,0,0,73,0,73,0,0,73,73,73,10/27/19 18:52,The main experiment item,yes,SternbergTask.osexp,E:\Classwork\AQMAED,no,mono,no,18,no,white,no,yes,768,legacy,61,11,E:/Classwork/AQMAED/Stenberg/MA-subject-2.csv,legacy,8,Kafkaesque Koffka,3.2.8,1,y,0,left,left,left,NA,left,833,152975,81019,NA,833,2,legacy,1,1024,2,48000,-16,experiment,2,even,8,692088,693188,314335,693190,695400,2962,233315,694195,155937,697405,NA,2957,630062,697405,698239,Sternberg Task,67,65206,74,yes,1024
90.66666667,90.66666667,877.8266667,877.8266667,black,experiment,legacy,legacy,legacy,0,uniform,1,undefined,1,right,74,74,0,74,74,0,0,74,0,74,0,0,74,74,74,10/27/19 18:52,The main experiment item,yes,SternbergTask.osexp,E:\Classwork\AQMAED,no,mono,no,18,no,white,no,yes,768,legacy,62,11,E:/Classwork/AQMAED/Stenberg/MA-subject-2.csv,legacy,2 5 1 4,Kafkaesque Koffka,3.2.8,0,n,0,right,left,left,NA,right,631,152975,81019,NA,631,2,legacy,4,1024,2,48000,-16,experiment,2,even,6,698244,699359,314335,699361,701571,2962,233315,700366,155937,703578,NA,2957,630062,703578,704209,Sternberg Task,68,65837,75,yes,1024
90.78947368,90.78947368,878.4605263,878.4605263,black,experiment,legacy,legacy,legacy,0,uniform,1,undefined,1,right,75,75,0,75,75,0,0,75,0,75,0,0,75,75,75,10/27/19 18:52,The main experiment item,yes,SternbergTask.osexp,E:\Classwork\AQMAED,no,mono,no,18,no,white,no,yes,768,legacy,63,11,E:/Classwork/AQMAED/Stenberg/MA-subject-2.csv,legacy,2 3 8 5 6 7,Kafkaesque Koffka,3.2.8,0,n,0,right,left,left,NA,right,926,152975,81019,NA,926,2,legacy,6,1024,2,48000,-16,experiment,2,even,1,704214,705308,314335,705309,707518,2962,233315,706315,155937,709523,NA,2957,630062,709523,710450,Sternberg Task,69,66763,76,yes,1024
89.61038961,89.61038961,893.038961,893.038961,black,experiment,legacy,legacy,legacy,0,uniform,0,undefined,0,left,76,76,0,76,76,0,0,76,0,76,0,0,76,76,76,10/27/19 18:52,The main experiment item,yes,SternbergTask.osexp,E:\Classwork\AQMAED,no,mono,no,18,no,white,no,yes,768,legacy,64,11,E:/Classwork/AQMAED/Stenberg/MA-subject-2.csv,legacy,8 7 3,Kafkaesque Koffka,3.2.8,1,y,0,None,left,left,NA,None,2001,152975,81019,NA,2001,2,legacy,3,1024,2,48000,-16,experiment,2,even,8,710463,711558,314335,711560,713770,2962,233315,712564,155937,715775,NA,2957,630062,715775,717776,Sternberg Task,69,68764,77,yes,1024
89.74358974,89.74358974,894.9871795,894.9871795,black,experiment,legacy,legacy,legacy,0,uniform,1,undefined,1,right,77,77,0,77,77,0,0,77,0,77,0,0,77,77,77,10/27/19 18:52,The main experiment item,yes,SternbergTask.osexp,E:\Classwork\AQMAED,no,mono,no,18,no,white,no,yes,768,legacy,65,11,E:/Classwork/AQMAED/Stenberg/MA-subject-2.csv,legacy,1 4 3 6 5,Kafkaesque Koffka,3.2.8,0,n,0,right,left,left,NA,right,1045,152975,81019,NA,1045,2,legacy,5,1024,2,48000,-16,experiment,2,even,8,710463,718878,314335,718880,721090,2962,233315,719884,155937,723095,NA,2957,717784,723095,724141,Sternberg Task,70,69809,78,yes,1024
89.87341772,89.87341772,894.6582278,894.6582278,black,experiment,legacy,legacy,legacy,0,uniform,1,undefined,1,left,78,78,0,78,78,0,0,78,0,78,0,0,78,78,78,10/27/19 18:52,The main experiment item,yes,SternbergTask.osexp,E:\Classwork\AQMAED,no,mono,no,18,no,white,no,yes,768,legacy,66,11,E:/Classwork/AQMAED/Stenberg/MA-subject-2.csv,legacy,3 9 7 6 4,Kafkaesque Koffka,3.2.8,3,y,0,left,left,left,NA,left,869,152975,81019,NA,869,2,legacy,5,1024,2,48000,-16,experiment,2,even,7,724155,725249,314335,725251,727461,2962,233315,726256,155937,729466,NA,2957,717784,729466,730336,Sternberg Task,71,70678,79,yes,1024
90,90,892.1125,892.1125,black,experiment,legacy,legacy,legacy,0,uniform,1,undefined,1,left,79,79,0,79,79,0,0,79,0,79,0,0,79,79,79,10/27/19 18:52,The main experiment item,yes,SternbergTask.osexp,E:\Classwork\AQMAED,no,mono,no,18,no,white,no,yes,768,legacy,67,11,E:/Classwork/AQMAED/Stenberg/MA-subject-2.csv,legacy,6 2,Kafkaesque Koffka,3.2.8,1,y,0,left,left,left,NA,left,691,152975,81019,NA,691,2,legacy,2,1024,2,48000,-16,experiment,2,even,6,730341,731436,314335,731438,733648,2962,233315,732442,155937,735654,NA,2957,717784,735655,736347,Sternberg Task,72,71369,80,yes,1024
90.12345679,90.12345679,890.4320988,890.4320988,black,experiment,legacy,legacy,legacy,0,uniform,1,undefined,1,left,80,80,0,80,80,0,0,80,0,80,0,0,80,80,80,10/27/19 18:52,The main experiment item,yes,SternbergTask.osexp,E:\Classwork\AQMAED,no,mono,no,18,no,white,no,yes,768,legacy,68,11,E:/Classwork/AQMAED/Stenberg/MA-subject-2.csv,legacy,6 7 9 3 1 2,Kafkaesque Koffka,3.2.8,1,y,0,left,left,left,NA,left,756,152975,81019,NA,756,2,legacy,6,1024,2,48000,-16,experiment,2,even,6,736351,737449,314335,737451,739661,2962,233315,738456,155937,741666,NA,2957,717784,741666,742423,Sternberg Task,73,72125,81,yes,1024
89.02439024,89.02439024,890.0487805,890.0487805,black,experiment,legacy,legacy,legacy,0,uniform,0,undefined,0,right,81,81,0,81,81,0,0,81,0,81,0,0,81,81,81,10/27/19 18:52,The main experiment item,yes,SternbergTask.osexp,E:\Classwork\AQMAED,no,mono,no,18,no,white,no,yes,768,legacy,69,11,E:/Classwork/AQMAED/Stenberg/MA-subject-2.csv,legacy,5 7 3,Kafkaesque Koffka,3.2.8,0,n,0,left,left,left,NA,left,859,152975,81019,NA,859,2,legacy,3,1024,2,48000,-16,experiment,2,even,9,742429,743522,314335,743525,745737,2962,233315,744531,155937,747742,NA,2957,717784,747742,748602,Sternberg Task,73,72984,82,yes,1024
89.15662651,89.15662651,889.1566265,889.1566265,black,experiment,legacy,legacy,legacy,0,uniform,1,undefined,1,left,82,82,0,82,82,0,0,82,0,82,0,0,82,82,82,10/27/19 18:52,The main experiment item,yes,SternbergTask.osexp,E:\Classwork\AQMAED,no,mono,no,18,no,white,no,yes,768,legacy,70,11,E:/Classwork/AQMAED/Stenberg/MA-subject-2.csv,legacy,7 1 8 5 6 2,Kafkaesque Koffka,3.2.8,2,y,0,left,left,left,NA,left,816,152975,81019,NA,816,2,legacy,6,1024,2,48000,-16,experiment,2,even,1,742429,749720,314335,749722,751932,2962,233315,750727,155937,753937,NA,2957,748607,753938,754755,Sternberg Task,74,73800,83,yes,1024
89.28571429,89.28571429,888.1904762,888.1904762,black,experiment,legacy,legacy,legacy,0,uniform,1,undefined,1,left,83,83,0,83,83,0,0,83,0,83,0,0,83,83,83,10/27/19 18:52,The main experiment item,yes,SternbergTask.osexp,E:\Classwork\AQMAED,no,mono,no,18,no,white,no,yes,768,legacy,71,11,E:/Classwork/AQMAED/Stenberg/MA-subject-2.csv,legacy,8 5 1 3 9,Kafkaesque Koffka,3.2.8,4,y,0,left,left,left,NA,left,808,152975,81019,NA,808,2,legacy,5,1024,2,48000,-16,experiment,2,even,3,754760,755859,314335,755861,758068,2962,233315,756865,155937,760070,NA,2957,748607,760070,760879,Sternberg Task,75,74608,84,yes,1024
89.41176471,89.41176471,886.5058824,886.5058824,black,experiment,legacy,legacy,legacy,0,uniform,1,undefined,1,left,84,84,0,84,84,0,0,84,0,84,0,0,84,84,84,10/27/19 18:52,The main experiment item,yes,SternbergTask.osexp,E:\Classwork\AQMAED,no,mono,no,18,no,white,no,yes,768,legacy,72,11,E:/Classwork/AQMAED/Stenberg/MA-subject-2.csv,legacy,9 4 2,Kafkaesque Koffka,3.2.8,1,y,0,left,left,left,NA,left,745,152975,81019,NA,745,2,legacy,3,1024,2,48000,-16,experiment,2,even,9,760884,761981,314335,761983,764193,2962,233315,762988,155937,766199,NA,2957,748607,766199,766945,Sternberg Task,76,75353,85,yes,1024
89.53488372,89.53488372,886.0465116,886.0465116,black,experiment,legacy,legacy,legacy,0,uniform,1,undefined,1,right,85,85,0,85,85,0,0,85,0,85,0,0,85,85,85,10/27/19 18:52,The main experiment item,yes,SternbergTask.osexp,E:\Classwork\AQMAED,no,mono,no,18,no,white,no,yes,768,legacy,73,11,E:/Classwork/AQMAED/Stenberg/MA-subject-2.csv,legacy,6 7 5 9,Kafkaesque Koffka,3.2.8,0,n,0,right,left,left,NA,right,847,152975,81019,NA,847,2,legacy,4,1024,2,48000,-16,experiment,2,even,2,766950,768044,314335,768047,770257,2962,233315,769052,155937,772261,NA,2957,748607,772262,773110,Sternberg Task,77,76200,86,yes,1024
89.65517241,89.65517241,885.2643678,885.2643678,black,experiment,legacy,legacy,legacy,0,uniform,1,undefined,1,right,86,86,0,86,86,0,0,86,0,86,0,0,86,86,86,10/27/19 18:52,The main experiment item,yes,SternbergTask.osexp,E:\Classwork\AQMAED,no,mono,no,18,no,white,no,yes,768,legacy,74,11,E:/Classwork/AQMAED/Stenberg/MA-subject-2.csv,legacy,6 9 7 3 8 2,Kafkaesque Koffka,3.2.8,0,n,0,right,left,left,NA,right,818,152975,81019,NA,818,2,legacy,6,1024,2,48000,-16,experiment,2,even,5,773123,774235,314335,774236,776446,2962,233315,775240,155937,778452,NA,2957,748607,778452,779271,Sternberg Task,78,77018,87,yes,1024
89.77272727,89.77272727,883.2727273,883.2727273,black,experiment,legacy,legacy,legacy,0,uniform,1,undefined,1,right,87,87,0,87,87,0,0,87,0,87,0,0,87,87,87,10/27/19 18:52,The main experiment item,yes,SternbergTask.osexp,E:\Classwork\AQMAED,no,mono,no,18,no,white,no,yes,768,legacy,75,11,E:/Classwork/AQMAED/Stenberg/MA-subject-2.csv,legacy,7 8 6 1,Kafkaesque Koffka,3.2.8,0,n,0,right,left,left,NA,right,710,152975,81019,NA,710,2,legacy,4,1024,2,48000,-16,experiment,2,even,3,779279,780380,314335,780382,782592,2962,233315,781387,155937,784597,NA,2957,748607,784597,785307,Sternberg Task,79,77728,88,yes,1024
89.88764045,89.88764045,884.8314607,884.8314607,black,experiment,legacy,legacy,legacy,0,uniform,1,undefined,1,right,88,88,0,88,88,0,0,88,0,88,0,0,88,88,88,10/27/19 18:52,The main experiment item,yes,SternbergTask.osexp,E:\Classwork\AQMAED,no,mono,no,18,no,white,no,yes,768,legacy,76,11,E:/Classwork/AQMAED/Stenberg/MA-subject-2.csv,legacy,7 9,Kafkaesque Koffka,3.2.8,0,n,0,right,left,left,NA,right,1022,152975,81019,NA,1022,2,legacy,2,1024,2,48000,-16,experiment,2,even,1,785312,786413,314335,786415,788625,2962,233315,787420,155937,790630,NA,2957,748607,790630,791653,Sternberg Task,80,78750,89,yes,1024
88.88888889,88.88888889,886.0111111,886.0111111,black,experiment,legacy,legacy,legacy,0,uniform,0,undefined,0,right,89,89,0,89,89,0,0,89,0,89,0,0,89,89,89,10/27/19 18:52,The main experiment item,yes,SternbergTask.osexp,E:\Classwork\AQMAED,no,mono,no,18,no,white,no,yes,768,legacy,77,11,E:/Classwork/AQMAED/Stenberg/MA-subject-2.csv,legacy,7 6 4 8 1 2,Kafkaesque Koffka,3.2.8,0,n,0,left,left,left,NA,left,991,152975,81019,NA,991,2,legacy,6,1024,2,48000,-16,experiment,2,even,9,791657,792756,314335,792757,794966,2962,233315,793761,155937,796972,NA,2957,748607,796972,797964,Sternberg Task,80,79741,90,yes,1024
89.01098901,89.01098901,884.1098901,884.1098901,black,experiment,legacy,legacy,legacy,0,uniform,1,undefined,1,left,90,90,0,90,90,0,0,90,0,90,0,0,90,90,90,10/27/19 18:52,The main experiment item,yes,SternbergTask.osexp,E:\Classwork\AQMAED,no,mono,no,18,no,white,no,yes,768,legacy,78,11,E:/Classwork/AQMAED/Stenberg/MA-subject-2.csv,legacy,4 6 5 8,Kafkaesque Koffka,3.2.8,1,y,0,left,left,left,NA,left,713,152975,81019,NA,713,2,legacy,4,1024,2,48000,-16,experiment,2,even,4,791657,799066,314335,799067,801277,2962,233315,800072,155937,803279,NA,2957,797969,803279,803993,Sternberg Task,81,80454,91,yes,1024
89.13043478,89.13043478,881.8913043,881.8913043,black,experiment,legacy,legacy,legacy,0,uniform,1,undefined,1,left,91,91,0,91,91,0,0,91,0,91,0,0,91,91,91,10/27/19 18:52,The main experiment item,yes,SternbergTask.osexp,E:\Classwork\AQMAED,no,mono,no,18,no,white,no,yes,768,legacy,79,11,E:/Classwork/AQMAED/Stenberg/MA-subject-2.csv,legacy,2 4 8 5 1 3,Kafkaesque Koffka,3.2.8,1,y,0,left,left,left,NA,left,680,152975,81019,NA,680,2,legacy,6,1024,2,48000,-16,experiment,2,even,2,803998,805113,314335,805115,807325,2962,233315,806120,155937,809330,NA,2957,797969,809331,810012,Sternberg Task,82,81134,92,yes,1024
89.24731183,89.24731183,883.688172,883.688172,black,experiment,legacy,legacy,legacy,0,uniform,1,undefined,1,right,92,92,0,92,92,0,0,92,0,92,0,0,92,92,92,10/27/19 18:52,The main experiment item,yes,SternbergTask.osexp,E:\Classwork\AQMAED,no,mono,no,18,no,white,no,yes,768,legacy,80,11,E:/Classwork/AQMAED/Stenberg/MA-subject-2.csv,legacy,7 1 5 6 3,Kafkaesque Koffka,3.2.8,0,n,0,right,left,left,NA,right,1049,152975,81019,NA,1049,2,legacy,5,1024,2,48000,-16,experiment,2,even,8,810017,811124,314335,811126,813336,2962,233315,812131,155937,815342,NA,2957,797969,815342,816392,Sternberg Task,83,82183,93,yes,1024
88.29787234,88.29787234,884.7659574,884.7659574,black,experiment,legacy,legacy,legacy,0,uniform,0,undefined,0,left,93,93,0,93,93,0,0,93,0,93,0,0,93,93,93,10/27/19 18:52,The main experiment item,yes,SternbergTask.osexp,E:\Classwork\AQMAED,no,mono,no,18,no,white,no,yes,768,legacy,81,11,E:/Classwork/AQMAED/Stenberg/MA-subject-2.csv,legacy,7 2 3,Kafkaesque Koffka,3.2.8,3,y,0,right,left,left,NA,right,985,152975,81019,NA,985,2,legacy,3,1024,2,48000,-16,experiment,2,even,3,816397,817499,314335,817501,819711,2962,233315,818505,155937,821716,NA,2957,797969,821717,822703,Sternberg Task,83,83168,94,yes,1024
88.42105263,88.42105263,882.9052632,882.9052632,black,experiment,legacy,legacy,legacy,0,uniform,1,undefined,1,left,94,94,0,94,94,0,0,94,0,94,0,0,94,94,94,10/27/19 18:52,The main experiment item,yes,SternbergTask.osexp,E:\Classwork\AQMAED,no,mono,no,18,no,white,no,yes,768,legacy,82,11,E:/Classwork/AQMAED/Stenberg/MA-subject-2.csv,legacy,9 3 1 2 5,Kafkaesque Koffka,3.2.8,4,y,0,left,left,left,NA,left,708,152975,81019,NA,708,2,legacy,5,1024,2,48000,-16,experiment,2,even,2,816397,823811,314335,823813,826021,2962,233315,824817,155937,828027,NA,2957,822708,828028,828737,Sternberg Task,84,83876,95,yes,1024
87.5,87.5,885.3854167,885.3854167,black,experiment,legacy,legacy,legacy,0,uniform,0,undefined,0,left,95,95,0,95,95,0,0,95,0,95,0,0,95,95,95,10/27/19 18:52,The main experiment item,yes,SternbergTask.osexp,E:\Classwork\AQMAED,no,mono,no,18,no,white,no,yes,768,legacy,83,11,E:/Classwork/AQMAED/Stenberg/MA-subject-2.csv,legacy,4 3 2 5 8,Kafkaesque Koffka,3.2.8,2,y,0,right,left,left,NA,right,1121,152975,81019,NA,1121,2,legacy,5,1024,2,48000,-16,experiment,2,even,3,828742,829853,314335,829855,832065,2962,233315,830860,155937,834070,NA,2957,822708,834071,835193,Sternberg Task,84,84997,96,yes,1024
87.62886598,87.62886598,884.4123711,884.4123711,black,experiment,legacy,legacy,legacy,0,uniform,1,undefined,1,right,96,96,0,96,96,0,0,96,0,96,0,0,96,96,96,10/27/19 18:52,The main experiment item,yes,SternbergTask.osexp,E:\Classwork\AQMAED,no,mono,no,18,no,white,no,yes,768,legacy,84,11,E:/Classwork/AQMAED/Stenberg/MA-subject-2.csv,legacy,4 1,Kafkaesque Koffka,3.2.8,0,n,0,right,left,left,NA,right,791,152975,81019,NA,791,2,legacy,2,1024,2,48000,-16,experiment,2,even,6,828742,836301,314335,836304,838514,2962,233315,837309,155937,840520,NA,2957,835198,840521,841313,Sternberg Task,85,85788,97,yes,1024
87.75510204,87.75510204,884.5510204,884.5510204,black,experiment,legacy,legacy,legacy,0,uniform,1,undefined,1,left,97,97,0,97,97,0,0,97,0,97,0,0,97,97,97,10/27/19 18:52,The main experiment item,yes,SternbergTask.osexp,E:\Classwork\AQMAED,no,mono,no,18,no,white,no,yes,768,legacy,85,11,E:/Classwork/AQMAED/Stenberg/MA-subject-2.csv,legacy,9 6 2 4 1,Kafkaesque Koffka,3.2.8,4,y,0,left,left,left,NA,left,898,152975,81019,NA,898,2,legacy,5,1024,2,48000,-16,experiment,2,even,4,841318,842419,314335,842421,844630,2962,233315,843425,155937,846635,NA,2957,835198,846636,847535,Sternberg Task,86,86686,98,yes,1024
87.87878788,87.87878788,884.040404,884.040404,black,experiment,legacy,legacy,legacy,0,uniform,1,undefined,1,left,98,98,0,98,98,0,0,98,0,98,0,0,98,98,98,10/27/19 18:52,The main experiment item,yes,SternbergTask.osexp,E:\Classwork\AQMAED,no,mono,no,18,no,white,no,yes,768,legacy,86,11,E:/Classwork/AQMAED/Stenberg/MA-subject-2.csv,legacy,2 4 6 9,Kafkaesque Koffka,3.2.8,3,y,0,left,left,left,NA,left,834,152975,81019,NA,834,2,legacy,4,1024,2,48000,-16,experiment,2,even,6,847541,848650,314335,848653,850863,2962,233315,849658,155937,852869,NA,2957,835198,852869,853704,Sternberg Task,87,87520,99,yes,1024
88,88,883.41,883.41,black,experiment,legacy,legacy,legacy,0,uniform,1,undefined,1,right,99,99,0,99,99,0,0,99,0,99,0,0,99,99,99,10/27/19 18:52,The main experiment item,yes,SternbergTask.osexp,E:\Classwork\AQMAED,no,mono,no,18,no,white,no,yes,768,legacy,87,11,E:/Classwork/AQMAED/Stenberg/MA-subject-2.csv,legacy,3 9 8 1 6 4,Kafkaesque Koffka,3.2.8,0,n,0,right,left,left,NA,right,821,152975,81019,NA,821,2,legacy,6,1024,2,48000,-16,experiment,2,even,7,853719,854821,314335,854823,857033,2962,233315,855827,155937,859038,NA,2957,835198,859038,859860,Sternberg Task,88,88341,100,yes,1024
87.12871287,87.12871287,882.7227723,882.7227723,black,experiment,legacy,legacy,legacy,0,uniform,0,undefined,0,left,100,100,0,100,100,0,0,100,0,100,0,0,100,100,100,10/27/19 18:52,The main experiment item,yes,SternbergTask.osexp,E:\Classwork\AQMAED,no,mono,no,18,no,white,no,yes,768,legacy,88,11,E:/Classwork/AQMAED/Stenberg/MA-subject-2.csv,legacy,7 4 2 6 3 5,Kafkaesque Koffka,3.2.8,6,y,0,right,left,left,NA,right,814,152975,81019,NA,814,2,legacy,6,1024,2,48000,-16,experiment,2,even,5,859866,860971,314335,860973,863183,2962,233315,861978,155937,865188,NA,2957,835198,865189,866004,Sternberg Task,88,89155,101,yes,1024
87.25490196,87.25490196,883.4803922,883.4803922,black,experiment,legacy,legacy,legacy,0,uniform,1,undefined,1,left,101,101,0,101,101,0,0,101,0,101,0,0,101,101,101,10/27/19 18:52,The main experiment item,yes,SternbergTask.osexp,E:\Classwork\AQMAED,no,mono,no,18,no,white,no,yes,768,legacy,89,11,E:/Classwork/AQMAED/Stenberg/MA-subject-2.csv,legacy,8 9 5 7 1 6,Kafkaesque Koffka,3.2.8,4,y,0,left,left,left,NA,left,960,152975,81019,NA,960,2,legacy,6,1024,2,48000,-16,experiment,2,even,7,859866,867117,314335,867119,869327,2962,233315,868124,155937,871330,NA,2957,866011,871330,872291,Sternberg Task,89,90115,102,yes,1024
87.37864078,87.37864078,884.2621359,884.2621359,black,experiment,legacy,legacy,legacy,0,uniform,1,undefined,1,left,102,102,0,102,102,0,0,102,0,102,0,0,102,102,102,10/27/19 18:52,The main experiment item,yes,SternbergTask.osexp,E:\Classwork\AQMAED,no,mono,no,18,no,white,no,yes,768,legacy,90,11,E:/Classwork/AQMAED/Stenberg/MA-subject-2.csv,legacy,2 6 1 7 4,Kafkaesque Koffka,3.2.8,2,y,0,left,left,left,NA,left,964,152975,81019,NA,964,2,legacy,5,1024,2,48000,-16,experiment,2,even,6,872296,873391,314335,873393,875602,2962,233315,874398,155937,877605,NA,2957,866011,877605,878570,Sternberg Task,90,91079,103,yes,1024
87.5,87.5,884.5961538,884.5961538,black,experiment,legacy,legacy,legacy,0,uniform,1,undefined,1,left,103,103,0,103,103,0,0,103,0,103,0,0,103,103,103,10/27/19 18:52,The main experiment item,yes,SternbergTask.osexp,E:\Classwork\AQMAED,no,mono,no,18,no,white,no,yes,768,legacy,91,11,E:/Classwork/AQMAED/Stenberg/MA-subject-2.csv,legacy,4 1 5,Kafkaesque Koffka,3.2.8,2,y,0,left,left,left,NA,left,919,152975,81019,NA,919,2,legacy,3,1024,2,48000,-16,experiment,2,even,1,878586,879695,314335,879697,881905,2962,233315,880702,155937,883911,NA,2957,866011,883911,884831,Sternberg Task,91,91998,104,yes,1024
87.61904762,87.61904762,882.3619048,882.3619048,black,experiment,legacy,legacy,legacy,0,uniform,1,undefined,1,left,104,104,0,104,104,0,0,104,0,104,0,0,104,104,104,10/27/19 18:52,The main experiment item,yes,SternbergTask.osexp,E:\Classwork\AQMAED,no,mono,no,18,no,white,no,yes,768,legacy,92,11,E:/Classwork/AQMAED/Stenberg/MA-subject-2.csv,legacy,4,Kafkaesque Koffka,3.2.8,1,y,0,left,left,left,NA,left,650,152975,81019,NA,650,2,legacy,1,1024,2,48000,-16,experiment,2,even,4,884837,885933,314335,885935,888144,2962,233315,886939,155937,890148,NA,2957,866011,890149,890801,Sternberg Task,92,92648,105,yes,1024
87.73584906,87.73584906,882.6886792,882.6886792,black,experiment,legacy,legacy,legacy,0,uniform,1,undefined,1,right,105,105,0,105,105,0,0,105,0,105,0,0,105,105,105,10/27/19 18:52,The main experiment item,yes,SternbergTask.osexp,E:\Classwork\AQMAED,no,mono,no,18,no,white,no,yes,768,legacy,93,11,E:/Classwork/AQMAED/Stenberg/MA-subject-2.csv,legacy,2 7 5,Kafkaesque Koffka,3.2.8,0,n,0,right,left,left,NA,right,917,152975,81019,NA,917,2,legacy,3,1024,2,48000,-16,experiment,2,even,8,890805,891913,314335,891916,894126,2962,233315,892921,155937,896131,NA,2957,866011,896131,897050,Sternberg Task,93,93565,106,yes,1024
87.85046729,87.85046729,882.635514,882.635514,black,experiment,legacy,legacy,legacy,0,uniform,1,undefined,1,right,106,106,0,106,106,0,0,106,0,106,0,0,106,106,106,10/27/19 18:52,The main experiment item,yes,SternbergTask.osexp,E:\Classwork\AQMAED,no,mono,no,18,no,white,no,yes,768,legacy,94,11,E:/Classwork/AQMAED/Stenberg/MA-subject-2.csv,legacy,7 1,Kafkaesque Koffka,3.2.8,0,n,0,right,left,left,NA,right,877,152975,81019,NA,877,2,legacy,2,1024,2,48000,-16,experiment,2,even,8,897056,898152,314335,898154,900362,2962,233315,899159,155937,902368,NA,2957,866011,902368,903246,Sternberg Task,94,94442,107,yes,1024
87.96296296,87.96296296,883.0555556,883.0555556,black,experiment,legacy,legacy,legacy,0,uniform,1,undefined,1,left,107,107,0,107,107,0,0,107,0,107,0,0,107,107,107,10/27/19 18:52,The main experiment item,yes,SternbergTask.osexp,E:\Classwork\AQMAED,no,mono,no,18,no,white,no,yes,768,legacy,95,11,E:/Classwork/AQMAED/Stenberg/MA-subject-2.csv,legacy,3 2 1 4 7,Kafkaesque Koffka,3.2.8,2,y,0,left,left,left,NA,left,928,152975,81019,NA,928,2,legacy,5,1024,2,48000,-16,experiment,2,even,2,903251,904343,314335,904345,906555,2962,233315,905350,155937,908558,NA,2957,866011,908558,909488,Sternberg Task,95,95370,108,yes,1024
88.0733945,88.0733945,883.706422,883.706422,black,experiment,legacy,legacy,legacy,0,uniform,1,undefined,1,right,108,108,0,108,108,0,0,108,0,108,0,0,108,108,108,10/27/19 18:52,The main experiment item,yes,SternbergTask.osexp,E:\Classwork\AQMAED,no,mono,no,18,no,white,no,yes,768,legacy,96,11,E:/Classwork/AQMAED/Stenberg/MA-subject-2.csv,legacy,7 4 2 8 1 9,Kafkaesque Koffka,3.2.8,0,n,0,right,left,left,NA,right,954,152975,81019,NA,954,2,legacy,6,1024,2,48000,-16,experiment,2,even,5,909493,910596,314335,910598,912808,2962,233315,911603,155937,914814,NA,2957,866011,914815,915770,Sternberg Task,96,96324,109,yes,1024
88.18181818,88.18181818,883.6545455,883.6545455,black,experiment,legacy,legacy,legacy,0,uniform,1,undefined,1,left,109,109,0,109,109,0,0,109,0,109,0,0,109,109,109,10/27/19 18:52,The main experiment item,yes,SternbergTask.osexp,E:\Classwork\AQMAED,no,mono,no,18,no,white,no,yes,768,legacy,97,11,E:/Classwork/AQMAED/Stenberg/MA-subject-2.csv,legacy,8 5 4 7 3 1,Kafkaesque Koffka,3.2.8,2,y,0,left,left,left,NA,left,878,152975,81019,NA,878,2,legacy,6,1024,2,48000,-16,experiment,2,even,5,915775,916871,314335,916873,919081,2962,233315,917876,155937,921087,NA,2957,866011,921088,921968,Sternberg Task,97,97202,110,yes,1024
88.28828829,88.28828829,883.3513514,883.3513514,black,experiment,legacy,legacy,legacy,0,uniform,1,undefined,1,right,110,110,0,110,110,0,0,110,0,110,0,0,110,110,110,10/27/19 18:52,The main experiment item,yes,SternbergTask.osexp,E:\Classwork\AQMAED,no,mono,no,18,no,white,no,yes,768,legacy,98,11,E:/Classwork/AQMAED/Stenberg/MA-subject-2.csv,legacy,1 7 5 2 9,Kafkaesque Koffka,3.2.8,0,n,0,right,left,left,NA,right,850,152975,81019,NA,850,2,legacy,5,1024,2,48000,-16,experiment,2,even,3,921980,923086,314335,923088,925297,2962,233315,924092,155937,927301,NA,2957,866011,927301,928152,Sternberg Task,98,98052,111,yes,1024
87.5,87.5,881.625,881.625,black,experiment,legacy,legacy,legacy,0,uniform,0,undefined,0,right,111,111,0,111,111,0,0,111,0,111,0,0,111,111,111,10/27/19 18:52,The main experiment item,yes,SternbergTask.osexp,E:\Classwork\AQMAED,no,mono,no,18,no,white,no,yes,768,legacy,99,11,E:/Classwork/AQMAED/Stenberg/MA-subject-2.csv,legacy,6 3 1 7 9 8,Kafkaesque Koffka,3.2.8,0,n,0,left,left,left,NA,left,690,152975,81019,NA,690,2,legacy,6,1024,2,48000,-16,experiment,2,even,4,928160,929263,314335,929266,931476,2962,233315,930270,155937,933481,NA,2957,866011,933481,934172,Sternberg Task,98,98742,112,yes,1024
87.61061947,87.61061947,882.8584071,882.8584071,black,experiment,legacy,legacy,legacy,0,uniform,1,undefined,1,left,112,112,0,112,112,0,0,112,0,112,0,0,112,112,112,10/27/19 18:52,The main experiment item,yes,SternbergTask.osexp,E:\Classwork\AQMAED,no,mono,no,18,no,white,no,yes,768,legacy,100,11,E:/Classwork/AQMAED/Stenberg/MA-subject-2.csv,legacy,3 4 9 6 2 9,Kafkaesque Koffka,3.2.8,5,y,0,left,left,left,NA,left,1021,152975,81019,NA,1021,2,legacy,6,1024,2,48000,-16,experiment,2,even,2,928160,935277,314335,935279,937490,2962,233315,936284,155937,939495,NA,2957,934178,939496,940518,Sternberg Task,99,99763,113,yes,1024
87.71929825,87.71929825,886.0438596,886.0438596,black,experiment,legacy,legacy,legacy,0,uniform,1,undefined,1,right,113,113,0,113,113,0,0,113,0,113,0,0,113,113,113,10/27/19 18:52,The main experiment item,yes,SternbergTask.osexp,E:\Classwork\AQMAED,no,mono,no,18,no,white,no,yes,768,legacy,101,11,E:/Classwork/AQMAED/Stenberg/MA-subject-2.csv,legacy,8 2 1 4 5 9,Kafkaesque Koffka,3.2.8,0,n,0,right,left,left,NA,right,1246,152975,81019,NA,1246,2,legacy,6,1024,2,48000,-16,experiment,2,even,7,940523,941619,314335,941622,943830,2962,233315,942625,155937,945835,NA,2957,934178,945835,947083,Sternberg Task,100,101009,114,yes,1024
87.82608696,87.82608696,887.8434783,887.8434783,black,experiment,legacy,legacy,legacy,0,uniform,1,undefined,1,left,114,114,0,114,114,0,0,114,0,114,0,0,114,114,114,10/27/19 18:52,The main experiment item,yes,SternbergTask.osexp,E:\Classwork\AQMAED,no,mono,no,18,no,white,no,yes,768,legacy,102,11,E:/Classwork/AQMAED/Stenberg/MA-subject-2.csv,legacy,4 1 8 7 5,Kafkaesque Koffka,3.2.8,3,y,0,left,left,left,NA,left,1093,152975,81019,NA,1093,2,legacy,5,1024,2,48000,-16,experiment,2,even,8,947089,948183,314335,948185,950395,2962,233315,949190,155937,952400,NA,2957,934178,952400,953495,Sternberg Task,101,102102,115,yes,1024
87.93103448,87.93103448,888.1465517,888.1465517,black,experiment,legacy,legacy,legacy,0,uniform,1,undefined,1,left,115,115,0,115,115,0,0,115,0,115,0,0,115,115,115,10/27/19 18:52,The main experiment item,yes,SternbergTask.osexp,E:\Classwork\AQMAED,no,mono,no,18,no,white,no,yes,768,legacy,103,11,E:/Classwork/AQMAED/Stenberg/MA-subject-2.csv,legacy,2 3 7 4,Kafkaesque Koffka,3.2.8,1,y,0,left,left,left,NA,left,923,152975,81019,NA,923,2,legacy,4,1024,2,48000,-16,experiment,2,even,2,953500,954610,314335,954612,956819,2962,233315,955617,155937,958825,NA,2957,934178,958826,959750,Sternberg Task,102,103025,116,yes,1024
87.17948718,87.17948718,891.9230769,891.9230769,black,experiment,legacy,legacy,legacy,0,uniform,0,undefined,0,right,116,116,0,116,116,0,0,116,0,116,0,0,116,116,116,10/27/19 18:52,The main experiment item,yes,SternbergTask.osexp,E:\Classwork\AQMAED,no,mono,no,18,no,white,no,yes,768,legacy,104,11,E:/Classwork/AQMAED/Stenberg/MA-subject-2.csv,legacy,8 5 7 3 6,Kafkaesque Koffka,3.2.8,0,n,0,left,left,left,NA,left,1330,152975,81019,NA,1330,2,legacy,5,1024,2,48000,-16,experiment,2,even,9,959755,960859,314335,960861,963071,2962,233315,961866,155937,965076,NA,2957,934178,965076,966408,Sternberg Task,102,104355,117,yes,1024
87.28813559,87.28813559,891.8389831,891.8389831,black,experiment,legacy,legacy,legacy,0,uniform,1,undefined,1,right,117,117,0,117,117,0,0,117,0,117,0,0,117,117,117,10/27/19 18:52,The main experiment item,yes,SternbergTask.osexp,E:\Classwork\AQMAED,no,mono,no,18,no,white,no,yes,768,legacy,105,11,E:/Classwork/AQMAED/Stenberg/MA-subject-2.csv,legacy,1 7 8 3 9,Kafkaesque Koffka,3.2.8,0,n,0,right,left,left,NA,right,882,152975,81019,NA,882,2,legacy,5,1024,2,48000,-16,experiment,2,even,2,959755,967511,314335,967514,969724,2962,233315,968518,155937,971729,NA,2957,966413,971730,972613,Sternberg Task,103,105237,118,yes,1024
87.39495798,87.39495798,890.5714286,890.5714286,black,experiment,legacy,legacy,legacy,0,uniform,1,undefined,1,right,118,118,0,118,118,0,0,118,0,118,0,0,118,118,118,10/27/19 18:52,The main experiment item,yes,SternbergTask.osexp,E:\Classwork\AQMAED,no,mono,no,18,no,white,no,yes,768,legacy,106,11,E:/Classwork/AQMAED/Stenberg/MA-subject-2.csv,legacy,8 4 3 9,Kafkaesque Koffka,3.2.8,0,n,0,right,left,left,NA,right,741,152975,81019,NA,741,2,legacy,4,1024,2,48000,-16,experiment,2,even,5,972618,973731,314335,973733,975941,2962,233315,974738,155937,977946,NA,2957,966413,977946,978688,Sternberg Task,104,105978,119,yes,1024
86.66666667,86.66666667,892.9333333,892.9333333,black,experiment,legacy,legacy,legacy,0,uniform,0,undefined,0,left,119,119,0,119,119,0,0,119,0,119,0,0,119,119,119,10/27/19 18:52,The main experiment item,yes,SternbergTask.osexp,E:\Classwork\AQMAED,no,mono,no,18,no,white,no,yes,768,legacy,107,11,E:/Classwork/AQMAED/Stenberg/MA-subject-2.csv,legacy,3 5 7 1,Kafkaesque Koffka,3.2.8,3,y,0,right,left,left,NA,right,1174,152975,81019,NA,1174,2,legacy,4,1024,2,48000,-16,experiment,2,even,7,978693,979802,314335,979804,982012,2962,233315,980807,155937,984017,NA,2957,966413,984018,985194,Sternberg Task,104,107152,120,yes,1024
86.7768595,86.7768595,893.6859504,893.6859504,black,experiment,legacy,legacy,legacy,0,uniform,1,undefined,1,left,120,120,0,120,120,0,0,120,0,120,0,0,120,120,120,10/27/19 18:52,The main experiment item,yes,SternbergTask.osexp,E:\Classwork\AQMAED,no,mono,no,18,no,white,no,yes,768,legacy,108,11,E:/Classwork/AQMAED/Stenberg/MA-subject-2.csv,legacy,6 8 9 3 4 9,Kafkaesque Koffka,3.2.8,5,y,0,left,left,left,NA,left,984,152975,81019,NA,984,2,legacy,6,1024,2,48000,-16,experiment,2,even,4,978693,986289,314335,986291,988502,2962,233315,987296,155937,990507,NA,2957,985199,990508,991493,Sternberg Task,105,108136,121,yes,1024
86.8852459,86.8852459,894.1065574,894.1065574,black,experiment,legacy,legacy,legacy,0,uniform,1,undefined,1,left,121,121,0,121,121,0,0,121,0,121,0,0,121,121,121,10/27/19 18:52,The main experiment item,yes,SternbergTask.osexp,E:\Classwork\AQMAED,no,mono,no,18,no,white,no,yes,768,legacy,109,11,E:/Classwork/AQMAED/Stenberg/MA-subject-2.csv,legacy,5 7 3 6 2,Kafkaesque Koffka,3.2.8,5,y,0,left,left,left,NA,left,945,152975,81019,NA,945,2,legacy,5,1024,2,48000,-16,experiment,2,even,2,991508,992623,314335,992625,994835,2962,233315,993630,155937,996840,NA,2957,985199,996841,997787,Sternberg Task,106,109081,122,yes,1024
86.99186992,86.99186992,900.5447154,900.5447154,black,experiment,legacy,legacy,legacy,0,uniform,1,undefined,1,right,122,122,0,122,122,0,0,122,0,122,0,0,122,122,122,10/27/19 18:52,The main experiment item,yes,SternbergTask.osexp,E:\Classwork\AQMAED,no,mono,no,18,no,white,no,yes,768,legacy,110,11,E:/Classwork/AQMAED/Stenberg/MA-subject-2.csv,legacy,5 3 2 6 9 8,Kafkaesque Koffka,3.2.8,0,n,0,right,left,left,NA,right,1686,152975,81019,NA,1686,2,legacy,6,1024,2,48000,-16,experiment,2,even,4,997794,998890,314335,998892,1001102,2962,233315,999897,155937,1003106,NA,2957,985199,1003107,1004794,Sternberg Task,107,110767,123,yes,1024
87.09677419,87.09677419,906.6532258,906.6532258,black,experiment,legacy,legacy,legacy,0,uniform,1,undefined,1,right,123,123,0,123,123,0,0,123,0,123,0,0,123,123,123,10/27/19 18:52,The main experiment item,yes,SternbergTask.osexp,E:\Classwork\AQMAED,no,mono,no,18,no,white,no,yes,768,legacy,111,11,E:/Classwork/AQMAED/Stenberg/MA-subject-2.csv,legacy,9 7 4 5 8,Kafkaesque Koffka,3.2.8,0,n,0,right,left,left,NA,right,1658,152975,81019,NA,1658,2,legacy,5,1024,2,48000,-16,experiment,2,even,6,1004800,1005893,314335,1005895,1008104,2962,233315,1006900,155937,1010108,NA,2957,985199,1010109,1011769,Sternberg Task,108,112425,124,yes,1024
87.2,87.2,906.816,906.816,black,experiment,legacy,legacy,legacy,0,uniform,1,undefined,1,left,124,124,0,124,124,0,0,124,0,124,0,0,124,124,124,10/27/19 18:52,The main experiment item,yes,SternbergTask.osexp,E:\Classwork\AQMAED,no,mono,no,18,no,white,no,yes,768,legacy,112,11,E:/Classwork/AQMAED/Stenberg/MA-subject-2.csv,legacy,5 2 6,Kafkaesque Koffka,3.2.8,2,y,0,left,left,left,NA,left,927,152975,81019,NA,927,2,legacy,3,1024,2,48000,-16,experiment,2,even,2,1011774,1012888,314335,1012890,1015100,2962,233315,1013895,155937,1017105,NA,2957,985199,1017105,1018033,Sternberg Task,109,113352,125,yes,1024
87.3015873,87.3015873,905.5873016,905.5873016,black,experiment,legacy,legacy,legacy,0,uniform,1,undefined,1,right,125,125,0,125,125,0,0,125,0,125,0,0,125,125,125,10/27/19 18:52,The main experiment item,yes,SternbergTask.osexp,E:\Classwork\AQMAED,no,mono,no,18,no,white,no,yes,768,legacy,113,11,E:/Classwork/AQMAED/Stenberg/MA-subject-2.csv,legacy,9 5 3 2 8 6,Kafkaesque Koffka,3.2.8,0,n,0,right,left,left,NA,right,752,152975,81019,NA,752,2,legacy,6,1024,2,48000,-16,experiment,2,even,7,1018038,1019138,314335,1019140,1021350,2962,233315,1020145,155937,1023354,NA,2957,985199,1023355,1024108,Sternberg Task,110,114104,126,yes,1024
87.4015748,87.4015748,905.3228346,905.3228346,black,experiment,legacy,legacy,legacy,0,uniform,1,undefined,1,right,126,126,0,126,126,0,0,126,0,126,0,0,126,126,126,10/27/19 18:52,The main experiment item,yes,SternbergTask.osexp,E:\Classwork\AQMAED,no,mono,no,18,no,white,no,yes,768,legacy,114,11,E:/Classwork/AQMAED/Stenberg/MA-subject-2.csv,legacy,6 9 4 5 2,Kafkaesque Koffka,3.2.8,0,n,0,right,left,left,NA,right,872,152975,81019,NA,872,2,legacy,5,1024,2,48000,-16,experiment,2,even,1,1024113,1025213,314335,1025215,1027423,2962,233315,1026218,155937,1029429,NA,2957,985199,1029429,1030303,Sternberg Task,111,114976,127,yes,1024
87.5,87.5,912.4140625,912.4140625,black,experiment,legacy,legacy,legacy,0,uniform,1,undefined,1,right,127,127,0,127,127,0,0,127,0,127,0,0,127,127,127,10/27/19 18:52,The main experiment item,yes,SternbergTask.osexp,E:\Classwork\AQMAED,no,mono,no,18,no,white,no,yes,768,legacy,115,11,E:/Classwork/AQMAED/Stenberg/MA-subject-2.csv,legacy,1 8 7,Kafkaesque Koffka,3.2.8,0,n,0,right,left,left,NA,right,1813,152975,81019,NA,1813,2,legacy,3,1024,2,48000,-16,experiment,2,even,4,1030308,1031407,314335,1031409,1033619,2962,233315,1032413,155937,1035625,NA,2957,985199,1035626,1037441,Sternberg Task,112,116789,128,yes,1024
87.59689922,87.59689922,911.6976744,911.6976744,black,experiment,legacy,legacy,legacy,0,uniform,1,undefined,1,left,128,128,0,128,128,0,0,128,0,128,0,0,128,128,128,10/27/19 18:52,The main experiment item,yes,SternbergTask.osexp,E:\Classwork\AQMAED,no,mono,no,18,no,white,no,yes,768,legacy,116,11,E:/Classwork/AQMAED/Stenberg/MA-subject-2.csv,legacy,3 4,Kafkaesque Koffka,3.2.8,1,y,0,left,left,left,NA,left,820,152975,81019,NA,820,2,legacy,2,1024,2,48000,-16,experiment,2,even,3,1037455,1038563,314335,1038565,1040776,2962,233315,1039571,155937,1042779,NA,2957,985199,1042780,1043601,Sternberg Task,113,117609,129,yes,1024
86.92307692,86.92307692,913.5538462,913.5538462,black,experiment,legacy,legacy,legacy,0,uniform,0,undefined,0,right,129,129,0,129,129,0,0,129,0,129,0,0,129,129,129,10/27/19 18:52,The main experiment item,yes,SternbergTask.osexp,E:\Classwork\AQMAED,no,mono,no,18,no,white,no,yes,768,legacy,117,11,E:/Classwork/AQMAED/Stenberg/MA-subject-2.csv,legacy,1 6 4 3 9 7,Kafkaesque Koffka,3.2.8,0,n,0,left,left,left,NA,left,1153,152975,81019,NA,1153,2,legacy,6,1024,2,48000,-16,experiment,2,even,8,1043607,1044694,314335,1044696,1046906,2962,233315,1045701,155937,1048911,NA,2957,985199,1048912,1050066,Sternberg Task,113,118762,130,yes,1024
87.02290076,87.02290076,911.9770992,911.9770992,black,experiment,legacy,legacy,legacy,0,uniform,1,undefined,1,right,130,130,0,130,130,0,0,130,0,130,0,0,130,130,130,10/27/19 18:52,The main experiment item,yes,SternbergTask.osexp,E:\Classwork\AQMAED,no,mono,no,18,no,white,no,yes,768,legacy,118,11,E:/Classwork/AQMAED/Stenberg/MA-subject-2.csv,legacy,1,Kafkaesque Koffka,3.2.8,0,n,0,right,left,left,NA,right,707,152975,81019,NA,707,2,legacy,1,1024,2,48000,-16,experiment,2,even,7,1043607,1051170,314335,1051172,1053382,2962,233315,1052177,155937,1055387,NA,2957,1050071,1055387,1056096,Sternberg Task,114,119469,131,yes,1024
87.12121212,87.12121212,915.2424242,915.2424242,black,experiment,legacy,legacy,legacy,0,uniform,1,undefined,1,left,131,131,0,131,131,0,0,131,0,131,0,0,131,131,131,10/27/19 18:52,The main experiment item,yes,SternbergTask.osexp,E:\Classwork\AQMAED,no,mono,no,18,no,white,no,yes,768,legacy,119,11,E:/Classwork/AQMAED/Stenberg/MA-subject-2.csv,legacy,6 9 3 1,Kafkaesque Koffka,3.2.8,4,y,0,left,left,left,NA,left,1343,152975,81019,NA,1343,2,legacy,4,1024,2,48000,-16,experiment,2,even,1,1056101,1057204,314335,1057206,1059415,2962,233315,1058210,155937,1061420,NA,2957,1050071,1061420,1062764,Sternberg Task,115,120812,132,yes,1024
86.46616541,86.46616541,916,916,black,experiment,legacy,legacy,legacy,0,uniform,0,undefined,0,left,132,132,0,132,132,0,0,132,0,132,0,0,132,132,132,10/27/19 18:52,The main experiment item,yes,SternbergTask.osexp,E:\Classwork\AQMAED,no,mono,no,18,no,white,no,yes,768,legacy,120,11,E:/Classwork/AQMAED/Stenberg/MA-subject-2.csv,legacy,3 9 6 2,Kafkaesque Koffka,3.2.8,4,y,0,right,left,left,NA,right,1016,152975,81019,NA,1016,2,legacy,4,1024,2,48000,-16,experiment,2,even,2,1062769,1063870,314335,1063872,1066081,2962,233315,1064877,155937,1068087,NA,2957,1050071,1068087,1069104,Sternberg Task,115,121828,133,yes,1024
86.56716418,86.56716418,919.0671642,919.0671642,black,experiment,legacy,legacy,legacy,0,uniform,1,undefined,1,right,133,133,0,133,133,0,0,133,0,133,0,0,133,133,133,10/27/19 18:52,The main experiment item,yes,SternbergTask.osexp,E:\Classwork\AQMAED,no,mono,no,18,no,white,no,yes,768,legacy,121,11,E:/Classwork/AQMAED/Stenberg/MA-subject-2.csv,legacy,5 3 8 7 2 4,Kafkaesque Koffka,3.2.8,0,n,0,right,left,left,NA,right,1327,152975,81019,NA,1327,2,legacy,6,1024,2,48000,-16,experiment,2,even,9,1062769,1070208,314335,1070211,1072421,2962,233315,1071216,155937,1074426,NA,2957,1069117,1074427,1075755,Sternberg Task,116,123155,134,yes,1024
85.92592593,85.92592593,922.3407407,922.3407407,black,experiment,legacy,legacy,legacy,0,uniform,0,undefined,0,left,134,134,0,134,134,0,0,134,0,134,0,0,134,134,134,10/27/19 18:52,The main experiment item,yes,SternbergTask.osexp,E:\Classwork\AQMAED,no,mono,no,18,no,white,no,yes,768,legacy,122,11,E:/Classwork/AQMAED/Stenberg/MA-subject-2.csv,legacy,4 9 7 8 5 3,Kafkaesque Koffka,3.2.8,4,y,0,right,left,left,NA,right,1361,152975,81019,NA,1361,2,legacy,6,1024,2,48000,-16,experiment,2,even,8,1075763,1076857,314335,1076859,1079068,2962,233315,1077864,155937,1081072,NA,2957,1069117,1081074,1082437,Sternberg Task,116,124516,135,yes,1024
86.02941176,86.02941176,926.9411765,926.9411765,black,experiment,legacy,legacy,legacy,0,uniform,1,undefined,1,left,135,135,0,135,135,0,0,135,0,135,0,0,135,135,135,10/27/19 18:52,The main experiment item,yes,SternbergTask.osexp,E:\Classwork\AQMAED,no,mono,no,18,no,white,no,yes,768,legacy,123,11,E:/Classwork/AQMAED/Stenberg/MA-subject-2.csv,legacy,6 9 7 4 5 1,Kafkaesque Koffka,3.2.8,2,y,0,left,left,left,NA,left,1548,152975,81019,NA,1548,2,legacy,6,1024,2,48000,-16,experiment,2,even,9,1075763,1083540,314335,1083543,1085753,2962,233315,1084548,155937,1087757,NA,2957,1082442,1087758,1089307,Sternberg Task,117,126064,136,yes,1024
86.13138686,86.13138686,927.5912409,927.5912409,black,experiment,legacy,legacy,legacy,0,uniform,1,undefined,1,right,136,136,0,136,136,0,0,136,0,136,0,0,136,136,136,10/27/19 18:52,The main experiment item,yes,SternbergTask.osexp,E:\Classwork\AQMAED,no,mono,no,18,no,white,no,yes,768,legacy,124,11,E:/Classwork/AQMAED/Stenberg/MA-subject-2.csv,legacy,1 7 5 2,Kafkaesque Koffka,3.2.8,0,n,0,right,left,left,NA,right,1016,152975,81019,NA,1016,2,legacy,4,1024,2,48000,-16,experiment,2,even,3,1089314,1090422,314335,1090424,1092632,2962,233315,1091429,155937,1094637,NA,2957,1082442,1094639,1095656,Sternberg Task,118,127080,137,yes,1024
86.23188406,86.23188406,926.6449275,926.6449275,black,experiment,legacy,legacy,legacy,0,uniform,1,undefined,1,right,137,137,0,137,137,0,0,137,0,137,0,0,137,137,137,10/27/19 18:52,The main experiment item,yes,SternbergTask.osexp,E:\Classwork\AQMAED,no,mono,no,18,no,white,no,yes,768,legacy,125,11,E:/Classwork/AQMAED/Stenberg/MA-subject-2.csv,legacy,3 4 2,Kafkaesque Koffka,3.2.8,0,n,0,right,left,left,NA,right,797,152975,81019,NA,797,2,legacy,3,1024,2,48000,-16,experiment,2,even,5,1095661,1096774,314335,1096776,1098986,2962,233315,1097780,155937,1100991,NA,2957,1082442,1100993,1101791,Sternberg Task,119,127877,138,yes,1024